time,TotalAcceleration_z,TotalAcceleration_y,TotalAcceleration_x,Location_bearingAccuracy,Location_speedAccuracy,Location_verticalAccuracy,Location_horizontalAccuracy,Location_speed,Location_bearing,Location_altitude,Location_longitude,Location_latitude,Orientation_qz,Orientation_qy,Orientation_qx,Orientation_qw,Orientation_roll,Orientation_pitch,Orientation_yaw,Magnetometer_z,Magnetometer_y,Magnetometer_x,GyroscopeUncalibrated_z,GyroscopeUncalibrated_y,GyroscopeUncalibrated_x,MagnetometerUncalibrated_z,MagnetometerUncalibrated_y,MagnetometerUncalibrated_x,Accelerometer_z,Accelerometer_y,Accelerometer_x,AccelerometerUncalibrated_z,AccelerometerUncalibrated_y,AccelerometerUncalibrated_x,Gyroscope_z,Gyroscope_y,Gyroscope_x,Gravity_z,Gravity_y,Gravity_x
3.1,-0.33619156479835516,-8.98074197769165,0.2427518606185913,0.0,0.0,0.9895429348945618,12.599519786834717,0.1078939750790596,128.71341339111325,39.93576654550709,-122.75315734200001,49.190402338,0.6670051045490034,-0.7011116323145954,-0.16393071971833703,0.186106108524131,-0.8334033904653607,1.4883535684961262,0.19199250232089649,-12.08165979385376,47.160318756103514,4.567679917812347,-1.8168965339660645,0.8089383110404015,-0.29678888842463497,-280.3718536376953,140.05111999511718,-138.2333190917969,-0.7404406226494096,-0.12335599191261054,0.18659274855797942,-0.3200400173664093,-8.99031343460083,0.30556344836950305,-1.759546438852946,0.80280418942372,-0.2578869511683782,-0.3628568422105728,-9.76725825396451,0.4178520901213315
3.2,-2.3170499056577682,-11.370094935099283,1.1989038437604904,0.0,0.0,0.9894667458534241,12.601439781188965,0.11137442588806151,132.86545898437498,39.99177883258567,-122.75315742400001,49.190402236,0.6550676425298055,-0.7046970427036285,-0.16452273353934285,0.21537213648358977,-2.2423504988352456,1.4640129407246907,-0.354373037815094,-11.084919834136963,47.708099365234375,0.9088999703526497,0.15513432522614798,-0.1371647045016289,-0.036830083156625434,-279.37510986328124,140.5988967895508,-141.89209899902343,-0.8680257363752886,-0.5484668558294122,-0.09742314707149159,-2.3008983383576074,-11.379666169484457,1.2617154369751613,0.415032019217809,-0.29341894884904224,-0.0025961756085355844,-0.4677627484003703,-9.745882987976074,0.863068682141602
3.3,-0.9293124948938688,-9.371988455454508,0.2723829771081607,0.0,0.0,0.9893905568122864,12.603359775543213,0.11485487669706343,137.0175045776367,40.04779111966425,-122.75315750600001,49.190402134,0.6585699220498403,-0.6988925288120906,-0.18226126022636888,0.20926955652733642,-2.4959625403086343,1.4951188365618386,-0.08402949253407621,-10.735999870300294,47.3555191040039,5.863319849967956,1.0453940480947495,0.5144249033182859,0.011453721672296536,-279.0261932373047,140.2463180541992,-136.93767700195312,-0.8563602151292744,-0.03473608421556873,0.20038600345001079,-0.9131609362860521,-9.381559689839682,0.33519457280635834,1.086210024356842,0.5988006502389908,-0.016004670597612836,-0.43062337984641397,-9.773192882537842,0.5139923640526831
3.4,-1.2386346546312172,-9.344770034154255,0.25124637914511067,0.0,0.0,0.9893143677711487,12.60527976989746,0.11833532750606536,141.16955017089842,40.10380340674282,-122.75315758800001,49.190402032,0.6620722015698751,-0.6930880149205526,-0.1999997869133949,0.20316697657108304,-2.749574581782023,1.5262247323989868,0.1863140527469416,-10.99494481086731,47.32593402862548,5.902664864063263,0.23733386769890785,0.14842753135599196,0.04970279502837609,-279.28513641357426,140.2167324066162,-136.89833183288573,-0.8446946938832601,0.4789946873982747,0.4981951539715131,-1.2224831115454435,-9.354341348012289,0.3140579704195261,0.28276188119004164,0.2292080877930857,0.03929517851211131,-0.3934840112924576,-9.80050277709961,0.16491604596376416
3.5,-1.5479568143685658,-9.317551612854004,0.23010978118206063,0.0,0.0,0.989238178730011,12.607199764251709,0.12181577831506728,145.32159576416012,40.15981569382139,-122.75315767000001,49.19040193,0.6608703190630133,-0.7017159787091342,-0.15199593522331928,0.21549724584276023,-1.9610347097570247,1.461869781667536,-0.653744440864433,-11.253889751434325,47.29634895324707,5.9420098781585695,-0.5707263126969337,-0.21756984060630202,0.08795186838445564,-279.54407958984376,140.1871467590332,-136.85898666381837,-0.6142524095873038,-0.03415723641713461,-0.3509669577081998,-1.531805286804835,-9.327123006184896,0.29292136803269386,-0.5206862619767586,-0.14038447465281936,0.09459502762183546,-0.32227669249881397,-9.744895241477273,0.9975668056444689
3.6,-0.31501509845256803,-10.524351882934571,0.9791430234909058,0.0,0.0,0.9891619896888734,12.609119758605956,0.1252962291240692,149.47364135742185,40.21582798089997,-122.753157752,49.190401828,0.67800362182386,-0.6927500430381659,-0.11147918260063633,0.2118771581374334,-1.6305882704980446,1.417845500238014,-1.0478273041997894,-12.406179714202882,47.429938888549806,-0.14029999971389776,-0.421069410443306,-0.8322122693061829,0.4198171466588974,-280.6963745117188,140.32073516845702,-142.94129791259766,-0.7700360631288001,0.03256052009987108,-0.37358485850872414,-0.29886354357004163,-10.533923149108887,1.0419546246528626,-0.49289190024137497,-0.7895687899241844,0.42791110711793107,0.10543990629428829,-9.681683789600026,1.415702346147913
3.7,-0.6027919054031372,-9.418349266052246,1.2448659837245941,0.0,0.0,0.9890858006477357,12.611039752960204,0.12877667993307113,153.6256869506836,40.27184026797854,-122.753157834,49.190401726,0.6951369245847067,-0.6837841073671976,-0.07096242997795339,0.20825707043210662,-1.3001418312390645,1.373821218808492,-1.441910167535146,-15.87097988128662,46.3514591217041,-2.6095799684524534,-0.3135774992406368,-0.364050234357516,0.7948120335737864,-284.1611755371094,139.24225616455078,-145.41057434082032,-0.9258197166702964,0.09927827661687677,-0.3962027593092485,-0.5866403430700302,-9.427920659383139,1.307677576939265,-0.25681793193022406,-0.47163886825243634,0.7693338692188263,0.5331565050873905,-9.618472337722778,1.833837886651357
3.8,-0.416949341694514,-9.704291661580404,1.2251251935958862,0.0,0.0,0.989009611606598,12.612959747314454,0.13225713074207304,157.7777325439453,40.32785255505711,-122.753157916,49.190401624,0.7038025458653768,-0.6829858124256134,-0.03858057141769675,0.18568812869489187,-1.27982696890831,1.359043021996816,-1.5411799550056458,-18.354899406433105,45.31201934814453,-4.26633996963501,-0.14373150312652186,-0.8622617423534393,0.4216242829958598,-286.6450988769531,138.20281829833985,-147.0673400878906,-1.0529077757488596,0.01868930729952724,-0.1241955341714801,-0.4007977892955144,-9.713862737019856,1.2879367868105571,-0.1460578800644725,-0.866573429107666,0.41392229199409486,0.6067821338074282,-9.588496088981628,1.965830852588018
3.9,-0.33907384475495556,-9.676511403286096,1.611185371875763,0.0,0.0,0.9889334225654602,12.614879741668702,0.13573758155107496,161.929778137207,40.38386484213569,-122.753157998,49.190401522,0.712468167146047,-0.6821875174840292,-0.006198712857440117,0.16311918695767716,-1.2595121065775554,1.34426482518514,-1.6404497424761455,-17.71500961780548,45.245224189758304,-6.002094900608062,-0.07703728134264094,-0.9552740833976052,0.0765953314293063,-286.0052062988281,138.13602218627932,-148.80309295654297,-1.179995834827423,-0.061899662017822286,0.14781169096628824,-0.32292228918804816,-9.686082522074381,1.6739969696059371,-0.08224918705576173,-0.9348770779247084,0.07401523314571629,0.6804077625274658,-9.558519840240479,2.0978238185246787
4.0,-0.26119834781539714,-9.648731144991787,1.9972455501556396,0.0,0.0,0.9888572335243225,12.61679973602295,0.1392180323600769,166.08182373046873,40.43987712921426,-122.75315808,49.19040142,0.6948043649846857,-0.7066547924822028,0.022014765852046245,0.13053993474353442,-1.5711944970217617,1.352887294509194,-1.4158385666933926,-17.075119829177858,45.17842903137207,-7.737849831581116,-0.010343059558760036,-1.0482864244417711,-0.2684336201372472,-285.3653137207031,138.06922607421876,-150.53884582519532,-0.03799784804383912,-0.11389994621276855,-0.11199291547139484,-0.2450467890805819,-9.658302307128906,2.0600571524013174,-0.018440494047050955,-1.003180726741751,-0.2658918257026623,0.003947562538087367,-9.577382694591176,2.112421057441018
4.1,-0.07607182891418535,-9.828519026438395,1.677667756875356,0.0,0.0,0.9887810444831848,12.618719730377197,0.14269848316907882,170.23386932373046,40.49588941629283,-122.753158162,49.190401318,0.6958756096886866,-0.7057287372422941,0.02441444980275151,0.1281202486575101,-1.5618329729997749,1.353607893893213,-1.43207225068049,-14.565579700469971,45.91713905334473,-8.115439701080323,0.1338049412394563,0.9293551196654638,-0.06106106626490754,-282.85577392578125,138.8079376220703,-150.91643829345702,-0.5108698749293884,-8.445436304266307e-05,-0.15240458647410074,-0.05992027558386326,-9.838090260823568,1.7404793699582417,0.14352788155277565,0.9355401347080866,-0.008348486308629307,0.022687421529553817,-9.578637307340449,2.110358845103871
4.2,-1.3708879748980205,-9.38963524500529,1.7922241687774658,0.0,0.0,0.9887048554420471,12.620639724731445,0.14617893397808074,174.38591491699216,40.551901703371406,-122.753158244,49.190401216,0.6969468543926874,-0.7048026820023855,0.02681413375345677,0.1257005625714858,-1.5524714489777882,1.354328493277232,-1.4483059346675873,-15.575739669799805,45.83417892456055,-7.2114198207855225,-0.026369016927977416,-0.5610033671061198,0.21494820931305483,-283.8659332275391,138.7249771118164,-150.01241912841797,-0.9837419018149376,0.11373103748668321,-0.19281625747680664,-1.3547364274660747,-9.399206956227621,1.8550357818603516,-0.049683705593148886,-0.6790021766598026,0.23650665829579032,0.041427280521020265,-9.579891920089722,2.1082966327667236
4.3,-0.5789633716146151,-9.690831979115805,1.5611173709233601,0.0,0.0,0.9886286664009094,12.622559719085693,0.14965938478708266,178.53796051025387,40.60791399044998,-122.753158326,49.190401114000004,0.6958509410421053,-0.7070023169120153,0.056438738271632816,0.10442310230185584,-1.6052238096793492,1.3421420753002167,-1.4680396566788354,-15.152399730682372,45.24613952636719,-9.849059772491454,-0.2665154213706652,-1.1977540254592896,0.08855000603944063,-283.4425933837891,138.1369400024414,-152.65005645751953,-0.2317724165817101,-0.1013869589025324,-0.5913050174713135,-0.5628118229409059,-9.700403213500977,1.623928964138031,-0.27855454981327055,-1.2063366651535035,0.09621127620339394,-0.07903961973109593,-9.553051908810932,2.2206979990005493
4.4,-0.4477342752118905,-9.765902309706718,1.3796616539810642,0.0,0.0,0.9885524773597717,12.624479713439941,0.15313983559608457,182.6900061035156,40.66392627752856,-122.753158408,49.190401012,0.6947550276915232,-0.7092019518216451,0.08606334278980887,0.08314564203222588,-1.6579761703809102,1.3299556573232014,-1.4877733786900837,-14.994714736938477,45.08235445022583,-10.998299717903137,-0.16117702885248666,-0.7586599238724872,0.15300207621079276,-283.28490829467773,137.9731533050537,-153.79929580688474,0.5201970686515173,-0.316504955291748,-0.9897937774658203,-0.43158272648173757,-9.775473507967863,1.4424732571298424,-0.16967418406857177,-0.7968317069035644,0.1484084392587344,-0.19950651998321212,-9.526211897532145,2.333099365234375
4.5,-0.31650517880916595,-9.840972640297629,1.1982059370387683,0.0,0.0,0.988476288318634,12.626399707794189,0.1566202864050865,186.84205169677733,40.71993856460713,-122.75315849,49.19040091,0.7059289325367321,-0.6968318223953247,0.10656603899869048,0.06520220298658713,-1.5475360805338079,1.326868718320673,-1.6530201435089111,-14.83702974319458,44.91856937408447,-12.14753966331482,-0.05583863633430814,-0.3195658222856847,0.21745414638214486,-283.1272232055664,137.80936660766602,-154.94853515625,-0.48634198183814686,-0.18220170338948563,-0.7284900546073914,-0.30035363002256915,-9.850543802434748,1.261017550121654,-0.060793818323872956,-0.38732674865362543,0.20060560231407484,0.05914076173212377,-9.518768657337535,2.3712863488630815
4.6,-0.08953144898017247,-9.695517857869467,1.5920246640841167,0.0,0.0,0.9884000992774964,12.628319702148438,0.16010073721408843,190.99409729003904,40.77595085168571,-122.753158572,49.190400808,0.7102419664010857,-0.6908815329273541,0.12178206680850545,0.05134668256946355,-1.5108835128220646,1.3231526391975807,-1.7311749011278152,-15.353699684143066,44.41531982421875,-13.73353977203369,-0.0225511086173355,-0.8381580412387848,0.08226318455611666,-283.643896484375,137.30611572265624,-156.53453521728517,-0.6196756417665518,-0.188428344148578,-0.6556844738396732,-0.07337989782293637,-9.705089410146078,1.6548362771670024,-0.02069306047633285,-0.7802530750632286,0.06864598245980837,0.14952165286134306,-9.509753559574936,2.3999350648937803
4.7,-0.3298107211788495,-9.744770208994547,1.4034901857376099,0.0,0.0,0.9883239102363587,12.630239696502686,0.16358118802309035,195.14614288330074,40.83196313876428,-122.753158654,49.190400706,0.7145550002654394,-0.6849312434593836,0.13699809461832044,0.03749116215233997,-1.474230945110321,1.3194365600744884,-1.8093296587467194,-15.541579627990723,44.11641883850098,-14.399659729003906,-0.07617998619874312,-0.0028507045159737524,0.3232495288054148,-283.83177490234374,137.00721740722656,-157.2006591796875,-0.7530093016949567,-0.19465498490767041,-0.582878893071955,-0.3136591712633769,-9.75434144337972,1.4663017789522808,-0.0802676938474178,0.028832840919494625,0.33386840522289274,0.23990254399056232,-9.500738461812338,2.428583780924479
4.8,-0.6268198192119598,-9.768299579620361,1.9380866289138794,0.0,0.0,0.988247721195221,12.632159690856934,0.16706163883209227,199.29818847656247,40.88797542584285,-122.753158736,49.190400604000004,0.717135267953078,-0.6813785081108411,0.1428143240511417,0.029279166568691492,-1.4470220863819123,1.3211983015139896,-1.8565791636705398,-16.554179763793947,43.68575897216797,-14.801039695739746,0.0419206270792832,-0.3359758878747621,0.14156802029659346,-284.84437561035156,136.5765579223633,-157.60203399658204,-0.8314575440052784,0.022564230543194397,-0.26581953240163403,-0.610668271780014,-9.777870972951254,2.000898241996765,0.02983058678607145,-0.3428481196363767,0.1654172212195893,0.30259713230965035,-9.505010000864665,2.4054490407307942
4.9,-0.27172585288909346,-9.634256211194124,2.0960627685893662,0.0,0.0,0.9881715321540833,12.634079685211182,0.17054208964109419,203.4502340698242,40.94398771292143,-122.753158818,49.190400502,0.7197155356407166,-0.6778257727622986,0.14863055348396298,0.02106717098504302,-1.4198132276535034,1.3229600429534911,-1.9038286685943604,-16.220204710960388,43.68362388610839,-15.077674651145935,0.0006351602355469735,-0.3138667283805482,0.09963350758577384,-284.510400390625,136.574422454834,-157.8786708831787,-0.9099057863156,0.23978344599405924,0.05123982826868693,-0.2555743057958105,-9.643827575625796,2.158874381672252,-0.004091523878742009,-0.3003229897779723,0.12134583612593511,0.3652917206287384,-9.509281539916993,2.3823143005371095
5.0,0.08336811343377287,-9.500212842767889,2.2540389082648535,0.0,0.0,0.9880953431129456,12.63599967956543,0.1740225404500961,207.6022796630859,41.0,-122.7531589,49.1904004,0.7196100304524103,-0.6747354020675024,0.16310088212291396,0.013119616080075468,-1.430523286263148,1.3124763866265614,-1.9253686865170796,-15.886229658126831,43.681488800048825,-15.354309606552125,-0.040650306608189246,-0.29175756888633425,0.057698994874954224,-284.1764251708984,136.5722869873047,-158.1553077697754,-0.1190101591249307,0.01732810338338216,0.1459118922551473,0.09951966018839312,-9.509784178300338,2.3168505213477393,-0.03801363454355547,-0.2577978599195679,0.07727445103228091,0.35780302931865055,-9.483087221781412,2.4789985020955405
5.1,-0.08913264796137806,-9.25783077875773,2.631905515988668,0.0,0.0,0.9880075919628143,12.642319679260254,0.1722288182377815,203.4502340698242,41.0,-122.753159016,49.190400458,0.7255122711261113,-0.6681167085965475,0.16256367973983282,0.023542499480148114,-1.3752837479114532,1.2939453770716984,-1.9651390314102173,-16.962879371643066,42.835418701171875,-15.783139705657959,-0.12713632856806115,0.38520143926143646,0.18898644018918276,-285.2530792236328,135.7262161254883,-158.58413696289062,-0.15620493104286265,-0.104888171860666,-0.01362822091940677,-0.0729810943206151,-9.267402013142904,2.6947170893351235,-0.13525574778517083,0.37479128191868466,0.14492777610818544,0.5349360294640064,-9.433358828226725,2.6239958703517914
5.2,-0.3323032508293788,-9.909575780232748,2.206581234931946,0.0,0.0,0.9879198408126831,12.648639678955078,0.1704350960254669,199.29818847656247,41.0,-122.75315913200001,49.190400516000004,0.7314145117998123,-0.6614980151255926,0.1620264773567517,0.03396538288022076,-1.3200442095597584,1.2754143675168355,-2.0049093763033548,-18.043799591064452,42.343759536743164,-16.35165939331055,-0.2073632975419362,0.03789909929037095,0.18819739840303853,-286.3339904785156,135.23455657958985,-159.15265655517578,-0.1933997029607946,-0.22710444710471414,-0.17316833409396085,-0.3161516984303792,-9.919147173563639,2.2693928480148315,-0.21319197118282318,0.04010329991579055,0.2207972407341003,0.7120690296093622,-9.383630434672037,2.7689932386080423
5.3,1.3420744240283966,-9.427322387695312,2.608575463294983,0.0,0.0,0.9878320896625519,12.654959678649902,0.16864137381315228,195.14614288330074,41.0,-122.753159248,49.190400574,0.734885360300541,-0.6583203996221225,0.15538194204370176,0.04633600682330623,-1.2870203147331873,1.2643812159697214,-2.0107688923676807,-18.107239723205566,42.01557960510254,-17.040959739685057,-0.10257445524136222,0.26832256093621254,-0.01641700350834675,-286.3974304199219,134.90637817382813,-159.84195861816406,-0.550525931246353,-0.38407855322866735,-0.2859705650445187,1.3582259714603424,-9.436893622080484,2.6713870763778687,-0.09689849801361557,0.15928311335543793,-0.025834508550663784,0.8348101650675137,-9.351087888081867,2.840413882335027
5.4,0.804817751727321,-9.485303011807527,2.522995802489194,0.0,0.0,0.9877443385124207,12.661279678344727,0.16684765160083767,190.99409729003904,41.0,-122.753159364,49.190400632,0.7383562088012695,-0.6551427841186523,0.1487374067306518,0.058706630766391696,-1.2539964199066163,1.2533480644226074,-2.0166284084320067,-18.97557463645935,41.8273943901062,-16.89242477416992,-0.10738964757007176,0.24740736597132953,0.01730900510940984,-287.26576843261716,134.71819381713868,-159.6934226989746,-0.9076521595319113,-0.5410526593526205,-0.3987727959950765,0.8209692998365923,-9.494874296766339,2.5858074047348714,-0.10463612557699278,0.19344702642410994,0.010308351794568196,0.9575513005256653,-9.3185453414917,2.9118345260620115
5.5,0.26756107942624524,-9.543283635919744,2.4374161416834053,0.0,0.0,0.9876565873622895,12.66759967803955,0.16505392938852306,186.84205169677733,41.0,-122.75315948000001,49.190400690000004,0.7363627403974533,-0.6556174407402674,0.15472632274031636,0.06264586467295881,-1.280793458223343,1.2412534356117249,-1.9929137229919434,-19.843909549713135,41.63920917510986,-16.743889808654785,-0.1122048398987813,0.22649217100644653,0.05103501372716643,-288.1341064453125,134.5300094604492,-159.54488677978514,-0.1971080628308383,0.20663417469371448,-0.016557411714033646,0.2837126282128421,-9.552854971452193,2.5002277330918745,-0.11237375314037,0.22761093949278197,0.04645121213980017,0.9087615261475245,-9.28079660733541,3.0435120662053428
5.6,0.8173483312129974,-9.06211773554484,3.2312078873316445,0.0,0.0,0.9875688362121582,12.673919677734375,0.16326020717620846,182.6900061035156,41.0,-122.753159596,49.190400748,0.7276688387448138,-0.6601141842477249,0.17070274681530212,0.07016579057513309,-1.3616931587457657,1.2134525911374525,-1.9245927225459707,-19.295519638061524,41.28113975524902,-17.666819381713868,-0.18837556988000867,-0.3255657268067201,-0.14256067449847853,-287.58571472167966,134.17193603515625,-160.4678176879883,-0.3815695414827629,0.12351010784958348,-0.07100850163084088,0.8334998885790507,-9.071689287821451,3.2940194606781006,-0.1801441609859466,-0.3929085239768028,-0.16154331564903254,0.6824491585915287,-9.184360522212405,3.3445330767920525
5.7,-0.492323264790078,-8.769994099934896,3.357429265975952,0.0,0.0,0.987481085062027,12.6802396774292,0.16146648496389385,178.53796051025387,41.0,-122.753159712,49.190400806,0.7189749370921742,-0.6646109277551825,0.18667917089028788,0.07768571647730736,-1.4425928592681885,1.1856517466631802,-1.8562717220999978,-18.70259952545166,40.85779876708985,-19.29429988861084,-0.47428596019744873,0.07116580040504532,-0.19761490697662035,-286.9927917480469,133.74859771728515,-162.09529724121094,-0.5660310201346874,0.040386041005452476,-0.1254595915476481,-0.4761717164268096,-8.779565493265787,3.420240879058838,-0.4651738951603572,0.1031089623769124,-0.1818087697029113,0.45613679103553295,-9.0879244370894,3.645554087378762
5.8,0.11485547365155069,-9.53898754119873,3.301736259460449,0.0,0.0,0.9873933339118958,12.686559677124023,0.15967276275157927,174.38591491699216,41.0,-122.75315982800001,49.190400864000004,0.7074323689395732,-0.6705413388483452,0.20777635468226485,0.07654323502246174,-1.5305634836355844,1.1609158850077428,-1.80103055545778,-15.739219665527344,40.47471923828125,-21.93803939819336,-0.42336016297340395,-1.0582324028015138,-0.4894863128662109,-284.0294128417969,133.36551818847656,-164.7390350341797,-0.00628429713348555,-0.14572421709696448,-0.30672138929367065,0.13100702203810213,-9.548558616638184,3.364547872543335,-0.4208352516094844,-0.9754245281219482,-0.4575889805952708,0.131102136336267,-8.992274262688376,3.8868520368229262
5.9,-0.015004997867314795,-9.364336284001668,3.468590807914734,0.0,0.0,0.9873055827617645,12.692879676818848,0.15787904053926466,170.23386932373046,41.0,-122.753159944,49.190400922,0.695889800786972,-0.6764717499415079,0.22887353847424186,0.07540075356761611,-1.6185341080029805,1.1361800233523052,-1.745789388815562,-14.992579698562622,40.29446420669556,-22.749644422531127,-0.2695532008151834,-0.34035883924613397,-0.35632787581998854,-283.2827743530273,133.18526382446288,-165.55064125061034,0.5534624258677164,-0.3318344751993815,-0.4879831870396932,0.0011465512836972835,-9.37390763759613,3.531402430931727,-0.2613357894200211,-0.287125755722324,-0.34681238362099975,-0.19393251836299893,-8.896624088287354,4.12814998626709
6.0,-0.14486546938618025,-9.189685026804606,3.6354453563690186,0.0,0.0,0.9872178316116333,12.699199676513672,0.15608531832695005,166.08182373046873,41.0,-122.75316006,49.19040098,0.6882457087437311,-0.6868686179320017,0.20797247439622876,0.10531866177916523,-1.6402559578418732,1.123422493537267,-1.6503634651501973,-14.2459397315979,40.11420917510986,-23.561249446868896,-0.11574623865696289,0.37751472430924576,-0.22316943877376616,-282.5361358642578,133.00500946044923,-166.36224746704102,-0.45455248247493396,0.056618257002397025,-0.22761123830621893,-0.12871391947070757,-9.199256658554077,3.6982569893201194,-0.10183632723055779,0.40117301667730015,-0.23603578664672872,-0.29422892785320676,-8.843239227930704,4.230681896209717
6.1,-0.6175476411978403,-8.664510409037272,3.873979926109314,0.0,0.0,0.9871300804615021,12.705519676208496,0.15429159611463544,161.929778137207,41.0,-122.75316017600001,49.190401038000005,0.6810190354784329,-0.6911712663643288,0.21833213655786077,0.1026688826016404,-1.6853166859258306,1.1120051150069092,-1.6244866893146976,-13.003979682922363,40.39297943115234,-23.694839477539062,-0.1805106811225414,-0.2953533480564753,-0.20616702122303343,-281.29417114257814,133.28377685546874,-166.49583587646484,-0.11865032509420859,-0.18977071660937683,-0.5530209216204556,-0.6013960937658945,-8.674081643422445,3.93679141998291,-0.1811520859599113,-0.2859154790639877,-0.1949270974379033,-0.49900443726360344,-8.793754863016533,4.31057823788036
6.2,-0.463210587700208,-9.321739037831625,3.400699496269226,0.0,0.0,0.9870423293113709,12.71183967590332,0.15249787390232084,157.7777325439453,41.0,-122.753160292,49.190401096,0.6737923622131348,-0.6954739147966559,0.22869179871949277,0.10001910342411557,-1.7303774140097878,1.1005877364765515,-1.598609913479198,-11.781539630889892,39.96109886169434,-24.87457981109619,-0.11682797564814484,-0.27896180128057796,0.02837978109406927,-280.0717315673828,132.85189819335938,-167.67557525634766,0.2172518322865168,-0.4361596902211507,-0.8784306049346924,-0.4470590303341548,-9.331310431162516,3.463511029879252,-0.14238250510728295,-0.3217478220661481,0.0316122774966061,-0.7037799466740001,-8.744270498102361,4.390474579551003
6.3,-0.4892125904560089,-9.208299255371093,3.3449267387390136,0.0,0.0,0.9869545781612397,12.718159675598145,0.15070415169000623,153.6256869506836,41.0,-122.753160408,49.190401154,0.6748443990945816,-0.6952921626242725,0.2285036220017707,0.0942482184054273,-1.7316235294847777,1.1093351597135719,-1.6053087657148186,-11.405779933929443,40.04893913269043,-24.95265941619873,0.07021896019577975,-0.035430184006690915,-0.06239988580346103,-279.6959716796875,132.93973846435546,-167.7536590576172,0.2640896663069725,-0.4180736144383748,-0.7836304903030396,-0.47306103706359864,-9.217870903015136,3.4077383518218993,0.07154759205877775,-0.04181881683568157,-0.04935282127310831,-0.6971172049190059,-8.78239529060595,4.313729177821767
6.4,-0.3015604607993737,-9.28241698741913,3.3162826816240947,0.0,0.0,0.9868668270111084,12.724479675292969,0.14891042947769162,149.47364135742185,41.0,-122.753160524,49.190401212,0.6758964359760284,-0.695110410451889,0.22831544528404868,0.08847733338673903,-1.7328696449597676,1.118082582950592,-1.6120076179504395,-11.778489875793458,40.24200401306152,-24.55615944862366,0.14292719575266039,-0.06506987408113972,0.13961961716413498,-280.0686828613281,133.13280296325684,-167.35715866088867,0.31092750032742816,-0.39998753865559894,-0.6888303756713867,-0.28540890645090256,-9.291988428433736,3.379094284772873,0.1449312499131668,-0.07719231123161133,0.14468597994665755,-0.6904544631640116,-8.820520083109537,4.236983776092529
6.5,-0.11390833114273846,-9.356534719467163,3.2876386245091758,0.0,0.0,0.9867790758609772,12.730799674987793,0.147116707265377,145.32159576416012,41.0,-122.75316064,49.19040127,0.6990739603837332,-0.6774192402760187,0.21865464871128396,0.06470674338440097,-1.601776917775472,1.1645846168200176,-1.7625748713811238,-12.15119981765747,40.435068893432614,-24.159659481048585,0.21563543130954102,-0.09470956415558852,0.34163912013173103,-280.44139404296874,133.32586746215821,-166.96065826416014,0.22908693145621906,-0.3426622910933061,-0.49632150476629083,-0.09775677583820654,-9.366105953852335,3.3504502177238464,0.21831490776755588,-0.11256580562754107,0.3387247811664234,-0.1328759378181227,-9.008955717086792,3.8608630696932473
6.6,0.0008973103637496538,-9.387142817179361,3.3241291840871177,0.0,0.0,0.986691324710846,12.737119674682617,0.1453229850530624,141.16955017089842,41.0,-122.753160756,49.190401328,0.7202389624082681,-0.6605596896825414,0.20135446361294296,0.05316562422861652,-1.4316602258971243,1.1920649905999503,-1.9237868153687678,-15.43909969329834,40.518638610839844,-22.344299507141113,0.34404439727465314,0.2658027410507202,0.6093635261058807,-283.7292999267578,133.40943603515626,-165.14529418945312,-0.07989177683537657,-0.3473845503546975,-0.3496046590082573,0.017048861210544903,-9.396714210510254,3.3869407176971436,0.3330233693122864,0.2465859378377596,0.6026185750961304,0.4401970792636294,-9.109176603230562,3.5323158782539945
6.7,0.6029912910113732,-9.800802071889242,3.1536405086517334,0.0,0.0,0.9866035735607147,12.743439674377441,0.1435292628407478,137.0175045776367,41.0,-122.753160872,49.190401386,0.7414039644328031,-0.6437001390890642,0.18405427851460193,0.04162450507283208,-1.2615435340187766,1.2195453643798828,-2.084998759356412,-18.246319580078126,40.48569946289062,-20.7399995803833,0.3222823192675908,0.08180504043896993,0.5080871681372324,-286.53651123046876,133.37649841308593,-163.54099731445314,-0.3888704851269722,-0.35210680961608887,-0.20288781325022376,0.6191428409268459,-9.810373465220133,3.216452121734619,0.32874731222788495,0.08297586347907782,0.5145012537638346,1.0132700963453813,-9.209397489374334,3.2037686868147417
6.8,0.7417750120162964,-9.399246788024902,2.4906890392303467,0.0,0.0,0.9865158224105836,12.749759674072266,0.1417355406284332,132.86545898437498,41.0,-122.753160988,49.190401444,0.7524196193976835,-0.6364967059908491,0.16313525198987033,0.03488259917745983,-1.1226471522540757,1.240987022717794,-2.203150566780206,-21.071839904785158,40.20997848510742,-18.751399993896484,0.4494746446609497,0.5561011731624603,0.4597066342830658,-289.3620361328125,133.10077819824218,-161.55239715576172,-0.2444219527145227,-0.36620239416758216,-0.33495380481084186,0.7579265654087066,-9.40881805419922,2.5535006523132324,0.44748424490292865,0.4996114100019137,0.44427719712257385,1.3279683969237588,-9.277662681810783,2.841506201209444
6.9,1.1544621442755063,-9.550273664792378,2.102623080213865,0.0,0.0,0.9864280712604523,12.75607967376709,0.13994181841611858,128.71341339111325,41.0,-122.753161104,49.190401502,0.7634352743625641,-0.629293272892634,0.1422162254651387,0.028140693282087584,-0.9837507704893748,1.2624286810557048,-2.321302374204,-22.449524688720704,40.38047399520874,-16.323294854164125,0.489566496014595,0.4201849301268036,0.3886273751656214,-290.73971939086914,133.27127342224122,-159.12429275512696,-0.09997342030207318,-0.3802979787190755,-0.46701979637145996,1.1706136897206307,-9.559844875335694,2.1654346833626428,0.49071106359814154,0.39083921898043517,0.37897825241088867,1.6426666975021362,-9.345927874247232,2.4792437156041465
7.0,1.5671492765347164,-9.701300541559855,1.7145571211973827,0.0,0.0,0.9863403201103211,12.762399673461914,0.13814809620380397,124.56136779785155,41.0,-122.75316122,49.19040156,0.2549964636564255,-0.21080963810284933,0.04188037974139053,0.009519508452891942,-0.6352392161885897,1.277388681968053,-2.649072070916494,-23.82720947265625,40.55096950531006,-13.895189714431762,0.5296583473682404,0.2842686870911469,0.31754811604817706,-292.1174026489258,133.44176864624023,-156.6961883544922,-0.6693544821305708,0.0859511982310902,0.19580321962183173,1.5833008140325546,-9.710871696472168,1.7773687144120534,0.5339378822933544,0.2820670279589566,0.31367930769920344,2.2700827221075692,-9.389808893203735,1.6683093110720317
7.1,1.591426432132721,-8.987740993499756,1.9060826500256856,0.0,0.0,0.9862525689601899,12.768719673156738,0.13635437399148936,120.40932220458983,41.0,-122.753161336,49.190401618,-0.2746916894208301,0.18785992219592587,-0.025458920888151174,0.013548104137677834,-0.5236419600745041,1.2603741834561029,-2.768500462625966,-26.916859436035157,40.189239501953125,-10.406599998474121,0.35529449333747226,0.004123339274277285,0.49062660833199817,-295.20705261230466,133.0800354003906,-153.2075973510742,-0.7275966423930544,0.1863966927383885,0.39913470275474316,1.6075779994328816,-8.997312068939209,1.9688942432403564,0.37598755458990735,0.0340302848878006,0.4989496370156606,2.5809173850399074,-9.338820359923623,1.466472046844887
7.2,2.0093727827072145,-9.029914474487304,1.5760326385498047,0.0,0.0,0.9861648178100586,12.775039672851562,0.13456065177917478,116.25727661132811,41.0,-122.753161452,49.190401676,-0.8043798424980857,0.586529482494701,-0.09279822151769287,0.017576699822463727,-0.4120447039604187,1.2433596849441528,-2.887928854335438,-28.629739570617676,39.565819549560544,-9.813679790496826,0.12684617042541496,-0.06945537999272344,0.2738508880138397,-296.91993408203126,132.4566162109375,-152.61467895507812,-0.785838802655538,0.28684218724568683,0.6024661858876547,2.025524353981018,-9.039485549926757,1.6388442277908326,0.1258127894252538,-0.08142324734944849,0.2774091809988022,2.8917520479722456,-9.28783182664351,1.2646347826177424
7.3,2.210070848464966,-9.020343144734701,1.8968104521433513,0.0,0.0,0.9860770666599274,12.781359672546387,0.13276692956686018,112.10523101806639,41.0,-122.753161568,49.190401734,-0.805992817788413,0.583875625874057,-0.0958888640796596,0.014599818764536622,-0.4298335214455923,1.2345841228961945,-2.8704192891265405,-29.626479721069337,38.93385887145996,-9.924699974060058,-0.05619960196781898,0.008628471444050467,0.14062627094487343,-297.9166748046875,131.824658203125,-152.72569427490234,-1.0077885309855144,0.3198151747385661,0.5152470747629802,2.2262223760286965,-9.029914697011312,1.959622065226237,-0.07042767200618977,0.02575815251717965,0.12026409556468326,2.940776787020943,-9.25969284953493,1.3512093099680813
7.4,1.9743778010209403,-9.06650467713674,1.8199659536282222,0.0,0.0,0.9859893155097962,12.787679672241211,0.13097320735454557,107.95318542480467,41.0,-122.753161684,49.190401792,-0.8076057930787405,0.5812217692534128,-0.09897950664162632,0.011622937706609516,-0.4476223389307658,1.2258085608482359,-2.852909723917643,-29.48739953041077,38.773429203033444,-10.72745988368988,-0.1873256442098257,-0.08337674414118132,-0.0004263329319656173,-297.7775939941406,131.6642276763916,-153.52845458984376,-1.2297382593154906,0.3527881622314453,0.42802796363830564,1.9905293434858322,-9.07607614994049,1.882777566711108,-0.1957186803814362,-0.08000021003130257,-0.010735261225790688,2.989801526069641,-9.231553872426352,1.4377838373184204
7.5,1.7386847535769145,-9.112666209538778,1.7431214551130931,0.0,0.0,0.985901564359665,12.793999671936035,0.12917948514223096,103.80113983154295,41.0,-122.7531618,49.19040185,0.12607444822788239,-0.10417234897613525,0.0357389897108078,0.0036564912831332833,-0.6786387165387472,1.2248518566290538,-2.65417210261027,-29.348319339752198,38.612999534606935,-11.530219793319702,-0.3184516864518324,-0.1753819597264131,-0.14147893680880466,-297.6385131835938,131.5037971496582,-154.33121490478516,-0.7836052378018697,-0.030592997868855765,0.18817992011706033,1.7548363109429677,-9.122237602869669,1.8059330681959789,-0.3210096887566826,-0.18575857257978481,-0.14173461801626464,2.572993497053782,-9.228443940480549,2.0767225325107574
7.6,1.9445672035217285,-9.28335428237915,2.5770699977874756,0.0,0.0,0.9858138132095338,12.80031967163086,0.12738576292991635,99.64909423828124,41.0,-122.753161916,49.190401908,0.4426287959019343,-0.3610146641731262,0.11896013095974921,0.01066932603862365,-0.9030546421806018,1.2104654957850776,-2.4673504531383514,-26.890019416809082,38.84113960266113,-15.193879795074462,-0.456163614988327,-0.4860960195461909,-0.3644065707921982,-295.1802185058594,131.73193817138673,-157.9948745727539,-0.44846117993195855,-0.2198491096496582,0.05061273276805878,1.9607187310854595,-9.292925516764322,2.6398815711339316,-0.44282639523347217,-0.48596874872843426,-0.3626503348350525,2.04045557230711,-9.178052981694538,2.6503110577662783
7.7,1.3196416695912678,-9.245069026947021,2.947259545326233,0.0,0.0,0.9857260620594025,12.806639671325684,0.12559204071760174,95.49704864501952,41.0,-122.753162032,49.190401966,0.7591831435759863,-0.6178569793701172,0.20218127220869062,0.017682160794114016,-1.1274705678224564,1.196079134941101,-2.280528803666433,-24.2035795211792,38.99729919433594,-18.54521942138672,-0.5866851508617401,-0.6446664581696192,-0.4626286079486211,-292.4937774658203,131.88809814453126,-161.34621887207032,-0.11331712206204732,-0.40910522143046063,-0.0869544545809428,1.3357932170232136,-9.254640420277914,3.0100711584091187,-0.5818236867586771,-0.6197991569836935,-0.45965064068635303,1.5079176475604374,-9.12766202290853,3.2238995830217996
7.8,1.4842479526996613,-9.883155028025309,3.087339480717977,0.0,0.0,0.9856383109092713,12.812959671020508,0.12379831850528714,91.3450030517578,41.0,-122.753162148,49.190402024,0.7446283633510271,-0.6301496744155883,0.21520354524254795,0.031780240863251125,-1.2602028980851174,1.1783803701400757,-2.146675179402034,-20.571639633178712,38.75451927185058,-21.80993938446045,-0.5139412929614385,-0.21079941590627035,-0.6040948232014974,-288.86183776855466,131.64531555175782,-164.6109359741211,-0.2654486338297526,-0.40010839303334556,-0.3291241904099782,1.500399500131607,-9.89272658030192,3.150151014328003,-0.5130504469076792,-0.21505001684029898,-0.6060037811597189,1.0985044981042544,-9.06170431772868,3.53652197321256
7.9,0.8527648332105442,-9.635588552012589,3.1858258319623545,0.0,0.0,0.9855505597591401,12.819279670715332,0.12200459629297253,87.19295745849608,41.0,-122.753162264,49.190402082,0.7300735831260681,-0.6424423694610596,0.22822581827640528,0.045878320932388236,-1.3929352283477783,1.1606816053390503,-2.0128215551376343,-18.780069541931155,38.804539394378665,-22.882929515838622,-0.4141712633497787,-0.1650423691466902,-0.5805603148359242,-287.0702651977539,131.69533653259276,-165.6839256286621,-0.4175801455974579,-0.3911115646362304,-0.5712939262390136,0.8689163821664723,-9.645159995917117,3.24863740530881,-0.4132885163029034,-0.1693056978736863,-0.5824866258736813,0.6890913486480713,-8.995746612548828,3.8491443634033202
8.0,0.22128171372142702,-9.388022075999867,3.2843121832067315,0.0,0.0,0.9854628086090088,12.825599670410156,0.12021087408065792,83.04091186523436,41.0,-122.75316238,49.19040214,0.6989635527133942,-0.6687001287937164,0.24510298793514565,0.0619650871182481,-1.603908618291219,1.1293781002362568,-1.8039049804210663,-16.988499450683594,38.85455951690674,-23.955919647216795,-0.3144012337381189,-0.11928532238711008,-0.5570258064703508,-285.2786926269531,131.74535751342773,-166.7569152832031,0.11985779864092666,-0.3870418071746826,-0.4739219943682353,0.2374332642013376,-9.397593411532315,3.347123796289617,-0.3135265856981277,-0.12356137890707362,-0.5589694705876437,-0.1458741488556067,-8.868565241495768,4.176932692527771
8.1,-0.1953141478200753,-9.249555587768553,3.833999832471212,0.0,0.0,0.9853750574588777,12.83191967010498,0.11841715186834331,78.88886627197265,41.0,-122.753162496,49.190402198,0.6809622008692134,-0.6860913404009559,0.24098257579360943,0.07930342862946965,-1.6986672354466987,1.1101700871279745,-1.6782805553891442,-13.184539699554444,39.193719482421876,-25.38697967529297,-0.0735329041878382,0.1861611821999152,-0.7034367720286051,-281.4747375488281,132.0845153808594,-168.18797760009767,0.2833457018784953,-0.3364313840866089,-0.40143327369834436,-0.1791625954210758,-9.259126981099447,3.896811326344808,-0.07264205875496065,0.18191058064500487,-0.7053711811701456,-0.5736079545070728,-8.784593509905266,4.297046233307231
8.2,-0.34656048317750293,-8.851948261260986,4.128416697184245,0.0,0.0,0.9852873063087464,12.838239669799805,0.1166234296560287,74.73682067871093,41.0,-122.753162612,49.190402256,0.6629608490250327,-0.7034825520081953,0.23686216365207322,0.0966417701406912,-1.7934258526021785,1.0909620740196921,-1.5526561303572222,-11.10443992614746,39.869599151611325,-25.633419609069826,-0.13950634747743604,0.27376943826675415,-0.5569563756386439,-279.39463500976564,132.7603973388672,-168.43441772460938,0.4468336051160639,-0.28582096099853516,-0.3289445530284535,-0.33040893077850336,-8.861519495646158,4.1912282307942705,-0.13861550825337565,0.2694933786988258,-0.5588653335968653,-1.0013417601585388,-8.700621778314764,4.417159774086692
8.3,-0.7974081397056579,-9.2519681930542,3.8343785762786866,0.0,0.0,0.9851995551586152,12.844559669494629,0.11482970744371411,70.58477508544921,41.0,-122.753162728,49.190402314,0.6601847170880346,-0.704405508258126,0.23899412076130055,0.10349798631487467,-1.7976998262333148,1.077337782491337,-1.541807967605013,-10.301679992675782,39.642679595947264,-26.160459518432617,-0.21466822922229764,0.16714800366510943,-0.1103629867235819,-278.5918731689453,132.53347778320312,-168.96145629882812,0.45243027535351843,-0.30638090769449866,-0.6470134800130671,-0.7812565922737121,-9.261539459228516,3.8971901893615724,-0.21375192950169242,0.16289740086843568,-0.11224648728966709,-1.0466435054937997,-8.637660749030836,4.527945269237865
8.4,-0.6654788695275784,-9.13685363928477,3.760410495599111,0.0,0.0,0.985111804008484,12.850879669189453,0.1130359852313995,66.43272949218749,41.0,-122.753162844,49.190402372,0.6574085851510366,-0.7053284645080566,0.24112607787052787,0.11035420248905813,-1.8019737998644512,1.0637134909629822,-1.5309598048528035,-10.17113983631134,39.312059497833246,-26.513344478607177,-0.12155061513608827,0.03156021481492752,-0.0018140833267490386,-278.46133346557616,132.2028579711914,-169.31434135437013,0.4580269455909729,-0.3269408543904622,-0.9650824069976807,-0.6493273158868154,-9.146424849828083,3.8232220987478893,-0.12064125819950164,0.027303825203103566,-0.0037068399886431153,-1.0919452508290608,-8.574699719746908,4.638730764389038
8.5,-0.5335495993494987,-9.02173908551534,3.686442414919535,0.0,0.0,0.9850240528583527,12.857199668884277,0.1112422630190849,62.28068389892577,41.0,-122.75316296,49.19040243,0.666177953282992,-0.6979676336050034,0.2424574606120586,0.10053384179870284,-1.765695144732793,1.0783100128173828,-1.5832352538903554,-10.040599679946899,38.981439399719235,-26.866229438781737,-0.028433001049878903,-0.10402757403525437,0.10673482007008382,-278.330793762207,131.8722381591797,-169.6672264099121,0.32220835487047833,-0.4785309632619222,-0.735113521416982,-0.5173980394999186,-9.031310240427652,3.7492540081342063,-0.027530586897310846,-0.10828975046222857,0.10483280731238084,-0.9031556049982706,-8.642311890920004,4.546725392341614
8.6,-0.7218348383903503,-9.239785035451254,3.659921884536743,0.0,0.0,0.9849363017082216,12.863519668579102,0.10944854080677029,58.128638305664055,41.0,-122.753163076,49.190402488000004,0.68087867060394,-0.688065112314441,0.2348897363990545,0.08295012592817794,-1.6959889887860327,1.1154715852303938,-1.6666004012028375,-11.940139770507812,39.00705909729004,-26.125079345703124,0.2666935871044795,0.21889337897300717,0.3669263869524002,-280.23033447265624,131.89785919189453,-168.92607879638672,0.15347726462465347,-0.28922462102138635,-0.4551143908139431,-0.7056832810242971,-9.249356269836426,3.722733497619629,0.2676098818580309,0.21461732561389602,0.36501743892828625,-0.5660495177814454,-8.802029486858483,4.260924886573445
8.7,-0.5771687676509222,-9.310074170430502,3.853640834490458,0.0,0.0,0.9848485505580903,12.869839668273926,0.10765481859445568,53.976592712402336,41.0,-122.753163192,49.190402546,0.6955793879248879,-0.6781625910238787,0.2273220121860504,0.06536641005765305,-1.6262828328392722,1.1526331576434048,-1.7499655485153198,-13.657899856567383,39.801279830932614,-24.83797950744629,0.40474913020928693,-0.19112446655829743,0.43274712562561035,-281.9480895996094,132.69207916259765,-167.63897857666015,-0.015253825621171406,-0.0999182787808505,-0.17511526021090418,-0.5610172202189764,-9.319645563761393,3.9164524475733438,0.40566542744636536,-0.1954005186756452,0.4308381627003352,-0.22894343056462024,-8.961747082796963,3.975124380805276
8.8,0.16953148767352105,-8.84758129119873,3.545684576034546,0.0,0.0,0.984760799407959,12.87615966796875,0.10586109638214107,49.82454711914062,41.0,-122.753163308,49.190402604,0.7088200987288447,-0.667894987445889,0.2188982876638571,0.053620259757294765,-1.5339178451986024,1.1762868400776023,-1.8466042478879294,-14.916939735412598,40.1270191192627,-23.63261947631836,0.32569299638271326,-0.09101892014344531,0.4879286189874013,-283.20713195800784,133.01781768798827,-166.4336166381836,-0.16870326481082223,-0.17283856507503625,-0.06335685289267336,0.18568303883075715,-8.857152557373047,3.6084961891174316,0.3266092836856842,-0.09524407486120857,0.48604511221249896,0.11211001839150087,-9.052030758424237,3.749072344014139
8.9,0.29027431332506237,-9.193234554926555,3.338022470474243,0.0,0.0,0.9846730482578279,12.882479667663574,0.10406737416982646,45.6725015258789,41.0,-122.753163424,49.190402662,0.7220608095328013,-0.6576273838678995,0.21047456314166382,0.04187410945693648,-1.4415528575579326,1.1999405225118,-1.9432429472605388,-16.944579744338988,40.00867910385132,-22.427564573287967,0.3054835322228344,0.11614769719766846,0.4811952159260259,-285.23477325439455,132.89947814941405,-165.22856216430665,-0.322152704000473,-0.24575885136922201,0.04840155442555746,0.30642586438528574,-9.2028058052063,3.400834073623021,0.30638594315810636,0.11193180027784723,0.4793093954071854,0.4531634673476219,-9.142314434051514,3.523020307223002
9.0,0.41101713897660375,-9.538887818654379,3.1303603649139404,0.0,0.0,0.9845852971076966,12.888799667358398,0.10227365195751187,41.52045593261718,41.0,-122.75316354,49.19040272,0.7515546331803004,-0.6345200886329015,0.17595477029681203,0.03395360366751748,-1.1609359135230382,1.2272774775822957,-2.1848574678103128,-18.97221975326538,39.890339088439944,-21.22250967025757,0.28527406806295563,0.32331431453878223,0.4744618128646504,-287.2624145507813,132.78113861083983,-164.02350769042968,-0.4765582432349523,-0.2452690601348877,-0.14339065551757812,0.42716868993981433,-9.54845905303955,3.193171958128611,0.2861626026305285,0.31910767541690305,0.4725736786018718,1.2949727723995845,-9.23611323038737,3.016203741232554
9.1,0.9643075168132782,-9.359027226765951,2.8014968236287436,0.0,0.0,0.9844975459575654,12.895119667053223,0.10047992974519726,37.368410339355464,41.0,-122.753163656,49.190402778,0.767610551507184,-0.6216177301424923,0.14833763495764946,0.028209392178916527,-0.9586603517333666,1.2378651463624202,-2.355483755017772,-22.893299674987794,39.643899536132814,-17.735139465332033,0.43185627460479736,0.4919246832529704,0.46413032213846844,-291.18349304199216,132.53469848632812,-160.53613739013673,-0.558380057640148,-0.07170931859449908,-0.08822570063851096,0.980459064245224,-9.368598461151123,2.8643083969751992,0.43274712065855664,0.4876740947365761,0.4622722814480464,1.7711109494169555,-9.270580479592986,2.5706459347045785
9.2,1.7085750500361125,-9.305288473765055,2.235295136769613,0.0,0.0,0.9844097948074342,12.901439666748047,0.09868620753288265,33.216364746093745,41.0,-122.753163772,49.190402836,0.7836664698340676,-0.608715371652083,0.12072049961848688,0.02246518069031558,-0.7563847899436951,1.248452815142545,-2.526110042225231,-25.64805965423584,39.57801895141601,-15.191439723968506,0.4262312302986781,0.5518149385849634,0.3505348389347394,-293.9382568359375,132.46881866455078,-157.99243621826173,-0.6402018720453436,0.10185042294588956,-0.03306074575944378,1.7247266570727031,-9.314859708150228,2.2981067498524985,0.4271220713853836,0.547615240017573,0.34862588346004486,2.247249126434326,-9.305047728798606,2.1250881281766025
9.3,1.4848660707473755,-9.1223970413208,1.737069582939148,0.0,0.0,0.9843220436573029,12.907759666442871,0.09689248532056804,29.064319152832027,41.0,-122.753163888,49.190402894,0.5244692207285853,-0.4035381159999154,0.07905246385119175,0.013203455269721165,-0.6823266595602036,1.2365708315011226,-2.613725199843898,-27.68301944732666,39.2766788482666,-13.135739803314209,0.2106721500555674,-0.10293079819530249,0.42406775057315826,-295.97320861816405,132.1674774169922,-155.93673248291014,-0.5605925944718448,0.09664825237158574,0.3138526199441967,1.5010176420211792,-9.131968307495118,1.7998811960220338,0.21158845101793608,-0.10718139261007309,0.42213334143161774,2.487075487772624,-9.267059514016815,2.013888405127959
9.4,1.7368751555681228,-9.000283368428548,2.1823439727226894,0.0,0.0,0.9842342925071718,12.914079666137695,0.09509876310825344,24.91227355957031,41.0,-122.753164004,49.190402952,0.26527197162310284,-0.1983608603477478,0.037384428083896616,0.00394172984912675,-0.608268529176712,1.2246888478597004,-2.701340357462565,-28.25184440612793,38.850288963317865,-13.348934721946716,0.1117709852599849,-0.13209266880188475,0.25928569066507573,-296.54203643798826,131.74108695983887,-156.14992904663086,-0.48098331689834595,0.09144608179728192,0.6607659856478373,1.7530267198880511,-9.009854658444723,2.2451555808385213,0.11268034302911749,-0.1363421127369458,0.25736053969541733,2.7269018491109214,-9.229071299235025,1.9026886820793152
9.5,1.9888842403888702,-8.878169695536295,2.627618362506231,0.0,0.0,0.9841465413570405,12.92039966583252,0.09330504089593883,20.76022796630859,41.0,-122.75316412,49.19040301,-0.00348628560702006,-0.0037128974994023642,0.0043943207710981326,0.00348777737235645,-0.6597112814585367,1.2219831148783367,-2.669243335723877,-28.8206693649292,38.42389907836914,-13.562129640579224,0.012869820464402416,-0.161254539408467,0.09450363075699318,-297.1108642578125,131.31469650268554,-156.36312561035157,-1.0536918540795643,0.4946264425913493,0.6311365067958832,2.0050357977549234,-8.887741009394327,2.690429965655009,0.013772235040298902,-0.1655028328638185,0.09258773795921692,2.641204078992208,-9.220374266306559,2.0525144835313163
9.6,1.4526427388191223,-8.881459712982178,2.437488635381063,0.0,0.0,0.9840587902069092,12.926719665527344,0.09151131868362422,16.608182373046873,41.0,-122.753164236,49.190403068,0.3831543656009616,-0.305689830445882,0.09908138867467642,0.0034649116780862384,-0.8388116693857943,1.2138267629074329,-2.5337743108922783,-27.956299591064454,38.538578796386716,-14.705879592895508,-0.28443412979443866,-0.19048814180617532,-0.22510384023189542,-296.2464935302734,131.42937622070312,-157.50687713623046,-0.7230038132631417,0.13578504143339215,0.37243087860670954,1.4687942862510681,-8.89103110631307,2.5003002484639487,-0.28354329119126,-0.1947132987746348,-0.2269618958234787,2.2269544619502444,-9.192271442124337,2.508216660582658
9.7,1.8034704208374024,-9.353663444519043,2.8644479751586913,0.0,0.0,0.9839710390567781,12.933039665222168,0.08971759647130963,12.456136779785155,41.0,-122.753164352,49.190403126,0.7697950168089434,-0.6076667633923617,0.1937684565782547,0.003442045983816027,-1.017912057313052,1.205670410936529,-2.39830528606068,-25.577299499511717,38.426339340209964,-17.85713987350464,-0.4913647373517354,-0.8838965644439062,-0.3295363436142604,-293.86749267578125,131.3171371459961,-160.65813903808595,-0.39231577244671906,-0.22305635972456497,0.11372525041753595,1.819621992111206,-9.363234519958496,2.927259588241577,-0.4904484401146571,-0.8881471703449885,-0.3314707527558009,1.8127048449082808,-9.164168617942117,2.963918837634
9.8,1.1196415921052296,-9.454840024312338,3.1212377548217773,0.0,0.0,0.9838832879066468,12.939359664916992,0.08792387425899502,8.304091186523436,41.0,-122.753164468,49.190403184,0.7521044146833997,-0.6213912480708325,0.2162017785012722,0.0071168283774926296,-1.1866959965590276,1.1967852386561306,-2.2570684895370947,-22.500459480285645,38.36167907714844,-21.023039627075196,-0.36496143937110903,-0.4720766544342041,-0.5453194141387939,-290.7906555175781,131.25247802734376,-163.82403717041015,-0.21644835286971292,-0.19757225296714087,0.20584987871574634,1.1357931594053905,-9.46441125869751,3.184049367904663,-0.36404514312744135,-0.4762916326522827,-0.5472741842269897,1.291144429960034,-9.132064869909575,3.267889774206913
9.9,0.7344220755233739,-9.422437071800232,3.4155050714810686,0.0,0.0,0.9837955367565157,12.945679664611816,0.08613015204668041,4.152045593261718,41.0,-122.753164584,49.190403242,0.7344138125578562,-0.6351157327493032,0.23863510042428968,0.010791610771169233,-1.355479935805003,1.1879000663757324,-2.1158316930135093,-19.76338953971863,38.55809926986694,-22.59439959526062,-0.3765831510225932,-0.41443006942669547,-0.5693684088687102,-288.05358505249023,131.44889793395998,-165.39539642333983,-0.04058093329270682,-0.1720881462097168,0.2979745070139567,0.7505736346356571,-9.432008425394695,3.4783166845639544,-0.3756859439114729,-0.41866286024451255,-0.5712939088543256,0.7695840150117874,-9.099961121877033,3.5718607107798257
10.0,0.34920255894151825,-9.390034119288126,3.7097723881403604,0.0,0.0,0.9837077856063844,12.95199966430664,0.0843364298343658,0.0,41.0,-122.7531647,49.1904033,0.6985268344481786,-0.6620672146479288,0.26865757008393604,0.03126587377240256,-1.619418481985728,1.1384107669194539,-1.8676383395989735,-17.026319599151613,38.75451946258545,-24.165759563446045,-0.38820486267407733,-0.3567834844191869,-0.5934174035986265,-285.31651458740237,131.64531784057618,-166.96675567626954,0.32058256678283215,-0.49008893966674805,-0.38988300164540607,0.3653541098659237,-9.399605592091879,3.772584001223246,-0.3873267446955045,-0.3610340878367424,-0.5953136334816614,-0.21726595362027487,-8.90607237815857,4.0888844927151995
10.1,0.2748755117257436,-9.36989450454712,3.6501512130101523,0.0,0.0,0.9847694238026937,18.62233289082845,0.0844332153598467,0.0,41.0,-122.75316403333333,49.19040233333333,0.6826643521587055,-0.6797269185384114,0.25956099051417725,0.05465610493256734,-1.7036678962635272,1.1188367135596997,-1.7363740806326722,-11.93403959274292,38.84601936340332,-26.467899513244628,-0.09468411157528556,0.6401358737299839,-0.6463208968440691,-280.22423400878904,131.7368179321289,-169.2688980102539,0.16079292962835595,-0.3082872520793568,-0.19640772089813693,0.2910270392894745,-9.379465897878012,3.7129628658294678,-0.09376781557997066,0.635885264724493,-0.6482044023772081,-0.5938846676638632,-8.821926041082904,4.217133201432951
10.2,-0.9838090419769288,-8.864450645446777,3.94109845161438,0.0,0.0,0.985831061999003,24.292666117350258,0.0845300008853276,0.0,41.0,-122.75316336666667,49.19040136666667,0.6668018698692322,-0.697386622428894,0.25046441094441846,0.07804633609273212,-1.7879173105413264,1.0992626601999456,-1.6051098216663708,-11.538759708404541,39.35109939575195,-25.80055961608887,-0.11636983075489597,0.21288653711477915,-0.6932047909746567,-279.828955078125,132.2418975830078,-168.60155792236327,0.0010032924738797376,-0.12648556449196555,-0.002932440150867824,-0.967657494544983,-8.874022102355957,4.003910207748413,-0.11547898842642702,0.20868684475620589,-0.695088291230301,-0.9705033817074515,-8.737779704007236,4.345381910150701
10.3,-0.9502496818701426,-8.921140829722086,4.563511689503987,0.0,0.0,0.9868927001953124,29.96299934387207,0.0846267864108085,0.0,41.0,-122.7531627,49.1904004,0.6570299814144771,-0.702465683221817,0.25994496115229343,0.08320478440234151,-1.8293013048894478,1.075557810790611,-1.570870792323893,-10.362679958343506,39.37671890258789,-26.254399490356445,-0.1996307641267776,-0.12687670588493344,-0.35830300599336623,-278.6528747558594,132.26751861572265,-169.0553985595703,0.3665051943424976,-0.2518602501262318,-0.419307296926325,-0.9340981344381968,-8.93071190516154,4.626323143641154,-0.19874500632286068,-0.1311222285032272,-0.3601966932415962,-1.2066017547340104,-8.627379858132565,4.496803092234062
10.4,-0.7863911874592304,-8.942152738571167,4.144817521174748,0.0,0.0,0.9877601861953734,30.432665983835857,0.07963888269538674,0.0,41.0,-122.75316243333333,49.19040044166667,0.6472580929597219,-0.70754474401474,0.2694255113601684,0.0883632327119509,-1.870685299237569,1.0518529613812764,-1.5366317629814148,-9.282369899749757,38.80850391387939,-27.31213955879211,-0.21789054190739987,-0.14488068825254835,-0.17089845901355147,-277.5725662231446,131.69930267333984,-170.1131378173828,0.7320070962111155,-0.37723493576049805,-0.8356821537017822,-0.7702396363019943,-8.951723893483479,4.2076290647188825,-0.21699587795883415,-0.14910329997073857,-0.17279341587175925,-1.4427001277605693,-8.516980012257894,4.648224274317424
10.5,-0.6225326930483183,-8.963164647420248,3.72612335284551,0.0,0.0,0.9886276721954345,30.90233262379964,0.07465097897996498,0.0,41.0,-122.75316216666667,49.190400483333335,0.6512328711423007,-0.6991334828463468,0.28166974132711237,0.08785914426500142,-1.8420703411102295,1.037392789667303,-1.5846283435821533,-8.202059841156006,38.2402889251709,-28.369879627227782,-0.23615031968802214,-0.16288467062016324,0.016506087966263273,-276.4922576904297,131.13108673095704,-171.1708770751953,0.5495730096643622,-0.40885066986083984,-0.6992209607904608,-0.6063811381657919,-8.97273588180542,3.7889349857966104,-0.23524674959480762,-0.16708437143824992,0.014609861498077673,-1.3420838876204058,-8.446133266795766,4.804120323874733
10.6,-1.0869396924972534,-8.753543472290039,4.468955230712891,0.0,0.0,0.9894951581954955,31.371999263763428,0.06966307526454323,0.0,41.0,-122.75316190000001,49.190400525,0.6655514899528387,-0.6831860230727629,0.2891457567386555,0.07500158878269064,-1.7740678389867148,1.0466608725713962,-1.6823879480361938,-9.204899883270263,37.77607955932617,-28.754179191589355,0.021482094501455617,0.18906278846164545,0.3203988236685594,-277.49510192871094,130.66687774658203,-171.5551788330078,0.5404173684391109,-0.5561889410018921,-0.6710504519216942,-1.0707881450653076,-8.763114929199219,4.531766700744629,0.022347486888368902,0.1848121890798211,0.31848987316091854,-1.0019635782210212,-8.491503383174088,4.790440828511209
10.7,-0.7318049271901449,-8.763812383015951,4.83888566493988,0.0,0.0,0.9903626441955565,31.841665903727215,0.06467517154912146,0.0,41.0,-122.75316163333333,49.19040056666667,0.6798701087633768,-0.6672385632991791,0.2966217721501986,0.062144033300379875,-1.7060653368632,1.0559289554754894,-1.7801475524902344,-10.6908597946167,36.93793907165527,-29.168979454040528,-0.1227533712983131,-0.5943413436412811,0.6185926795005798,-278.98105773925784,129.8287384033203,-171.96997833251953,0.5312617272138596,-0.7035272121429443,-0.6428799430529276,-0.7156533797581991,-8.773383935292562,4.901697158813477,-0.12183707356452937,-0.5986173987388611,0.616637909412384,-0.6618432688216368,-8.536873499552408,4.776761333147685
10.8,0.48903312782446545,-9.778369426727295,3.321437199910482,0.0,0.0,0.9912301301956176,32.311332543691,0.05968726783369971,0.0,41.0,-122.75316136666666,49.190400608333334,0.7022341837485631,-0.647862787048022,0.28896261379122734,0.04137603826044743,-1.5784352521101634,1.086613898475965,-1.925800214211146,-12.379339694976807,36.5365592956543,-29.271459579467773,0.2578614925344785,-0.09254608334352571,0.8463028967380524,-280.66953125,129.42735595703124,-172.07245941162108,0.5369057332475979,-0.5927106936772664,-0.46992283066113794,0.505184680223465,-9.787940661112467,3.3842487732569375,0.25877779287596536,-0.09682214322189488,0.8443430364131927,-0.08111102723826968,-8.677300612131754,4.515737791856131
10.9,0.8093971858421962,-9.373085121313732,4.125276078780492,0.0,0.0,0.9920976161956786,32.780999183654785,0.05469936411827795,0.0,41.0,-122.7531611,49.19040065,0.7245982587337494,-0.6284870107968649,0.28130345543225604,0.020608043220514984,-1.450805167357127,1.1172988414764404,-2.071452875932058,-15.912154626846313,36.14493942260742,-28.06030445098877,0.23486496368423104,0.18497127061709762,1.0620846773187318,-284.2023468017578,129.03573684692384,-170.86130294799804,0.5425497392813364,-0.48189417521158845,-0.2969657182693482,0.8255487357576689,-9.382656395435333,4.188087662061055,0.23578125824375695,0.18070793803781277,1.060131179789702,0.49962121434509754,-8.8177277247111,4.254714250564575
11.0,1.129761243859927,-8.967800815900167,4.929114957650502,0.0,0.0,0.9929651021957396,33.25066582361857,0.04971146040285619,0.0,41.0,-122.75316083333334,49.19040069166667,0.37502224336970935,-0.2367619980465282,0.10300740735097365,0.0069341359088535455,-1.0223655104637146,1.0661439570513638,-2.4863955974578857,-19.44496955871582,35.753319549560544,-26.849149322509767,0.21186843483398357,0.46248862457772094,1.2778664578994114,-287.73516235351565,128.6441177368164,-169.650146484375,-0.8578879074616865,-0.5311746163801714,0.5885964306918058,1.1459127912918727,-8.9773721297582,4.991926550865173,0.21278472361154854,0.45823801929752034,1.2759193231662114,2.47062087059021,-8.585649577054111,4.000636144117876
11.1,2.131047821044922,-9.770732498168945,2.8342984676361085,0.0,0.0,0.9938325881958007,33.72033246358236,0.04472355668743443,0.0,41.0,-122.75316056666666,49.190400733333334,0.2523611117944573,-0.16983378723715292,0.06544787007750887,0.008009138608802847,-0.8529495820403099,1.045755330360297,-2.6164305210113525,-28.36377944946289,32.75578002929687,-24.09865951538086,0.18939877077937123,0.653534185886383,0.5941580772399903,-296.6539733886719,125.64657974243164,-166.8996566772461,-0.5216263352018413,-0.08300411520582263,0.4352310335997379,2.1471993923187256,-9.780303573608398,2.8971100807189942,0.19031506627798075,0.6493192076683044,0.5922949373722076,3.201018303632736,-8.48509765032566,3.6003585773887057
11.2,1.96979155143102,-8.105287790298462,3.735694686571757,0.0,0.0,0.9947000741958617,34.18999910354614,0.039735652972012675,0.0,41.0,-122.75316029999999,49.190400775,0.12969998021920523,-0.10290557642777763,0.027888332804044083,0.009084141308752151,-0.6835336536169052,1.0253667036692302,-2.7464654445648193,-31.497959518432616,32.24825916290283,-20.273959732055665,0.5297947078943253,0.8945685241903577,0.34631696130548206,-299.7881561279297,125.13905715942383,-163.07495727539063,-0.18536476294199625,0.3651663859685262,0.2818656365076701,1.9859431584676106,-8.114859183629354,3.798506259918213,0.5307110100984573,0.8903142980166844,0.3444189184478351,3.9314157366752625,-8.384545723597208,3.200081010659536
11.3,5.539982517560323,-7.966005722681682,3.121736248334249,0.0,0.0,0.9955675601959227,34.659665743509926,0.03474774925659092,0.0,41.0,-122.75316003333333,49.19040081666667,-0.364042284588019,0.1875264594952265,-0.08034014080961545,0.01122783588167896,-0.6328886970877647,0.9978065888086955,-2.8029554684956866,-33.787899780273435,29.99735927581787,-19.892099571228027,-0.21896464340388772,-0.8921686947345734,1.1250305116176604,-302.0780914306641,122.88815765380859,-162.69309844970704,-1.0713427265485127,0.2361085216204325,-0.09209191799163813,5.556134263674418,-7.975576877593994,3.1845478614171348,-0.2180483434349298,-0.896353131532669,1.1231062829494476,4.27657076716423,-8.241241892178852,3.124461462100347
11.4,4.433410879337426,-7.798956766273037,3.1266986529032392,0.0,0.0,0.9964350461959838,35.12933238347372,0.02975984554116916,0.0,41.0,-122.75315976666667,49.190400858333334,-0.8577845493952433,0.4779584954182307,-0.18856861442327497,0.013371530454605767,-0.5822437405586243,0.9702464739481608,-2.859445492426554,-34.75383434295654,29.133904361724852,-19.911009550094604,-0.07210500515842189,-0.5315927529086669,0.6922923054934168,-303.04402847290044,122.0247022628784,-162.7120071411133,-1.9573206901550293,0.10705065727233883,-0.46604947249094636,4.449562504436031,-7.808528011495417,3.189510217218688,-0.07118870558527607,-0.5358039133250714,0.6903693508977691,4.621725797653198,-8.097938060760498,3.048841913541158
11.5,3.3268392411145298,-7.631907809864391,3.131661057472229,0.0,0.0,0.9973025321960448,35.5989990234375,0.0247719418257474,0.0,41.0,-122.7531595,49.1904009,-0.8597474802624095,0.46319505030458624,-0.21299101141366086,0.028867821801792447,-0.6156402067704634,0.9420689073475924,-2.8876075094396416,-35.71976890563965,28.270449447631837,-19.929919528961182,0.07475463308704396,-0.17101681108276048,0.25955409936917323,-304.00996551513674,121.16124687194824,-162.73091583251954,-0.8380785421891646,0.7131912058049982,0.6971820484508168,3.342990745197643,-7.64147914539684,3.1944725730202417,0.07567093226437767,-0.1752546951174736,0.2576324188460906,4.700362638993696,-7.939195156097412,3.3304031545465644
11.6,3.6783666213353476,-7.28604515393575,4.08235490322113,0.0,0.0,0.9992750644683837,35.44459915161133,0.0228225236758589,0.0,41.0,-122.75315906,49.19040006,-0.29593842521761404,0.14154650745066727,-0.06405388055877251,0.01768421173663664,-0.6933999402504978,0.9709448629256451,-2.795876430742668,-35.1689395904541,28.072199440002443,-21.77211971282959,-0.11860966620345907,0.13408492195109525,-0.44735697905222577,-303.4591369628906,120.96299819946289,-164.5731185913086,-0.8193096139214255,0.2588076465057604,0.41174355600819446,3.6945181687672934,-7.2956165472666425,4.145166436831157,-0.11769337082902585,0.12980886114140353,-0.4492404858271281,4.241198309443213,-8.09858787059784,3.5002040294083683
11.7,2.716352164745331,-8.338288942972818,3.327618678410848,0.0,0.0,1.0012475967407226,35.290199279785156,0.0208731055259704,0.0,41.0,-122.75315862,49.19039922,0.2678706298271815,-0.18010203540325165,0.08488325029611583,0.0065006016714808336,-0.7711596737305323,0.9998208185036978,-2.704145352045695,-33.74153938293457,29.674059104919433,-21.479319763183593,-0.2940807119011879,0.0754418559372425,-0.7064656714598337,-302.03173828125,122.56485748291016,-164.2803161621094,-0.8005406856536865,-0.19557591279347739,0.12630506356557208,2.7325037717819214,-8.347860336303711,3.390430291493734,-0.2931898633639018,0.07119125251968698,-0.7085273265838623,3.7820339798927307,-8.257980585098267,3.670004904270172
11.8,3.2675987482070923,-8.601300160090128,4.1709889968236284,0.0,0.0,1.0032201290130616,35.135799407958984,0.0189236873760819,0.0,41.0,-122.75315818,49.19039838,0.528483582039674,-0.3666364476084709,0.1752804381151994,0.01339757592844151,-0.9169928009311359,1.0194487224022548,-2.5722694993019104,-31.014839363098144,30.9123592376709,-23.82781982421875,-0.3932750463485718,-0.6700275540351868,-0.7442782163619995,-299.30503845214844,123.80315628051758,-166.62881774902343,-0.5212307075659435,-0.3367995619773865,0.18438361088434851,3.2837502161661782,-8.610871235529581,4.233800530433655,-0.39235875606536863,-0.6743341386318207,-0.7464162349700928,3.0938934683799744,-8.358635465304058,4.000860959291458
11.9,2.576218003576452,-8.817075602936022,4.337439690575454,0.0,0.0,1.0051926612854003,34.98139953613281,0.0169742692261934,0.0,41.0,-122.75315773999999,49.19039754,0.7890965342521667,-0.5531708598136902,0.26567762593428296,0.020294550185402185,-1.0628259281317394,1.0390766263008118,-2.440393646558126,-27.40150442123413,32.11436419486999,-25.5135546207428,-0.34265340690811474,-0.5215758389482895,-0.8895737797021865,-295.6917007446289,125.00516262054444,-168.31455192565917,-0.24192072947820029,-0.4780232111612956,0.24246215820312497,2.5923695275277803,-8.826646851770805,4.400251253084702,-0.34175620153546327,-0.5259053421517214,-0.8917118057608604,2.405752956867218,-8.459290345509848,4.331717014312744
12.0,1.8848372589458118,-9.032851045781916,4.503890384327281,0.0,0.0,1.0071651935577393,34.82699966430664,0.0150248510763049,0.0,41.0,-122.7531573,49.1903967,0.7369553446769714,-0.6059180118820884,0.2955376749688928,0.04113496840000148,-1.386354153806513,1.05125000260093,-2.12969247861342,-23.78816947937012,33.31636915206909,-27.199289417266847,-0.29203176746765774,-0.3731241238613923,-1.0348693430423737,-292.0783630371094,126.2071689605713,-170.00028610229492,0.3834922381422736,-0.6676803068681196,-0.29942304437810724,1.900988838889382,-9.04242246801203,4.566701975735751,-0.29115364700555796,-0.377476545671622,-1.0370073765516281,0.8744060356508602,-8.517650430852717,4.761277068745006
12.1,1.0430712575713794,-9.27687374750773,4.3777687549591064,0.0,0.0,1.0071651935577393,34.66359977722168,0.01573282284662126,0.0,41.0,-122.75315707,49.19039606,0.7110610579450924,-0.6329131383787502,0.29759266329082573,0.05518455461909369,-1.528841796246442,1.045646767724644,-1.9696270742199637,-17.293499565124513,35.02619934082031,-29.332459449768066,-0.1868229545652866,-0.03960443163911501,-0.8357400099436442,-285.5836883544922,127.91699829101563,-172.13345642089843,0.4709313972570905,-0.3946033535581646,-0.166184279051694,1.059222827355067,-9.286444981892904,4.440580288569133,-0.18595756093660987,-0.0439568410317103,-0.8379034996032715,0.1815953976333593,-8.489043983546171,4.84315704757517
12.2,0.14995021273110373,-8.822038014729818,4.610869566599528,0.0,0.0,1.0071651935577393,34.50019989013672,0.01644079461693762,0.0,41.0,-122.75315684,49.19039542,0.6851667712132136,-0.659908264875412,0.29964765161275864,0.06923414083818591,-1.6713294386863708,1.0400435328483582,-1.8095616698265076,-14.320359802246093,35.688659286499025,-29.45323963165283,0.038056905567646,-0.10030407370068133,-0.8442462921142578,-282.6105560302734,128.57945709228517,-172.25423889160157,0.5583705563719074,-0.12152640024820964,-0.03294551372528077,0.16610177466645834,-8.831609408060709,4.673681100209554,0.038973202556371676,-0.104702303186059,-0.8463843464851379,-0.5112152403841416,-8.460437536239624,4.9250370264053345
12.3,-0.04346961093445619,-8.388139645258585,5.095316489537557,0.0,0.0,1.0071651935577393,34.336800003051756,0.01714876638725398,0.0,41.0,-122.75315661,49.19039478,0.6758027111490568,-0.668998983502388,0.29736161753535273,0.08195941553761557,-1.7099383056163788,1.026064282655716,-1.7492559731006623,-11.469219779968261,36.55485916137695,-29.72407932281494,-0.10662143863737579,0.20975585763032237,-0.5227479288975397,-279.75941772460936,129.4456588745117,-172.5250732421875,0.3686078498450418,-0.3874671300252279,-0.48286412954330443,-0.02731805263708037,-8.397710800170898,5.158127943674724,-0.10570514077941573,0.2054288899526,-0.5249368647734324,-0.7206055078034599,-8.389010214805603,5.021014654636383
12.4,-0.2214811116061879,-8.681917410908323,4.61108711271575,0.0,0.0,1.0071651935577393,34.1734001159668,0.017856738157570343,0.0,41.0,-122.75315638000001,49.19039414,0.6664386510848999,-0.678089702129364,0.29507558345794677,0.09468469023704525,-1.7485471725463868,1.0120850324630737,-1.688950276374817,-11.122129797935486,36.38070449829102,-30.03273935317993,-0.08683831190379954,0.07638360992617285,-0.2983694908519586,-279.4123260498047,129.27150230407716,-172.8337348937988,0.17884514331817625,-0.6534078598022461,-0.9327827453613281,-0.20532955730221036,-8.69148874282837,4.673898592139736,-0.0859411035586769,0.07203755713999271,-0.30055206222459674,-0.9299957752227783,-8.317582893371583,5.1169922828674315
12.5,-0.3994926122779196,-8.97569517655806,4.126857735893943,0.0,0.0,1.0071651935577393,34.010000228881836,0.0185647099278867,0.0,41.0,-122.75315615000001,49.1903935,0.664205531279246,-0.6781681279341379,0.3028279195229212,0.08463627907137072,-1.7677105863889058,1.0153087079524994,-1.6961398422718048,-10.77503981590271,36.20654983520508,-30.34139938354492,-0.0670551851702233,-0.056988637777976664,-0.07399105280637742,-279.065234375,129.09734573364258,-173.14239654541015,0.8465095907449722,-0.2707010904947917,-0.46724750598271686,-0.38334106196734036,-8.98526668548584,4.189669240604747,-0.06617706633793809,-0.06135377567261455,-0.07616725967576106,-1.0221383372942607,-8.333921432495117,5.071670373280843
12.6,-0.23349960645039872,-8.294619878133139,5.0260242621103925,0.0,0.0,1.0071651935577393,33.84660034179687,0.01927268169820306,0.0,41.0,-122.75315592,49.190392859999996,0.6838269904255867,-0.6606422265370686,0.29905090356866515,0.07230865443125363,-1.6701267560323079,1.0339759041865668,-1.8055799851814904,-10.539579772949219,36.540219116210935,-30.1864595413208,0.11181379482150074,0.008882998721674066,0.2747875551382701,-278.82977294921875,129.43101654052734,-172.98745574951172,0.5545815030733744,-0.5711938142776489,-0.4357127249240875,-0.21734805901845292,-8.30419127146403,5.088835875193278,0.11265373198936378,0.004530583935168866,0.2726495154201984,-0.5260336791786056,-8.427709897359211,4.952083746592203
12.7,0.17816558480262754,-9.22672414779663,4.366602261861165,0.0,0.0,1.0071651935577393,33.683200454711915,0.019980653468519422,0.0,41.0,-122.75315569,49.19039222,0.7034484495719274,-0.6431163251399994,0.29527388761440915,0.059981029791136536,-1.57254292567571,1.052643100420634,-1.9150201280911763,-12.98201961517334,35.97047882080078,-30.026639556884767,0.037171149626374175,0.0014660760760307422,0.8432689189910889,-281.272216796875,128.86127624511718,-172.8276351928711,0.2626534154017766,-0.8716865380605062,-0.4041779438654582,0.19431713720162705,-9.236295223236084,4.429413795471191,0.03802636181935662,-0.002932153642177582,0.8410698175430298,-0.029929021062950294,-8.521498362223307,4.8324971199035645
12.8,0.2993022383501132,-9.600004514058432,4.419344027837117,0.0,0.0,1.0071651935577393,33.51980056762695,0.02068862523883578,0.0,41.0,-122.75315546,49.19039158,0.7264933640758197,-0.6192267686128616,0.2917601642509301,0.03954731250802672,-1.4381899694601694,1.0655819018681845,-2.0739006022612254,-16.81769962310791,35.547139739990236,-28.850559425354003,0.35567628343900043,0.21023945262034735,0.8235736091931661,-285.10789489746094,128.43793792724608,-171.65155792236328,0.32054340491692224,-0.42508124510447187,-0.006975932916005456,0.3154537882655859,-9.609575748443604,4.482155640920003,0.35651623209317523,0.2058361346522967,0.8214101294676462,0.5925521239327889,-8.583975632985432,4.648329067230224
12.9,1.2135870709281529,-9.26908808043509,4.332404794115009,0.0,0.0,1.0071651935577393,33.356400680541995,0.02139659700915214,0.0,41.0,-122.75315523,49.19039094,0.7495382785797119,-0.5953372120857239,0.2882464408874511,0.019113595224916898,-1.3038370132446289,1.078520703315735,-2.2327810764312743,-19.548059606552123,34.64982972145081,-28.299119472503662,0.2912109137202302,0.11586077309524019,1.0413979838291805,-287.8382537841797,127.54062767028807,-171.1001174926758,0.3784333944320678,0.021524047851562467,0.39022607803344733,1.2297386466948823,-9.278659235347401,4.3952164071978945,0.29205721989274025,0.11147654522210358,1.0392345041036606,1.215033268928528,-8.646452903747559,4.464161014556884
13.0,2.1278719035061924,-8.938171646811746,4.2454655603929,0.0,0.0,1.0071651935577393,33.19300079345703,0.0221045687794685,0.0,41.0,-122.753155,49.1903903,-0.5447917332251867,0.34176789969205856,-0.17513989408810934,0.016123115424610007,-0.971095139781634,1.0318156878153484,-2.5940303603808084,-22.27841958999634,33.75251970291138,-27.74767951965332,0.22674554400146005,0.02148209357013302,1.2592223584651947,-290.56861267089846,126.64331741333008,-170.54867706298828,-0.2759527961413066,-0.5781375567118326,-0.30012746651967365,2.1440235051241787,-8.9477427222512,4.308277173475786,0.2275982076923052,0.017116955791910467,1.2570588787396748,2.8285990953445435,-8.420550982157389,4.111381451288859
13.1,2.560320198535919,-8.839485804239908,3.786043643951416,0.0,0.0,1.0090253591537475,32.67880058288574,0.024662845581769902,0.0,41.0,-122.75315434000001,49.1903882,-0.6980264360706012,0.39930684898387303,-0.21112238389976096,0.042927173771066404,-0.8170832181067178,0.989885171254476,-2.7739704639622658,-29.214119720458985,30.840379524230958,-25.35891971588135,0.45356743931770327,0.17253888994455333,1.0042319416999816,-297.5043151855469,123.73117752075196,-168.15991821289063,-0.8304057130307863,-0.16404582514907373,0.13762699293367792,2.5764717857042947,-8.849057038625082,3.848855217297872,0.45448374152183535,0.1681406587362289,1.0020633459091186,3.664695539257743,-8.195410699555367,3.808987155105129
13.2,2.752643406391144,-8.276275078455607,3.9526439110438027,0.0,0.0,1.010885524749756,32.16460037231445,0.027221122384071303,0.0,41.0,-122.75315368000001,49.1903861,-0.8512611389160156,0.4568457982756875,-0.24710487371141257,0.0697312321175228,-0.6630712964318015,0.9479546546936035,-2.953910567543723,-32.763099670410156,28.82981929779053,-24.085239601135253,0.38441240787506104,-0.05230533704161642,1.031929572423299,-301.0532958984375,121.7206184387207,-166.88623657226563,-1.3848586299202659,0.2500459064136852,0.5753814523870294,2.768794854482015,-8.285846392313639,4.015455444653829,0.3853032539288203,-0.056708657493193926,1.0297660926977794,4.500791983170942,-7.970270416953347,3.506592858921398
13.3,3.5782270431518555,-7.0715087890625,4.162315034866333,0.0,0.0,1.0127456903457641,31.65040016174316,0.0297793991863727,0.0,41.0,-122.75315302,49.190384,-0.8588959326346715,0.4397339687654467,-0.24725117184447515,0.08309686325038923,-0.6257445324550975,0.9214359819889069,-3.014207471500743,-34.762678909301755,26.705799293518066,-24.062059593200683,0.18837557360529897,-0.20591249192754427,0.7681375940640768,-303.05287475585936,119.59659729003906,-166.8630569458008,-1.3225011139205007,0.33147325660243177,0.3863480560707323,3.5943784713745117,-7.081080055236816,4.225126552581787,0.18926640972495076,-0.21026490814983842,0.7659232020378113,4.7984018109061495,-7.815214446096709,3.455340817119136
13.4,3.80544047554334,-7.069729121526082,3.976123493909836,0.0,0.0,1.0146058559417725,31.13619995117187,0.0323376759886741,0.0,41.0,-122.75315236,49.1903819,-0.8665307263533274,0.4226221392552058,-0.24739746997753775,0.09646249438325565,-0.5884177684783936,0.8949173092842102,-3.0745043754577637,-35.057614135742185,26.246469449996948,-24.141359710693358,0.07859163351046541,-0.14355969464910837,0.33174437033934134,-303.34780807495116,119.13726730346679,-166.9423568725586,-1.2601435979207356,0.4129006067911784,0.1973146597544352,3.8215919534365335,-7.079300391674042,4.038935049374898,0.07948247413150966,-0.14793119945291738,0.3295427058280135,5.096011638641357,-7.660158475240071,3.404088775316874
13.5,4.032653907934825,-7.067949453989665,3.7899319529533386,0.0,0.0,1.0164660215377808,30.621999740600582,0.0348959527909755,0.0,41.0,-122.7531517,49.1903798,-0.8569061756134033,0.43550384789705276,-0.2605552052458127,0.0883021373301744,-0.6531021694342295,0.914419636130333,-3.0158005754152932,-35.352549362182614,25.78713960647583,-24.220659828186037,-0.031192306584368144,-0.08120689737067248,-0.10464885338539415,-303.64274139404296,118.67793731689453,-167.02165679931642,-0.8089350064595541,0.5269124507904053,0.6120945612589518,4.048805435498555,-7.077520728111267,3.8527435461680093,-0.03030146146193145,-0.08559749075599636,-0.10683779038178426,4.74374504884084,-7.77666715780894,3.625285029411316
13.6,3.678964853286743,-7.631309827168782,4.400400876998901,0.0,0.0,1.0180734872817994,30.40179977416992,0.035719192028045584,0.0,41.0,-122.75315138,49.190379,-0.8372111510146748,0.46707852421836416,-0.27213992054263747,0.06343825140290635,-0.7762035262404066,0.9527094208381393,-2.8692263211264755,-33.381639099121095,27.069359588623048,-25.327199363708495,-0.28851165771484377,-0.04941899925470352,-0.745072340965271,-301.6718353271484,119.96015701293945,-168.1281967163086,-0.7019288720506611,0.2413091551173817,0.4347805362759214,3.695116321245829,-7.640880902608235,4.463212410608928,-0.2876564413309097,-0.0537866834551096,-0.7472409129142761,4.037864567655506,-7.993276984402629,3.901303697716106
13.7,3.2930224736531577,-8.129614671071371,4.375974257787068,0.0,0.0,1.019680953025818,30.181599807739257,0.03654243126511566,0.0,41.0,-122.75315106000001,49.1903782,-0.8175161264159463,0.4986532005396756,-0.2837246358394622,0.03857436547563829,-0.8993048830465837,0.9909992055459456,-2.7226520668376577,-30.916019630432128,28.98109951019287,-26.315399742126466,-0.370362510283788,-0.022703825185696285,-1.0037025113900502,-299.2062164306641,121.87189865112305,-169.11639556884765,-0.5949227376417681,-0.04429414055564187,0.25746651129289105,3.3091740210851035,-8.139186223347982,4.438785632451375,-0.3694971154133479,-0.02705623985578617,-1.0058659811814625,3.3319840864701704,-8.209886810996316,4.1773223660208965
13.8,2.0941984176635744,-8.427281856536865,4.440361022949219,0.0,0.0,1.0212884187698363,29.96139984130859,0.03736567050218574,0.0,41.0,-122.75315074,49.1903774,-0.15649878391713812,0.057143915331724915,-0.039193667471408816,0.02302096345308443,-1.0574858369249287,1.0171255785407443,-2.5432652578209387,-27.101079559326173,31.00263957977295,-27.404859352111817,-0.3318525403738022,0.11043934524059294,-1.236314872900645,-295.3912750244141,123.89343643188477,-170.2058578491211,-0.40710782824140607,-0.5394476760517467,-0.07458985032457294,2.1103498935699463,-8.436853313446045,4.503172588348389,-0.3309871554374695,0.10603602354725199,-1.2384529213110607,2.5173193631750164,-8.34477612466523,4.395198254874258
13.9,1.6454793522755304,-8.95776077111562,4.317664037148157,0.0,0.0,1.022895884513855,29.74119987487793,0.038188909739255816,0.0,41.0,-122.75315042,49.1903766,0.5045185585816702,-0.38436536987622577,0.2053373008966446,0.007467561430530567,-1.2156667908032734,1.0432519515355427,-2.3638784488042197,-23.26692464351654,32.35409450531006,-28.423254346847536,-0.28823121010579844,-0.17984543808481906,-1.2104954078341976,-291.55711975097654,125.24489212036133,-171.22425231933593,-0.2192929188410441,-1.0346012115478516,-0.40664621194203693,1.6616308664282164,-8.967332156499227,4.380475616455078,-0.287382018498399,-0.1842198358905135,-1.2126473346442888,1.7026546398798625,-8.479665438334147,4.61307414372762
14.0,1.1967602868874867,-9.488239685694376,4.1949670513470965,0.0,0.0,1.0245033502578735,29.520999908447266,0.0390121489763259,0.0,41.0,-122.7531501,49.1903758,0.7045863270759583,-0.6243881980578104,0.33517345786094666,0.019082632536689393,-1.581250508626302,1.0477786759535472,-2.0273586908976235,-19.43276972770691,33.70554943084717,-29.44164934158325,-0.2446098798377947,-0.47013022141023114,-1.1846759427677502,-287.72296447753905,126.59634780883789,-172.24264678955078,1.021341602007548,-0.8104340235392252,-0.6973382234573364,1.2129118392864864,-9.497810999552408,4.257778644561768,-0.24377688155932856,-0.474475695328279,-1.1868417479775168,-0.06412834270546834,-8.500117540359497,4.8598194519678755
14.1,1.0292128548026085,-9.202895641326904,4.06121826171875,0.0,0.0,1.0245033502578735,29.288000106811523,0.03956851065158836,0.0,41.0,-122.75314966,49.19037512,0.685740511525761,-0.6502512458598975,0.32181021164764056,0.03485725546312146,-1.6835965532245059,1.0517251839240394,-1.8811684937188118,-11.217899990081786,35.42635917663574,-31.20149917602539,-0.0193440661144753,-0.07195483644803369,-0.750320685406526,-279.5080932617187,128.31715621948243,-174.00249633789062,0.5366031292713049,-0.43904366637721204,-0.29137257554314355,1.0453643823663394,-9.212467034657797,4.124029835065206,-0.018478673727562015,-0.07628179589907329,-0.7524587238828341,-0.5524594448647941,-8.51834751259197,4.783315006530646
14.2,-1.048853913942973,-9.012965361277262,4.888237476348877,0.0,0.0,1.0245033502578735,29.05500030517578,0.04012487232685082,0.0,41.0,-122.75314922,49.19037444,0.6668946959755637,-0.6761142936619845,0.3084469654343345,0.05063187838955354,-1.7859425978227095,1.0556716918945312,-1.7349782965400002,-11.353319835662841,36.53167877197266,-29.306839561462404,0.2890919744968414,0.70776375507315,-0.895528451850017,-279.6435150146484,129.42247772216797,-172.1078369140625,0.05186465653506192,-0.06765330921519887,0.11459307237104933,-1.0327023615439732,-9.022536754608154,4.951049168904622,0.29000827545921004,0.7033858882884184,-0.8976919278502464,-1.0407905470241199,-8.536577484824441,4.706810561093417
14.3,-0.9075976133346557,-8.146364879608154,4.684668254852295,0.0,0.0,1.0245033502578735,28.82200050354004,0.04068123400211328,0.0,41.0,-122.75314878,49.19037376,0.6571673213532476,-0.6821196887529257,0.31634472897558497,0.048511040763873005,-1.8355658668460269,1.0464130540688834,-1.7008071731437338,-8.970659732818604,37.43081932067871,-29.288539314270018,-0.11914417333900927,-0.3572798071060485,-0.13622295111417773,-277.26085510253904,130.32161712646484,-172.08953552246095,0.5671237770355109,-0.23100740259343927,-0.1434904914913756,-0.8914460659027099,-8.15593605041504,4.747479629516602,-0.11827878219385939,-0.36168312987623114,-0.13836098027726015,-1.2968249465479995,-8.490930051514596,4.724964224930965
14.4,-0.7776025493939718,-8.510497585932413,4.489269312222799,0.0,0.0,1.0245033502578735,28.589000701904297,0.04123759567737574,0.0,41.0,-122.75314834,49.19037308,0.6474399467309316,-0.688125083843867,0.3242424925168355,0.04639020313819247,-1.885189135869344,1.0371544162432353,-1.666636049747467,-8.440569794178009,37.362804126739505,-29.613364362716673,-0.02460005113177681,-0.0963813417576162,-0.07400493645532566,-276.7307640075684,130.25360183715821,-172.41436080932618,1.08238289753596,-0.3943614959716797,-0.4015740553538005,-0.7614509920279184,-8.520068748792013,4.55208078622818,-0.023730032174198903,-0.10076268607482425,-0.07617073170276303,-1.5528593460718791,-8.445282618204752,4.743117888768514
14.5,-0.6476074854532877,-8.874630292256674,4.293870369593303,0.0,0.0,1.0245033502578735,28.356000900268555,0.0417939573526382,0.0,41.0,-122.7531479,49.1903724,0.6602119952440262,-0.6848228474458059,0.3040007799863815,0.050439680616060835,-1.825373609860738,1.0625475247701008,-1.6888989210128784,-7.910479855537415,37.294788932800294,-29.93818941116333,0.06994407107545567,0.16451712359081613,-0.011786921796473603,-276.20067291259767,130.18558654785156,-172.73918609619142,0.3547533800204594,-0.21664722760518393,-0.30160407225290936,-0.6314559181531271,-8.884201447168985,4.356681942939758,0.07081871784546158,0.1601577577265826,-0.013980483128265908,-1.21506267786026,-8.568275690078735,4.613340854644775
14.6,-0.8840482632319132,-8.70249636967977,4.304189443588257,0.0,0.0,1.0264148235321044,28.170400619506836,0.04209745898842808,0.0,41.0,-122.75314756,49.190371920000004,0.35724387588826095,-0.3795572632189953,0.15999467603184958,0.035461372498309926,-1.7481296676577944,1.0837900656642336,-1.8081816272302107,-10.183339691162109,37.91393966674805,-28.557759475708007,0.17664186656475064,0.07892887915174164,0.38232527921597165,-278.47353210449216,130.80473785400392,-171.35875701904297,0.44551061206694803,-0.35823804320711083,-0.21596740411989618,-0.86789670586586,-8.7120680809021,4.367000977198283,0.17755816628535584,0.0745510123670101,0.3801872531572978,-0.8327790388668126,-8.666684746742249,4.493137446316806
14.7,-0.7305287599563599,-9.138548851013184,4.373960208892822,0.0,0.0,1.0283262968063354,27.984800338745117,0.04240096062421796,0.0,41.0,-122.75314722,49.19037144,0.054275756532495674,-0.07429167899218472,0.015988572077317673,0.02048306438055901,-1.6708857254548506,1.1050326065583662,-1.927464333447543,-11.74371976852417,37.86025848388672,-28.53457908630371,0.09084075316786762,-0.638583242893219,0.6638323465983073,-280.03391418457034,130.7510559082031,-171.33557586669923,0.5362678441134366,-0.49982885880903766,-0.13033073598688297,-0.7143772006034851,-9.148119926452637,4.4367717742919925,0.09173159984250857,-0.6428593049446741,0.6616179645061493,-0.45049539987336507,-8.765093803405762,4.372934037988836
14.8,0.7773682425419489,-9.392327308654785,4.090530316034953,0.0,0.0,1.0302377700805665,27.7992000579834,0.04270446226000784,0.0,41.0,-122.75314688,49.19037096,-0.34148276574683917,0.2604984031482176,-0.1507620892741463,0.025334277147935146,-1.5191020486932811,1.1085502722046592,-2.1061085101329917,-12.622119808197022,36.78177909851074,-29.36051959991455,-0.026750806020572768,-0.46298495059212047,1.1449396510918934,-280.9123138427734,129.67257690429688,-172.16151733398436,0.4112609164281325,-0.5410979010842063,0.024742834495775606,0.7935198098421097,-9.401898860931396,4.153341929117839,-0.02588541495303312,-0.4673119013508161,1.1427761415640514,0.20875773189420055,-8.781071424484253,4.304823167396314
14.9,1.0432706649104755,-9.257805903752644,4.219518383344015,0.0,0.0,1.0321492433547974,27.61359977722168,0.043007963895797724,0.0,41.0,-122.75314654,49.19037048,-0.737241288026174,0.59528848528862,-0.3175127506256103,0.03018548991531128,-1.367318371931712,1.1120679378509521,-2.284752686818441,-16.637444686889648,35.69353914260864,-28.537934589385983,0.04756534625564447,0.04493792834832816,1.1397970431681834,-284.9276382446289,128.58433723449707,-171.33893241882322,0.28625398874282837,-0.582366943359375,0.1798164049784342,1.0594222272435823,-9.267377336819965,4.2823300162951154,0.04842148402310681,0.040567012560186966,1.137632396636587,0.868010863661766,-8.797049045562744,4.236712296803792
15.0,1.309173087279002,-9.123284498850504,4.348506450653076,0.0,0.0,1.0340607166290283,27.42799949645996,0.0433114655315876,0.0,41.0,-122.7531462,49.19037,-0.7979305436213812,0.5295563911398252,-0.2825274293621381,0.042882285701731804,-0.9770716826121012,1.0525128344694774,-2.64530873298645,-20.652769565582275,34.605299186706546,-27.71534957885742,0.12188149853186171,0.5528608072887767,1.1346544352444736,-288.9429626464844,127.49609756469727,-170.5163475036621,-0.5760436058044434,-0.4125945568084717,0.22694420814514157,1.325324644645055,-9.132855812708536,4.411318103472392,0.12272838299924672,0.5484459264711901,1.132488651709123,2.719532161951065,-8.51948881149292,3.9770207603772483
15.1,2.8464619318644204,-9.023932456970215,4.059722741444905,0.0,0.0,1.0231493830680847,26.81719970703125,0.04178886860609054,0.0,41.0,-122.75314648,49.19037078,-0.8235262901042447,0.4950550606079174,-0.26650945243961877,0.052180514261690916,-0.8326923747857411,1.0008350822961691,-2.7831526019356465,-28.444299507141114,31.03923931121826,-26.15557975769043,0.10231992835178967,0.23286692487696806,1.0708722174167633,-296.7344909667969,123.93003768920899,-168.95657653808593,-0.8836370598186146,-0.018615213307467404,0.10597998445684259,2.8626134792963662,-9.033503532409668,4.122534195582072,0.10318532182524598,0.228514506171147,1.068708747625351,3.561978989026763,-8.248276775533503,3.7972106382702338
15.2,2.730928564071655,-7.618747234344482,3.528456211090088,0.0,0.0,1.0122380495071412,26.20639991760254,0.04026627168059348,0.0,41.0,-122.75314676,49.19037156,-0.8491220365871083,0.4605537300760096,-0.2504914755170995,0.06147874282165003,-0.6883130669593811,0.949157330122861,-2.9209964708848433,-32.44833946228027,28.7785795211792,-24.53785972595215,0.1228857257713874,0.3943898680930336,0.7897469600041708,-300.7385314941406,121.66937713623047,-167.33885498046874,-1.1912305138327859,0.3753641301935369,-0.014984239231456399,2.7470799922943114,-7.62831859588623,3.5912678241729736,0.12370021113504963,0.39001200286050636,0.7875580290953318,4.404425816102461,-7.977064739574086,3.6174005161632192
15.3,3.628815253575643,-7.598906834920247,3.623431404431661,0.0,0.0,1.0013267159461976,25.595600128173828,0.03874367475509642,0.0,41.0,-122.75314704,49.190372339999996,-0.8546071594411677,0.4489237713542852,-0.25122990233428544,0.06789879320245797,-0.6662439256906509,0.929721068703767,-2.9555929122549114,-34.163658905029294,26.786319541931153,-23.952259635925294,0.04365141255160168,-0.1381064498176177,0.5853361636400223,-302.4538543701172,119.67711868286133,-166.75325622558594,-1.1392080675471914,0.6673810012412793,0.05044754888072157,3.6449668407440186,-7.60847806930542,3.6862429777781167,0.044542257363597494,-0.14243341299394766,0.5831981400648752,4.604351220708905,-7.8648007963642925,3.615063443328395
15.4,3.7446926832199097,-7.276573697725931,3.7656547725200653,0.0,0.0,0.990415382385254,24.984800338745117,0.03722107782959936,0.0,41.0,-122.75314732000001,49.19037312,-0.860092282295227,0.43729381263256073,-0.25196832915147144,0.0743188435832659,-0.6441747844219208,0.9102848072846731,-2.9901893536249795,-34.24326391220093,26.646629428863527,-24.31063461303711,-0.014597133789775958,-0.12412827962191036,0.1676350746473128,-302.5334602355957,119.53742790222168,-167.11163177490235,-1.0871856212615967,0.9593978722890218,0.11587933699289953,3.760844260454178,-7.286144912242889,3.8284663955370584,-0.013707446385965237,-0.12847143997240695,0.16547622164767795,4.804276625315349,-7.7525368531545,3.612726370493571
15.5,3.8605701128641763,-6.954240560531616,3.9078781406084695,0.0,0.0,0.9795040488243104,24.374000549316406,0.0356984809041023,0.0,41.0,-122.7531476,49.1903739,-0.8444022861394015,0.4603082104162736,-0.26626687429168006,0.06093491038138211,-0.73878567869013,0.9434483484788374,-2.8942697915163906,-34.32286891937256,26.506939315795897,-24.669009590148924,-0.0728456801311536,-0.11015010942620306,-0.25006601434539666,-302.6130661010742,119.39773712158203,-167.47000732421876,-0.77381047335538,0.5394622195850719,0.44301115382801404,3.876721680164337,-6.963811755180359,3.970689813296,-0.07195715013552796,-0.11450946695086626,-0.2522456967695193,4.247811642560092,-7.945246783169833,3.8613107204437256
15.6,2.8640890598297117,-7.774519920349121,4.4940797805786135,0.0,0.0,0.9809901544025967,24.193000520978654,0.035031695983239554,0.0,41.0,-122.75314778571429,49.19037434285714,-0.8151709227399393,0.4986160739578984,-0.28451678992220847,0.04297046189965449,-0.9139062685496879,0.9871012214006799,-2.716297739382946,-31.436959075927735,28.68829917907715,-25.8493595123291,-0.24594962596893308,-0.12390383969371517,-0.9329439401626587,-299.72715759277344,121.57909622192383,-168.65035705566407,-0.6131904608372486,-0.05816333944147278,0.35940016760970606,2.880240631103516,-7.784091281890869,4.556891536712646,-0.24510968228181199,-0.1282562461371223,-0.935107429822286,3.287007216251258,-8.18022418383396,4.131895562012991
15.7,2.210968097050985,-8.58135986328125,4.5800619920094805,0.0,0.0,0.982476259980883,24.012000492640905,0.03436491106237681,0.0,41.0,-122.75314797142858,49.19037478571428,-0.785939559340477,0.5369239374995232,-0.3027667055527369,0.025006013417926878,-1.0890268584092457,1.0307540943225224,-2.5383256872495017,-27.47927932739258,30.69763927459717,-27.266999435424804,-0.1825468962391217,-0.26661722424129647,-1.2190579374631245,-295.76947631835935,123.58843688964843,-170.0679962158203,-0.45257044831911714,-0.6557888984680176,0.27578918139139813,2.2271196643511453,-8.590931177139282,4.642873605092366,-0.18165605266888932,-0.2710205513673524,-1.2211959660053253,2.3262027899424234,-8.415201584498087,4.402480403582255
15.8,1.549950857957204,-9.577172994613647,4.738486687342326,0.0,0.0,0.9839623655591693,23.831000464303152,0.03369812614151407,0.0,41.0,-122.75314815714286,49.190375228571426,-0.27903581907351815,0.16141315922141075,-0.09309655179580051,0.014452163333771697,-1.303227071960767,1.0463838105400403,-2.3286205033461256,-21.40977954864502,32.963179397583005,-28.661459350585936,-0.2779182369510333,-0.462603156765302,-1.3213269710540771,-289.69997253417966,125.85397796630859,-171.46245574951172,-0.12633109465241427,-0.6836512883504231,-0.08116038640340167,1.566102425257365,-9.5867440700531,4.801298379898071,-0.2770528395970662,-0.4669301162163417,-1.3234649896621704,1.2845505084842443,-8.492227911949158,4.577908416589102
15.9,0.7987291769435008,-9.406460007031757,4.519194473822912,0.0,0.0,0.9854484711374556,23.650000435965403,0.03303134122065133,0.0,41.0,-122.75314834285714,49.19037567142857,0.22786792119344076,-0.21409761905670166,0.11657360196113586,0.0038983132496165167,-1.5174272855122883,1.0620135267575581,-2.118915319442749,-17.28922963142395,34.105099487304685,-29.55327935218811,-0.165573406004996,-0.2509186861641479,-1.217890590429306,-285.57942428588865,126.99589691162109,-172.35427589416503,0.19990825901428855,-0.7115136782328287,-0.4381099541982015,0.814880736793081,-9.416031241416931,4.582006136576334,-0.16471032403183705,-0.2552687826030182,-1.2200286117467014,0.2428982270260652,-8.569254239400228,4.753336429595947
16.0,0.04750749592979747,-9.23574701944987,4.299902260303497,0.0,0.0,0.9869345767157419,23.46900040762765,0.032364556299788586,0.0,41.0,-122.75314852857143,49.19037611428571,0.6689640554514799,-0.665094483982433,0.3274301940744573,0.03825805996629318,-1.772643121806058,1.0455322915857488,-1.7958086403933438,-13.16867971420288,35.247019577026364,-30.445099353790283,-0.05322857505895872,-0.03923421556299385,-1.114454209804535,-281.45887603759763,128.1378158569336,-173.24609603881837,0.5179096406156366,-0.3422846360640092,-0.19963043386285956,0.063659048328797,-9.245318412780762,4.362713893254598,-0.052367808466607865,-0.04360744898969477,-1.1165922338312322,-0.9972349405288696,-8.487505652687766,4.8079141270030625
16.1,-0.6217749536037445,-8.431230163574218,4.937589454650879,0.0,0.0,0.9884206822940281,23.2880003792899,0.03169777137892584,0.0,41.0,-122.75314871428571,49.190376557142855,0.6493118292454517,-0.6903201113596107,0.30292946495341533,0.07790856672958887,-1.8377290232615038,1.017462084916505,-1.6362988587581748,-9.43425989151001,37.04895935058594,-29.969299507141113,0.0869210346912344,1.1621202180782955,-1.27042152484258,-277.7244476318359,129.93975982666015,-172.77029724121093,0.555703393889196,-0.4062818072058938,-0.38381756074500806,-0.6056234061717987,-8.440801429748536,5.00040111541748,0.08781187919278936,1.1576914389928181,-1.2725595434506733,-1.3817008833090463,-8.341375141432792,4.949033831105087
16.2,-1.4406786163647969,-8.430412610371908,4.891128937403361,0.0,0.0,0.9899067878723145,23.10700035095215,0.0310309864580631,0.0,41.0,-122.7531489,49.190377,0.6296596030394236,-0.7155457387367884,0.2784287358323733,0.11755907349288458,-1.9028149247169495,0.989391878247261,-1.476789077123006,-8.160579824447632,37.81145973205567,-29.038439559936524,-0.21818070362011588,0.34620788631339866,-0.801760621368885,-276.4507781982422,130.70225830078124,-171.83943634033204,0.5934971471627554,-0.4702789783477783,-0.5680046876271566,-1.424527068932851,-8.439984003702799,4.953940391540527,-0.217315308128794,0.34183001642425853,-0.8039240936438242,-1.7661668260892232,-8.195244630177816,5.090153535207112
16.3,-0.905783087015152,-8.921340147654215,4.11994194984436,0.0,0.0,0.9908650159835816,22.772700309753418,0.030460498668253393,0.0,41.0,-122.75314895,49.19037724,0.6280233313639958,-0.7168818141023318,0.2765672616660595,0.12255424788842594,-1.903534640868505,0.9840281282862027,-1.4660805265108743,-7.9141397953033445,37.21609992980957,-29.954659461975098,-0.17127134169762326,0.05579235901435214,0.08302676553527512,-276.20433654785154,130.10689849853514,-172.75565643310546,0.8533897499243419,-0.4839015404383341,-0.6272920767466228,-0.8896315395832062,-8.930911540985107,4.182753801345825,-0.17040595257033897,0.0514399435681601,0.08083783338467276,-1.7831088602542877,-8.166685183842977,5.131555557250977
16.4,-0.9264800887216221,-8.787899486946337,4.458095908164978,0.0,0.0,0.9918232440948487,22.438400268554688,0.02989001087844368,0.0,41.0,-122.753149,49.190377479999995,0.6263870596885681,-0.7182178894678751,0.27470578749974567,0.1275494222839673,-1.9042543570200603,0.9786643783251444,-1.4553719758987427,-8.521394824981689,37.493954563140875,-29.40504937171936,0.06465800499515328,0.2843415748440858,0.07164014720668394,-276.8115921020508,130.38475303649903,-172.20604667663574,1.1132823526859283,-0.49752410252888996,-0.6865794658660889,-0.9103285399350254,-8.797470851378009,4.520907629619945,0.06552802340945965,0.2799995741030822,0.0694766653080781,-1.8000508944193523,-8.138125737508139,5.172957579294841
16.5,-0.9471770904280923,-8.654458826238459,4.796249866485596,0.0,0.0,0.9927814722061157,22.104100227355957,0.029319523088633972,0.0,41.0,-122.75314905,49.19037772,0.6507056843150746,-0.7088740142908964,0.2366420436989177,0.13342232798988166,-1.8008151704614812,1.034078906882893,-1.492332317612388,-9.128649854660035,37.77180919647217,-28.855439281463624,0.3005873516879298,0.5128907906738195,0.060253528878092766,-277.41884765625,130.6626075744629,-171.65643692016602,-0.010204716162248072,-0.1952645561911843,0.13858743147416547,-0.9310255402868445,-8.664030161770908,4.859061457894065,0.3014619993892583,0.5085592046380043,0.05811549723148344,-1.1569884365255183,-8.427424344149502,4.876927115700462
16.6,-1.0944172541300456,-8.604191303253174,4.843372186024983,0.0,0.0,0.9937397003173828,21.769800186157227,0.02874903529882426,0.0,41.0,-122.7531491,49.19037796,0.6106209899439956,-0.6360165438417232,0.22619860912814282,0.09953787825140872,-1.7300961889100797,1.0615893010840272,-1.6391358813553145,-12.318339729309082,38.78501930236816,-26.774119567871093,0.26437738537788386,-0.12904527981299904,0.6820310403903326,-280.60853271484376,131.67581787109376,-169.5751174926758,0.25645581576408766,-0.3035391460765492,-0.0074056802373944075,-1.0782657166322072,-8.613762696584066,4.90618371963501,0.26524278521537775,-0.13342315137075877,0.6798675705989202,-0.7830972057682547,-8.560408747557437,4.700166790774374
16.7,-1.0113663772741954,-8.906883398691813,4.633003234863281,0.0,0.0,0.9946979284286499,21.435500144958496,0.02817854750901455,0.0,41.0,-122.75314915,49.1903782,0.5705362955729166,-0.5631590733925501,0.21575517455736792,0.06565342851293579,-1.659377207358678,1.0890996952851613,-1.785939445098241,-14.92181978225708,38.20795936584473,-26.331259727478027,0.12695816035072002,-0.7322492475310961,0.7699701885382334,-283.21201477050784,131.0987579345703,-169.13225708007812,0.5231163476904234,-0.41181373596191406,-0.15339879194895426,-0.9952148000399271,-8.916454633076986,4.695814768473308,0.1278744592952231,-0.7366525754332542,0.7678067088127136,-0.4092059750109911,-8.693393150965372,4.523406465848287
16.8,1.241675540804863,-9.32004419962565,4.076273123423259,0.0,0.0,0.995656156539917,21.101200103759766,0.027608059719204842,0.0,41.0,-122.7531492,49.190378439999996,-0.08575524389743805,0.012100708981355068,-0.05315963427225745,0.038330508706470284,-1.5072178890307744,1.081001912554105,-2.031731699903806,-13.057659816741943,37.072138977050784,-28.537019538879395,-0.19262617950638136,-2.0754146724939346,1.5546774913867314,-281.3478576660156,129.9629364013672,-171.33801727294923,0.6332987733185291,-0.5611278216044109,0.033378501733144106,1.2578271081050236,-9.329615434010824,4.1390847365061445,-0.19173533158997694,-2.0797925194104514,1.5524885604778926,0.2924378952011466,-8.656721393267313,4.540274282296498
16.9,1.2715495777401058,-9.15893655834776,4.391232916803071,0.0,0.0,0.9966143846511841,20.766900062561035,0.02703757192939513,0.0,41.0,-122.75314924999999,49.190378679999995,-0.7420467833677927,0.5873604913552603,-0.3220744431018829,0.011007588900004783,-1.3550585707028706,1.0729041298230488,-2.277523954709371,-17.334979701042172,35.35834426879883,-28.31436958312988,-0.03728823425869149,-0.5718531642447817,1.3555643529151424,-285.62517471313475,128.24914207458497,-171.11536674499513,0.7434811989466349,-0.7104419072469076,0.22015579541524247,1.287701135106159,-9.168507799957737,4.4540444973743325,-0.0364124295442845,-0.5762426044904825,1.3533939260876542,0.9940817654132843,-8.620049635569254,4.55714209874471
17.0,1.3014236146753484,-8.997828917069869,4.706192710182884,0.0,0.0,0.9975726127624511,20.432600021362305,0.02646708413958542,0.0,41.0,-122.7531493,49.19037892,-0.8017804351719943,0.5335898859934374,-0.26705415411428973,0.008203998255670355,-0.9764644774523649,1.0341220931573347,-2.571695652875033,-21.612299585342406,33.64454956054688,-28.09171962738037,0.1180497109889984,0.931708344004371,1.1564512144435535,-289.9024917602539,126.53534774780273,-170.89271621704103,-1.1136576695875688,-0.23291743885387073,0.21684260801835495,1.3175751621072942,-9.007400165904652,4.7690042582425205,0.11891047250140795,0.9273073104294863,1.1542992916974155,2.8055154301903467,-8.42981312491677,4.11477687142112
17.1,2.4655046264330545,-8.734899361928305,4.048855304718018,0.0,0.0,0.9985308408737182,20.098299980163574,0.02589659634977571,0.0,41.0,-122.75314935,49.19037916,-0.8246983775135243,0.5014531842686913,-0.25578850812532683,0.021630704426735765,-0.8463023763262865,0.9913900487802245,-2.707769844568137,-29.700899505615233,30.61467933654785,-25.521179389953613,0.12354749316970508,0.057014089077711085,1.1359802981217701,-297.9910919189453,123.50547790527344,-168.32217712402343,-1.1089535039482694,0.03783074472889758,0.18502458749395428,2.4816561738650003,-8.744470596313477,4.111666917800903,0.12441288679838175,0.05261077110966045,1.1338422497113545,3.5553615201603286,-8.202242303978313,3.92922322045673
17.2,2.9616164763768515,-7.736892859141032,4.121637066205342,0.0,0.0,0.9994890689849854,19.763999938964844,0.025326108559966,0.0,41.0,-122.7531494,49.1903794,-0.8476163198550543,0.4693164825439453,-0.24452286213636396,0.035057410597801174,-0.7161402752002081,0.9486580044031143,-2.8438440362612405,-32.89607906341553,28.30033931732178,-24.397559547424315,0.21800253788630164,0.17615826676289237,0.7183011670907339,-301.1862731933594,121.19113845825196,-167.19855651855468,-1.1042493383089702,0.30857892831166583,0.15320656696955362,2.9777681032816568,-7.746464172999064,4.1844485600789385,0.2188933802147706,0.17180585364500678,0.7161631484826406,4.30520761013031,-7.974671483039856,3.74366956949234
17.3,3.448755383491516,-7.6049885749816895,3.6431721846262612,0.0,0.0,0.9994890689849854,19.35,0.02434872388839714,0.0,41.0,-122.75314938,49.19037982,-0.8522193397084872,0.4611006259918213,-0.243402037769556,0.04015710875391956,-0.6930352831880251,0.9363248720765114,-2.8738684197266897,-34.789519500732425,27.09985942840576,-24.047419166564943,0.08065966454644995,0.024001913688455983,0.35837428520123166,-303.0797149658203,119.99065780639648,-166.84841766357422,-0.9941958685715994,0.6275415221850078,0.269660343726476,3.464906851450602,-7.614559888839722,3.705983797709147,0.0815505112210909,0.01964949812584865,0.3562362516919772,4.466153085231781,-7.903879463672638,3.706786185503006
17.4,3.523834699934179,-7.412937381050803,3.842923005421956,0.0,0.0,0.9994890689849854,18.936000061035156,0.02337133921682828,0.0,41.0,-122.75314936,49.190380239999996,-0.8568223595619202,0.45288476943969724,-0.24228121340274805,0.04525680691003796,-0.6699302911758422,0.9239917397499084,-2.9038928031921385,-34.70960931777954,27.08704948425293,-24.096524381637572,0.012098139603481148,-0.029537879928918275,0.05788874123809917,-302.9998046875,119.97784786224365,-166.89752273559571,-0.8841423988342285,0.9465041160583496,0.38611412048339844,3.539986213048299,-7.4225086407227945,3.9057346401792588,0.012980887130128613,-0.03389376657838565,0.0557437710689776,4.627098560333252,-7.83308744430542,3.669902801513672
17.5,3.5989140163768423,-7.220886187119917,4.042673826217651,0.0,0.0,0.9994890689849854,18.522000122070313,0.02239395454525942,0.0,41.0,-122.75314934000001,49.19038066,-0.8413077046473821,0.4755728468298912,-0.2538798625270525,0.034475378226488794,-0.7576320469379425,0.9570286571979523,-2.8150930205980935,-34.62969913482666,27.0742395401001,-24.145629596710204,-0.056463385339487665,-0.08307767354629253,-0.24259680272503334,-302.9198944091797,119.96503791809081,-166.94662780761718,-0.7465346256891886,0.27710509300231934,0.35826579729715985,3.615065574645996,-7.230457392605868,4.10548548264937,-0.05558873696083369,-0.08743703128261995,-0.244748709554022,4.095773537953694,-8.022346576054892,3.8682897488276162
17.6,3.2315069834391275,-8.004091421763102,4.3828535079956055,0.0,0.0,0.9994890689849854,18.108000183105467,0.02141656987369056,0.0,41.0,-122.75314932,49.19038108,-0.6243297830224037,0.3656916754941145,-0.19550062591830886,0.021634745741418215,-0.8982596869270006,0.9932800754904747,-2.673547178506851,-31.913979148864748,28.866419410705568,-25.36867961883545,-0.2088141043980916,-0.20056742429733274,-0.730162133773168,-300.2041748046875,121.75721817016601,-168.169677734375,-0.490072692433993,0.0068016846974691125,0.13936003049214682,3.2476584911346436,-8.013662735621134,4.445665041605632,-0.20792325834433234,-0.20491983741521833,-0.7323001623153687,3.3263387183348336,-8.215731064478557,4.096575756867726
17.7,2.7532415787378945,-8.359026749928793,4.297110637029012,0.0,0.0,0.9994890689849854,17.694000244140625,0.0204391852021217,0.0,41.0,-122.7531493,49.1903815,-0.40735186139742535,0.2558105041583379,-0.13712138930956522,0.008794113256347633,-1.0388873269160588,1.0295314937829971,-2.532001336415609,-28.534579277038574,30.73545913696289,-26.40323963165283,-0.1825468962391217,-0.2432261767486731,-0.9392816722393036,-296.82476806640625,123.6262580871582,-169.20423736572266,-0.2336107591787974,-0.26350172360738117,-0.07954573631286621,2.7693930864334106,-8.368598222732544,4.3599222501118975,-0.1817069550355275,-0.24757859235008553,-0.9414706031481425,2.556903898715973,-8.409115552902222,4.324861764907837
17.8,1.9007985095183055,-8.997411886850992,4.168396711349487,0.0,0.0,1.0005272269248962,17.312400245666502,0.01990539459511634,0.0,41.0,-122.75314924,49.1903817,-0.27440485258897146,0.188235970834891,-0.10614020725091299,0.005816773398934507,-1.183001836637656,1.045074887573719,-2.408139697710673,-24.87579936981201,32.46663913726807,-27.332879257202148,-0.10463612596504386,-0.160632104302446,-0.842357724905014,-293.16599426269534,125.35743789672851,-170.13387756347657,0.13357490400473274,-0.35625709692637125,0.2618579626083374,1.9169499973456066,-9.006983041763306,4.231208324432373,-0.1037961842957884,-0.16498452083518103,-0.8444957534472147,1.850201392173767,-8.485956645011902,4.481990218162537
17.9,1.5411273422792102,-9.064157153620865,4.397785967046564,0.0,0.0,1.0015653848648072,16.930800247192384,0.01937160398811098,0.0,41.0,-122.75314918000001,49.1903819,-0.14145784378051757,0.12066143751144409,-0.07515902519226075,0.00283943354152138,-1.327116346359253,1.060618281364441,-2.284278059005737,-21.517749619483947,33.26543426513672,-28.552879381179807,-0.11633396518035705,-0.2682265316023294,-0.8298685320399024,-289.80794525146484,126.1562328338623,-171.35387687683107,0.5007605671882629,-0.44901247024536134,0.603261661529541,1.5572788656661005,-9.073728355494413,4.460597515106201,-0.11549749387301164,-0.27258241799603583,-0.8320135076840718,1.1434988856315613,-8.562797737121581,4.639118671417236
18.0,1.181456175040115,-9.130902420390736,4.627175222743642,0.0,0.0,1.002603542804718,16.54920024871826,0.01883781338110562,0.0,41.0,-122.75314912,49.1903821,0.46493221322695416,-0.42595945795377094,0.21601440260807672,0.015360856038265966,-1.5662574768066406,1.062548557917277,-2.0389796793460846,-18.159699869155883,34.06422939300537,-29.77287950515747,-0.12803180439567025,-0.3758209589022128,-0.8173793391747908,-286.44989624023435,126.9550277709961,-172.57387619018556,0.16979534551501274,-0.42055074373881024,-0.39894453684488934,1.1976077339865945,-9.14047366922552,4.689986705780029,-0.1271988034502349,-0.3801803151568906,-0.819531261920929,0.018962301624317963,-8.570855538050333,4.755093216896057
18.1,-0.4085744669040044,-8.770692030588785,4.56540584564209,0.0,0.0,1.003641700744629,16.167600250244142,0.01830402277410026,0.0,41.0,-122.75314906,49.1903823,0.5630588310234474,-0.5516946374466924,0.2679416068801374,0.025849799261005918,-1.6952230388467964,1.0613324624119382,-1.886908388950608,-13.334599685668945,36.140059280395505,-29.743599510192873,0.11580986902117724,0.009137525844077267,-0.7810930411020914,-281.6247924804687,129.0308578491211,-172.54459381103516,0.44174229709262197,-0.3303447456070871,-0.27425045678109833,-0.3924229145050049,-8.780263106028238,4.628217538197835,0.11664981022477144,0.00481056204686562,-0.7832310597101847,-0.5961477731241647,-8.564409974849585,4.693930208683014
18.2,-0.47278188169002533,-8.75314474105835,4.699304262797038,0.0,0.0,1.0046798586845398,15.78600025177002,0.0177702321670949,0.0,41.0,-122.753149,49.1903825,0.6611854488199408,-0.677429816939614,0.31986881115219806,0.03633874248374587,-1.824188600886952,1.0601163669065996,-1.7348370985551314,-10.289479732513428,37.14289932250976,-29.627699089050292,0.023187425918877114,-0.013998994293312222,-0.7149414122104645,-278.5796752929688,130.03369598388673,-172.42869720458984,0.7136892486702312,-0.24013874747536398,-0.14955637671730734,-0.45663032432397205,-8.762715816497803,4.7621157964070635,0.02407827166219552,-0.018376864492893216,-0.7171049018700918,-1.2112578478726475,-8.557964411648838,4.632767200469971
18.3,-0.5225924730300904,-8.866125869750977,4.199882221221924,0.0,0.0,1.0057180166244506,15.404400253295899,0.01723644156008954,0.0,41.0,-122.75314894,49.1903827,0.6538958328239846,-0.6879744141390829,0.3103561268159837,0.04737122153693975,-1.8584246292258755,1.0558719318924528,-1.670207502263965,-8.3447998046875,37.500358963012694,-29.45567932128906,0.017470746859908102,0.25778513504192235,-0.483163857460022,-276.63499450683594,130.3911560058594,-172.25667724609374,0.7167815620248967,-0.2989898811687123,-0.267630089413036,-0.5064409136772156,-8.875697135925293,4.262693977355957,0.01838704403489828,0.2534479913301766,-0.48530189990997313,-1.3788384858405953,-8.537342830137774,4.624502102533976
18.4,-0.733230659365654,-8.826011125246684,4.27082945505778,0.0,0.0,1.0067561745643616,15.022800254821778,0.01670265095308418,0.0,41.0,-122.75314888,49.1903829,0.6466062168280283,-0.6985190113385519,0.30084344247976935,0.05840370059013363,-1.892660657564799,1.0516274968783061,-1.6055779059727986,-8.319789850711823,37.830064105987546,-29.007024431228636,0.06294330128779012,0.242698034318164,-0.29311732075487573,-276.60998306274416,130.720862197876,-171.80802230834962,0.7198738753795624,-0.35784101486206055,-0.38570380210876465,-0.7170790985226632,-8.83558241526286,4.3336411396662395,0.06385323507711288,0.2383723441356172,-0.2952744454145432,-1.546419123808543,-8.516721248626709,4.6162370045979815
18.5,-0.9438688457012177,-8.785896380742392,4.341776688893636,0.0,0.0,1.0077943325042724,14.641200256347656,0.01616886034607882,0.0,41.0,-122.75314881999999,49.190383100000005,0.6518552253643671,-0.6981558054685593,0.2901926164825757,0.05757335821787512,-1.873179405927658,1.0691893498102825,-1.6096604367097218,-8.294779896736145,38.159769248962405,-28.55836954116821,0.10841585571567214,0.22761093359440565,-0.10307078404972951,-276.58497161865233,131.0505683898926,-171.35936737060547,0.48864879210789997,-0.15752641359965003,-0.0049276351928710755,-0.9277172833681107,-8.795467694600424,4.4045883019765215,0.10931942611932749,0.22329669694105783,-0.10524699091911316,-1.4123228291670482,-8.600413719813028,4.500370343526204
18.6,-0.7828518052895864,-8.8364946047465,4.506283203760783,0.0,0.0,1.0088324904441834,14.259600257873535,0.01563506973907346,0.0,41.0,-122.75314876,49.1903833,0.5388738948738936,-0.5642520087686452,0.2428363881102114,0.03680740690888889,-1.796935348348184,1.0838113246542034,-1.7339322977896892,-9.34031982421875,38.4080394744873,-28.33937931060791,0.10567968835433318,-0.24918211499849952,0.4693735788265864,-277.630517578125,131.29883575439453,-171.1403778076172,0.6967740429170204,-0.3431232445167772,-0.15614847703413526,-0.7667002578576406,-8.846065839131674,4.569094896316528,0.10657053316632903,-0.2535345256328582,0.46723554531733197,-1.0412873004026937,-8.668090975645816,4.448038043397846
18.7,-0.29341987023750943,-8.882855733235678,4.220540324846904,0.0,0.0,1.0098706483840942,13.878000259399414,0.0151012791320681,0.0,41.0,-122.7531487,49.1903835,0.4258925643834201,-0.43034821206873114,0.19548015973784708,0.016041455599902655,-1.72069129076871,1.0984332994981245,-1.8582041588696567,-10.34681968688965,38.09693870544434,-28.335719299316406,-0.08855000634988149,-0.5449936191240946,0.7132615397373835,-278.6370147705078,130.98773498535155,-171.1367172241211,0.9048992937261408,-0.5287200754339044,-0.3073693188753995,-0.2772683228055636,-8.89242680867513,4.283351858456929,-0.08776097341130178,-0.549295112490654,0.7110980649789175,-0.6702517716383393,-8.735768231478604,4.395705743269487
18.8,0.8733802616596222,-9.73424186706543,3.907838249206543,0.0,0.0,1.0117899179458618,13.567400169372558,0.01396638564765448,0.0,41.0,-122.75314844,49.19038372,0.21943706409497696,-0.21126437909675366,0.0896741831392953,0.010176919455812835,-1.555462989843253,1.103204728979053,-2.0209221009052163,-12.94297981262207,36.689059829711915,-29.02135944366455,-0.08808676823973655,-0.12702943235635755,1.0779328107833863,-281.23317565917966,129.5798583984375,-171.82235565185547,0.28854429450902064,-0.4997223290530118,-0.0673406557603316,0.889531809091568,-9.743813133239746,3.9706498622894286,-0.08717047050595281,-0.13142766207456588,1.075794780254364,0.05173784875395626,-8.757141944133874,4.341613950151386
18.9,1.0037641797835628,-9.362387231985728,4.179967008034388,0.0,0.0,1.0137091875076294,13.256800079345703,0.01283149216324086,0.0,41.0,-122.75314818,49.190383940000004,0.012981563806533813,0.007819453875223795,-0.016131793459256482,0.004312383311723017,-1.390234688917796,1.1079761584599812,-2.1836400429407754,-17.276114678382875,35.917104721069336,-27.71870446205139,0.05814928319305182,0.3430924599990249,1.0571710298458736,-285.56630859375,128.8079027175903,-170.51970252990725,-0.3278107047080994,-0.47072458267211914,0.1726880073547363,1.0199157123143474,-9.371958442529042,4.242778640985489,0.05903376219794157,0.33869805267701547,1.0550329978267352,0.7737274691462517,-8.778515656789144,4.287522157033284
19.0,1.1341480979075034,-8.990532596906027,4.452095766862233,0.0,0.0,1.0156284570693968,12.946199989318847,0.01169659867882724,0.0,41.0,-122.75314792,49.19038416,0.007692421476046245,0.007383063435554504,-0.008437262227137893,0.002052575170334067,-0.9680788566668829,1.0742190778255463,-2.5307313601175943,-21.609249544143676,35.145149612426756,-26.416049480438232,0.2043853346258402,0.8132143523544073,1.0364092489083607,-289.8994415283203,128.03594703674315,-169.217049407959,-0.4036201337973277,-0.22751390933990479,0.06723707914352413,1.1502996155371268,-9.000103751818338,4.514907419681549,0.20523799490183592,0.8088237674285969,1.0342712153991063,2.644475440184275,-8.62352466583252,3.7912760376930237
19.1,2.6659035285313926,-8.983055114746094,3.2436705032984414,0.0,0.0,1.0175477266311643,12.635599899291993,0.01056170519441362,0.0,41.0,-122.75314766,49.190384380000005,-0.4186607908570405,0.2490550774064931,-0.10977896094096427,0.009830379409046979,-0.8194991998148687,1.032766191796823,-2.6703080733617144,-29.549619483947755,32.370259284973145,-22.821319389343262,0.2231694385409355,0.6956991652647654,0.8913796643416086,-297.8398132324219,125.2610580444336,-165.6223159790039,-0.6964841751438198,0.07463186979293823,0.23764149980111554,2.682055036226908,-8.992626349131266,3.306482116381327,0.22408573329448697,0.6913212786118189,0.8892161846160889,3.4235348385391813,-8.416478547182951,3.5616270276633175
19.2,3.207977573076884,-7.884250720342,3.6447673638661704,0.0,0.0,1.019466996192932,12.324999809265137,0.00942681171,0.0,41.0,-122.7531474,49.1903846,-0.8450140031901273,0.4907270913774317,-0.21112065965479065,0.01760818364775989,-0.6709195429628546,0.9913133057680997,-2.809884786605835,-33.187659072875974,30.315779876708984,-21.47443962097168,0.1982003189623356,-0.06706791371107101,0.7348709007104238,-301.47785034179685,123.20657882690429,-164.2754379272461,-0.989348216490312,0.37677764892578125,0.40804592045870697,3.2241291205088296,-7.893822352091472,3.707578937212626,0.19904026016592977,-0.0714457808062434,0.732732872168223,4.202594236894087,-8.20943242853338,3.3319780176336113
19.3,3.223849964141846,-7.777870178222656,3.8331822395324706,0.0,0.0,1.0215456724166867,12.144999885559082,0.0088017081841826,0.0,41.0,-122.75314728000001,49.19038466,-0.8497958914800123,0.48255740828586347,-0.21048696813258255,0.021006670265430252,-0.6496280558181532,0.9772898690267042,-2.8360521992047625,-35.10183982849121,28.521159362792968,-21.170659828186036,0.05610797405242918,-0.02504547536373138,0.4287663161754608,-303.39203491210935,121.41195831298828,-163.9716552734375,-1.124347032922687,0.4665156602859497,0.42267995711528894,3.2400014877319334,-7.787441253662109,3.8959938526153564,0.05702426955103872,-0.029443705826997756,0.4266282856464386,4.363858956279176,-8.133473230130745,3.311670568856326
19.4,3.150011436144511,-7.689709544181824,3.7736208856105806,0.0,0.0,1.0236243486404417,11.964999961853028,0.0081766046583652,0.0,41.0,-122.75314716,49.19038472,-0.8545777797698975,0.47438772519429523,-0.20985327661037442,0.024405156883100618,-0.6283365686734518,0.9632664322853088,-2.8622196118036904,-35.08292989730835,28.698669338226317,-21.091054630279544,-0.0030746878939680866,-0.018338683402786653,0.06216317464907961,-303.37312545776365,121.58946781158447,-163.89205169677734,-1.2593458493550618,0.5562536716461182,0.43731399377187086,3.1661629815896353,-7.699280699094137,3.8364325086275737,-0.002183843233312173,-0.022707644570618867,0.06002514480302734,4.525123675664266,-8.05751403172811,3.2913631200790405
19.5,3.0761729081471763,-7.601548910140991,3.71405953168869,0.0,0.0,1.0257030248641965,11.785000038146972,0.0075515011325478,0.0,41.0,-122.75314704,49.19038478,-0.8340613593657812,0.505628210802873,-0.21893011033535,0.0119464898501367,-0.7364860574404398,1.0129417727390926,-2.746409217516581,-35.064019966125485,28.87617931365967,-21.01144943237305,-0.06225734984036534,-0.01163189144184193,-0.3044399668773015,-303.35421600341795,121.76697731018066,-163.81244812011718,-1.1641792853673298,0.5098443428675333,0.5459882418314616,3.0923244754473367,-7.611120144526164,3.776871164639791,-0.06139195601766306,-0.01597158331423998,-0.306577996040384,3.8396652142206826,-8.322890520095825,3.463178873062134
19.6,2.470090905825297,-7.93370254834493,4.291627049446106,0.0,0.0,1.0277817010879515,11.605000114440918,0.0069263976067304,0.0,41.0,-122.75314691999999,49.19038484,-0.030648546914259556,-0.03687134983413143,0.018777834420854372,0.013273990038821105,-0.9339361010175762,1.0518265693928257,-2.5553215615677107,-31.700479125976564,31.119759178161623,-22.3918794631958,-0.20064377660552657,-0.2690861361722151,-0.9496663610140482,-299.9906768798828,124.01055679321288,-165.19287719726563,-0.6856058745673208,-0.1550986568133036,0.3752039273579915,2.486242393652598,-7.943273862202962,4.354438781738281,-0.19975293800234792,-0.2734385554989179,-0.951804389556249,2.8765182260311013,-8.512496807358481,3.756962310184132
