time,TotalAcceleration_z,TotalAcceleration_y,TotalAcceleration_x,Location_bearingAccuracy,Location_speedAccuracy,Location_verticalAccuracy,Location_horizontalAccuracy,Location_speed,Location_bearing,Location_altitude,Location_longitude,Location_latitude,Orientation_qz,Orientation_qy,Orientation_qx,Orientation_qw,Orientation_roll,Orientation_pitch,Orientation_yaw,Magnetometer_z,Magnetometer_y,Magnetometer_x,GyroscopeUncalibrated_z,GyroscopeUncalibrated_y,GyroscopeUncalibrated_x,MagnetometerUncalibrated_z,MagnetometerUncalibrated_y,MagnetometerUncalibrated_x,Accelerometer_z,Accelerometer_y,Accelerometer_x,AccelerometerUncalibrated_z,AccelerometerUncalibrated_y,AccelerometerUncalibrated_x,Gyroscope_z,Gyroscope_y,Gyroscope_x,Gravity_z,Gravity_y,Gravity_x
3.1,-0.7426927186774486,-9.259269678231442,3.0332856376965838,0.0,0.0,0.9005935204029084,12.273299636840822,0.02021561034023761,0.0,40.30000305175781,-122.753201006,49.190386454,-0.22035408765077588,0.016401825317492052,-0.6978649894396464,0.68120143810908,-1.4822898507118225,1.2800606489181519,1.8223317662874858,20.241934537887573,39.46852407455444,-19.56452965736389,0.0001480880812530158,0.045079655902968196,-0.12930559872113395,-235.10406112670898,134.49432334899905,-152.2883270263672,-0.5494334499041239,0.1502251625061035,0.4451586405436198,-0.7367106691905947,-9.27661763899254,3.096097230008154,0.003584783805170917,0.04160073485620541,-0.15002121409104968,0.24598008953034875,-9.398128668467203,2.797539393107096
3.2,-0.29002098197286774,-9.294158068570225,3.125243902206421,0.0,0.0,0.900600757598877,12.295599632263185,0.02086772680282592,0.0,40.30000305175781,-122.753201032,49.190386488,-0.2071154415607452,0.00614415582579865,-0.7175902227560679,0.6648852825164795,-1.6738984982172649,1.2755516171455383,1.9800034761428833,20.890059661865234,39.3260892868042,-19.29856958389282,-0.02265291969524694,-0.40959787648171186,-0.35224017562965554,-234.4559356689453,134.35188751220704,-152.02236709594726,0.01393162210782368,0.03821436564127601,0.1671568155288696,-0.2840389243581078,-9.311506097966975,3.18805549361489,-0.024837225802581363,-0.43070164864713495,-0.37972216528247704,-0.29664719725648564,-9.385220527648926,2.836258888244629
3.3,-0.368091350816416,-9.339553796883786,2.9945767521858215,0.0,0.0,0.9006079947948457,12.317899627685549,0.02151984326541423,0.0,40.30000305175781,-122.753201058,49.190386522,-0.20969579368829724,0.011355125966171381,-0.7257185677687327,0.6551398436228434,-1.7539195815722148,1.2719518939654033,2.071390390396118,22.23998966217041,38.86645421981811,-19.238484716415407,-0.0062486425837657116,-0.07188483964030945,-0.20794871263206005,-233.106005859375,133.89225311279296,-151.96228218078613,0.012263824542363485,-0.0218063990275065,0.016647855440775555,-0.36210929263721814,-9.356901717908455,3.057388334563284,-0.007429880075946898,-0.09186695934499078,-0.24523346981203015,-0.528179888923963,-9.374850749969482,2.840506593386332
3.4,-0.44616171965996426,-9.384949525197348,2.863909602165222,0.0,0.0,0.9006152319908143,12.340199623107912,0.022171959728002538,0.0,40.30000305175781,-122.753201084,49.190386556,-0.21589037179946896,0.017238300666213,-0.7178333878517151,0.6616543054580688,-1.6788176774978638,1.277687168121338,2.0136465787887574,23.589919662475587,38.40681915283203,-19.17839984893799,0.010155634527715516,0.265828197201093,-0.06365724963446456,-231.75607604980468,133.4326187133789,-151.902197265625,-0.2690108388662338,0.13898563385009766,0.5213028430938721,-0.44017966091632843,-9.402297337849935,2.926721175511678,0.009977465650687566,0.24696772995715335,-0.11074477434158325,-0.3082412511110305,-9.391275596618652,2.817407178878784
3.5,-0.7624629562099775,-9.228518644968668,3.2916765014330545,0.0,0.0,0.9006224691867829,12.362499618530276,0.02282407619059085,0.0,40.30000305175781,-122.75320111,49.19038659,-0.23482177654902137,0.034359675211211,-0.70689124862353,0.6662353873252869,-1.5773152510325115,1.2804876764615376,1.9644764264424641,21.305469703674316,38.97411937713623,-19.923209381103515,0.027294570199129245,0.48052881861274893,0.1687237565532665,-234.04052505493163,133.99991912841796,-152.6470085144043,-0.837533156077067,0.21450551350911454,0.5143532752990723,-0.756480909883976,-9.245866696039835,3.3544880747795105,0.026712627984428142,0.45729626591006917,0.16386460249971904,-0.02075596083886923,-9.399198373158773,2.8083048661549888
3.6,-0.7519830364846822,-9.271834192853985,3.171969653079004,0.0,0.0,0.9006297063827515,12.384799613952639,0.02347619265317916,0.0,40.30000305175781,-122.753201136,49.190386624,-0.24280885358651474,0.038785746631522934,-0.7016105651855469,0.6687481701374054,-1.5278884172439575,1.277474860350291,1.9332237641016643,20.592989730834958,39.18243436813354,-20.163549375534057,0.01096202324807756,0.03914339243519033,0.10053708169002534,-234.75300521850585,134.20823364257814,-152.88734817504883,-1.2353480756282806,0.018824259440104168,0.04101661841074627,-0.7460009709677913,-9.289182233087944,3.2347812354564667,0.011141927657952303,0.006466727082928003,0.10406228370574709,0.11883355428775146,-9.390655835469564,2.8349812825520835
3.7,-0.741503116759387,-9.315149740739303,3.0522628047249536,0.0,0.0,0.9006369435787202,12.407099609375003,0.02412830911576747,0.0,40.30000305175781,-122.753201162,49.190386658,-0.22236107289791104,0.018441727384924833,-0.7068328857421875,0.6712295711040497,-1.5707087119420369,1.2769029935201008,1.9166964093844097,19.880509757995604,39.39074935913086,-20.4038893699646,-0.0053705237029741245,-0.4022420337423682,0.0323504068267842,-235.4654853820801,134.4165481567383,-153.12768783569337,-0.37933775037527084,0.1349390347798665,0.38216229279836017,-0.7355210320516066,-9.332497770136053,3.115074396133423,-0.004428772668523537,-0.4443628117442131,0.04425996491177515,-0.0027796688179175014,-9.389023780822754,2.8415925105412803
3.8,-0.547321929173036,-9.292023796023745,3.0992128758719475,0.0,0.0,0.9006441807746888,12.429399604797364,0.02478042557835578,0.0,40.30000305175781,-122.753201188,49.190386692000004,-0.21104072034358973,0.01158014275133604,-0.7184421062469483,0.6626856684684753,-1.6835429430007935,1.2767579078674316,2.003169131278992,21.084344577789306,39.126314353942874,-19.894844484329223,0.008552113256882848,-0.2879147867206484,-0.111012032488361,-234.26164970397951,134.15211181640626,-152.61864280700684,-0.035417398810386636,0.11123046874999995,0.31168508529663086,-0.5413398586890914,-9.309371637575554,3.162024478117625,0.008221228226003297,-0.3252776407947143,-0.11364754687317391,-0.32313071191310877,-9.388525772094727,2.825190305709839
3.9,-0.3531407415866852,-9.268897851308187,3.1461629470189414,0.0,0.0,0.9006514179706574,12.451699600219728,0.02543254204094409,0.0,40.30000305175781,-122.753201214,49.190386726,-0.21112739046414689,0.013685640568534482,-0.7221709291140238,0.6585572759310404,-1.7210857073465984,1.2763646245002747,2.043897191683451,22.288179397583008,38.86187934875488,-19.385799598693847,0.02247475021673982,-0.17358753969892857,-0.2543744718035062,-233.0578140258789,133.8876754760742,-152.1095977783203,0.00995354851086934,0.10965855916341143,0.2590330441792806,-0.34715868532657623,-9.286245505015055,3.208974560101827,0.020871229120530133,-0.20619246984521544,-0.27155505865812296,-0.4294588069121043,-9.387372493743896,2.815668821334839
4.0,-0.5648149143565785,-9.315258459611373,2.9187541658228096,0.0,0.0,0.900658655166626,12.473999595642091,0.0260846585035324,0.0,40.30000305175781,-122.75320124,49.19038676,-0.219374897579352,0.016955093791087433,-0.7150591115156809,0.6635234256585439,-1.650383214155833,1.2742377718289692,1.9899421135584514,21.980739498138426,38.734998893737796,-19.397999572753907,-0.029793563870374417,0.17816440219228913,0.12967003119940104,-233.3652557373047,133.76079711914062,-152.12179641723634,-0.4610402335723241,0.03193362553914387,-0.07845548788706457,-0.5588328486139124,-9.332606662403453,2.9815657355568628,-0.024778221501037433,0.16484453032414118,0.11732430794897175,-0.23094768077135083,-9.381332397460938,2.858042597770691
4.1,-0.6553388407284564,-9.292825796387412,3.0073339270822927,0.0,0.0,0.9006658923625946,12.496299591064455,0.02673677496612071,0.0,40.30000305175781,-122.753201266,49.190386794,-0.2245507016777992,0.01987690261254705,-0.709757020076116,0.6674003601074219,-1.5992096662521362,1.2741209268569946,1.9505250453948975,21.497314500808713,38.94941396713257,-19.716419458389282,-0.007470951293891453,0.08878949418166565,0.039916804053284446,-233.84868011474612,133.97521286010743,-152.4402172088623,-0.640692949295044,0.06801080703735349,0.12638092041015622,-0.6493567722764881,-9.310173843846176,3.070145508556655,-0.0031567156336016165,0.08321361427167147,0.027792633747484405,-0.08489417036374407,-9.38101895650228,2.8679620027542114
4.2,-0.7458627671003342,-9.270393133163452,3.0959136883417764,0.0,0.0,0.9006731295585634,12.518599586486818,0.027388891428709018,0.0,40.30000305175781,-122.753201292,49.190386828,-0.22385058303674057,0.021954435234268484,-0.7133627931276957,0.6637107332547506,-1.6352870464324951,1.2756634553273518,1.9885624647140503,21.013889503479003,39.16382904052735,-20.034839344024657,0.014851661282591508,-0.0005854138289578398,-0.04983642309283214,-234.3321044921875,134.18962860107422,-152.75863800048828,-0.5665763517220815,0.17136859893798825,0.38203632831573486,-0.739880695939064,-9.2877410252889,3.1587252815564475,0.0184647902338342,0.0015826982192017663,-0.061739040454002934,-0.18752528230349222,-9.385373910268148,2.848398447036743
4.3,-0.6118148441116015,-9.284849762916565,3.0918259620666504,0.0,0.0,0.900680366754532,12.540899581909182,0.02804100789129733,0.0,40.30000305175781,-122.753201318,49.190386862000004,-0.21649858951568604,0.013837145082652519,-0.7178398609161377,0.6615391850471497,-1.6763020992279052,1.2722270011901855,2.0072185039520263,21.515004539489745,38.98967380523682,-19.784739351272584,-0.011994593679749695,-0.10613783913625714,-0.022983804577961547,-233.83099060058595,134.01547241210938,-152.50853805541993,-0.164185881614685,0.0662298202514648,0.2201036930084228,-0.6058327853679657,-9.302197774251303,3.154637525478999,-0.010340745306827794,-0.11652023223877855,-0.03464924871646376,-0.3076623737812042,-9.375469207763672,2.87082953453064
4.4,-0.47776692112286884,-9.299306392669678,3.0877382357915244,0.0,0.0,0.9006876039505006,12.563199577331545,0.02869312435388564,0.0,40.30000305175781,-122.753201344,49.190386896,-0.21489952504634854,0.011116714837650416,-0.7174300750096639,0.6625600953896841,-1.671464165051778,1.2712156176567078,1.9961435198783875,22.01611957550049,38.81551856994629,-19.534639358520508,-0.0388408486420909,-0.21169026444355643,0.0038688139369090512,-233.3298767089844,133.84131622314453,-152.25843811035156,-0.20963810880978898,0.04689009984334305,0.11967575550079342,-0.47178487479686737,-9.316654523213705,3.1505497694015503,-0.039146280847489785,-0.23462316269675887,-0.007559456978924584,-0.2947126477956772,-9.372560342152914,2.881646196047465
4.5,-0.6588419621640985,-9.271263122558594,3.0225156870755283,0.0,0.0,0.9006948411464692,12.585499572753909,0.02934524081647395,0.0,40.30000305175781,-122.75320137,49.19038693,-0.21904007842143372,0.014882201794534899,-0.7148508727550507,0.6639180878798167,-1.647227148214976,1.2721145749092102,1.9833469986915588,21.52262945175171,39.04914894104004,-19.620039558410646,-0.0010273645377971998,0.08092576157386328,0.0423718347976153,-233.8233657836914,134.07494735717773,-152.34383697509764,-0.5809427499771118,0.1592615445454915,0.15662316481272373,-0.6528599045493386,-9.28861123865301,3.0853272568095815,-0.0027870727935806004,0.061086525151040384,0.03914628139076128,-0.22420574476321534,-9.375160853068033,2.879594167073568
4.6,-0.6118986815439932,-9.254477222760517,3.1486464603380724,0.0,0.0,0.9007020783424379,12.607799568176272,0.02999735727906226,0.0,40.30000305175781,-122.75320139600001,49.190386964000005,-0.21368965754906333,0.0072912535009284326,-0.7170970141887665,0.6633472045262655,-1.6668042143185933,1.26800537109375,1.9842692812283833,21.72636947631836,38.978389263153076,-19.485534477233887,0.003997811988511141,0.05679080076868448,-0.01958933698937692,-233.6196262359619,134.0041873931885,-152.20933227539064,-0.363305206100146,0.031744956970214816,0.1627160310745239,-0.6059166183977416,-9.27182518713402,3.2114580418124343,0.004569341349203805,0.03680462857168591,-0.022944468267572425,-0.28441550334294635,-9.363197803497314,2.91278346379598
4.7,-0.5649554009238879,-9.237691322962442,3.2747772336006165,0.0,0.0,0.9007093155384065,12.630099563598634,0.03064947374165057,0.0,40.30000305175781,-122.753201422,49.190386998,-0.2123999416828155,0.008115500304847919,-0.7200531482696533,0.6605405688285828,-1.6959004402160645,1.2687276124954223,2.012674427032471,21.93010950088501,38.907629585266115,-19.35102939605713,0.009022988514819483,0.032655839963505684,-0.08155050877636914,-233.41588668823243,133.9334274291992,-152.0748275756836,-0.0511319935321808,0.23705635070800776,0.6217397689819336,-0.5589733322461446,-9.25503913561503,3.337588826815287,0.01192575549198821,0.012522731992331438,-0.08503521792590614,-0.36807417273521426,-9.365278625488282,2.896910524368286
4.8,-0.7976823337376118,-9.254640460014343,3.173680414756139,0.0,0.0,0.9007165527343751,12.652399559020997,0.03130159020423888,0.0,40.30000305175781,-122.753201448,49.190387032000004,-0.22621561090151465,0.021602450869977433,-0.7194847166538239,0.656270424524943,-1.692239224910736,1.2667625745137532,2.04868213335673,21.90052447319031,38.75238447189331,-19.774064540863037,-0.02433661690641503,0.09902380535689494,-0.0337503040403438,-233.445471572876,133.7781837463379,-152.49786300659179,-0.6709290593862534,0.09878905614217122,0.22007123629252115,-0.7917002538839977,-9.27198835213979,3.2364920179049173,-0.019413482962232637,0.0832812933985031,-0.036612577270716415,-0.3596432507038116,-9.359454154968262,2.9166446526845298
4.9,-1.0304092665513356,-9.271589597066244,3.0725835959116616,0.0,0.0,0.9007237899303437,12.674699554443361,0.03195370666682719,0.0,40.30000305175781,-122.75320147400001,49.190387066,-0.2214639807740847,0.011635800668348835,-0.7176118890444437,0.660172830025355,-1.6704065998395283,1.2618969877560933,2.0056012074152627,21.870939445495605,38.59713935852051,-20.197099685668945,-0.05769622232764954,0.1653917707502842,0.01404990069568154,-233.47505645751954,133.62294006347656,-152.9208984375,-0.30840602517127985,-0.007092475891113267,-0.025848944981892896,-1.0244271755218506,-9.28893756866455,3.1353952089945474,-0.05075272141645348,0.15403985480467478,0.011810063384473315,-0.30063070853551227,-9.345097859700521,2.968945582707723
5.0,-0.6280615600672635,-9.270556276494807,3.1702724370089443,0.0,0.0,0.9007310271263124,12.696999549865724,0.0326058231294155,0.0,40.30000305175781,-122.7532015,49.1903871,-0.22088972727457679,0.0140707991085946,-0.7180932958920797,0.6597956717014313,-1.676702857017517,1.2657103339831035,2.0144969622294107,21.874599361419676,38.82649936676025,-19.623089599609376,0.02012037415988741,-0.028392508625984206,0.01593340188264846,-233.47139587402344,133.8522979736328,-152.34688720703124,-0.3852905680735906,0.16661024093627927,0.45263242721557617,-0.6220795051618055,-9.287904219193893,3.23308405009183,0.02550362415301302,-0.014355330891703488,0.0008781185994545618,-0.31547103822231287,-9.356388092041016,2.9315412044525146
5.1,-0.680332045889262,-9.287498665578438,3.079304420586788,0.0,0.0,0.9017898201942445,12.760249567031861,0.032287873048335296,0.0,40.30000305175781,-122.75320143500001,49.1903870925,-0.22309721757968262,0.0176047488736609,-0.7196941177050272,0.6572286188602448,-1.6928573449452717,1.2658723592758179,2.038982311884562,21.87734451293945,38.818874454498285,-19.665484571456908,-0.007190392876509574,-0.08447121006126204,0.04186335842435557,-233.46865005493163,133.84467277526855,-152.38928146362304,-0.46115009983380634,0.11739667256673175,0.20857838789621985,-0.6743499977570591,-9.304846582990704,3.1421160237355665,-0.006844467236519311,-0.08666650531532384,0.03791703053690125,-0.3627421706914902,-9.356825351715088,2.924747665723165
5.2,-0.7326025317112604,-9.30444105466207,2.9883364041646323,0.0,0.0,0.9028486132621766,12.823499584198,0.0319699229672551,0.0,40.30000305175781,-122.75320137,49.190387085000005,-0.21752593517303462,0.00819863919168706,-0.7188614249229431,0.6601881742477417,-1.6818460702896119,1.2621251583099364,2.0063309907913207,21.880089664459227,38.811249542236325,-19.707879543304443,-0.03450115991290655,-0.14054991149653986,0.06779331496606268,-233.46590423583984,133.8370475769043,-152.43167572021486,-0.2675639450550079,-0.01958961486816406,-0.18123278617858884,-0.7266204903523127,-9.321788946787516,3.051147997379303,-0.039192558626051636,-0.1589776797389442,0.07495594247434795,-0.33445385098457336,-9.345761680603028,2.963252592086792
5.3,-0.6700900420546532,-9.300926645596823,3.040031313896179,0.0,0.0,0.9039074063301088,12.886749601364137,0.0316519728861749,0.0,40.30000305175781,-122.753201305,49.1903870775,-0.21370218942562735,0.005974039435386616,-0.7190797626972198,0.6612246831258138,-1.68463530143102,1.2646443645159404,2.0002891620000205,21.851724576950073,38.91891441345214,-19.6139395236969,0.019813669484574338,-0.0793463044489423,0.015708144598950938,-233.49426879882813,133.94471244812013,-152.33773498535157,-0.2775613814592361,0.03783369064331053,0.10483769575754802,-0.6641079957286516,-9.318274577458698,3.102842917044957,0.015617556845289489,-0.09029351913363134,0.019266550922166614,-0.33994993070761365,-9.353234767913818,2.9388571977615356
5.4,-0.6075775523980459,-9.297412236531576,3.091726223627726,0.0,0.0,0.9049661993980409,12.949999618530274,0.031334022805094695,0.0,40.30000305175781,-122.75320124000001,49.19038707,-0.2142804513374964,0.0114961797371506,-0.7204569776852926,0.6594597697257996,-1.7008155783017476,1.2701907952626545,2.0251735051472983,21.823359489440918,39.02657928466797,-19.519999504089355,0.07412849888205522,-0.01814269740134476,-0.0363770257681608,-233.52263336181642,134.05237731933593,-152.2437942504883,-0.22434515257676438,0.22217988967895505,0.5737337271372477,-0.6015955011049906,-9.314760208129883,3.154537836710612,0.07042767231663062,-0.0216093585283185,-0.03642284063001471,-0.38080325225989026,-9.369485060373941,2.8816264073053994
5.5,-0.6881540417671204,-9.188819711858576,3.2919801581989634,0.0,0.0,0.906024992465973,13.013249635696413,0.0310160727240145,0.0,40.30000305175781,-122.753201175,49.1903870625,-0.21972685803969694,0.014340355837096733,-0.7182736198107401,0.6599956254164377,-1.6791085600852966,1.2676955461502075,2.0155524412790933,21.84592914581299,38.84479942321777,-19.442529582977294,-0.005319618503563102,0.1020654013069967,0.018096883160372574,-233.50006637573242,133.8705955505371,-152.16632766723632,-0.4432840645313263,0.11050875981648757,0.2059896389643351,-0.6821719787337563,-9.206167481162332,3.354791749607433,-0.005608853968707012,0.10554085434837773,0.017187527338550834,-0.3205882310867309,-9.362200578053793,2.912281592686971
5.6,-0.6628458599249523,-9.24284175309268,3.154440448139653,0.0,0.0,0.9070837855339051,13.07649965286255,0.030698122642934297,0.0,40.30000305175781,-122.75320111,49.190387055,-0.22055915594100947,0.01165429521352048,-0.7174235582351685,0.6606969714164734,-1.6690047264099122,1.2634499549865723,2.0028687477111817,21.718134260177614,38.842359352111814,-19.696594619750975,-0.002083652044265442,0.031373946327772545,-0.027006490593493877,-233.62786140441892,133.86815681457517,-152.42039260864257,-0.4116732716560364,0.02227649688720702,-0.08116717338562009,-0.6568638052452694,-9.26018950433442,3.2172520106489007,-0.0024480888713504104,0.03265641643101294,-0.02534743660538824,-0.29526978731155396,-9.349701309204102,2.954951763153076
5.7,-0.637537678082784,-9.296863794326782,3.0169007380803428,0.0,0.0,0.9081425786018372,13.139749670028689,0.0303801725618541,0.0,40.30000305175781,-122.753201045,49.1903870475,-0.21838241070508954,0.011323849049707234,-0.7212104996045431,0.6572916905085245,-1.7051121195157368,1.2630996306737263,2.0353471835454306,21.590339374542236,38.83991928100586,-19.950659656524657,0.0011523144150322178,-0.03931750865145161,-0.07210986434736033,-233.75565643310546,133.86571807861327,-152.67445755004883,-0.18098732332388556,0.07021029790242511,0.16973714033762613,-0.6315556317567825,-9.31421152750651,3.0797122716903687,0.000712676226006191,-0.04022802148635184,-0.06788240054932732,-0.4020274629195531,-9.3486221631368,2.945543050765991
5.8,-0.6109324852625528,-9.252043271064759,3.1640443603197737,0.0,0.0,0.9092013716697693,13.202999687194826,0.0300622224807739,0.0,40.30000305175781,-122.75320098,49.190387040000005,-0.21984366079171494,0.014126096076021518,-0.7225586175918579,0.6552656690279642,-1.718736211458842,1.2634870807329814,2.05514927705129,21.735519552230834,38.75085926055908,-19.747529649734496,0.0003598091883980003,0.04936901784755967,-0.030544418527190857,-233.6104751586914,133.7766586303711,-152.47132606506347,-0.14811153709888455,0.13644742965698237,0.3620690107345581,-0.6049504354596138,-9.269390900929768,3.2268559098243714,-0.001514436667397005,0.05215898412279784,-0.023289237598267697,-0.4415832112232844,-9.349754492441813,2.9364614884058633
5.9,-0.5843272924423217,-9.207222747802735,3.311187982559204,0.0,0.0,0.9102601647377015,13.266249704360963,0.029744272399693697,0.0,40.30000305175781,-122.75320091500001,49.1903870325,-0.22588845590750373,0.017152714853485383,-0.7187102735042572,0.6573679447174072,-1.6818217436472576,1.261875828107198,2.031453490257263,21.880699729919435,38.6617992401123,-19.544399642944335,-0.0004326960382362172,0.13805554434657094,0.011021027292978616,-233.46529388427734,133.6875991821289,-152.26819458007813,-0.461294228831927,0.030183474222818998,0.0691815614700317,-0.5783452391624451,-9.224570274353027,3.373999547958374,-0.0037415495608002004,0.14454598973194752,0.02130392535279192,-0.33458208044370014,-9.344986120859781,2.9655402501424155
6.0,-0.7965606848398844,-9.295368274052938,3.0382865269978843,0.0,0.0,0.9113189578056337,13.329499721527101,0.029426322318613498,0.0,40.30000305175781,-122.75320085,49.190387025,-0.22654494394858674,0.017305751641591347,-0.7181898653507233,0.6577078104019165,-1.6767767469088237,1.2615353465080261,2.0275944471359253,21.47626962661743,38.810638999938966,-20.09339952468872,-0.008221228272304875,0.033228523806125544,0.029588785177717614,-233.8697265625,133.8364387512207,-152.81719665527345,-0.48143841326236725,0.05798292160034177,0.05882040659586587,-0.7905786335468292,-9.312716166178385,3.10109814008077,-0.007316499567505991,0.029168816029348135,0.028377467829903417,-0.3200211475292841,-9.343972047170004,2.9704178174336753
6.1,-0.6973333209753036,-9.287466963132223,3.0659036934375763,0.0,0.0,0.9123777508735658,13.392749738693238,0.0291083722375333,0.0,40.30000305175781,-122.753200785,49.1903870175,-0.221491926908493,0.01371547598391766,-0.721157431602478,0.6562618017196655,-1.7044017553329467,1.2617265224456786,2.0426581382751463,21.68275465965271,38.831074237823486,-19.89697947502136,-0.00019552320472115102,-0.04187608545753666,0.02072256217820033,-233.66324043273926,133.85687294006345,-152.62077674865725,-0.23382831811904903,0.06830635070800778,0.13228664398193354,-0.6913512696822484,-9.304814974466959,3.128715306520462,0.0008977868317632254,-0.04309781525411051,0.018006641517400335,-0.40168899297714233,-9.344524955749511,2.958766222000122
6.2,-0.5981059571107229,-9.279565652211508,3.0935208598772683,0.0,0.0,0.9134365439414979,13.455999755859377,0.0287904221564531,0.0,40.30000305175781,-122.75320072,49.19038701,-0.21694713582595185,0.00961567663277185,-0.7221606473128,0.6567529638608297,-1.7135331432024639,1.262115220228831,2.039233684539795,21.889239692687987,38.851509475708006,-19.700559425354005,0.007830181862862572,-0.11698069472119887,0.011856339178683045,-233.4567543029785,133.87730712890624,-152.42435684204102,-0.12435152133305864,0.06658395131429032,0.14484584331512448,-0.5921239058176676,-9.296913782755533,3.156332472960154,0.009112073231032441,-0.11536444653756915,0.00763581520489725,-0.4281547764937083,-9.345693747202555,2.9513914585113525
6.3,-0.6435596237579981,-9.281320301691691,3.0992237468560537,0.0,0.0,0.91449533700943,13.519249773025514,0.028472472075372898,0.0,40.30000305175781,-122.753200655,49.1903870025,-0.21696464220682776,0.009896199374149183,-0.7208303014437357,0.6582034230232239,-1.7014446655909221,1.263649006684621,2.0275381406148276,21.783709621429445,38.87804412841797,-19.68774938583374,0.008725654763331803,-0.04362595959383092,0.027982950019191533,-233.5622844696045,133.9038429260254,-152.41154747009278,-0.2909543514251709,0.06817579269409174,0.16553668181101477,-0.6375775655110677,-9.298668511708577,3.1620353599389395,0.009710212182956871,-0.047093892237171545,0.02561816114272608,-0.3905649781227112,-9.350276629130045,2.942066510518392
6.4,-0.6890132904052735,-9.283074951171875,3.1049266338348387,0.0,0.0,0.9155541300773621,13.582499790191651,0.0281545219942927,0.0,40.30000305175781,-122.75320059,49.190386995000004,-0.2169602339466413,0.010222643613815268,-0.7194459637006124,0.659712940454483,-1.6888065139452617,1.2652789950370789,2.015325586001078,21.6781795501709,38.90457878112793,-19.674939346313476,0.009621127663801033,0.02972877553353702,0.04410956085970002,-233.66781463623047,133.93037872314454,-152.39873809814452,-0.34252333144346875,0.140017032623291,0.19156126181284583,-0.6830312252044678,-9.30042324066162,3.1677382469177244,0.0103083511348813,0.021176662063226066,0.043600507080554914,-0.35155830283959705,-9.355118910471598,2.931595285733541
6.5,-0.7011468956867853,-9.24571704864502,3.0863424142201743,0.0,0.0,0.9166129231452943,13.64574980735779,0.0278365719132125,0.0,40.30000305175781,-122.753200525,49.1903869875,-0.2145268082618713,0.00722111715003842,-0.7205599784851074,0.6593250870704651,-1.6986576557159423,1.2638925313949585,2.0173330783843992,21.57325963973999,39.039999389648436,-19.58892936706543,-0.011046480465059483,-0.09869291575159878,0.007304930671428642,-233.77273406982422,134.0657974243164,-152.31272583007814,-0.34683199524879454,0.06462020874023434,0.10758275985717772,-0.6951648245255152,-9.263065179189047,3.14915402730306,-0.009343461408703164,-0.09872415246949955,0.0036513082437026902,-0.3821250259876251,-9.351008033752441,2.9407581806182863
6.6,-0.5985568845362375,-9.253351038152521,3.1683872360171694,0.0,0.0,0.9176717162132264,13.708999824523927,0.0275186218321323,0.0,40.30000305175781,-122.75320046,49.19038698,-0.20698642234007514,-0.0017625027934021,-0.7239353656768799,0.6580745478471121,-1.7289845943450928,1.2599833011627197,2.023823062578837,21.826409578323364,39.0213942527771,-19.394949436187744,-0.003975252204602878,-0.04631989953552626,0.00918496076977162,-233.51958465576172,134.04719314575195,-152.11874694824218,-0.015307903289794917,0.04657777150472001,0.1398910284042358,-0.5925748215028734,-9.270699074774079,3.231198838262847,-0.003946328367061203,-0.04679771615756732,0.006273516744179449,-0.47677964468797046,-9.339346726735434,2.9639234940210977
6.7,-0.49596687338568946,-9.260985027660023,3.2504320578141646,0.0,0.0,0.9187305092811585,13.772249841690064,0.027200671751052098,0.0,40.30000305175781,-122.75320039500001,49.1903869725,-0.20653432110945383,-0.001956589580610533,-0.7236480712890625,0.6585308114687601,-1.7265716592470806,1.2606528600056965,2.0204598108927407,22.079559516906738,39.00278911590576,-19.20096950531006,0.0030959760558537273,0.006053116680546261,0.0110649908681146,-233.2664352416992,134.0285888671875,-151.92476806640624,-0.0480464448531469,0.11769262949625647,0.4280389149983724,-0.48998481848023157,-9.27833297035911,3.3132436492226343,0.0014508046745807584,0.0051287201543649035,0.008895725244656209,-0.4685675303141276,-9.341368675231934,2.9588266213734946
6.8,-0.631433269291213,-9.248042092178807,3.2530831911347127,0.0,0.0,0.9197893023490906,13.835499858856203,0.0268827216699719,0.0,40.30000305175781,-122.75320033,49.190386965,-0.22017114857832587,0.0093022537960981,-0.7181038757165273,0.6600943704446157,-1.6742907166481018,1.260237216949463,2.004269242286682,21.583629608154297,39.05860433578491,-19.451984596252444,-0.00916760649697881,0.2148059044089733,0.037781089921764106,-233.7623649597168,134.08440322875975,-152.1757827758789,-0.4801599284013112,0.08954874674479164,0.24571526050567624,-0.625451206257849,-9.265389969854645,3.315894793380391,-0.011059206390806722,0.20753510482609275,0.035322010012653934,-0.3135229448477427,-9.340144157409668,2.982725461324056
6.9,-0.7668996651967367,-9.235099156697592,3.2557343244552612,0.0,0.0,0.9208480954170227,13.89874987602234,0.0265647715888917,0.0,40.30000305175781,-122.753200265,49.1903869575,-0.22980859875679013,0.015030659579982316,-0.7138933142026266,0.6612995763619741,-1.6347694993019104,1.2567887504895527,1.987156907717387,21.087699699401856,39.114419555664064,-19.702999687194826,-0.02143118904981135,0.4235586921374003,0.06449718897541361,-234.25829467773437,134.14021759033204,-152.42679748535156,-0.7123965124289194,0.0125616391499837,-0.07590866088867186,-0.7609175940354665,-9.25244696935018,3.318545937538147,-0.0235692174561942,0.40994148949782055,0.061748294780651664,-0.19763735930124915,-9.32975705464681,3.0252864360809326
7.0,-0.7835995654265085,-9.298159837722778,3.02647199233373,0.0,0.0,0.921906888484955,13.961999893188477,0.026246821507811498,0.0,40.30000305175781,-122.75320020000001,49.19038695,-0.22950925529003138,0.01356805060058828,-0.7155441880226135,0.65964674949646,-1.6491341590881348,1.2539970397949218,1.999037790298462,20.697299575805665,39.11136894226074,-20.1568395614624,-0.021634810662362714,0.029512426117435087,-0.04254422057420015,-234.64869537353516,134.13716659545898,-152.8806381225586,-0.37802307605743407,0.04850196838378906,0.05482692718505856,-0.7776175091663996,-9.315507809321085,3.089283585548401,-0.021866199433464874,0.013286318883977155,-0.04056700552411547,-0.24313729107379908,-9.321250915527344,3.047950792312622
7.1,-0.5773523020360506,-9.276445377956737,3.103103512164318,0.0,0.0,0.922965681552887,14.025249910354615,0.0259288714267313,0.0,40.30000305175781,-122.753200135,49.1903869425,-0.22707103192806236,0.013837185222655484,-0.7224806447823843,0.6528723339239756,-1.7128486434618633,1.2521689732869465,2.059651573499044,21.403679513931273,38.875299263000485,-19.937544584274292,-0.003320422793463375,-0.11891915063924073,-0.05954142971048978,-233.94231491088868,133.9010971069336,-152.6613426208496,-0.3045496841271718,0.018812179565429698,-0.10408643881479897,-0.5713702484852436,-9.293793508500762,3.1659151044758884,-0.0021900906717884465,-0.1015945275906812,-0.06190506019894118,-0.43918301661809284,-9.315568923950195,3.0426965157190957
7.2,-0.3711050386455926,-9.254730918190695,3.1797350319949063,0.0,0.0,0.9240244746208192,14.088499927520752,0.0256109213456511,0.0,40.30000305175781,-122.75320007,49.190386935,-0.21020944664875665,-7.132679456850022e-06,-0.7297098239262899,0.6506273945172628,-1.7794989148775737,1.2518115043640137,2.0817441940307617,22.110059452056884,38.63922958374023,-19.718249607086182,0.014993965075435963,-0.26735072739591653,-0.0765386388467794,-233.23593444824218,133.6650276184082,-152.44204711914062,0.6455444395542145,0.13195466995239258,0.4536200761795044,-0.36512298780408775,-9.272079207680441,3.242546623403376,0.01748601808988798,-0.21647537406533957,-0.08324311487376689,-0.6412209967772166,-9.314454237620035,3.010812759399414
7.3,-0.642709831017759,-9.249657841471883,3.242410652049176,0.0,0.0,0.9250832676887513,14.151749944686891,0.0252929712645709,0.0,40.30000305175781,-122.753200005,49.1903869275,-0.22719048211971915,0.016839500516653002,-0.7236421704292297,0.6514125863711039,-1.7259243528048198,1.254911720752716,2.077205459276835,21.878259420394897,38.6438045501709,-19.84543461799622,0.00864235503479105,0.2046167209363458,-0.00422630863348869,-233.46773452758788,133.66960182189942,-152.56923217773436,-0.4856540064016978,0.060630480448404946,0.2632049322128296,-0.636727783853164,-9.26700599472244,3.3052222542948537,0.007839437418927748,0.2290617343969643,-0.005402339622378335,-0.47442975143591565,-9.323987483978271,3.011297663052877
7.4,-0.9143146233899253,-9.24458476475307,3.3050862721034457,0.0,0.0,0.9261420607566834,14.214999961853028,0.0249750211834907,0.0,40.30000305175781,-122.75319994,49.19038692,-0.23639559149742123,0.02045061662793152,-0.71542409658432,0.6571544408798218,-1.6494297981262207,1.2530977725982666,2.0194040060043337,21.64645938873291,38.648379516601565,-19.97261962890625,0.0022907449941461343,0.6765841692686081,0.06808602157980202,-233.69953460693358,133.67417602539064,-152.69641723632813,-0.7097221493721009,0.10963611602783203,-0.18590841293334956,-0.9083325799022403,-9.26193278176444,3.3678978851863315,-0.0018071432520324858,0.6745988428592682,0.0724384356290102,-0.2442798405885696,-9.3184965133667,3.056103754043579
7.5,-0.6555790209465406,-9.318303975191983,2.9678070545196533,0.0,0.0,0.9272008538246155,14.278249979019165,0.0246570711024105,0.0,40.30000305175781,-122.753199875,49.1903869125,-0.22176910191774366,0.00398922245949505,-0.717014878988266,0.6607712904612223,-1.6611682375272114,1.2513223091761272,1.9859949151674907,20.516129589080812,39.064399337768556,-20.21600971221924,-0.015521530337123701,-0.3435145155526697,0.11823019105941056,-234.8298652648926,134.09019775390624,-152.93980712890624,-0.12509064624706903,-0.09613974889119466,-0.019699652989705402,-0.6495969606224786,-9.335651831193404,3.0306186459281226,-0.014660765988413572,-0.34795716997574677,0.11571731748567383,-0.2815531864762306,-9.313079675038654,3.069077491760254
7.6,-0.6493001259990375,-9.27039539452755,3.071292092402776,0.0,0.0,0.9282596468925477,14.341499996185304,0.0243391210213303,0.0,40.30000305175781,-122.75319981,49.190386905,-0.2193011840184529,0.008004391847255933,-0.7237826883792877,0.6541377802689871,-1.7256855169932048,1.2547986308733623,2.052666743596395,21.1029495716095,38.893294143676755,-20.116579675674437,0.002273968904222738,-0.05805360161078471,0.022692254996703312,-234.24304580688477,133.9190929412842,-152.84037666320802,0.1149058813850085,0.21606063842773435,0.39688678582509357,-0.6433180707337505,-9.287743308327414,3.134103684714346,0.0031625002791935905,-0.062489317123298416,0.02018227237259093,-0.47399236758550006,-9.323684851328531,3.013209064801534
7.7,-0.6430212310515344,-9.222486813863119,3.1747771302858987,0.0,0.0,0.9293184399604798,14.40475001335144,0.024021170940250098,0.0,40.30000305175781,-122.753199745,49.1903868975,-0.23164999236663184,0.020352603867649983,-0.7226228217283884,0.6509442031383514,-1.7163790464401245,1.2538941105206807,2.079275051752726,21.689769554138184,38.72218894958496,-20.017149639129638,0.020069468145569175,0.22740731233110031,-0.07284568106600393,-233.65622634887694,133.74798812866212,-152.74094619750977,-0.4795810729265213,-0.01613616943359375,-0.08611996968587238,-0.6370391808450222,-9.239834785461426,3.23758872350057,0.02098576654680075,0.22297853572914997,-0.07535277274049197,-0.4471028745174408,-9.320899804433187,3.0258267720540366
7.8,-0.538659269688651,-9.245542685190838,3.1499017377694445,0.0,0.0,0.9303772330284119,14.46800003051758,0.0237032208591699,0.0,40.30000305175781,-122.75319968,49.19038689,-0.22489794095357254,0.010530456745376117,-0.7191528479258219,0.6573622723420461,-1.6820498903592427,1.253961443901062,2.0208361546198526,21.457664489746094,38.88597393035889,-20.023554658889772,0.00013362647344670325,0.057898570007334144,0.01445714370735611,-233.8883312225342,133.91177330017092,-152.7473514556885,-0.09125238656997677,0.05273373921712235,0.08640742301940914,-0.5326772164553404,-9.262890577316284,3.2127133409182234,0.0010499247582629566,0.05346979495758811,0.011930961831239983,-0.342908908923467,-9.321175416310629,3.0387431383132935
7.9,-0.4342973083257675,-9.268598556518556,3.1250263452529907,0.0,0.0,0.931436026096344,14.531250047683717,0.0233852707780897,0.0,40.30000305175781,-122.753199615,49.1903868825,-0.22784666717052454,0.01525353491306298,-0.7197449564933777,0.6556020259857178,-1.68890278339386,1.2554414510726928,2.0387995719909666,21.225559425354003,39.04975891113281,-20.029959678649902,-0.019802215198675765,-0.11161017231643201,0.10175996848071615,-234.1204360961914,134.0755584716797,-152.75375671386718,-0.36648784279823304,0.06620655059814452,0.164712905883789,-0.42831525206565857,-9.285946369171143,3.1878379583358765,-0.018885917030274833,-0.11603894581397373,0.09921469640297194,-0.36199061274528505,-9.325675201416015,3.0226510047912596
8.0,-0.7012058008800853,-9.242603822187943,3.1795718019658867,0.0,0.0,0.9324948191642761,14.594500064849854,0.0230673206970095,0.0,40.30000305175781,-122.75319955,49.190386875,-0.2273533369104067,0.01635811151936645,-0.7223538855711619,0.6528720359007517,-1.7135088841120403,1.2553317149480183,2.064297596613566,21.292659568786622,38.90884952545166,-20.07021951675415,0.012342254842885508,0.013744468377395114,-0.0687084566293792,-234.0533348083496,133.93464584350585,-152.79401702880858,-0.2417808026075363,0.09705464045206702,0.15940928459167478,-0.6952237378467213,-9.2599515914917,3.2423834150487725,0.013230785261839599,0.009287929501045828,-0.07119356749833304,-0.4364483803510666,-9.325316747029623,3.0138968229293823
8.1,-0.637068635925199,-9.264898282108884,3.139387793613203,0.0,0.0,0.9335536122322082,14.657750082015992,0.0227493706159293,0.0,40.30000305175781,-122.753199485,49.1903868675,-0.2227387775977452,0.010121782155086549,-0.7234148383140564,0.6534176965554556,-1.7212963104248047,1.2528975407282512,2.056380788485209,21.42075958251953,38.87895936965943,-20.012574481964112,0.007704653766598883,-0.0029843311428769705,-0.03242618499577722,-233.92523498535155,133.90475616455078,-152.73637199401855,-0.02928832173347473,0.0014020601908366168,0.027673681577046697,-0.6310865787619895,-9.282246232032776,3.2021994066960886,0.008607067778939362,-0.007439713096105022,-0.034896834148005845,-0.46319803098837536,-9.317900021870932,3.032870650291443
8.2,-0.5729314709703127,-9.287192742029825,3.0992037852605185,0.0,0.0,0.9346124053001404,14.72100009918213,0.0224314205348491,0.0,40.30000305175781,-122.75319942,49.19038686,-0.22336236884196595,0.011523060034960467,-0.7235018014907837,0.653085837761561,-1.7227112452189128,1.253765344619751,2.0607135693232217,21.54885959625244,38.84906921386719,-19.954929447174074,0.003067052690312258,-0.019713130663149055,0.0038560866378247586,-233.79713516235353,133.8748664855957,-152.67872695922853,-0.18690933783849076,0.06298891703287755,0.11390984058380123,-0.5669494196772575,-9.304540872573853,3.1620153983434043,0.003983350296039125,-0.024167355693255874,0.0013998992023213491,-0.4661952157815297,-9.320563316345215,3.02420183022817
8.3,-0.5789284837742646,-9.27269135316213,3.0780173818270367,0.0,0.0,0.9356711983680726,14.784250116348266,0.0221134704537689,0.0,40.30000305175781,-122.753199355,49.1903868525,-0.22173792421817776,0.01040633991360658,-0.7242756843566894,0.6527998208999634,-1.7299272775650025,1.253973412513733,2.063942289352417,21.62876958847046,38.906714248657224,-19.927174425125123,0.0013044519121952623,-0.04526129623021308,0.018205057286346932,-233.71722602844238,133.9325122833252,-152.650972366333,-0.09713118672370905,0.0631719589233398,0.03810658454895016,-0.5729464255273342,-9.29003918170929,3.140828971068064,0.002220749622210854,-0.04970279611491907,0.015755232535108597,-0.4876582682132721,-9.32120475769043,3.0188485622406005
8.4,-0.5849254965782166,-9.258189964294434,3.0568309783935548,0.0,0.0,0.9367299914360047,14.847500133514405,0.021795520372688698,0.0,40.30000305175781,-122.75319929,49.190386845,-0.22021060436964032,0.008945906845231784,-0.723548024892807,0.6541443467140198,-1.7233750422795613,1.2550019423166912,2.053024093310038,21.708679580688475,38.964359283447266,-19.899419403076173,-0.00045814886592173326,-0.0708094617972771,0.032554027934869105,-233.63731689453124,133.9901580810547,-152.6232177734375,-0.09678496420383448,0.028204917907714833,0.13555486996968583,-0.5789434313774109,-9.275537490844727,3.1196425437927244,0.0004581489483825835,-0.07523823653658226,0.030110565867895848,-0.466389333208402,-9.324363708496094,3.0124272108078003
8.5,-0.619940459728241,-9.238688151041666,3.2061829368273416,0.0,0.0,0.9377887845039368,14.910750150680542,0.0214775702916085,0.0,40.30000305175781,-122.753199225,49.1903868375,-0.2227602402369181,0.012093338494499483,-0.7224988838036855,0.6543884774049123,-1.7145541906356812,1.2563903331756592,2.0524394114812217,21.35365982055664,38.94971961975098,-19.724349594116212,0.011134407292543445,0.07097143510525875,0.011495373275300298,-233.99233627319336,133.97551803588868,-152.44814758300782,-0.23855266471703843,0.14769029617309568,0.26104009151458735,-0.6139584134022394,-9.256036361058554,3.2689945101737976,0.01200905567119742,0.06654266115616667,0.009038029003105217,-0.4378819117943446,-9.328594843546549,3.003592054049174
8.6,-0.6318547291060288,-9.240657289822895,3.202793111403783,0.0,0.0,0.9388475775718689,14.974000167846679,0.0211596202105283,0.0,40.30000305175781,-122.75319916000001,49.19038683,-0.2260305633147557,0.013752107508480485,-0.7223519484202067,0.6533969938755035,-1.712303141752879,1.2538206179936726,2.057421167691549,21.282899665832517,38.944534587860105,-19.941204643249513,-0.010977063423276623,0.08191784014078703,-0.0048533706331826704,-234.06309547424317,133.97033233642577,-152.6650016784668,-0.28450464705626166,0.09807777404785152,0.16974953810373938,-0.6258726765712102,-9.258005420366924,3.265604694684346,-0.01009431655631597,0.07748270362164034,-0.007316499731545741,-0.4345022290945053,-9.320756912231445,3.0282824436823526
8.7,-0.6437689984838167,-9.242626428604126,3.1994032859802246,0.0,0.0,0.9399063706398011,15.037250185012818,0.0208416701294481,0.0,40.30000305175781,-122.753199095,49.1903868225,-0.22896501421928403,0.013983934031178516,-0.7227172553539276,0.6519579192002615,-1.7138470808664958,1.2493399381637573,2.063698728879293,21.212139511108397,38.93934955596924,-20.158059692382814,-0.03308853413909669,0.09286424517631531,-0.02120211454166564,-234.13385467529298,133.96514663696288,-152.8818557739258,-0.12326985100905097,0.044701099395751974,0.1320937077204386,-0.637786939740181,-9.259974479675293,3.2622148791948953,-0.03219768878382936,0.088422746087114,-0.023671028466196703,-0.444989209373792,-9.30696153640747,3.0689292748769126
8.8,-0.788006351639827,-9.227736115455627,3.163590669631958,0.0,0.0,0.9409651637077332,15.100500202178955,0.0205237200483679,0.0,40.30000305175781,-122.75319903,49.190386815,-0.23878341317176816,0.02176273651421064,-0.7218783140182495,0.649149477481842,-1.706344437599182,1.2456730842590331,2.081940269470215,21.15235948562622,38.86096429824829,-20.421579456329347,-0.03292309151341513,0.1259845948079601,-0.04736750874387019,-234.1936347961426,133.8867618560791,-153.14537582397463,-0.505535489320755,0.0828266143798828,0.02188534736633298,-0.7820242896676064,-9.245084095001221,3.226402272780736,-0.032044972331883956,0.12154945832056302,-0.04986187564888189,-0.42657217383384705,-9.295515632629394,3.10601692199707
8.9,-0.9322437047958374,-9.212845802307129,3.1277780532836914,0.0,0.0,0.9420239567756653,15.163750219345093,0.0202057699672877,0.0,40.30000305175781,-122.753198965,49.1903868075,-0.23737673461437223,0.019433209672570166,-0.7255488336086273,0.6456341644128164,-1.7370561162630718,1.2409963409105937,2.1073471705118814,21.092579460144044,38.782579040527345,-20.68509922027588,-0.03275764888773358,0.15910494443960485,-0.07353290294607474,-234.2534149169922,133.80837707519532,-153.40889587402344,-0.10319984952608742,-0.03915818532307939,-0.0017108122507731,-0.9262616395950317,-9.230193710327148,3.190589666366577,-0.031892255879938554,0.15467617055401206,-0.07605272283156708,-0.5289675096670786,-9.280729452768961,3.134039799372355
9.0,-0.5521438270807266,-9.287691275278727,3.1515966852506003,0.0,0.0,0.9430827498435974,15.22700023651123,0.0198878198862075,0.0,40.30000305175781,-122.7531989,49.1903868,-0.23636718094348905,0.019780889153480485,-0.7297012408574423,0.6413016021251678,-1.7736027042071025,1.238433023293813,2.1430091063181558,21.738569450378417,38.33178939819336,-20.838819599151613,-0.0075108659353149455,-0.013105834749611937,-0.10095936635678461,-233.60742568969727,133.35758590698242,-153.56261672973633,0.17582884927590683,0.017361640930175736,0.03480672836303708,-0.5461617683370908,-9.305039246877035,3.214408278465271,-0.0066501009965908185,-0.0175623744726181,-0.1034305935556238,-0.6476771036783854,-9.27254311243693,3.136306047439575
9.1,-0.6636819913983345,-9.247554901874427,3.2190149092313014,0.0,0.14329090118408203,0.938433051109314,14.793400192260743,0.1915045872330665,16.114422607421876,40.30000305175781,-122.7531929,49.19037492,-0.24228366961081818,0.0257870284840464,-0.7272443473339081,0.641672283411026,-1.7538046836853027,1.2400519450505574,2.14056396484375,21.513174533843994,38.37509927749633,-20.972409629821776,-0.004958073867424944,0.06185126393260856,-0.02563146658554394,-233.83282051086425,133.40089721679686,-153.69620628356932,-0.14546784758567807,0.06950457890828449,0.17540053526560465,-0.6576999305098346,-9.264902728976626,3.28182651238008,-0.004075905749976463,0.05740860706040013,-0.02810790018922875,-0.5827115078767141,-9.277726809183756,3.1334988673528037
9.2,-0.7752201557159424,-9.207418528470127,3.286433133212003,0.0,0.28658180236816405,0.9337833523750305,14.359800148010255,0.3631213545799255,32.22884521484375,40.30000305175781,-122.7531869,49.19036304,-0.24782425165176386,0.02938967496156686,-0.7237868785858155,0.6433112025260925,-1.7237259864807128,1.2400794982910157,2.1238517284393312,21.28777961730957,38.418409156799314,-21.105999660491943,-0.002405281799534942,0.13680836261482907,0.04969643318569674,-234.05821533203124,133.44420852661133,-153.82979583740234,-0.34327605962753294,0.071728515625,0.11023154258728025,-0.7692380926825784,-9.224766211076217,3.3492447462948887,-0.0015017105033621081,0.13237958859341836,0.047214793177166314,-0.48809376955032346,-9.277837181091309,3.1495153427124025
9.3,-0.7354666690031688,-9.18945412202315,3.2610637509461604,0.0,0.42987270355224605,0.9291336536407471,13.926200103759765,0.5347381219267845,48.34326782226563,40.30000305175781,-122.7531809,49.19035116,-0.24983553091684974,0.030587002635002098,-0.7246672610441843,0.6414841115474701,-1.7309454282124836,1.2376191814740498,2.135850509007772,21.229829597473145,38.39858427047729,-21.26215958595276,-0.01143463378151254,0.08727991721243596,-0.016369915932834052,-234.1161666870117,133.42438163757325,-153.98595581054687,-0.1810979644457499,0.09862724939982093,0.06741801897684728,-0.7294846068729054,-9.206802028598208,3.323875364029046,-0.010539970628451514,0.08285114379444466,-0.01887828123484117,-0.5144791801770529,-9.269960403442383,3.1684005657831826
9.4,-0.6957131822903951,-9.171489715576172,3.2356943686803183,0.0,0.5731636047363281,0.9244839549064636,13.492600059509277,0.7063548892736434,64.4576904296875,40.30000305175781,-122.7531749,49.19033928,-0.24985271940628687,0.029676682626207613,-0.7272974749406179,0.6385352313518524,-1.752134104569753,1.2334720889727275,2.1558757225672402,21.17187957763672,38.37875938415527,-21.418319511413575,-0.02046398576349014,0.03775147181004284,-0.08243626505136485,-234.1741180419922,133.40455474853516,-154.1421157836914,-0.11862445871035256,-0.04288578033447263,-0.08585969607035314,-0.6897311210632324,-9.1888378461202,3.298505981763204,-0.01957823075354092,0.03332269899547096,-0.08497135564684864,-0.5883186062177023,-9.256563027699789,3.1946593125661216
9.5,-0.6189933146039645,-9.253792842229208,3.206880827744802,0.0,0.7164545059204102,0.9198342561721802,13.059000015258789,0.8779716566205025,80.57211303710938,40.30000305175781,-122.75316889999999,49.1903274,-0.2471587608257929,0.026676401806374334,-0.7277023593584696,0.6392559806505839,-1.7545825044314067,1.233233352502187,2.1499973932902017,21.446989822387696,38.18172950744629,-21.600709629058837,-0.009290242296022676,-0.030975959729403257,-0.0004454227164387913,-233.8990051269531,133.20752639770507,-154.3245071411133,0.06570786734422047,0.04798428217569981,0.10986900329589842,-0.6130112508932749,-9.271140893300375,3.2696924209594727,-0.008399397134780884,-0.03540473229562242,-0.0029143365488077497,-0.5964793662230173,-9.255807876586914,3.195341428120931
9.6,-0.6971611108518008,-9.236805131941132,3.2277319313901844,0.0,0.8597454071044921,0.9151845574378967,12.625399971008301,1.0495884239673614,96.68653564453126,40.30000305175781,-122.75316289999999,49.19031552,-0.2508070468902588,0.0299737037469943,-0.7259002228577932,0.6397383908430735,-1.740021010239919,1.2339683969815571,2.145577311515808,21.310959672927858,38.21619443893432,-21.60284447669983,-0.007139487587361746,-0.023117432797638063,0.01926770790790516,-234.03503532409667,133.24199256896972,-154.3266426086426,-0.26125460863113403,0.055968443552652965,0.0796618064244588,-0.6911790583169821,-9.254153258872755,3.290543534538963,-0.006242279142801021,-0.027546205325052125,0.016792430930460463,-0.548679530620575,-9.258208910624186,3.1969345013300576
9.7,-0.7753289070996371,-9.219817421653055,3.248583035035567,0.0,1.0030363082885743,0.9105348587036133,12.191799926757813,1.2212051913142203,112.80095825195313,40.30000305175781,-122.7531569,49.19030364,-0.24935051500797267,0.02728336006402966,-0.7251582741737366,0.6412672758102417,-1.732244873046875,1.233486580848694,2.1317467212677004,21.174929523468016,38.25065937042236,-21.60497932434082,-0.004988732878700816,-0.015258905865872868,0.03898083853224911,-234.17106552124022,133.27645874023438,-154.3287780761719,-0.2089854478836059,0.01609725952148436,0.00974607467651368,-0.7693468657406893,-9.237165624445135,3.3113946481184526,-0.004085161150821159,-0.019687678354481833,0.03649919840972867,-0.5245179414749146,-9.256662750244141,3.2054943084716796
9.8,-0.7499278350309893,-9.19535459171642,3.272397973320701,0.0,1.1463272094726562,0.9058851599693298,11.758199882507324,1.3928219586610795,128.915380859375,40.30000305175781,-122.7531509,49.19029176,-0.2466857383648554,0.025888121376434915,-0.7260199884573618,0.6413817008336385,-1.740096112092336,1.2348056832949321,2.1336122353871665,21.271614694595335,38.26834936141968,-21.52079935073853,0.008485936401120832,-0.019785671316397645,0.006784422074755055,-234.07438011169432,133.29414825439454,-154.24459686279297,-0.17684017618497214,0.09021043777465815,0.1071301698684692,-0.7439457787708803,-9.212702519965895,3.335209586403587,0.00938059967690301,-0.024229716074963367,0.004306599998380997,-0.5475505391756693,-9.260945161183676,3.1892069578170776
9.9,-0.7245267629623413,-9.170891761779785,3.296212911605835,0.0,1.2896181106567381,0.9012354612350464,11.324599838256836,1.5644387260079384,145.0298034667969,40.30000305175781,-122.7531449,49.190279880000006,-0.24416641145944593,0.024087759666144803,-0.7274653216203054,0.6407763957977295,-1.752429723739624,1.2347033421198528,2.139633377393087,21.368299865722655,38.28603935241699,-21.436619377136232,0.02196060568094248,-0.02431243676692242,-0.025411994382739,-233.97769470214843,133.31183776855468,-154.16041564941406,-0.11735350886980689,0.044917265574137354,0.16573139031728104,-0.7185446918010712,-9.188239415486654,3.3590245246887207,0.02284636050462718,-0.028771753795444898,-0.027885998412966677,-0.5869973202546438,-9.260617256164549,3.1831480662027993
10.0,-0.6718348115682602,-9.228668292363484,3.2769705851872764,0.0,1.4329090118408203,0.8965857625007629,10.890999794006348,1.7360554933547974,161.14422607421875,40.30000305175781,-122.7531389,49.190268,-0.24146969616413114,0.020768001054724,-0.7285881737867991,0.640640139579773,-1.7607718308766682,1.2332071661949158,2.1392333110173545,21.579969596862792,38.16830921173096,-21.162729740142822,-0.008144869905663618,-0.0737747043992082,0.0018453219866690414,-233.76602478027343,133.19410705566406,-153.88652572631835,-0.022955407698949132,0.014452934265136714,0.013579010963439948,-0.6658527553081512,-9.246016263961792,3.339782198270162,-0.0073049301912154,-0.07820347789674993,-0.0006490443241394502,-0.6160913209120432,-9.255776087443033,3.1917311350504556
10.1,-0.6966626109047369,-9.211463100982435,3.291708189429659,0.0,1.3633238077163696,0.8977786600589752,9.725500106811523,1.9080460667610168,162.6714859008789,40.30000305175781,-122.7531377,49.1902544,-0.24007632136344909,0.02009616307914254,-0.7282107830047607,0.6416137337684631,-1.758122158050537,1.2348821640014649,2.133513259887695,21.47382950782776,38.20246925354004,-21.034629583358765,0.0019344066143579287,-0.014934382595432297,0.014291701168986001,-233.87216453552247,133.22826766967773,-153.7584259033203,-0.03941345214843744,0.03716297149658202,0.11912384033203124,-0.6906805539673024,-9.228811014782298,3.3545197916753366,0.002799799129813151,-0.019363156131779136,0.011803698126944526,-0.604718017578125,-9.261217880249024,3.178070640563965
10.2,-0.7214904102412137,-9.194257909601385,3.3064457936720415,0.0,1.293738603591919,0.8989715576171875,8.5600004196167,2.0800366401672363,164.19874572753906,40.30000305175781,-122.7531365,49.1902408,-0.24221861114104584,0.022575455717742384,-0.7267478207747141,0.6423837641874949,-1.746473769346873,1.2364940245946248,2.1285622914632163,21.367689418792725,38.23662929534912,-20.906529426574707,0.012013683134379475,0.04390593920834362,0.02673808035130296,-233.9783042907715,133.2624282836914,-153.63032608032228,-0.22070972124735508,0.09729528427124019,0.14420870939890537,-0.7155083526264537,-9.211605765602805,3.3692573850805108,0.012904528450841701,0.03947716563319165,0.0242564405780285,-0.5649970769882202,-9.266434828440348,3.1701742013295493
10.3,-0.7250026053551472,-9.211886890006788,3.2663841825543027,0.0,1.292045497894287,0.9000100135803223,8.489600372314452,2.082035946846008,164.39539947509766,40.30000305175781,-122.75313625999999,49.190238789999995,-0.24048768232266104,0.020424502591292016,-0.7271010378996531,0.6427026887734731,-1.7487948338190715,1.2359144290288289,2.125233848889669,21.517444467544557,38.332704067230225,-20.926354598999023,0.0032121330984713273,-0.053198727197013775,0.0239217372455944,-233.82855033874512,133.35850219726564,-153.650150680542,-0.1551038821538289,0.03521664937337237,0.05233399073282873,-0.7190205459341859,-9.229234724333793,3.32919578479998,0.00406988973457679,-0.057627501043801495,0.02145918698515737,-0.5732748806476593,-9.264575640360514,3.1741127967834473
10.4,-0.7285148004690806,-9.229515870412191,3.226322571436564,0.0,1.2903523921966553,0.9010484695434571,8.419200325012207,2.0840352535247804,164.59205322265626,40.30000305175781,-122.75313602,49.19023678,-0.23826396216948828,0.01791542644302045,-0.7284000615278879,0.6421387592951456,-1.7591395775477092,1.2345652182896931,2.1287123759587607,21.667199516296385,38.42877883911133,-20.94617977142334,-0.005589416937436821,-0.15030339360237116,0.021105394139885842,-233.67879638671874,133.45457611083984,-153.66997528076172,-0.08310707410176592,0.011319955190022797,-0.010358174641927101,-0.722532739241918,-9.24686368306478,3.2891341845194497,-0.004764748981688121,-0.15473216772079465,0.01866193339228624,-0.6083823442459106,-9.260220209757486,3.1802744468053183
10.5,-0.6913263400395712,-9.241131067276001,3.167399247487386,0.0,1.2886592864990234,0.9020869255065918,8.34880027770996,2.086034560203552,164.78870697021483,40.30000305175781,-122.75313578,49.190234769999996,-0.23564946899811423,0.015461893596996817,-0.7292635043462118,0.6421838899453481,-1.7663052082061768,1.2343522906303406,2.1284924348195395,21.788589572906496,38.286039161682126,-20.851629543304444,-0.004708752906784267,-0.06325000474923094,0.0005726863164454751,-233.55740814208986,133.31183776855468,-153.57542724609374,-0.059425979852676385,0.026493867238362598,-0.012636184692382835,-0.6853442837794622,-9.25847872098287,3.230210860570272,-0.00380518127349205,-0.0677042309786581,-0.0019089540001005004,-0.631465216477712,-9.259541670481363,3.1777668396631875
10.6,-0.7003991269704067,-9.230664632537149,3.2174536820613975,0.0,1.2869661808013917,0.9031253814697265,8.278400230407716,2.0880338668823244,164.98536071777343,40.30000305175781,-122.75313554,49.19023276,-0.23172578215599055,0.01222586054354902,-0.7289564371109009,0.6440305590629578,-1.7641133785247802,1.2363947868347167,2.1158021450042725,21.7660195350647,38.376624488830565,-20.65581955909729,0.0034696684093487766,-0.027793211445124588,0.018070851569063934,-233.57997703552246,133.40242195129395,-153.37961769104004,-0.03237006664276118,0.02439422607421872,0.060818386077880836,-0.6944170700329724,-9.248012430740125,3.280265262632659,0.004372661416048413,-0.0322416529355299,0.015580534223938035,-0.620854115486145,-9.266156005859376,3.16052360534668
10.7,-0.7094719139012423,-9.220198197798295,3.267508116635409,0.0,1.2852730751037598,0.9041638374328613,8.208000183105469,2.090033173561096,165.18201446533203,40.30000305175781,-122.7531353,49.19023075,-0.23222823689381278,0.013020123820751834,-0.7277753750483195,0.6451685825983683,-1.7544155518213909,1.2379735708236694,2.1079458793004355,21.7434494972229,38.467209815979004,-20.460009574890137,0.011648089725481819,0.007663581858981764,0.0355690168216824,-233.60254592895507,133.4930061340332,-153.18380813598634,-0.1686307291189829,0.06930287679036455,0.1542259852091471,-0.7034898562864824,-9.23754614049738,3.3303196646950464,0.012550504105588873,0.003220925107598302,0.03307002244797657,-0.5874648988246918,-9.271244049072266,3.151981512705485
10.8,-0.7293124013777935,-9.2264022249164,3.2384407159053916,0.0,1.2835799694061278,0.9052022933959961,8.137600135803222,2.092032480239868,165.37866821289063,40.30000305175781,-122.75313505999999,49.190228739999995,-0.23046410580476118,0.010794176099200999,-0.728080670038859,0.6454937160015106,-1.7565372784932454,1.2373638550440471,2.1042754650115967,21.748634576797485,38.46019468307495,-20.373694515228273,-0.001226358143013008,-0.06700312484507305,0.026743865251773927,-233.59736137390138,133.485990524292,-153.0974910736084,-0.1538397669792175,0.03684488932291667,0.0532514651616414,-0.7233303469238859,-9.243750261537956,3.3012522964766533,-0.00034245483711304626,-0.07143883996953565,0.02425991145917741,-0.5951770941416422,-9.269294579823812,3.156246066093445
10.9,-0.7491528888543447,-9.232606252034506,3.2093733151753745,0.0,1.2818868637084961,0.9062407493591309,8.067200088500977,2.0940317869186402,165.57532196044923,40.30000305175781,-122.75313482,49.19022673,-0.22594659527142838,0.006507178147633834,-0.7293690741062164,0.6456982592741648,-1.7676088611284893,1.2371224363644917,2.102540373802185,21.75381965637207,38.4531795501709,-20.287379455566406,-0.014100806011507835,-0.14166983154912785,0.017918713681865452,-233.59217681884766,133.47897491455078,-153.01117401123048,0.058011839787165294,0.04624891281127927,0.0374966462453206,-0.7431708375612894,-9.249954382578531,3.2721849282582602,-0.013235413779814966,-0.1460986050466696,0.01544980047037825,-0.6304583152135214,-9.268529256184896,3.1516619523366294
11.0,-0.6389924179423939,-9.230585271661932,3.241023908961903,0.0,1.2801937580108642,0.9072792053222656,7.99680004119873,2.096031093597412,165.7719757080078,40.30000305175781,-122.75313458,49.190224719999996,-0.22836066782474512,0.010027969814836921,-0.7289013266563416,0.645329761505127,-1.7646015167236329,1.2386561155319213,2.1081239700317385,21.63364973068237,38.51112937927246,-20.289209651947022,0.01586977003535134,0.05574145476566627,-0.0016289736571100753,-233.71234588623048,133.53692779541015,-153.01300659179688,-0.10034737586975093,0.033245468139648404,0.16395359039306637,-0.6330103494904258,-9.247933301058682,3.303835478695956,0.01678606807642302,0.051312680899476,-0.004097887722309666,-0.6182008743286133,-9.273451995849609,3.139581871032715
11.1,-0.710423610652938,-9.244457291834282,3.1952883556033624,0.0,1.2785006523132325,0.9083176612854004,7.926399993896484,2.0980304002761843,165.9686294555664,40.30000305175781,-122.75313434,49.19022271,-0.23131675769885376,0.012634157358358234,-0.7269777953624725,0.6464017629623413,-1.748029092947642,1.2396920919418335,2.0996182759602866,21.545504665374757,38.54894933700562,-20.31543965339661,-0.0035257799924941317,-0.004734205825529476,0.012513481795780759,-233.8004909515381,133.574747467041,-153.03923683166505,-0.24847216407457984,0.05090268452962238,0.08048776785532628,-0.7044415458133726,-9.26180533206824,3.2580999172095098,-0.002616423840112427,-0.009169920541656502,0.010029528001640836,-0.5643532971541086,-9.276772181193033,3.1398771603902182
11.2,-0.7818548033634821,-9.258329312006632,3.149552802244822,0.0,1.2768075466156006,0.9093561172485352,7.855999946594238,2.100029706954956,166.165283203125,40.30000305175781,-122.7531341,49.1902207,-0.2295186469952265,0.008589875496303,-0.7272861103216807,0.6467588742574056,-1.7487314939498901,1.2366942564646404,2.0919036070505777,21.45735960006714,38.58676929473877,-20.341669654846193,-0.022921330020339605,-0.06520986641672522,0.02665593724867159,-233.8886360168457,133.61256713867186,-153.0654670715332,-0.1791205803553263,-0.023299853006998716,-0.08780030409495032,-0.7758727421363195,-9.275677363077799,3.212364355723063,-0.022018915756647873,-0.06965252198278901,0.024156943725591337,-0.5714914898077647,-9.267175992329916,3.1667892932891846
11.3,-0.6892824744184811,-9.2373921473821,3.2075787484645844,0.0,1.1607341332869097,0.9098525047302246,7.903909076343883,2.0565418980338355,166.22989723899147,40.30000305175781,-122.75313453636363,49.190221418181814,-0.22601640969514844,0.006926937882477983,-0.7294028302033743,0.6456305483977,-1.768200119336446,1.2375375231107075,2.1038318475087485,21.657439661026004,38.56694459915161,-20.240714454650877,0.005847183659418737,-0.02146936948834495,-0.004323491586767345,-233.6885555267334,133.5927421569824,-152.96451072692872,0.03482268253962193,0.05358966191609699,0.11827182769775386,-0.6833004181583723,-9.254740079243977,3.2703903118769326,0.006705634093977449,-0.025930536678060882,-0.006794718722107289,-0.6313968002796173,-9.269887765248617,3.1474570433298745
11.4,-0.5967101454734802,-9.216454982757568,3.2656046946843467,0.0,1.0446607199582187,0.9103488922119141,7.951818206093528,2.0130540891127153,166.29451127485797,40.30000305175781,-122.75313497272727,49.19022213636364,-0.22899201760689414,0.010145572479814234,-0.7271775205930074,0.6470462083816528,-1.749492843945821,1.2396811842918396,2.0940752426783242,21.857519721984865,38.54711990356445,-20.139759254455566,0.03461569733917708,0.022271127440035315,-0.035302920422206285,-233.48847503662108,133.57291717529296,-152.86355438232422,-0.16820781429608658,0.10712655385335279,0.11969693501790361,-0.590728094180425,-9.233802795410156,3.3284162680308023,0.03543018394460277,0.01779144862666725,-0.037746381169805915,-0.5688449343045553,-9.276764551798502,3.13895316918691
11.5,-0.8212820074775002,-9.208832480690695,3.192949901927601,0.0,0.9285873066295277,0.9108452796936035,7.999727335843173,1.969566280191595,166.35912531072444,40.30000305175781,-122.7531354090909,49.19022285454545,-0.23266645073890685,0.01090924460440868,-0.7259191632270813,0.6471372961997985,-1.736557388305664,1.2364216327667237,2.087697744369507,21.427469730377197,38.754519844055174,-20.578349590301514,-0.02859612932661546,0.026254480394224303,0.015271631612752868,-233.91852645874025,133.78031692504882,-153.30214462280273,-0.3888154745101928,0.01079273223876952,-0.061562633514404295,-0.8152999390255321,-9.226180249994451,3.255761493336071,-0.02770528430119155,0.021787527948617897,0.012789991218596683,-0.5332423448562622,-9.266313362121583,3.175945520401001
11.6,-0.6542353341638139,-9.233206897070914,3.2070938502297257,0.0,0.8125138933008367,0.911341667175293,8.047636465592818,1.9260784712704746,166.4237393465909,40.30000305175781,-122.75313584545454,49.19022357272727,-0.22306536634763077,0.0021538464206969335,-0.7318006952603658,0.643948088089625,-1.7870473265647888,1.2329510649045308,2.111582120259603,21.841049671173096,38.649904537200925,-20.33434977531433,0.004180609240641123,0.005102692376540003,0.01252273797890115,-233.50494613647462,133.6757022857666,-153.058145904541,0.24845251937707266,-0.10099490483601885,-0.061976234118143715,-0.6482532705660119,-9.250554926467665,3.2699054326071884,0.005063355413519512,0.0006478879156268345,0.010046303632076483,-0.6994632581869761,-9.25508419672648,3.1759603023529053
11.7,-0.4871886608501275,-9.257581313451132,3.2212377985318503,0.0,0.6964404799721458,0.9118380546569824,8.095545595342463,1.8825906623493542,166.48835338245738,40.30000305175781,-122.75313628181817,49.190224290909086,-0.2214529265960057,0.00376242290561395,-0.7316247324148814,0.6447005470593771,-1.7884294390678406,1.2377306421597798,2.1128233273824057,22.254629611968994,38.54528923034668,-20.09034996032715,0.03695734780789771,-0.016049095641144297,0.00977384434504943,-233.09136581420898,133.5710876464844,-152.81414718627929,0.17148825526237488,0.1117499669392903,0.19710675875345862,-0.48120660210649174,-9.274929602940878,3.284049371878306,0.03783199512823057,-0.020491752117364224,0.007302616045556282,-0.6945827901363373,-9.270520687103271,3.1316331227620444
11.8,-0.6548607219010592,-9.24095626672109,3.2219357192516327,0.0,0.5803670666434548,0.912334442138672,8.143454725092107,1.8391028534282337,166.55296741832387,40.30000305175781,-122.75313671818182,49.19022500909091,-0.23140970865885413,0.011653337317208384,-0.7230850458145142,0.6507303516070048,-1.713728666305542,1.242079734802246,2.063955227533976,21.723014688491823,38.73835430145264,-20.19984483718872,0.017142406181488722,0.09057928316266922,0.08933904338063611,-233.62298011779785,133.76415252685547,-152.92364311218262,-0.36943067610263824,0.06025870641072589,0.08799481391906734,-0.6488786668827137,-9.258304397265118,3.2847473124663034,0.01803787867362242,0.08614356786534755,0.08684351804637998,-0.4529660791158676,-9.284433205922445,3.1347630421320596
11.9,-0.8225327829519907,-9.224331219991049,3.222633639971415,0.0,0.46429365331476385,0.9128308296203614,8.191363854841752,1.7956150445071133,166.61758145419034,40.30000305175781,-122.75313715454546,49.190225727272725,-0.2357330297430356,0.015120349513987668,-0.7217881480852762,0.650552382071813,-1.7023017406463623,1.2414307395617168,2.063894510269165,21.191399765014648,38.931419372558594,-20.309339714050292,-0.002672535444920266,0.19720766196648276,0.16890424241622282,-234.15459442138672,133.95721740722655,-153.03313903808595,-0.4283939599990845,0.07265949249267575,0.06068007151285804,-0.8165507316589355,-9.241679191589355,3.285445253054301,-0.0017562377809857335,0.1927788878480593,0.1663844200472037,-0.4179310202598572,-9.282377401987711,3.146025856335958
12.0,-0.7090912434187803,-9.224548773332076,3.203554456884211,0.0,0.3482202399860729,0.9133272171020509,8.239272984591397,1.752127235585993,166.6821954900568,40.30000305175781,-122.75313759090909,49.19022644545454,-0.22929372489452357,0.009933123085647779,-0.7284233212471009,0.6455262780189515,-1.7596720457077026,1.2375896453857422,2.10444712638855,20.92299966812134,38.83381938934326,-20.497829723358155,-0.015055283130398741,-0.13333406640837592,-0.11934779747389256,-234.42299575805663,133.8596176147461,-153.22162704467775,0.060212671756744406,0.02809524536132808,0.04841656684875484,-0.7031091830947183,-9.241896716031162,3.2663660699670967,-0.0141517114534508,-0.1377628371119499,-0.12181671065627596,-0.6043241620063782,-9.27009620666504,3.151629400253296
12.1,-0.642108068999016,-9.246125000895876,3.174908571171038,0.0,0.2321468266573819,0.9138236045837403,8.287182114341043,1.7086394266648726,166.74680952592328,40.30000305175781,-122.75313802727273,49.19022716363636,-0.2257546856999397,0.006949808603773467,-0.7322178483009338,0.6425254642963409,-1.7921377420425415,1.2347889145215352,2.127501130104065,21.408254575729373,38.70510892868042,-20.331909704208375,-0.008291223056761651,-0.02256672818100816,-0.024639388937926443,-233.93774070739744,133.73090782165528,-153.0557067871094,0.3018258810043335,-0.02920182545979813,-0.011284391085306785,-0.6361260057398768,-9.263472958044574,3.237720164385709,-0.007388230043447518,-0.02700938341546466,-0.027130284009300246,-0.7118595441182455,-9.261074384053549,3.1561757723490396
12.2,-0.5751248945792516,-9.267701228459677,3.1462626854578652,0.0,0.11607341332869095,0.9143199920654298,8.335091244090687,1.6651516177437522,166.81142356178978,40.30000305175781,-122.75313846363636,49.19022788181818,-0.22997964421908057,0.009751754347234918,-0.727763702472051,0.646042138338089,-1.7533469796180725,1.2370269497235615,2.098871111869812,21.893509483337404,38.57639846801758,-20.165989685058594,-0.0015271629831245636,0.08820061004635961,0.07006901959803967,-233.45248565673828,133.60219802856446,-152.88978652954103,-0.1548073192437489,0.023502508799235055,-0.012912670771280901,-0.5691428283850352,-9.285049200057983,3.2090742588043213,-0.0006247486334442362,0.08374407028102059,0.06755614263767545,-0.585136741399765,-9.268315315246582,3.160795013109843
12.3,-0.6156782483061155,-9.273832837740581,3.1280174056688943,0.0,0.0,0.9148163795471193,8.383000373840332,1.6216638088226318,166.87603759765625,40.30000305175781,-122.7531389,49.1902286,-0.2282278587420781,0.007919372835506951,-0.7265651226043701,0.6480355362097422,-1.743082841237386,1.2385021646817524,2.0833482344945273,21.611994457244876,38.69656867980957,-20.173004627227783,0.008946630727168094,0.0018996974650883486,0.03429638105091834,-233.73400115966797,133.72236824035645,-152.89680137634278,-0.10583884517351781,-0.006745815277099584,-0.0434128443400065,-0.6096961945295334,-9.291180809338886,3.1908289790153503,0.009855986928001057,-0.0025556853788932937,0.03181821215813134,-0.550256739060084,-9.273061911265055,3.153309146563212
12.4,-0.6562316020329794,-9.279964447021484,3.1097721258799234,0.0,0.0,0.9162696182727815,8.437900352478028,1.5698967933654786,166.9692123413086,40.30000305175781,-122.75313971,49.19023036,-0.22499246001243586,0.00690957335755224,-0.7285788178443908,0.6469181895256042,-1.7620582342147828,1.2399590969085694,2.096107006072998,21.330479431152344,38.81673889160156,-20.180019569396972,0.01942042443746075,-0.08440121511618293,-0.0014762574962029831,-234.01551666259766,133.84253845214843,-152.90381622314453,0.0402077436447143,0.1021156311035156,0.20534291267395016,-0.6502495606740316,-9.297312418619791,3.1725836992263794,0.02033672248944635,-0.08885544103880717,-0.003919718321412767,-0.6074099659919738,-9.277715682983398,3.1290600299835205
12.5,-0.6026650179516185,-9.210790200666947,3.253858111121438,0.0,0.0,0.9177228569984437,8.492800331115722,1.5181297779083252,167.06238708496093,40.30000305175781,-122.75314052,49.19023212,-0.22578845421473182,0.006959811939547401,-0.7280129889647166,0.6472766200701395,-1.7566046714782715,1.2394142945607503,2.091899355252584,21.567159557342528,38.72767944335938,-20.146469593048096,-0.000291549261998018,0.00810784728012301,0.010592958635904573,-233.77883682250976,133.75347747802735,-152.87026824951172,-0.04073802630106604,0.03615792592366532,0.04973502953847242,-0.5966829603368585,-9.228137969970703,3.3166697025299072,0.0005969820036129819,0.0036651911213994,0.008107847576452918,-0.5912299255530039,-9.275985558827719,3.137230078379313
12.6,-0.6609538127527093,-9.227680386918964,3.22949708591808,0.0,0.0,0.919176095724106,8.547700309753418,1.466362762451172,167.1555618286133,40.30000305175781,-122.75314132999999,49.190233879999994,-0.22885848830143607,0.008841785136610216,-0.7258122563362122,0.6486449241638184,-1.7368777990341187,1.2395499348640442,2.0793724060058594,21.403069543838498,38.76763439178467,-20.226684665679933,0.0026158452694124363,0.027324071502362397,-0.004636443773933642,-233.94292602539062,133.7934326171875,-152.9504825592041,-0.20215035478274024,0.012375354766845684,0.01048409938812255,-0.6549717533317478,-9.245028336842854,3.2923086881637573,0.0035118966691449994,0.022888357188397393,-0.0071134563556618235,-0.5290200312932333,-9.276430606842041,3.147069295247396
12.7,-0.7192426075538,-9.24457057317098,3.2051360607147217,0.0,0.0,0.9206293344497681,8.602600288391113,1.4145957469940185,167.2487365722656,40.30000305175781,-122.75314214,49.19023564,-0.2297535787026087,0.01087783075248195,-0.7267794907093048,0.6472138166427612,-1.746084729830424,1.2399295369784038,2.0928338368733725,21.238979530334472,38.80758934020996,-20.306899738311767,0.005523239800822891,0.046540295724601784,-0.01986584618377186,-234.10701522827148,133.83338775634766,-153.03069686889648,-0.14971331755320227,0.05286518732706702,0.11440066496531165,-0.7132605463266373,-9.261918703715006,3.2679476737976074,0.006426811334677016,0.04211152325539539,-0.022334760287776565,-0.5573294361432394,-9.277637958526611,3.138566493988037
12.8,-0.6393821537494659,-9.245168765385946,3.200225790341695,0.0,0.0,0.9220825731754304,8.657500267028809,1.3628287315368652,167.34191131591797,40.30000305175781,-122.75314295,49.1902374,-0.22891257703304288,0.0100203631445765,-0.7279861569404602,0.6461692253748575,-1.7563398083051045,1.23879607518514,2.100649913152059,21.282289600372316,38.82985439300537,-20.226989793777463,-0.0008908452412772962,0.02086486606276594,-0.010760136404617987,-234.06370582580564,133.85565109252929,-152.9507869720459,0.031995604435602815,0.02841075261433915,0.05236558119455969,-0.6334000925223033,-9.262516895929972,3.2630374034245806,1.908949343490743e-05,0.016436093389832734,-0.01322905040312129,-0.5913812716801962,-9.27402114868164,3.143074154853821
12.9,-0.5595216999451319,-9.245766957600912,3.1953155199686685,0.0,0.0,0.9235358119010927,8.712400245666505,1.311061716079712,167.43508605957032,40.30000305175781,-122.75314376,49.19023916,-0.23164083063602442,0.01207235492765898,-0.7277020335197448,0.6454803466796875,-1.7534499645233155,1.2376841306686401,2.1047530651092528,21.325599670410156,38.85211944580078,-20.147079849243163,-0.007304930283377483,-0.004810563599069899,-0.0016544266254641166,-234.02039642333983,133.87791442871094,-152.87087707519532,-0.0772233963012695,0.0065681457519531205,-0.03991765975952146,-0.5535396387179693,-9.263115088144938,3.258127133051554,-0.006388632347807201,-0.00923933647572992,-0.004123340518466016,-0.5841364026069641,-9.270463371276856,3.154898691177368
13.0,-0.6391555558551442,-9.260658610950816,3.117902300574563,0.0,0.0,0.9249890506267548,8.767300224304199,1.2592947006225585,167.52826080322265,40.30000305175781,-122.75314457,49.190240919999994,-0.23277669896682096,0.0129120020816723,-0.7278103729089102,0.6449343661467234,-1.7541661063830059,1.2369563579559326,2.1083683570226035,21.35731945037842,38.60323925018311,-20.403889656066895,-0.0073303828883746,0.04938290081918237,-0.014577466087013581,-233.98867721557616,133.62903747558593,-153.1276870727539,-0.032804310321807834,0.010455926259358714,-0.040542443593343046,-0.6331735090775923,-9.278006553649902,3.1807138486341997,-0.006455734979350663,0.04494024542244996,-0.017048693346706226,-0.5875983337561289,-9.26812998453776,3.161106745402018
13.1,-0.6498371556852803,-9.253761186744228,3.143747509428949,0.0,0.0,0.9264422893524171,8.822200202941895,1.2075276851654053,167.621435546875,40.30000305175781,-122.75314537999999,49.19024268,-0.23360122988621387,0.01395150739699595,-0.7281149625778198,0.6442698736985525,-1.7569848497708638,1.236751914024353,2.1139095226923623,21.381414461135865,38.59317426681518,-20.522839641571046,-0.005230533609309567,0.03743689937982706,-0.003623541420066328,-233.96458129882814,133.6189727783203,-153.2466365814209,-0.031058480342229185,0.030142148335774718,0.029856801033019995,-0.643855101682923,-9.271109064420063,3.2065590701319957,-0.0043477870978235736,0.032988458720148724,-0.006106338345985401,-0.5968217253684998,-9.26747719446818,3.161295771598816
13.2,-0.6605187555154165,-9.246863762537638,3.169592718283335,0.0,0.0,0.9278955280780793,8.87710018157959,1.1557606697082519,167.71461029052733,40.30000305175781,-122.75314619,49.19024444,-0.2348518595099449,0.014561555969218367,-0.7274982631206512,0.6444987654685974,-1.7512963215510051,1.2363224228223164,2.11094597975413,21.40550947189331,38.583109283447264,-20.641789627075195,-0.003130684330244533,0.02549089794047175,0.007330383246880925,-233.94048538208008,133.6089080810547,-153.3655860900879,-0.11336794495582579,0.01002120971679685,-0.020260214805603,-0.6545366942882538,-9.264211575190226,3.2324042916297913,-0.0022398392162964833,0.021036672017847483,0.004836016654735425,-0.5795172850290934,-9.26609992980957,3.168541431427002
13.3,-0.6424030969540278,-9.218847759564717,3.2302208681901297,0.0,0.0,0.9293487668037416,8.932000160217285,1.1039936542510986,167.8077850341797,40.30000305175781,-122.753147,49.1902462,-0.23521887362003321,0.014953200146555861,-0.7272708058357239,0.6446113348007202,-1.7494306087493896,1.236527419090271,2.1101803302764894,21.291744661331176,38.64624443054199,-20.60305461883545,0.003957897795771692,0.05942573487603414,-0.009341147691884547,-234.05424995422362,133.6720428466797,-153.32685203552245,-0.05090789794921872,0.07609043121337888,0.12323355674743648,-0.6364210337400437,-9.236195619901022,3.2930324375629425,0.004848742807250008,0.05498423508834091,-0.011835514223397074,-0.5732434988021851,-9.26676540374756,3.1677396297454834
13.4,-0.6242874383926391,-9.190831756591797,3.2908490180969237,0.0,0.0,0.9303118348121644,8.849500179290771,1.0562259137630463,168.03106384277345,40.30000305175781,-122.75314803,49.190248509999996,-0.2385890856385231,0.018926405968765367,-0.7278179426987966,0.6426482697327932,-1.7549351453781128,1.2360495726267497,2.1264107624689736,21.17797985076904,38.70937957763672,-20.564319610595703,0.011046479921787917,0.09336057181159653,-0.026012678630650016,-234.1680145263672,133.73517761230468,-153.28811798095703,-0.1643323997656504,0.042740662892659494,0.10781208674112952,-0.6183053731918335,-9.208179664611816,3.3536605834960938,0.0119373248307965,0.08893179815883434,-0.028507045101529568,-0.5914641122023264,-9.265220324198404,3.1688839197158813
13.5,-0.6866902510325114,-9.236744244893393,3.2121650179227195,0.0,0.0,0.9312749028205872,8.767000198364258,1.008458173274994,168.25434265136718,40.30000305175781,-122.75314906,49.190250819999996,-0.23783354212840394,0.01690165915836885,-0.7298393150170644,0.6406885981559753,-1.7705577810605366,1.2322575847307842,2.1380963722864785,21.47809953689575,38.39095935821533,-20.776599407196045,-0.024948291628706154,-0.022032798860560754,-0.036582498409023306,-233.86789627075194,133.4167579650879,-153.50039672851562,0.030540804068247485,0.0022315979003906176,-0.045781294504801416,-0.680708184838295,-9.25409197807312,3.27497661113739,-0.02404587701047682,-0.02648933841423552,-0.03903984248278321,-0.6478527088960012,-9.252926508585611,3.193663716316223
13.6,-0.6700152630607287,-9.241305390993755,3.2327781716982527,0.0,0.0,0.93223797082901,8.684500217437744,0.9606904327869416,168.47762145996094,40.30000305175781,-122.75315008999999,49.190253129999995,-0.2370732004443804,0.014699406300981785,-0.7303881545861562,0.6404008269309998,-1.773674448331197,1.2298905849456787,2.1369650761286416,21.381719541549682,38.360154438018796,-20.85650954246521,-0.01134149989846981,0.007933149516413145,-0.00913463390822995,-233.96427459716796,133.38595237731934,-153.5803066253662,0.05111596981684361,-0.012873172760009766,-0.03808867931365963,-0.6640332043170929,-9.258653322855633,3.295589764912923,-0.01043214352455723,0.0034841297681189425,-0.011610488887086053,-0.6621467173099518,-9.24519968032837,3.21308970451355
13.7,-0.653340275088946,-9.245866537094116,3.2533913254737854,0.0,0.0,0.9332010388374329,8.60200023651123,0.9129226922988891,168.70090026855468,40.30000305175781,-122.75315112,49.190255439999994,-0.23837004353602723,0.016202988103032067,-0.7294962704181671,0.6408985753854116,-1.7665775219599407,1.2309062282244365,2.1339223782221475,21.285339546203613,38.329349517822266,-20.936419677734374,0.0022652918317665337,0.037899097893387045,0.018313230592563408,-234.06065292358397,133.3551467895508,-153.66021652221679,-0.057876745859781864,0.015184720357259115,0.12359472115834548,-0.6473582237958908,-9.263214667638143,3.316202918688456,0.0031815899613623585,0.03345759795047341,0.0158188647086111,-0.6375010013580322,-9.248531818389893,3.208435297012329
13.8,-0.735962448020776,-9.203334212303162,3.2879128038883207,0.0,0.0,0.9341641068458557,8.519500255584717,0.8651549518108368,168.92417907714844,40.30000305175781,-122.75315215,49.19025775,-0.24228293597698208,0.01916989833116526,-0.7271188616752624,0.6420494437217712,-1.7463825464248657,1.2314825773239135,2.12375431060791,21.120639610290525,38.405904579162595,-21.012059593200682,-0.007279477567256732,0.06902777194045481,0.022392028998486496,-234.2253536224365,133.43170166015625,-153.7358570098877,-0.2468543648719787,0.08977909088134763,0.10715503692626949,-0.7299804016947746,-9.220682231585185,3.350724407037099,-0.006375905883032822,0.0645926361515497,0.019910389305247574,-0.57159423828125,-9.250424194335938,3.2154034614562987
13.9,-0.8185846209526062,-9.160801887512207,3.3224342823028565,0.0,0.0,0.9351271748542787,8.437000274658203,0.8173872113227845,169.1474578857422,40.30000305175781,-122.75315318,49.19026006,-0.2420348127683003,0.017445209746559418,-0.7277876536051432,0.6414313813050588,-1.7505733370780945,1.228839933872223,2.125149965286255,20.95593967437744,38.48245964050293,-21.087699508666994,-0.016824246966279998,0.10015644598752259,0.02647082740440958,-234.39005432128906,133.5082565307617,-153.8114974975586,-0.19552103678385413,0.022970040639241535,-0.008298953374226882,-0.8126025795936584,-9.178149795532226,3.3852458953857423,-0.015933401727428,0.09572767435262598,0.02400191390188405,-0.5894878506660461,-9.24176057179769,3.2369391123453775
14.0,-0.669541689256827,-9.238738139470419,3.2246276338895163,0.0,0.0,0.9360902428627015,8.35450029373169,0.769619470834732,169.37073669433593,40.30000305175781,-122.75315420999999,49.19026237,-0.23647486666838324,0.012838959849129068,-0.7316963970661163,0.6391654511292776,-1.783206284046173,1.2268257141113281,2.1430068016052246,21.559229469299318,38.325079345703124,-20.777209663391112,-0.008205030748451282,-0.12381127832288087,-0.04600925984877071,-233.78676681518556,133.35087814331055,-153.50100631713866,0.14479994773864743,-0.023254712422688766,-0.013346910476684569,-0.6635596230626106,-9.256085952123007,3.287439246972402,-0.007344266315075473,-0.12825393473560154,-0.048494370823556676,-0.6986023585001627,-9.235117276509603,3.23421045144399
14.1,-0.7016340587852579,-9.21810232148026,3.244137291655396,0.0,0.0,0.9370533108711243,8.272000312805176,0.7218517303466797,169.5940155029297,40.30000305175781,-122.75315524,49.19026468,-0.23812092095613477,0.015118750277906616,-0.7313205202420553,0.6389304598172506,-1.7808139324188232,1.2277429501215618,2.1463148991266885,21.561669492721556,38.34581899642944,-20.927269601821898,-0.005356061752315841,0.0034378524164133256,-0.006275830774525669,-233.78432579040526,133.37161750793456,-153.65106735229492,0.057413265109062195,0.04069900512695308,0.08196616172790525,-0.6956520009447228,-9.235450112458432,3.3069488939010734,-0.00448662013646257,-0.0009978622282770522,-0.008752843081090367,-0.6890821158885956,-9.23815361658732,3.2275314728418985
14.2,-0.7337264283136888,-9.197466503490102,3.263646949421276,0.0,0.0,0.9380163788795471,8.189500331878662,0.6740839898586274,169.81729431152343,40.30000305175781,-122.75315627,49.19026699,-0.24399395585060116,0.01937533318996426,-0.7280461549758911,0.6403426051139831,-1.7529083728790282,1.2281059741973877,2.133191633224487,21.564109516143798,38.36655864715576,-21.077329540252684,-0.0025070927561804002,0.1306869831557075,0.033457598299719365,-233.781884765625,133.3923568725586,-153.80112838745117,-0.2577742576599121,0.04222335815429686,-0.03338198661804196,-0.727744378826835,-9.214814272793857,3.326458540829745,-0.0016289739578496665,0.12625821027904743,0.030988684661375943,-0.5981220126152038,-9.239358901977539,3.2422813415527343
14.3,-0.747720820885716,-9.198087439392552,3.275343670989528,0.0,0.0,0.93897944688797,8.107000350952148,0.626316249370575,170.0405731201172,40.30000305175781,-122.7531573,49.1902693,-0.24331691116094586,0.018761547592778965,-0.7286927302678426,0.6398818989594778,-1.7582009832064311,1.2276021043459575,2.136614441871643,21.33444437980652,38.331178951263425,-21.04225468635559,0.00010562874716315987,0.019986747795095072,-0.012256757181603462,-234.01154937744138,133.35697708129882,-153.76605415344238,-0.14543406168619788,0.03914705912272135,0.04361081123352048,-0.7417387655287078,-9.215435150897864,3.3381552533669905,0.001002837138366867,0.015557975042611347,-0.014728214915764197,-0.616145114103953,-9.237698396046957,3.2435537576675415
14.4,-0.7617152134577433,-9.198708375295004,3.28704039255778,0.0,0.0,0.9316839916365487,8.201714651925224,0.5765205664294106,170.80850655691964,40.30000305175781,-122.75315858571429,49.19027244285714,-0.23725371807813642,0.0135220975304643,-0.7324320872624716,0.6380123794078827,-1.7891513109207153,1.2256574432055156,2.151123603185018,21.10477924346924,38.295799255371094,-21.007179832458498,0.00271835025050672,-0.09071348756551738,-0.057971112662926295,-234.2412139892578,133.32159729003905,-153.7309799194336,0.13996993998686472,-0.024020512898762985,-0.007783452669779467,-0.7557331522305807,-9.216056029001871,3.349851965904236,0.0036346482345834,-0.09514226019382474,-0.06044511449290434,-0.7200934092203776,-9.231260617574057,3.240511337916056
14.5,-0.5905785337090492,-9.226076046625773,3.2618658939997354,0.0,0.0,0.9243885363851275,8.296428952898298,0.5267248834882464,171.5764399937221,40.30000305175781,-122.75315987142856,49.19027558571428,-0.23670089244842527,0.012545854163666518,-0.7318220436573029,0.6389394402503967,-1.7837539116541545,1.225945770740509,2.143485148747762,21.79102954864502,38.21893939971924,-20.898599433898926,-0.0035633806255646002,-0.026788986288011064,0.009417505527380824,-233.5549659729004,133.2447395324707,-153.62239761352538,0.10123957693576811,0.03566916783650715,0.049550215403238895,-0.5845964848995209,-9.24342393875122,3.324677507082621,-0.0026852617156691745,-0.03123048646375534,0.006974045075670176,-0.7020011444886526,-9.232226530710856,3.241702119509379
14.6,-0.6738990731537342,-9.214816617243217,3.268493769746838,0.0,0.0,0.9170930811337062,8.391143253871373,0.4769292005470821,172.34437343052454,40.30000305175781,-122.75316115714286,49.19027872857143,-0.2408608645200729,0.016391506108144868,-0.7291660209496816,0.6403389871120453,-1.761926571528117,1.2277161280314128,2.133285721143087,21.473829603195192,38.28268451690674,-21.039509439468382,-0.004683300256147038,-0.015704327340548205,0.011059206047017725,-233.87216606140137,133.3084831237793,-153.7633060455322,-0.16374124089876807,0.03555170694986975,0.06722871462504065,-0.6679170118136839,-9.23216462135315,3.331305382829724,-0.0037988182502885874,-0.020139464177191233,0.008596655808408571,-0.62794761856397,-9.238091309865316,3.240274945894877
14.7,-0.7572196125984192,-9.203557187860662,3.275121645493941,0.0,0.0,0.909797625882285,8.485857554844447,0.4271335176059178,173.11230686732702,40.30000305175781,-122.75316244285715,49.19028187142857,-0.24005500674247737,0.015100803412497,-0.7293681144714356,0.6404429793357849,-1.763083291053772,1.2270171880722045,2.131403684616089,21.156629657745363,38.346429634094235,-21.180419445037842,-0.0058032198867294755,-0.00461966839308535,0.012700906566654624,-234.18936614990236,133.3722267150879,-153.90421447753906,-0.0826322197914123,0.03135166168212888,-0.009333848953247039,-0.751237538727847,-9.220905303955078,3.3379332585768267,-0.004912374784908,-0.009048441890627125,0.010219266541146967,-0.6329249858856201,-9.235785484313965,3.245870351791382
14.8,-0.6939638952414195,-9.220773783597078,3.2637828967788005,0.0,0.0,0.9025021706308637,8.580571855817523,0.3773378346647535,173.88024030412947,40.30000305175781,-122.75316372857144,49.19028501428571,-0.23831587533156073,0.013362930932392632,-0.7306561966737112,0.6396623452504476,-1.7735378940900166,1.2259164849917095,2.1368180910746255,21.246604776382448,38.33026456832886,-21.098679494857787,-0.0007330382853979371,-0.023293055392180843,4.3269774566121605e-05,-234.0993911743164,133.35606269836427,-153.8224769592285,0.03825873136520383,-0.005689620971679683,0.0035328070322672663,-0.687981827692552,-9.238121747970581,3.3265945098616863,0.00012471824338717002,-0.02772182910703121,-0.002419280868101217,-0.6688308715820312,-9.232143878936768,3.2490355571111045
14.9,-0.6307081778844198,-9.237990379333496,3.2524441480636597,0.0,0.0,0.8952067153794425,8.675286156790596,0.32754215172358925,174.64817374093192,40.30000305175781,-122.75316501428571,49.19028815714285,-0.2402284244696299,0.015729623846709666,-0.7304515639940897,0.6391223867734274,-1.7724056442578633,1.2263404528299968,2.141920526822408,21.336579895019533,38.31409950256348,-21.016939544677733,0.0043371433159336,-0.04196644239127634,-0.012614367017522379,-234.00941619873046,133.33989868164062,-153.74073944091796,0.013130068778991685,0.0646111170450846,0.11788419882456458,-0.6247261166572571,-9.255338191986084,3.3152557611465454,0.00516181127168234,-0.046395216323435295,-0.0150578282773494,-0.6643403073151907,-9.233551502227783,3.2459505001703897
15.0,-0.740728164712588,-9.211370150248209,3.2642089128494263,0.0,0.0,0.8879112601280212,8.770000457763672,0.2777464687824249,175.41610717773438,40.30000305175781,-122.7531663,49.1902913,-0.24273507048686346,0.0175181478261947,-0.7293539742628733,0.6393832365671793,-1.762958824634552,1.226112425327301,2.138755202293396,21.370739650726318,38.31165943145752,-21.11209955215454,3.8178948064650046e-05,0.040240748785436146,0.014138985502844066,-233.97525787353516,133.33745880126952,-153.83589782714844,-0.19593321283658346,-0.02068678538004555,-0.08931887149810787,-0.7347461034854254,-9.228718201319376,3.327020525932312,0.0009417504770681248,0.03579924845447141,0.011657345169320875,-0.6340408027172089,-9.232799847920736,3.2541504303614297
15.1,-0.7119395125544432,-9.207191741827762,3.2767077630216424,0.0,0.0,0.8916208446025848,9.423500061035156,0.16441091708838937,87.70805358886719,40.30000305175781,-122.75316925,49.19030015,-0.2401029616594314,0.015499173849821019,-0.7305842638015747,0.6390268802642822,-1.773364520072937,1.2260727167129517,2.142367458343506,21.48694462776184,38.25004949569703,-20.99802951812744,-0.0010707496187409703,0.013414740117944104,-0.003169441556868437,-233.85905227661132,133.2758476257324,-153.72182655334473,0.04318184852600096,0.07035045623779293,0.1047662734985351,-0.705957458552086,-9.224539825410552,3.339519376104528,-0.00018163988980549213,0.008979603655241204,-0.005631992351426909,-0.6679314494132995,-9.23267059326172,3.24770245552063
15.2,-0.6831508603962985,-9.203013333407315,3.289206613193859,0.0,0.0,0.8953304290771484,10.07699966430664,0.0510753653943538,0.0,40.30000305175781,-122.7531722,49.190309,-0.24049607912699378,0.016099740751087634,-0.7314870754877726,0.6378302673498789,-1.7809473474820454,1.2252025206883748,2.1514299313227334,21.603149604797363,38.188439559936526,-20.88395948410034,-0.0021796781855465907,-0.013411268549547937,-0.02047786861658094,-233.7428466796875,133.2142364501953,-153.607755279541,-0.03738373517990108,-0.0068532625834147,-0.0137159427007039,-0.6771688136187467,-9.22036144950173,3.3520182262767446,-0.0013050302566791092,-0.017840041143989,-0.02292132987217469,-0.6941854655742645,-9.22978401184082,3.250431855519613
15.3,-0.6569295141733054,-9.2080891493595,3.2736668731227065,0.0,0.0,0.8962690830230713,10.280726952986283,0.061110659756443655,30.886016845703125,40.30000305175781,-122.75317257272727,49.19031049090909,-0.23988919208447135,0.014726853463798734,-0.7303739388783773,0.6393645803133646,-1.771121859550476,1.2256284952163696,2.1386995712916055,21.729724693298337,38.22503929138183,-20.83332953453064,0.0008445675434124965,0.032249750163773024,0.002563783122847472,-233.61627197265625,133.25083847045897,-153.55712547302244,0.030850301186243666,0.018198649088541633,0.005066474278767883,-0.6509474651380018,-9.225437034260143,3.3364784862055923,0.0017145877667864957,0.027808251797757828,0.00012032163618696384,-0.661422441403071,-9.231206576029459,3.2531848748524985
15.4,-0.6307081679503123,-9.213164965311686,3.258127133051554,0.0,0.0,0.8972077369689941,10.484454241665928,0.0711459541185335,61.77203369140625,40.30000305175781,-122.75317294545454,49.19031198181818,-0.24249825129906333,0.01791288765768205,-0.7294867833455404,0.639314204454422,-1.7646000782648723,1.226847251256307,2.140601952870687,21.856299781799315,38.26163902282715,-20.782699584960938,0.0038688132723715836,0.07791076887709399,0.025605434862275882,-233.489697265625,133.28744049072264,-153.5064956665039,-0.17143528660138443,0.04128297170003251,0.08351500829060869,-0.6247261166572571,-9.230512619018555,3.32093874613444,0.004734205790252101,0.07345654473950465,0.023161973144548615,-0.6380003392696381,-9.23524808883667,3.2464213371276855
15.5,-0.7658527940511703,-9.206235647201538,3.2765219807624817,0.0,0.0,0.898146390914917,10.68818153034557,0.08118124848062336,92.65805053710938,40.30000305175781,-122.75317331818182,49.19031347272727,-0.24158551295598343,0.016709559907515784,-0.7306086222330729,0.6384099125862122,-1.7734048167864482,1.2253645658493042,2.1463640133539834,21.47199954986572,38.43304977416992,-21.108439636230468,-0.003945171425584692,-0.013540846218044524,-0.015818864320560014,-233.87399597167968,133.4588478088379,-153.8322380065918,-0.052680929501851353,0.012139002482096366,-0.03069464365641277,-0.7598707377910614,-9.223583539326986,3.3393335541089377,-0.0030288733735990836,-0.017982345617686683,-0.018313230791439584,-0.6693169673283895,-9.230331579844156,3.254050612449646
15.6,-0.7031023834239353,-9.210416327823292,3.268969630653208,0.0,0.0,0.8990850448608398,10.891908819025213,0.09121654284271322,123.5440673828125,40.30000305175781,-122.7531736909091,49.19031496363636,-0.23942275047302247,0.015083723887801099,-0.7318397879600524,0.6378555297851562,-1.7838052272796632,1.225097942352295,2.1512396335601807,21.5561794757843,38.385164451599124,-21.070314502716066,0.0014496479998342632,0.021114186718918848,-0.00322381805039405,-233.7898151397705,133.4109634399414,-153.79411277770998,0.14465154409408565,0.006231880187988261,0.022473001480102523,-0.6971203264865009,-9.22776411518906,3.3317812130306708,0.0023520627115486224,0.016679050044551717,-0.0057135567573519865,-0.7035985231399536,-9.229449272155762,3.2493576049804687
15.7,-0.6403519727967002,-9.214597008445047,3.261417280543934,0.0,0.0,0.9000236988067627,11.095636107704857,0.10125183720480307,154.43008422851562,40.30000305175781,-122.75317406363637,49.19031645454545,-0.24208538234233856,0.01788526990761353,-0.7308289706707001,0.6379347443580627,-1.7759031057357788,1.2258809010187786,2.151293714841207,21.64035940170288,38.33727912902832,-21.03218936920166,0.006844467425253218,0.05576921965588221,0.009371228219771916,-233.70563430786132,133.36307907104492,-153.75598754882813,-0.03153511881828307,0.024928728739420567,0.005289832750956216,-0.6343699151819403,-9.231944691051137,3.324228871952404,0.0077329987966963274,0.05134044570679011,0.00688611727673561,-0.6764049530029297,-9.232054233551025,3.2476773659388223
15.8,-0.7069159407507289,-9.211388479579579,3.2713374947056626,0.0,0.0,0.9009623527526855,11.2993633963845,0.11128713156689293,185.31610107421875,40.30000305175781,-122.75317443636364,49.190317945454545,-0.24416199823220566,0.01977382414042945,-0.7292926808198293,0.6388474603494009,-1.7633756597836812,1.2269636591275532,2.144524852434794,21.332919454574586,38.34459915161133,-21.100814437866212,0.008105533983325534,0.037505737608157536,0.011239689044569692,-234.013073348999,133.37039756774902,-153.82461166381836,-0.13959864775339761,0.027622381846110017,0.03525853157043457,-0.7009338912638752,-9.228736147736058,3.3341490969513403,0.009007948520416906,0.03306423759468913,0.008775403238056846,-0.6337452431519827,-9.235645294189453,3.2461233933766684
15.9,-0.7734799087047577,-9.208179950714111,3.281257708867391,0.0,0.0,0.9019010066986084,11.503090685064144,0.12132242592898278,216.20211791992188,40.30000305175781,-122.75317480909091,49.19031943636364,-0.2433590044577916,0.01934821593264735,-0.7302528520425161,0.6380690038204193,-1.7715025345484416,1.2265228231747944,2.150870601336161,21.02547950744629,38.351919174194336,-21.16943950653076,0.009366600541397851,0.019242255560432867,0.013108149869367466,-234.3205123901367,133.37771606445312,-153.8932357788086,-0.07174973686536147,0.0237719217936198,0.00813225905100505,-0.7674978673458099,-9.22552760442098,3.344069321950277,0.010282898244137483,0.01478802948258815,0.010664689199378083,-0.6609161694844564,-9.234187602996826,3.2448349793752036
16.0,-0.6835315390066667,-9.22264541279186,3.2372715256430884,0.0,0.0,0.9028396606445312,11.706817973743787,0.13135772029107262,247.088134765625,40.30000305175781,-122.75317518181818,49.19032092727273,-0.24133378267288202,0.01712901070713992,-0.7313423991203308,0.6376539587974548,-1.7800113439559937,1.2254395246505738,2.1532130241394043,21.39940938949585,38.179899024963376,-21.165170001983643,-0.006210463296156342,-0.041017055666695,-0.010906490026779151,-233.94658508300782,133.2056968688965,-153.88896636962892,0.06627205610275262,-0.006377601623535159,-0.030182647705078103,-0.6775494868105109,-9.23999326879328,3.300083117051558,-0.005306891796256691,-0.04544582912543165,-0.013413582531938993,-0.6905430912971496,-9.230598449707031,3.2488925457000732
16.1,-0.710011204761086,-9.223264043981379,3.232769120823253,0.0,0.0,0.9037783145904541,11.91054526242343,0.14139301465316248,277.9741516113281,40.30000305175781,-122.75317555454546,49.190322418181815,-0.24196893225113547,0.018016270361840683,-0.7309141159057617,0.6378786464532217,-1.776825765768687,1.2261336247126262,2.1522290309270224,21.22799949645996,38.244864273071286,-21.17340483665466,-0.008068511664698049,-0.012275730252661016,0.005028647394228173,-234.11799545288085,133.270662689209,-153.89720191955567,0.018380711476008102,0.04282808303833007,0.058935403823852484,-0.7040291480494268,-9.240611997517671,3.295580703200716,-0.0071724605008829136,-0.01670450361791264,0.002532545516673531,-0.6788631280263265,-9.232905069986979,3.244779586791992
16.2,-0.7364908705155054,-9.223882675170898,3.228266716003418,0.0,0.0,0.904716968536377,12.114272551103074,0.15142830901525234,308.86016845703125,40.30000305175781,-122.75317592727274,49.19032390909091,-0.24380548795064283,0.018642379902303167,-0.7299822668234507,0.6382280389467875,-1.7682382265726726,1.2252269585927327,2.147270838419596,21.056589603424072,38.309829521179196,-21.181639671325684,-0.009926560033239756,0.016465595161372967,0.0209637848152355,-234.2894058227539,133.33562850952148,-153.90543746948242,-0.15962776541709894,-0.027475992838541668,-0.10563834508260089,-0.7305088092883428,-9.241230726242065,3.291078289349874,-0.009038029205509137,0.012036821889606374,0.018478673565286055,-0.6525994837284088,-9.229899088541666,3.2587051391601562
16.3,-0.6703891480962435,-9.204914490381878,3.2912527720133467,0.0,0.0,0.9056556224822998,12.317999839782717,0.1614636033773422,339.7461853027344,40.30000305175781,-122.7531763,49.1903254,-0.24082273741563154,0.016008114907890517,-0.7310039301713308,0.6382630666097006,-1.7766391038894653,1.2251490751902263,2.1474665800730386,21.21488461494446,38.327824115753174,-21.192619800567627,0.0036270125763786885,0.011223491210716245,-0.009142153564784133,-234.13111114501953,133.35362434387207,-153.91641654968262,0.07592437664667763,0.04385677973429358,0.10058379173278804,-0.6644070769349735,-9.222262660662334,3.3540643652280173,0.0045294266475882725,0.006781992079182093,-0.011606439873999515,-0.6800757447878519,-9.229646682739258,3.2537792523701987
16.4,-0.6042874256769816,-9.185946305592855,3.354238828023275,0.0,0.0,0.906543042924669,12.326777670118545,0.1761059761047363,340.576666937934,40.30000305175781,-122.75317652222223,49.19032692222222,-0.24183038373788193,0.017428207676857665,-0.7314688165982565,0.6373110115528107,-1.7808907826741536,1.2249165574709575,2.1552727619806924,21.373179626464843,38.34581871032715,-21.20359992980957,0.017180585185997133,0.005981387260059525,-0.03924809194480377,-233.97281646728516,133.37162017822266,-153.92739562988282,-0.07541285951932268,-0.0001848538716634346,-0.04447491963704427,-0.598305344581604,-9.203294595082602,3.4170504411061606,0.018096882500685682,0.0015271622687578108,-0.041691553313285085,-0.6943417886892954,-9.228875001271566,3.252975424130758
16.5,-0.6968008279800415,-9.240210966630416,3.2030106024308638,0.0,0.0,0.9074304633670383,12.335555500454374,0.1907483488321304,341.40714857313367,40.30000305175781,-122.75317674444445,49.19032844444445,-0.2388808280229568,0.013490322604775359,-0.7306358218193054,0.6394723057746887,-1.772989845275879,1.2252424955368042,2.137302207946777,21.364639472961425,38.34825954437256,-21.01998987197876,-0.001209003812012558,-0.030861420556902875,0.040698896472652714,-233.98135528564453,133.37405853271486,-153.7437873840332,0.059060072898864724,-0.023280906677246076,-0.058685684204101515,-0.6908187703652815,-9.257558822631836,3.2658222155137495,-0.00033088507674011725,-0.03529019413205484,0.038229983610411446,-0.668017041683197,-9.229966354370116,3.255381679534912
16.6,-0.7273138438661892,-9.209763664187808,3.2643924075545687,0.0,0.0,0.9083178838094076,12.344333330790203,0.2053907215595245,342.2376302083333,40.30000305175781,-122.75317696666667,49.19032996666667,-0.24178880949815107,0.01793793837229405,-0.7292893826961517,0.6397991379102071,-1.7636304100354512,1.2281890908877056,2.1385900179545083,21.20298957824707,38.319284439086914,-21.125519800186154,-0.005317882826960993,-0.018922361714596096,0.010290996369087313,-234.14300537109375,133.34508247375487,-153.84931678771972,-0.11832290887832637,0.12382062276204424,0.2300460338592529,-0.7213317968628623,-9.22711153825124,3.3272040107033467,-0.0044276160232115894,-0.02335807560787847,0.007807043070594447,-0.6322891712188721,-9.239719867706299,3.2347856362660727
16.7,-0.7578268597523371,-9.1793163617452,3.3257742126782737,0.0,0.0,0.9092053042517768,12.353111161126032,0.22003309428691858,343.06811184353296,40.30000305175781,-122.7531771888889,49.19033148888889,-0.24248008181651434,0.017958565770337966,-0.7305378913879395,0.6381072203318278,-1.7732843557993572,1.2257108688354492,2.149366100629171,21.041339683532716,38.29030933380127,-21.231049728393554,-0.009426761841909428,-0.006983302872289316,-0.02011690373447809,-234.30465545654297,133.31610641479492,-153.95484619140626,-0.09665815532207489,-0.010901133219401051,-0.06394012769063312,-0.7518448233604431,-9.196664253870646,3.3885858058929443,-0.008524346969683062,-0.011425957083702098,-0.022615897469222556,-0.6681114733219147,-9.231518745422363,3.2509052753448486
16.8,-0.6365406662225723,-9.233130057652792,3.2353703876336417,0.0,0.0,0.910092724694146,12.36188899146186,0.2346754670143127,343.89859347873266,40.30000305175781,-122.75317741111111,49.190333011111115,-0.23776581386725104,0.012652199404935,-0.7323305507500967,0.6379644771416982,-1.7869872252146404,1.2238600452740986,2.1484930515289307,21.44332971572876,38.327214527130124,-21.095934772491454,-0.0019390347279664554,-0.0033007555656226826,-0.020264992176442186,-233.90266494750978,133.3530117034912,-153.81973190307616,0.20106587310632065,-0.06141694386800126,-0.1130870183308919,-0.6305586248636246,-9.250477751096088,3.2981819709142046,-0.001042404614219606,-0.007736469657781225,-0.022761672191942712,-0.7161843379338583,-9.225369612375895,3.2581777572631836
16.9,-0.5152544726928076,-9.286943753560385,3.1449665625890098,0.0,0.0,0.9109801451365153,12.37066682179769,0.2493178397417068,344.7290751139323,40.30000305175781,-122.75317763333334,49.190334533333335,-0.240363934636116,0.01660618167370552,-0.7312283277511596,0.6381635427474975,-1.7794490337371827,1.2263747930526734,2.1504399299621584,21.845319747924805,38.36411972045899,-20.960819816589357,0.005548692385976516,0.00038179174104395014,-0.02041308061840628,-233.50067443847655,133.3899169921875,-153.6846176147461,-0.0178713321685791,0.0671070098876953,0.08529214859008788,-0.509272426366806,-9.304291248321533,3.2077781359354653,0.0064395377412438505,-0.0040469822318603505,-0.022907446914662868,-0.6867985367774964,-9.233734130859375,3.240735912322998
17.0,-0.7341071150519631,-9.178215113553135,3.3229780847376045,0.0,0.0,0.9118675655788846,12.379444652133518,0.2639602124691009,345.55955674913196,40.30000305175781,-122.75317785555556,49.190336055555555,-0.24299710740645722,0.018402384594082784,-0.7290118833382925,0.6396518051624298,-1.7607515056927998,1.227264642715454,2.138183832168579,21.415269470214845,38.405599212646486,-21.03889970779419,0.0071498997858725636,0.08846439556642008,0.03562455061315132,-233.93072662353515,133.4313980102539,-153.76269607543946,-0.1338870823383331,0.049097855885823515,0.07573640346527095,-0.728125046599995,-9.195563142949885,3.3857896761460737,0.008038431040900337,0.08402173695239151,0.03315332307564936,-0.6245016554991404,-9.236682415008545,3.244927724202474
17.1,-0.6888383493730517,-9.212938232855365,3.269814821806821,0.0,0.0,0.9127549860212538,12.388222482469347,0.278602585196495,346.3900383843316,40.30000305175781,-122.75317807777778,49.19033757777778,-0.2420604402820269,0.017005684475103967,-0.7297531465689341,0.6391955117384592,-1.7663148641586304,1.2260127067565918,2.1403801441192627,21.489994525909424,38.35679922103882,-21.004739665985106,-0.0010319921178354842,-0.01918325059214665,0.015228824421435319,-233.85600051879882,133.38259811401366,-153.72853660583496,-0.14379786451657608,-0.009184201558430966,-0.07789858182271318,-0.6828562895005399,-9.230286153880034,3.332626414118391,-0.00013594076947560235,-0.023625330181058612,0.012752390533216463,-0.6448002755641937,-9.232537587483725,3.2527002493540444
17.2,-0.6435695836941401,-9.247661352157593,3.2166515588760376,0.0,0.0,0.913642406463623,12.397000312805176,0.2932449579238891,347.22052001953125,40.30000305175781,-122.7531783,49.1903391,-0.23528850326935447,0.010547027302285001,-0.732145090897878,0.6391317149003347,-1.7858100533485413,1.2251001993815105,2.140591025352478,21.564719581604002,38.307999229431154,-20.970579624176025,-0.009213884021543533,-0.12683089675071338,-0.005166901770280684,-233.7812744140625,133.33379821777345,-153.69437713623046,0.21157395342985785,-0.02377398808797195,0.010939558347066267,-0.6375875324010849,-9.26500916481018,3.2794631520907083,-0.008310312579851542,-0.13127239731450874,-0.0076485420092164335,-0.7098429401715597,-9.229513168334961,3.2478102842966714
17.3,-0.662163811425368,-9.208728114763897,3.2860433856646223,0.0,0.0,0.9146821558475494,12.429600238800049,0.3013781428337097,347.49200744628905,40.30000305175781,-122.7531784,49.19034019,-0.23794280489285788,0.013310741788397182,-0.7307427624861399,0.6396958331267039,-1.774545927842458,1.2263124187787373,2.1371943155924478,21.486639499664307,38.36411924362183,-20.906529664993286,0.0037670023108754835,0.032490395125932964,0.0068213284491017755,-233.85935592651367,133.38991699218752,-153.6303268432617,-0.009676307439804082,0.06390158335367836,0.1110155582427978,-0.6561817551652591,-9.226076006889343,3.3488549888134003,0.004664210748160253,0.028055257784823595,0.004320598818594566,-0.6709456940491995,-9.233539740244547,3.2445438702901206
17.4,-0.6807580391565958,-9.1697948773702,3.3554352124532065,0.0,0.0,0.9157219052314758,12.462200164794922,0.30951132774353024,347.76349487304685,40.30000305175781,-122.7531785,49.190341280000005,-0.24199570119380948,0.016464371234178498,-0.7283321738243103,0.6408580064773559,-1.7542213678359986,1.2270046949386597,2.127367639541626,21.40855941772461,38.4202392578125,-20.842479705810547,0.0167478886432945,0.19181168700257933,0.018809558668484234,-233.93743743896485,133.44603576660157,-153.56627655029297,-0.21250813007354732,0.053175163269042924,0.043379878997802726,-0.6747759779294332,-9.187142848968506,3.4182468255360923,0.017638734076172047,0.1873829128841559,0.016289739646405565,-0.6036672830581665,-9.235834312438964,3.251302194595337
17.5,-0.7386208501729098,-9.22264541279186,3.2421659122813833,0.0,0.0,0.9167616546154023,12.494800090789795,0.3176445126533508,348.0349822998047,40.30000305175781,-122.7531786,49.19034237,-0.23975571493307746,0.013765354019900117,-0.7292711933453878,0.6406939029693604,-1.7613579630851746,1.2258128921190898,2.1273308197657266,21.174319553375245,38.575179481506346,-21.120639514923095,-0.008413280476815983,-0.04274668332866644,0.005303421608087699,-234.17167739868165,133.6009780883789,-153.84443740844728,-0.04480684796969097,-0.023791790008544884,-0.059031605720519985,-0.7326387925581499,-9.239993355490945,3.304977525364269,-0.007552515715360628,-0.04721710627729239,0.0028599599079990826,-0.6289358039697012,-9.231888135274252,3.257661779721578
17.6,-0.6806515468792482,-9.221718614751643,3.2431425199364172,0.0,0.0,0.9178014039993286,12.527400016784668,0.3257776975631714,348.3064697265625,40.30000305175781,-122.7531787,49.19034346,-0.23795002202192939,0.013490062827865251,-0.7317236363887787,0.6385745306809744,-1.7826849818229675,1.2253972093264263,2.1456333796183267,21.289304494857788,38.42206935882568,-21.046524572372434,-0.003621227738525091,-0.007514336767626716,0.0028935115004776837,-234.05669097900392,133.44786872863767,-153.77032165527345,0.12153091033299761,0.031358877817789683,0.051213463147481236,-0.6746694849747601,-9.239066611636769,3.305954123085195,-0.0027390595593412012,-0.011963934465628961,0.00042459736648721175,-0.6990621387958527,-9.23050864537557,3.2473170359929404
17.7,-0.6226822435855865,-9.220791816711426,3.244119127591451,0.0,0.0,0.918841153383255,12.559999942779541,0.33391088247299194,348.5779571533203,40.30000305175781,-122.7531788,49.190344550000006,-0.23967551191647843,0.0148158171214163,-0.730860561132431,0.6388881107171377,-1.7753502130508423,1.2255062262217205,2.142749309539795,21.40428943634033,38.26895923614502,-20.972409629821776,0.0011708249997657999,0.027718009793413007,0.000483601392867668,-233.94170455932618,133.29475936889648,-153.69620590209962,0.0074527362982432,-0.011247158050537097,-0.061362306276957164,-0.6167001773913702,-9.238139867782593,3.306930720806122,0.002074396596678225,0.023289237346034466,-0.0020107651750246587,-0.675013909737269,-9.230873425801596,3.2513184547424316
17.8,-0.6705636233091354,-9.219929409027099,3.252708367506663,0.0,0.0,0.9198809027671814,12.592599868774414,0.34204406738281246,348.8494445800781,40.30000305175781,-122.7531789,49.190345640000004,-0.2406192153692245,0.01547904722392554,-0.7292795181274414,0.6403232336044311,-1.7622318506240844,1.2267533779144286,2.1319369792938234,21.366774559020996,38.28908891677857,-21.052014541625976,0.0048741955251898166,0.03793727655890201,0.0032070424446525745,-233.9792194366455,133.31488914489745,-153.7758113861084,-0.08821017742156981,0.01610164642333984,0.012787437438964818,-0.6645815635720889,-9.237277388572693,3.3155199706554415,0.005771403884864371,0.033508503896882716,0.0007126759349678955,-0.6300987958908081,-9.235011863708497,3.248634386062622
17.9,-0.7184450030326843,-9.219067001342774,3.261297607421875,0.0,0.0,0.9209206521511077,12.625199794769287,0.350177252292633,349.1209320068359,40.30000305175781,-122.753179,49.19034673,-0.24000925074021018,0.015277874811241966,-0.7301119069258372,0.639606386423111,-1.7693832914034526,1.2264729340871174,2.1379132668177285,21.32925968170166,38.30921859741211,-21.131619453430176,0.008577566050613833,0.048156543324391,0.005930483496437482,-234.01673431396483,133.33501892089845,-153.85541687011718,-0.07724543412526445,0.02606010437011715,0.02216879526774085,-0.7124629497528077,-9.236414909362793,3.3241092205047607,0.009468411173050516,0.04372777044773096,0.0034361170449604497,-0.6538252631823221,-9.23408317565918,3.2465511560440063
18.0,-0.646710162361463,-9.222436904907227,3.2734312415122986,0.0,0.0,0.9219604015350342,12.65779972076416,0.3583104372024536,349.3924194335938,40.30000305175781,-122.7531791,49.19034782,-0.23755706101655957,0.0126631497405469,-0.7314226826032003,0.6390828092892965,-1.7798148393630981,1.2252662181854248,2.1409870783487954,21.425639629364014,38.4598892211914,-20.888839530944825,-0.006289135437162408,-0.043857348405502046,-0.015577063747596947,-233.92035522460938,133.48568878173828,-153.61263732910157,0.12786407272020975,-0.006453196207682316,0.02790939807891842,-0.6407281210025152,-9.239784955978394,3.3362428347269693,-0.005414487338963527,-0.04830000405623152,-0.018048291390931,-0.6899416645367941,-9.23008426030477,3.2504815260569253
18.1,-0.6819544484217962,-9.214735110600788,3.2669008274873095,0.0,0.0,0.9230001509189606,12.690399646759033,0.36644362211227416,349.6639068603516,40.30000305175781,-122.7531792,49.190348910000004,-0.24125599364439643,0.016722907777875617,-0.7304854989051819,0.6386717259883881,-1.772719919681549,1.2260309259096782,2.1451961596806846,21.247824573516844,38.37723407745361,-20.98704957962036,-0.0031827467078762626,-0.004830810446009935,0.0028316149219983645,-234.09817123413086,133.4030330657959,-153.7108467102051,-0.06673581401507057,0.058700243631998654,0.058073083559672035,-0.6759724020957947,-9.232083002726238,3.329712410767873,-0.0023063633663255056,-0.009279251737153209,0.0003615443296660151,-0.6654315888881683,-9.232625484466553,3.248333732287089
18.2,-0.7171987344821295,-9.207033316294352,3.260370413462321,0.0,0.0,0.924039900302887,12.722999572753906,0.3745768070220947,349.9353942871094,40.30000305175781,-122.7531793,49.19035,-0.24187939117352167,0.01644967915490265,-0.7293334007263184,0.6397605339686075,-1.7625163992245991,1.2260404229164124,2.1355035305023193,21.07000951766968,38.29457893371582,-21.085259628295898,-7.635797859011691e-05,0.03419572751348218,0.021240293591593674,-234.27598724365234,133.32037734985352,-153.8090560913086,-0.06973032156626384,-0.0071660677591959335,-0.04031527042388913,-0.7112166831890742,-9.224381049474081,3.323181986808777,0.0008017606063125162,0.029741500581925106,0.01877138005026303,-0.6322276890277863,-9.232661406199139,3.254897634188334
18.3,-0.7123183752099673,-9.2232794602712,3.2094481547673546,0.0,0.0,0.925077497959137,12.735799598693848,0.37833546102046967,350.149072265625,40.30000305175781,-122.75317925,49.19035076,-0.2407958626747131,0.015658257156610438,-0.7305722594261169,0.6387766361236572,-1.7728074073791504,1.2252348423004151,2.143081712722778,21.17706456184387,38.389739418029784,-21.07183961868286,-0.0021380282754155586,0.010543788472811365,-0.01638518735611189,-234.16893234252927,133.41553764343263,-153.7956367492676,-0.04011803865432736,-0.009381294250488278,-0.09682140350341793,-0.7063363169630368,-9.240627376238505,3.2722597241401674,-0.0012917254595473668,0.006089562821822846,-0.018866827468931046,-0.6671839356422424,-9.229987716674803,3.2554714679718018
18.4,-0.7074380159378052,-9.239525604248048,3.158525896072388,0.0,0.0,0.926115095615387,12.748599624633789,0.3820941150188446,350.3627502441406,40.30000305175781,-122.7531792,49.19035152,-0.2372691581646601,0.013283837586641268,-0.7317494551340739,0.6388005713621775,-1.7833225925763447,1.2261370221773784,2.1449536085128784,21.284119606018066,38.48489990234375,-21.058419609069823,-0.004199698572241,-0.013108150567859451,-0.05401066830381745,-234.06187744140624,133.5106979370117,-153.78221740722657,0.1495019048452377,0.0019243558247884023,0.060768564542134605,-0.7014559507369995,-9.25687370300293,3.2213374614715575,-0.0033852115254072498,-0.017562374938279415,-0.05650503498812512,-0.6996153891086578,-9.232978343963623,3.24015474319458
18.5,-0.6364908268054327,-9.184002240498861,3.364458203315735,0.0,0.0,0.927152693271637,12.76139965057373,0.38585276901721954,350.57642822265626,40.30000305175781,-122.75317915,49.19035228,-0.24196011573076245,0.018462087338169352,-0.729388435681661,0.639598160982132,-1.7648271123568218,1.2284988760948181,2.1407949129740396,21.373789691925047,38.35862922668457,-20.99314947128296,0.016895977483892936,0.11217707158489659,0.016118512256070965,-233.97220611572266,133.38442687988282,-153.71694717407226,-0.0872812916835149,0.10415442784627273,0.19718662897745767,-0.63050876557827,-9.201350291570028,3.4272697965304055,0.017798391805792353,0.10770665075291284,0.013647284782068291,-0.6353148221969604,-9.24079163869222,3.2310548623402915
18.6,-0.6495697766993985,-9.216647523822207,3.2624437321316115,0.0,0.0,0.928190290927887,12.774199676513671,0.3896114230155945,350.79010620117185,40.30000305175781,-122.7531791,49.19035304,-0.2449209690093994,0.01980531401932235,-0.7285161316394806,0.639435887336731,-1.7564417719841003,1.22672043244044,2.138755957285563,21.209699630737305,38.3842490196228,-21.089834499359128,0.005896353799250896,0.03690354957330837,-0.002459079880888261,-234.13629531860352,133.4100482940674,-153.81363143920896,-0.15470595161120096,-0.028735637664794932,-0.14787006378173825,-0.6435877172784372,-9.233995477358501,3.325255313605973,0.0067866203169228805,0.03244122609171564,-0.004941876533187242,-0.6112600664297739,-9.234920501708986,3.252482215563456
18.7,-0.6626487265933644,-9.249292807145553,3.1604292609474878,0.0,0.0,0.929227888584137,12.786999702453613,0.3933700770139694,351.0037841796875,40.30000305175781,-122.75317905,49.1903538,-0.24200262129306788,0.017490834742784463,-0.7302743554115295,0.6386128067970276,-1.7710716247558593,1.2261383771896361,2.145756244659424,21.045609569549562,38.40986881256104,-21.1865195274353,-0.005103269885391142,-0.038369972438279866,-0.02103667201784749,-234.30038452148438,133.43566970825196,-153.9103157043457,0.12144435048103328,0.0012826919555664396,-0.02076106071472164,-0.6566666689786044,-9.266640663146973,3.2232408306815405,-0.004225151171946591,-0.04282419856948155,-0.023531037848442776,-0.6598130702972412,-9.23299446105957,3.2484440326690676
18.8,-0.6873564318274007,-9.223950602791525,3.2002552657416374,0.0,0.0,0.930265486240387,12.799799728393555,0.39712873101234436,351.21746215820315,40.30000305175781,-122.753179,49.19035456,-0.24352893978357312,0.019867083989083715,-0.7308334211508433,0.6373229126135508,-1.776608407497406,1.2262555559476216,2.1569924354553223,21.148394727706908,38.407124042510986,-21.126129484176634,-0.011320096553390595,-0.03969987677070701,0.01451441300256798,-234.197599029541,133.43292350769042,-153.84992713928222,-0.03437124689420063,0.034931818644205685,-0.0034953753153483167,-0.6813743724064394,-9.241298516591389,3.2630668372818916,-0.010422888008179136,-0.04414137674029915,0.012045499209004131,-0.6775568524996439,-9.233383496602377,3.2437008221944175
18.9,-0.712064137061437,-9.1986083984375,3.240081270535787,0.0,0.0,0.931303083896637,12.812599754333496,0.4008873850107193,351.43114013671874,40.30000305175781,-122.75317895,49.19035532,-0.24097512414058042,0.015172355653097167,-0.7294318079948425,0.6400219599405924,-1.7629118363062541,1.2256261110305786,2.132725715637207,21.251179885864257,38.404379272460936,-21.065739440917966,-0.01753692322139005,-0.04102978110313415,0.050065498022983455,-234.09481353759764,133.4301773071289,-153.78953857421874,0.07328934470812473,-0.017398357391357384,-0.062317530314127546,-0.7060820758342743,-9.215956370035807,3.3028928438822427,-0.016620624844411683,-0.04545855491111674,0.047622036266451034,-0.6341705222924551,-9.231302420298258,3.258355458577474
