time,TotalAcceleration_z,TotalAcceleration_y,TotalAcceleration_x,Location_bearingAccuracy,Location_speedAccuracy,Location_verticalAccuracy,Location_horizontalAccuracy,Location_speed,Location_bearing,Location_altitude,Location_longitude,Location_latitude,Orientation_qz,Orientation_qy,Orientation_qx,Orientation_qw,Orientation_roll,Orientation_pitch,Orientation_yaw,Magnetometer_z,Magnetometer_y,Magnetometer_x,GyroscopeUncalibrated_z,GyroscopeUncalibrated_y,GyroscopeUncalibrated_x,MagnetometerUncalibrated_z,MagnetometerUncalibrated_y,MagnetometerUncalibrated_x,Accelerometer_z,Accelerometer_y,Accelerometer_x,AccelerometerUncalibrated_z,AccelerometerUncalibrated_y,AccelerometerUncalibrated_x,Gyroscope_z,Gyroscope_y,Gyroscope_x,Gravity_z,Gravity_y,Gravity_x
3.1,2.0049407048658896,-9.017173048899028,-0.05056650899915083,0.0,0.0,1.0074524892137406,16.618362020938953,6.562628104331644,81.91534154973131,41.0,-122.75309206170213,49.190644076595746,-0.4037913382053375,0.2851494073867798,-0.5149244248867035,0.6990220665931701,-0.05498281493782997,1.2586093187332152,1.0873486757278443,-10.039379794150591,48.965003967285156,-3.4843199448194353,-0.2903958455603005,1.5796153828727475,-1.2386148937441634,-265.4341751098633,144.19820251464844,-136.84251708984374,-7.325401091575623,-3.949863815307617,-0.9719329625368118,-4.289373826980591,-13.292847681045533,-0.8109275862574578,-0.2893742748437393,1.5752600761567892,-1.2407396368569497,3.0132258892059327,-9.327238655090332,0.09629183262586594
3.2,-3.480849948796359,-9.863704312931407,-0.851083491505547,0.0,0.0,1.0082690563607724,16.62765989912317,6.35107518383797,86.13288672426914,41.0,-122.75309135957447,49.19064848085106,-0.47878952076037723,0.4984048629800479,-0.48101628571748734,0.5248864342768987,1.6878430222471554,1.444005121787389,-0.14659798890352246,-7.17664984613657,49.49722900390625,-2.7730599912814795,-0.40605877475305036,3.6203067844564263,-1.5861810201948339,-262.57144317626955,144.73042755126954,-136.1312568664551,-1.45468803246816,1.7679907083511353,-2.480748196442922,-1.1808579787611961,-7.943921943505605,-2.9714370146393776,-0.40505920215086505,3.615961291573264,-1.588305178013715,0.2510285734509428,-9.696167469024658,-0.5554022757957379
3.3,0.3809572557608287,-8.837690989176432,-5.241378267606099,0.0,0.0,1.009085623507804,16.636957777307387,6.139522263344297,90.35043189880696,41.0,-122.7530906574468,49.19065288510638,-0.5062176349262396,0.5708662383258343,-0.44542918230096495,0.44459636757771176,2.31521321212252,1.4229393353064854,-0.5555805154144764,5.748639845848084,49.38925895690918,-3.5062798976898195,0.5507968341310819,2.967023412386576,-1.2107603698968887,-249.64615325927736,144.6224594116211,-136.8644775390625,-0.2912881672382355,2.017044087251027,-2.8123957216739655,-0.9729815127017598,-7.675352563460668,-3.2160782155891257,0.5517640337347984,2.9626709620157876,-1.212898388504982,-0.704494845898201,-9.67665147781372,-0.46839592698961496
3.4,-0.020606389043457574,-8.799967823606549,-5.5560843095634915,0.0,0.0,1.0099021906548358,16.646255655491604,5.927969342850623,94.56797707334478,41.0,-122.75308995531915,49.1906572893617,-0.533645749092102,0.6433276136716207,-0.40984207888444263,0.3643063008785248,2.9425834019978843,1.4018735488255818,-0.9645630419254303,7.3242698311805725,49.13458414077759,-3.949749904870987,0.3210189424060059,1.9281799646489548,-0.6734569536691362,-248.0705249786377,144.3677833557129,-137.30794677734377,0.8721116979916891,2.2660974661509194,-3.144043246905009,-0.7651050466423234,-7.4067831834157305,-3.460719416538874,0.3220023459500887,1.9238101652625834,-0.6755741492591121,-1.660018265247345,-9.657135486602783,-0.381389578183492
3.5,-0.4221700338477438,-8.762244658036666,-5.870790351520885,0.0,0.0,1.0107187578018675,16.65555353367582,5.716416422356949,98.7855222478826,41.0,-122.75308925319149,49.19066169361702,-0.5349141597747803,0.6542601227760315,-0.41087939739227297,0.341729062795639,-0.674602460861206,1.3741373062133788,-1.0822047233581542,8.899899816513061,48.87990932464599,-4.393219912052155,0.09124105068092994,0.8893365169113333,-0.1361535374413837,-246.49489669799806,144.11310729980468,-137.751416015625,1.980145001411438,-0.8008926391601563,-8.520736503601075,0.03936194181442261,-10.423015975952149,-8.620741939544677,0.092240658165379,0.8849493685093793,-0.1382499100132422,-1.9635844707489014,-9.606378173828125,-0.16471897177398204
3.6,-1.011608814594872,-12.205826817136822,-4.641901465302164,0.0,0.0,1.0115353249488992,16.664851411860038,5.504863501863276,103.00306742242041,41.0,-122.75308855106383,49.19066609787234,-0.5424725910027822,0.6001953482627869,-0.3694638510545094,0.453172042965889,1.7085227767626445,1.4010763764381409,0.18497243026892343,0.7374899536371231,48.56545429229736,-0.7063799783587457,0.554993053982881,-1.1831412549045952,1.1644520320449816,-254.65730476379395,143.79865264892578,-134.06457595825196,-3.4215465784072876,-6.030317624409993,-4.587578773498535,-3.4150564273198447,-15.683257738749186,-6.012963851292928,0.5560019111938097,-1.1875046772148576,1.1623475570796113,-0.01631140460570657,-9.637194951375324,-1.490098476409912
3.7,-1.6010475953420003,-15.649408976236979,-3.4130125790834427,0.0,0.0,1.0123518920959311,16.67414929004426,5.293310581369601,107.22061259695823,41.0,-122.75308784893618,49.19067050212766,-0.4712160974740982,0.3552003776033719,-0.3986346299449603,0.6878081858158112,0.29968108888715506,1.1203396320343018,0.9982517808675766,-7.424919909238815,48.25099925994873,2.9804599553346636,1.018745057284832,-3.255619026720524,2.465057601531347,-262.81971282958983,143.48419799804688,-130.37773590087892,-6.012243370215098,2.2647605339686074,0.5776933779319128,-2.0139590998490653,-6.520740891496341,-0.45832523206869763,1.0197631642222404,-3.259958722939094,2.462945024172465,3.9754828413327536,-8.769756317138672,-1.1007320694625378
3.8,-4.309074819087982,2.6207389732201896,-0.2974079449971517,0.0,0.0,1.0131684592429628,16.683447168228476,5.081757660875928,111.43815777149607,41.0,-122.75308714680851,49.19067490638298,-0.4235771497090658,0.281353918214639,-0.45102024699250853,0.7181046257416408,0.07377846632152796,1.1329988638559976,1.0112857247392335,-22.848159790039062,43.860219192504886,-0.8625399708747864,-0.09435322384039564,-3.744883974393209,0.854422315955162,-278.2429504394531,139.09341583251953,-134.22073669433593,-1.8696416715780897,2.3233365019162493,0.709273082514604,2.1488544593254724,-6.5212891449530925,0.5045864433050156,-0.09330965330203367,-3.7492109139760337,0.852309743563334,3.9956947068373365,-8.828880548477173,-0.2694001036385696
3.9,1.6673986071890052,-4.027229244961884,0.22968829852161982,0.0,0.0,1.0139850263899945,16.692745046412693,4.870204740382254,115.65570294603388,41.0,-122.75308644468085,49.190679310638295,-0.3759382019440333,0.20750745882590607,-0.5034058640400568,0.7484010656674703,-0.1521241562440991,1.1456580956776936,1.0243196686108906,-18.846559739112855,44.82371425628662,-2.7196849524974827,0.21241334193583694,-1.9956562821612214,-0.12394199926744809,-274.2413528442383,140.05691146850586,-136.07788276672363,2.272960027058919,2.3819124698638916,0.8408527870972952,6.3116680185000105,-6.5218373984098434,1.4674981186787288,0.21343494059913087,-2.000027203198635,-0.12606731711915053,4.015906572341919,-8.888004779815674,0.5619318621853987
4.0,7.643872033465993,-10.675197463143956,0.7567845420403914,0.0,0.0,1.0148015935370263,16.70204292459691,4.658651819888581,119.8732481205717,41.0,-122.7530857425532,49.190683714893616,-0.3274587512016296,0.21092931330204007,-0.5418731093406677,0.7445706248283386,-0.12575611770153042,1.2381970643997193,0.9184606552124024,-14.844959688186645,45.78720932006836,-4.576829934120179,0.5191799077120695,-0.2464285899292339,-1.1023063144900582,-270.23975524902346,141.0204071044922,-137.93502883911134,6.031503391265869,-6.424699687957764,-0.31311659812927245,9.292526817321777,-15.693446826934814,0.04606187343597411,0.5201795345002954,-0.2508434924212369,-1.104444377801635,3.238221597671509,-9.253002166748047,0.2944649785757064
4.1,1.6376129650990627,-10.143084516579455,-1.0584478608586572,0.0,0.0,1.015618160684058,16.711340802781127,4.4470988993949065,124.09079329510952,41.0,-122.75308504042553,49.19068811914894,-0.3951491465171178,0.2761678049961726,-0.5362586577733358,0.6896797319253286,-0.14874275028705594,1.2933029731114705,1.1502547065416973,-9.536434783041477,46.42282905578613,-3.0259049490094188,0.1716190041466193,1.7848487293178388,-1.4189572263170374,-264.93123168945317,141.65602684020996,-136.3841033935547,-7.88102521498998,-2.839803457260132,0.3052697579065959,-5.202395260334015,-12.25165057182312,0.724028209845225,0.17260241175465507,1.7804205431179567,-1.4210952772109797,2.6558284163475037,-9.396101951599121,0.3540449266632398
4.2,-4.368646103267868,-9.610971570014954,-2.8736802637577057,0.0,0.0,1.0164347278310897,16.720638680965344,4.235545978901233,128.30833846964734,41.0,-122.75308433829787,49.19069252340425,-0.47174494961897534,0.5337463840842247,-0.48231490204731625,0.5024922440449396,1.8995786954959233,1.4648072719573975,-0.307931295906504,-4.227909877896309,47.058448791503906,-1.4749799638986587,-0.17594189941883087,3.816126048564911,-1.7356081381440163,-259.6227081298828,142.29164657592773,-134.83317794799805,-1.0969017123182614,2.6070950826009116,-3.5061162213484445,-1.5366408185412486,-7.142326434453328,-4.325076798597972,-0.17497471099098524,3.8116845786571503,-1.7377461766203244,-0.46254055636624497,-9.733676354090372,-0.8836741298437119
4.3,0.39341992636521655,-7.26770035425822,-2.3725833892822266,0.0,0.0,1.0172512949781214,16.72993655914956,4.02399305840756,132.52588364418517,41.0,-122.75308363617022,49.19069692765957,-0.4976729229092598,0.5838598323365052,-0.451183973501126,0.4429197683930397,2.375189962486426,1.4340143700440726,-0.6152804056182504,6.896659803390503,46.83335914611816,1.6030799388885497,0.515112116932869,2.780124068260193,-0.6221153391525149,-248.49813232421874,142.06655883789062,-131.75511627197267,-0.4718952365219593,1.5687541166941326,-4.2267483820517855,-1.495140304478506,-8.138961990674337,-4.895939519008001,0.5161047726869583,2.7756444215774536,-0.6242533630381027,-1.0460465298965573,-9.691970944404602,-0.7339045939346154
4.4,-0.4433429019920753,-8.49307477835453,-5.069299015131864,0.0,0.0,1.0180678621251533,16.739234437333778,3.8124401379138857,136.74342881872298,41.0,-122.75308293404255,49.190701331914894,-0.5236008961995443,0.6339732805887858,-0.42005304495493573,0.3833472927411397,2.8508012294769287,1.4032214681307476,-0.9226295153299967,8.049559783935546,46.52591943740845,0.4709199834614992,0.31988513740626245,1.615075638348406,-0.15879950727420777,-247.3452346801758,141.75911865234374,-132.88727684020995,0.15311123927434286,0.5304131507873535,-4.947380542755127,-1.4536397904157639,-9.135597546895346,-5.46680223941803,0.32087432322177023,1.610607542774894,-0.16093753099751962,-1.6295525034268696,-9.650265534718832,-0.584135058025519
4.5,-1.2801057303493673,-9.71844920245084,-7.766014640981501,0.0,0.0,1.018884429272185,16.748532315517995,3.600887217420212,140.9609739932608,41.0,-122.7530822319149,49.19070573617021,-0.5275941491127014,0.6264138460159302,-0.41554499268531797,0.3947241961956024,2.7170105457305906,1.4211286544799804,-0.7997228622436523,9.20245976448059,46.21847972869873,-0.6612399719655514,0.124658157879656,0.45002720843661914,0.30451632460409944,-246.1923370361328,141.45167846679686,-134.01943740844726,0.3423297882080078,-0.76199312210083,-9.742520904541015,-1.0218549132347108,-10.452088451385498,-10.382936000823975,0.12564387375658212,0.4455706639723344,0.30237830104306346,-1.3869861721992494,-9.674350166320801,-0.7051285177469253
4.6,-1.8108659606201178,-11.634551784531638,-5.197813519347234,0.0,0.0,1.0197009964192167,16.757830193702212,3.389334296926538,145.17851916779864,41.0,-122.75308152978724,49.19071014042553,-0.49859482049942017,0.5536404748757681,-0.3863931844631831,0.5404620716969172,1.2742287417252858,1.3294728795687358,0.42283253526935977,1.559464956820011,46.02419452667236,2.908479975536466,0.630599202193094,-1.594270350580866,1.1867011880897211,-253.83533058166503,141.25739364624025,-130.44971771240233,-3.8171656131744385,-10.176042079925537,-1.7506663799285889,-3.0324042215943336,-19.66022841135661,-3.9353956282138824,0.631569289687005,-1.5987257379474062,1.1845631471369416,0.7619599606841803,-9.468441168467203,-2.24944273630778
4.7,-2.3416261908908687,-13.550654366612434,-2.629612397712966,0.0,0.0,1.0205175635662485,16.76712807188643,3.1777813764328644,149.39606434233644,41.0,-122.75308082765957,49.19071454468085,-0.38185863196849823,0.30387591198086733,-0.4218965048591296,0.7539655317862829,0.308359174678723,1.0814643303553264,0.7458985348542532,-6.083529850840568,45.829909324645996,6.478199923038483,1.136540246506532,-3.6385679095983505,2.0688860515753427,-261.47832412719725,141.0631088256836,-126.87999801635742,-5.63972254594167,5.726946234703064,1.5985379219055176,-1.2592229048411052,-2.8771698027849197,0.22362922954683503,1.1374947056174278,-3.643022139867147,2.0667479932308197,4.357698122660319,-8.58837087949117,-1.4396221910913785
4.8,-0.9357930223147074,1.7334006230036418,1.5772689456741016,0.0,0.0,1.0213341307132802,16.776425950070646,2.9662284559391905,153.61360951687428,41.0,-122.75308012553192,49.19071894893617,-0.3327868863940239,0.25726045258343216,-0.46783052658041324,0.7675438399116199,0.20500004825492696,1.128602929910024,0.6868447373310724,-18.319519424438475,43.76871910095215,2.55955994091928,0.07882706386347611,-2.652224133412043,-0.10053824136654536,-273.7143188476563,139.00191802978514,-130.79863739013672,0.1307306249936424,1.0953501582145693,0.5936093986034394,4.246542445818583,-7.715556861460209,-0.3281058287092794,0.07974336544672651,-2.6566784183184304,-0.10267626245816552,4.093010195096334,-8.795161620775858,-0.9864287021259466
4.9,2.0966111683484283,-6.080398008678898,-0.14660569122343348,0.0,0.0,1.0221506978603119,16.785723828254863,2.754675535445517,157.83115469141208,41.0,-122.75307942340426,49.19072335319149,-0.28371514081954957,0.21064499318599697,-0.5137645483016968,0.7811221480369568,0.10164092183113096,1.1757415294647218,0.6277909398078918,-13.480389630794525,45.577369117736815,1.5179849658161402,-0.07333275080291608,-1.2570079323468786,-0.424861404254581,-268.8751876831055,140.81056823730466,-131.8402130126953,5.901183795928955,-3.536245918273926,-0.4113191246986389,9.752307796478272,-12.553943920135499,-0.879840886965394,-0.07240952054659523,-1.2614633541441325,-0.4269994315550183,3.8283222675323487,-9.001952362060546,-0.5332352131605148
5.0,5.1290153590115635,-13.89419664036144,-1.8704803281209685,0.0,0.0,1.0229672650073438,16.79502170643908,2.543122614951843,162.0486998659499,41.0,-122.7530787212766,49.19072775744681,-0.24719462543725967,0.16685594866673148,-0.5355973839759827,0.7896368702252706,-0.004541794459025048,1.1911768515904744,0.6101655463377634,-8.641259837150574,47.38601913452148,0.4764099907130003,-0.2254925654693083,0.13820826871828598,-0.7491845671426166,-264.0360565185547,142.6192184448242,-132.8817886352539,-2.4429823954900107,-5.956837813059489,-2.4968590339024863,1.3179466327031453,-15.039587696393331,-2.577568550904592,-0.224562406539917,0.1337517100301656,-0.7513226006518711,3.7381273110707602,-9.067004521687826,-0.14542293610672155
5.1,1.4115908786541587,-10.964747245564606,-2.3058539613178284,0.0,0.0,1.0237838321543755,16.804319584623297,2.331569694458169,166.26624504048775,41.0,-122.75307801914894,49.19073216170213,-0.32708824674288434,0.28642004231611884,-0.5188840428988138,0.7316694855690002,0.2906677690334618,1.2596822778383892,0.6210504074891409,-4.849194912612439,48.14180898666382,-1.3993399567902087,-0.28429124312418874,1.8266843550584533,-1.266290091429696,-260.243989944458,143.375008392334,-134.7575382232666,-5.997408986091614,1.3675514062245686,2.1463864545027413,-3.0943185091018677,-7.944968620936076,1.3047862350940704,-0.28335528215393424,1.822235355661674,-1.2684217758025182,2.880289137363434,-9.296774864196777,-0.9063137248158455
5.2,-2.3058336017032466,-8.03529785076777,-2.741227594514688,0.0,0.0,1.0246003993014072,16.813617462807514,2.1200167739644957,170.48379021502555,41.0,-122.75307731702128,49.190736565957444,-0.4334922308723132,0.48515649636586505,-0.5271088977654775,0.5418693299094836,1.8994883249203365,1.4741751452287037,-0.4796403640260299,-1.0571299880743026,48.897598838806154,-3.275089904293418,-0.34308992077906925,3.5151604413986206,-1.7833956157167752,-256.4519233703613,144.13079833984375,-136.6332878112793,-0.6110858159760634,2.3073678414026895,-4.0431457459926605,-0.9467601676781973,-7.450003504753113,-4.810969352722168,-0.3421481577679515,3.5107190012931824,-1.7855209509531658,-0.35847580060362816,-9.741626183191935,-0.8325369904438654
5.3,-0.44436711569627124,-6.727720022201538,-3.028515875339508,0.0,0.0,1.025416966448439,16.82291534099173,1.9084638534708218,174.70133538956338,41.0,-122.75307661489362,49.190740970212765,-0.4578205553193887,0.5251604358355204,-0.5147595504919689,0.4920356002946694,1.2095574711759884,1.44925503830115,-0.91935908763359,7.333419847488403,48.90613861083985,-7.0210997581481935,0.08801550790667534,2.3568962812423706,-0.2502256768445174,-248.06137390136718,144.13933410644532,-140.379296875,-0.21008471039434273,0.6767888744672139,-5.128506419062615,-1.1234501550594966,-9.051365125179291,-5.663372468948364,0.08895726005236308,2.3524674773216248,-0.2523637047658364,-0.9361668925732374,-9.712408836682638,-0.5995795254906018
5.4,-0.6699948633710543,-8.893129316243257,-5.004271336577155,0.0,0.0,1.0262335335954706,16.832213219175948,1.6969109329771481,178.9188805641012,41.0,-122.75307591276596,49.19074537446809,-0.48214887976646426,0.5651643753051758,-0.5024102032184601,0.44220187067985534,0.5196266174316405,1.4243349313735962,-1.35907781124115,6.554754885658621,49.017463779449464,-8.252689814567566,0.2198258772153746,1.0614743924578016,0.21766585918764275,-248.8400390625,144.25065994262695,-141.61088752746582,0.19091639518737794,-0.9537900924682617,-6.213867092132569,-1.300140142440796,-10.652726745605468,-6.515775585174561,0.22076184528343606,1.0570317101876505,0.2155278379549131,-1.5138579845428466,-9.68319149017334,-0.36662206053733826
5.5,-0.8956226110458374,-11.058538610284979,-6.980026797814802,0.0,0.0,1.0270501007425024,16.841511097360165,1.4853580124834744,183.13642573863902,41.0,-122.7530752106383,49.1907497787234,-0.48226303855578107,0.5528185268243154,-0.4819846600294113,0.4775705387194951,2.3675345381100974,1.4518636067708333,-0.7210319936275482,5.77608992382884,49.12878894805908,-9.484279870986938,0.3516362465240739,-0.2339474963267672,0.6855573952198029,-249.61870422363282,144.3619857788086,-142.84247817993165,0.32077478369077045,-1.7000279426574707,-6.449207544326782,-0.5168496270974478,-11.425229549407959,-7.24845810731252,0.35256643051450903,-0.2384040569463237,0.6834193806756627,-0.8604259192943573,-9.709456443786621,-0.8639641950527827
5.6,-1.6339285125335057,-11.622617119076576,-4.552326963650006,0.0,0.0,1.027866667889534,16.850808975544382,1.2738050919898005,187.35397091317685,41.0,-122.75307450851065,49.19075418297872,-0.43916990359624225,0.4718274474143982,-0.4368319312731425,0.6250830988089243,0.9231699208418528,1.2953493396441143,0.494632825255394,-3.374214947596192,49.367603874206544,-5.7626699090003966,0.7939755777179291,-1.908845131949585,1.2525861213604608,-258.76900787353514,144.6008014678955,-139.12086830139162,-4.075391431649526,-10.121142864227295,-0.21073244015375772,-2.433799684047699,-19.50170389811198,-2.420938273270925,0.7949369904500516,-1.913287764549199,1.2504544626131202,1.6187903930743535,-9.364815870920816,-2.274919350941976
5.7,-2.372234414021174,-12.186695627868176,-2.12462712948521,0.0,0.0,1.028683235036566,16.8601068537286,1.0622521714961268,191.57151608771466,41.0,-122.75307380638299,49.19075858723404,-0.3222184343771501,0.2559730153192173,-0.4386900148608468,0.791797090660442,0.25946686416864395,1.055020505731756,0.6176707527854226,-12.524519819021226,49.60641880035401,-2.041059947013855,1.2363149089117844,-3.583742767572403,1.819614847501119,-267.9193115234375,144.83961715698243,-135.39925842285157,-6.438181519508362,6.733981175856157,1.382539066401395,-1.732077294452624,-1.7168503051454371,0.055796262892809784,1.2373075503855944,-3.5881714721520743,1.8174895445505779,4.683302727612582,-8.435086337002842,-1.3914562853222543
5.8,-1.115055339038372,2.1218354105949406,2.0970698088407516,0.0,0.0,1.0294998021835977,16.869404731912816,0.8506992510024531,195.7890612622525,41.0,-122.75307310425532,49.190762991489365,-0.27574719059647934,0.21205981899843065,-0.4816674730091384,0.7967037752722249,0.17051276083414751,1.1103543810772174,0.5592167641628872,-21.71843910217285,47.05417938232422,-6.774659919738769,-0.16581937000155447,-3.211746168136597,-0.3158478736877442,-277.11322631835935,142.2873794555664,-140.1328582763672,0.7674850026766453,0.2823147195758242,0.022088131669796063,5.125738733081203,-8.416354906829921,-0.8571970029310746,-0.16487253308296207,-3.216266560554504,-0.31798589229583746,4.335452341672146,-8.682924393451575,-0.9439986105161634
5.9,1.8775930769741538,-5.972834159930548,0.6322335769732792,0.0,0.0,1.0303163693306294,16.878702610097033,0.6391463305087793,200.0066064367903,41.0,-122.75307240212767,49.19076739574468,-0.22927594681580857,0.16814662267764402,-0.52464493115743,0.8016104598840078,0.08155865749965108,1.1656882564226787,0.5007627755403519,-16.394359469413757,48.39312915802002,-6.772524893283844,0.024169906135648483,-1.379687521358331,-0.5719187686530252,-271.78915176391604,143.6263286590576,-140.13072242736817,7.973151524861653,-6.169351736704509,-1.338362803061803,11.98355476061503,-15.115859508514404,-1.770190268754959,0.025126924629633618,-1.384174804141124,-0.5740567781031132,3.98760195573171,-8.930762449900309,-0.4965409357100725
6.0,4.870241492986679,-14.067503730456034,-0.832602654894193,0.0,0.0,1.0311329364776611,16.88800048828125,0.4275934100151062,204.22415161132812,41.0,-122.7530717,49.1907718,-0.21081704646348953,0.1648401245474815,-0.536571075518926,0.7992566724618276,0.10035888167719043,1.1911463538805644,0.4478625953197479,-11.070279836654663,49.73207893371582,-6.770389866828919,0.21415918227285147,0.45237112541993457,-0.8279896636183063,-266.46507720947267,144.96527786254882,-140.12858657836915,-5.997509757677714,-4.0008383591969805,0.7353287438551585,-2.197608053684235,-13.050255378087362,0.23419749736785886,0.21512638234222933,0.4479169522722562,-0.830127663910389,3.7770999670028687,-9.033671855926514,-0.5658447394768397
6.1,1.3541880659759045,-10.718424558639526,-2.3231068098296723,0.0,0.0,1.0338613986968994,17.325800323486327,0.8340161800384521,201.83569946289063,41.0,-122.75307396000001,49.19076364,-0.3116098592678706,0.3448229829470317,-0.5169624487559,0.7116974095503489,0.6913069585959116,1.2852179408073425,0.28946418811877567,-7.8571048401296135,50.05598888397216,-4.972109900787473,-0.11120929118866718,2.1430043702324233,-1.1930325557477772,-263.2519012451172,145.28918800354003,-138.3303077697754,-5.308074355125427,2.7563026746114097,1.7505784432093303,-3.108176817496618,-6.603293259938558,0.0014955227573712666,-0.11022934837577239,2.1385564853747687,-1.1951705602308116,2.1770962178707123,-9.3438507715861,-1.8137964010238647
6.2,-2.16186536103487,-7.369345386823018,-3.8136109647651515,0.0,0.0,1.0365898609161377,17.763600158691407,1.240438950061798,199.44724731445314,41.0,-122.75307622000001,49.19075548,-0.44161029024557635,0.5198021585291083,-0.5065588680180636,0.5220007354562933,2.0450068712234497,1.4458443468267268,-0.5415737669576298,-4.643929843604565,50.37989883422851,-3.173829934746027,-0.4365777646501859,3.833637615044912,-1.558075447877248,-260.0387252807617,145.61309814453125,-136.53202896118165,0.029904766516252,2.0382532639936968,-4.278092731129039,-0.5874923250891946,-7.674869797446511,-5.3627506494522095,-0.43558507909377414,3.829196018477281,-1.560213456551234,-0.6401984942230311,-9.69737789847634,-1.1493713693185286
6.3,0.0888933777809143,-7.069355297088623,-2.863251566886902,0.0,0.0,1.0393183231353758,18.201399993896484,1.6468617200851439,197.05879516601564,41.0,-122.75307848,49.19074732,-0.47171800515868445,0.558227949070208,-0.48640234903855756,0.4699479418270516,2.4903545180956526,1.4326754980015033,-0.8455500523700858,2.649839925765991,50.422598648071286,-4.8055798530578615,-0.08451321125030517,2.383046364784241,-0.09556986317038539,-252.74495544433594,145.65579681396486,-138.16377868652344,0.5530833421331464,0.7165972175020161,-5.72612744027918,-0.5293394976267309,-8.98050806016633,-6.5232514540354405,-0.08350528329610825,2.3786176204681397,-0.09770789556205274,-1.1052242841458682,-9.681360114704479,-0.8618374633969683
6.4,-0.6804539491732915,-9.58737236658732,-5.034344345331192,0.0,0.0,1.042046785354614,18.639199829101564,2.05328449010849,194.67034301757815,41.0,-122.75308074,49.19073916,-0.5018257200717926,0.5966537396113077,-0.4662458300590515,0.4178951481978099,2.935702164967855,1.4195066491762798,-1.149526337782542,1.6659099511802196,50.15968914031983,-4.737869872152805,0.3175303059319655,0.8535619997729857,0.3715867897495627,-253.7288860321045,145.39288711547852,-138.09606857299804,1.0762619177500408,-0.6050588289896647,-7.174162149429321,-0.47118667016426724,-10.286146322886148,-7.683752258618672,0.31850513418515525,0.8491204988211394,0.3694614718357722,-1.5702500740687053,-9.665342330932617,-0.574303557475408
6.5,-1.4498012761274974,-12.10538943608602,-7.205437123775482,0.0,0.0,1.0447752475738523,19.07699966430664,2.459707260131836,192.28189086914065,41.0,-122.753083,49.190731,-0.49403417607148487,0.5731746455033621,-0.4326230635245641,0.48730090260505676,1.900268296400706,1.4149426023165386,-0.1815753554304441,0.6819799765944481,49.89677963256836,-4.670159891247749,0.7195738231142362,-0.6759223652382692,0.8387434426695108,-254.71281661987305,145.12997741699218,-138.02835845947266,-1.9684710601965587,-4.308149019877116,-5.078178763389587,-2.382952243089676,-13.955739180246988,-6.597909331321716,0.7205155516664187,-0.680376622825861,0.8366308392335972,-0.4372826913992564,-9.631844997406006,-1.584443986415863
6.6,-1.7990332891543708,-11.313043449864242,-4.18441917730326,0.0,0.0,1.0347022771835326,19.498799896240236,3.428524208068848,190.97849731445314,41.0,-122.75308546000001,49.19070526,-0.4486028005679448,0.4806625346342723,-0.39374277492364246,0.6396502057711283,0.8832062681516012,1.2145868142445881,0.5811529358228048,-7.9403698988258835,48.737779045104986,-1.0171749725937844,0.8215593893193838,-2.195359410830971,1.2858146590773356,-263.3351650238037,143.97097663879396,-134.37537422180176,-3.595439851284027,-8.794363657633463,1.398548165957133,-1.4167504111925762,-17.904694239298504,-1.3984053979317348,0.8225092304249604,-2.1998287051577456,1.2836962784499382,2.1558880309263864,-9.094585418701172,-2.861667037010193
6.7,-2.148265302181244,-10.520697463642467,-1.163401230831038,0.0,0.0,1.0246293067932128,19.920600128173827,4.39734115600586,189.67510375976565,41.0,-122.75308792,49.19067952,-0.33748555725271046,0.2660887173630974,-0.4265744821591811,0.7916869683699175,0.27038478580388153,1.0367843454534358,0.6493376547640021,-16.562719774246215,47.578778457641604,2.6358099460601805,0.9235449555245313,-3.714796456423673,1.7328858754851602,-271.9575134277344,142.8119758605957,-130.72238998413087,-5.546111952174794,7.716585722836581,2.2268525578758935,-0.6621049425818704,-0.628496598113667,0.7261129321361129,0.9245029091835022,-3.7192807874896308,1.7307617176662793,4.861205577850342,-8.329337206753818,-1.5654531121253967
6.8,1.2434701671202977,0.2750748793284097,1.8826529594759147,0.0,0.0,1.0145563364028929,20.342400360107423,5.366158103942871,188.37171020507813,41.0,-122.75309038,49.19065378,-0.2975385116808342,0.2446306090463291,-0.4731928128184695,0.7871760658242486,0.24714793005224428,1.1150865428375476,0.5663174715909092,-21.55983943939209,45.919579315185544,-3.6868399381637573,0.3951280027007063,-1.5393040565152962,-1.239292851028343,-276.9546356201172,141.15277709960938,-137.04503479003907,1.3076180562828528,0.10669847690697853,0.5675912508458802,5.607933353294025,-8.584890261744007,-0.6727864915279277,0.39604429869602126,-1.5437328356007736,-1.2414054398735364,4.277513841787974,-8.675843600070838,-1.3050912221272788
6.9,2.6250510687629385,-6.337639942765236,0.06944172891477751,0.0,0.0,1.0044833660125732,20.764200592041014,6.334975051879883,187.06831665039064,41.0,-122.75309284,49.19062804,-0.2575914661089579,0.22317250072956082,-0.5198111434777578,0.7826651632785797,0.223911074300607,1.1933887402216594,0.48329728841781616,-16.950679540634155,47.417434215545654,-3.307419928908348,0.15520431768770016,-0.5063881867875655,-0.8169368150023122,-272.34547271728513,142.6506317138672,-136.66561660766604,8.1613480647405,-7.503188769022624,-1.0916700561841328,11.877971649169922,-16.541283925374348,-2.0716859151919684,0.15613333120321235,-0.5108169795324407,-0.8190621125201384,3.6938221057256064,-9.022349993387857,-1.0447293321291606
7.0,4.006631970405579,-12.950354764858881,-1.7437695016463597,0.0,0.0,0.9944103956222534,21.18600082397461,7.3037919998168945,185.76492309570312,41.0,-122.7530953,49.1906023,-0.27970733990271884,0.2262166192134221,-0.506762757897377,0.78233602643013,0.18365994965036705,1.1704139709472656,0.5642845580975214,-12.341519641876221,48.915289115905765,-2.927999919652939,-0.08471936732530598,0.5265276829401652,-0.39458077897628147,-267.73630981445314,144.148486328125,-136.28619842529298,-7.754801472028096,-0.43201979001363106,-0.415706068277359,-3.819244146347046,-9.390532612800598,-1.2866406838099163,-0.08377763628959657,0.5220988765358924,-0.3967187851667404,3.9127559661865234,-8.94276762008667,-0.9356480538845062
7.1,0.9128686494447971,-10.941407991629658,-2.7394284251512904,0.0,0.0,0.9944103956222534,21.265200805664062,5.861750212311745,148.6119384765625,41.0,-122.75309258,49.19061474,-0.36460198958714796,0.40294214089711505,-0.5018042226632436,0.6673714319864908,0.8845284432172775,1.3232959508895874,0.2765421482423941,-7.050989803578705,49.41792917251587,-2.007814939506352,-0.21127085997299716,2.028831000580932,-1.1552867504457633,-262.44578094482426,144.65112686157227,-135.36601333618165,-7.49675190448761,-1.2623382409413655,-2.9569852352142334,-5.803193151950836,-10.693623940149942,-4.795017143090566,-0.21033491329713305,2.0243744196539573,-1.1574178277091547,1.6707574079434078,-9.41554053624471,-1.9027453462282817
7.2,-2.180894671515985,-8.932461218400435,-3.735087348656221,0.0,0.0,0.9944103956222534,21.344400787353514,4.419708424806595,111.45895385742188,41.0,-122.75308986,49.19062718,-0.44074107842011884,0.5518612590703097,-0.49631383473222906,0.4993091713298451,2.3010900779203936,1.4042904702099888,-0.7333042635159059,-1.7604599652811885,49.920569229125974,-1.0876299593597651,-0.3378223526206883,3.531134318221699,-1.915992721915245,-257.15525207519534,145.15376739501954,-134.44582824707032,2.0891150019385596,2.6529396664012563,-2.438577077605508,1.02048451656645,-6.988727959719571,-3.7628224085677755,-0.3368921903046695,3.5266499627720225,-1.918116870251569,-1.091431956399571,-9.62592246315696,-1.3889587955041365
7.3,0.001595298449198405,-7.086045026779175,-5.028915564219157,0.0,0.0,0.9944103956222534,21.42360076904297,2.9776666373014447,74.30596923828125,41.0,-122.75308713999999,49.19063962,-0.46888798542998056,0.5817176713184877,-0.47861457841865945,0.4534736221486872,2.5994504870790425,1.3969343467192217,-0.9093395031311295,5.117899823188782,49.828459930419925,-4.617699933052063,-0.7438047875960668,2.3231968681017556,-0.4346306398510933,-250.27689666748046,145.06165924072266,-137.97589569091798,0.9547354271917632,1.0183598344976252,-5.2996675877860095,-0.4848728604388959,-8.61236234144731,-6.29297861411716,-0.7428375830252966,2.318742652734121,-0.43676865845918655,-1.46240978484804,-9.614977012981068,-1.0580244628768978
7.4,-0.6746513126417996,-10.622985879580181,-5.963287870089213,0.0,0.0,0.9944103956222534,21.502800750732423,1.535624849796295,37.152984619140625,41.0,-122.75308442,49.19065206,-0.4970348924398422,0.6115740835666656,-0.46091532210508984,0.4076380729675293,2.8978108962376914,1.3895782232284546,-1.0853747427463531,3.4407048746943474,49.79948425292969,-3.7612599238753317,0.2661972617109617,0.6763232578523457,0.5398585150639216,-251.9540916442871,145.03268280029297,-137.11945667266846,-0.17964414755503336,-0.6162199974060059,-8.160758097966513,-1.9902302374442418,-10.235996723175049,-8.823134819666544,0.2671581033306817,0.6718626842678836,0.5377395898103714,-1.8333876132965088,-9.604031562805176,-0.7270901302496592
7.5,-1.3508979237327974,-14.159926732381185,-6.8976601759592695,0.0,0.0,0.9944103956222534,21.582000732421875,0.0935830622911453,0.0,41.0,-122.7530817,49.1906645,-0.477175439397494,0.565524955590566,-0.40538262327512103,0.5338343928257624,1.5401102304458618,1.3374536434809368,0.13481334721048674,1.763509926199913,49.77050857543945,-2.9048199146986007,1.2761993110179901,-0.9705503523970643,1.5143476699789364,-253.63128662109375,145.0037063598633,-136.26301765441895,-0.8872357346117498,-8.662631034851074,-2.439954400062561,-0.666101993372043,-18.11496369043986,-4.842973391215007,1.27715378968666,-0.9750172841983537,1.5122478380799294,0.19833228543090323,-9.436587492624918,-2.4677324692408242
7.6,-1.994682773580831,-9.668344932975192,-3.5689062873804662,0.0,0.0,0.9962998628616333,21.68080062866211,0.08395316973328587,0.0,41.0,-122.75308131999999,49.19066084,-0.45245489478111267,0.4625852406024933,-0.3632592678070068,0.6673200964927674,0.7663471937179566,1.135866641998291,0.6852283835411072,-9.046604664623738,48.12167892456054,0.1277950115501878,1.013774846765128,-2.4845676717743506,1.4427728811561158,-264.4414009094238,143.35487709045412,-133.23040199279785,-5.0888776779174805,-5.293729972839356,1.1660179853439332,-2.109871369600296,-14.086307716369628,-1.9200008749961852,1.0147171615002057,-2.4890294356455067,1.440653958273205,2.9562050104141235,-8.776832580566406,-3.150732326507568
7.7,-2.638467623428865,-5.176763133569197,-0.2401523988016627,0.0,0.0,0.9981893301010132,21.779600524902342,0.07432327717542646,0.0,41.0,-122.75308093999999,49.19065718,-0.3372356543938319,0.26607900485396385,-0.4146646087368329,0.7987228333950043,0.28108169448872405,1.009258563319842,0.6420928090810776,-19.856719255447388,46.47284927368164,3.1604099377989767,0.7513503825122659,-3.9985849911516365,1.3711980923332951,-275.2515151977539,141.70604782104493,-130.19778633117676,-4.410615801811218,6.745686809221904,2.5821476727724075,0.7042376101016998,-1.4215858280658722,0.9219346161310872,0.7522805333137512,-4.0030415870926594,1.3690600784664804,5.092052062352498,-8.151527484258017,-1.7249265362819035
7.8,4.423032914598783,-5.046961426734924,0.5010969433933496,0.0,0.0,1.000078797340393,21.87840042114258,0.06469338461756705,0.0,41.0,-122.75308056,49.19065352,-0.29589574659864104,0.2551752422004938,-0.4615884882708391,0.7918622344732285,0.3057043021544814,1.0930071150263152,0.5239520793159803,-19.778639602661134,46.70037956237793,-3.070739948749542,0.5150866682330767,0.040495251615842186,-2.0008891224861145,-275.1734344482422,141.93357696533204,-136.42893829345704,1.9417120814323425,-0.34570950269699097,-0.5915302013357477,6.392251178622246,-8.904515559474627,-2.1329022787200906,0.5160284241040548,0.03601561486721045,-2.0030016700426736,4.427737653255463,-8.543060819307964,-1.6060855612158775
7.9,4.090430565178394,-8.733129749695461,-0.6071787299588323,0.0,0.0,1.001968264579773,21.977200317382813,0.05506349205970762,0.0,41.0,-122.75308018,49.19064986,-0.25455583880345023,0.24427147954702375,-0.5085123678048452,0.7850016355514526,0.3303269098202387,1.176755666732788,0.405811349550883,-15.787409687042237,47.93471431732178,-1.9401049667969346,0.22313125811827678,0.5233778655529022,-1.1755083638709038,-271.1822059631347,143.16791229248048,-135.29830360412598,8.294039964675903,-7.437105814615886,-3.7652080754439035,12.080264747142792,-16.38744529088338,-5.187739173571269,0.22407301127289736,0.5189045779407024,-1.1776272826828063,3.7634232441584268,-8.93459415435791,-1.4872445861498516
8.0,3.7578282157580056,-12.419298072655996,-1.7154544033110142,0.0,0.0,1.0038577318191528,22.076000213623047,0.0454335995018482,0.0,41.0,-122.7530798,49.1906462,-0.31137972573439276,0.29424070815245307,-0.48845982054869336,0.7592640916506449,0.3898846209049225,1.1835899750391643,0.5138280342022578,-11.79617977142334,49.16904907226562,-0.809469984844327,-0.06882415199652314,1.0062604794899623,-0.3501276052556932,-267.1909774780273,144.4022476196289,-134.16766891479492,-8.103356719017029,0.5112316608428958,3.498540778954824,-4.519144554932912,-8.482257088025412,1.8860427637894948,-0.06788240155826013,1.0017935410141945,-0.35225289532293874,3.5614107052485147,-8.97774346669515,-1.6772114435831706
8.1,0.35240203503406375,-10.518959450902361,-2.9889436735009607,0.0,0.0,1.0038577318191528,22.144000244140624,0.03903738036751744,0.0,41.0,-122.75307907999999,49.19064034,-0.387023001909256,0.45051565766334534,-0.5048234939575196,0.6233129143714905,1.2429573774337768,1.3719094276428223,0.03394757211208342,-5.342684880085289,49.58720407485961,-1.4649149691686034,-0.30541410853832285,2.0905815839315904,-1.0463589607864958,-260.7374813079834,144.8204029083252,-134.82311286926267,-10.663341045379639,-0.7505273818969727,-3.409700798988342,-9.793823146820069,-10.291410636901855,-5.302973628044128,-0.30447120805073413,2.086119841106913,-1.048483675247002,0.8467166528105736,-9.525138092041015,-1.957986330986023
8.2,-3.0530241456898777,-8.618620829148727,-4.262432943690907,0.0,0.0,1.0038577318191528,22.2120002746582,0.03264116123318668,0.0,41.0,-122.75307835999999,49.19063448,-0.4515201797087987,0.5732601980368296,-0.4870215505361557,0.474478339155515,2.4590459167957306,1.393876701593399,-0.8244558498263359,1.1108100112527608,50.00535907745361,-2.12035995349288,-0.5420040650801226,3.1749026883732188,-1.7425903163172982,-254.28398513793945,145.2385581970215,-135.47855682373046,2.6430511424938836,1.8320427735646565,-2.643123189608256,1.2664512544870377,-7.7849985758463545,-3.911417563756307,-0.5410600145432082,3.170446141199632,-1.744714455171065,-1.3994014014800389,-9.601296186447144,-1.3330078274011612
8.3,-0.0958125852048397,-8.301299810409546,-4.610570430755615,0.0,0.0,1.0038577318191528,22.280000305175783,0.026244942098855917,0.0,41.0,-122.75307764,49.190628620000005,-0.474436787267526,0.5937865128119786,-0.4659109438459078,0.44735168665647507,2.566543772816658,1.3944116085767746,-0.839714553207159,6.057299947738647,49.762579345703124,-5.011759924888611,-0.5744678527116776,1.7412968675295513,-0.42383866384625435,-249.33749542236328,144.9957748413086,-138.36995697021484,0.9591887767116227,0.23567402362823486,-6.203234414259592,-0.5217599608004093,-9.38233232498169,-7.345142920811972,-0.5735006481409073,1.7368171413739522,-0.4259767023225625,-1.5037502273917198,-9.602261185646057,-1.2066220367948213
8.4,-1.1481560617685318,-11.695568720499676,-5.6832777957121525,0.0,0.0,1.0038577318191528,22.34800033569336,0.019848722964525157,0.0,41.0,-122.75307692,49.190622760000004,-0.49735339482625324,0.6143128275871277,-0.44480033715566,0.4202250341574351,2.6740416288375854,1.3949465155601501,-0.8549732565879822,3.4031899685971436,49.868414306640624,-3.6133349299430844,0.2512437831610441,0.18957186614473653,0.6212499576310315,-251.99160499572753,145.10161170959472,-136.97153244018554,-0.7246735890706381,-1.3606947263081868,-9.763345638910929,-2.3099711760878563,-10.979666074117025,-10.778868277867636,0.25222371332347393,0.18510488234460354,0.6191119160503149,-1.6080990533034007,-9.60322618484497,-1.0802362461884816
8.5,-2.200499538332224,-15.089837630589804,-6.755985160668691,0.0,0.0,1.0038577318191528,22.416000366210938,0.0134525038301944,0.0,41.0,-122.7530762,49.1906169,-0.462693730990092,0.5555399854977926,-0.406117041905721,0.5565824806690216,1.4206319451332092,1.3109843929608662,0.20605592212329307,0.7490799894556404,49.974249267578124,-2.2149099349975585,1.0769554190337658,-1.362153135240078,1.6663385791083176,-254.6457145690918,145.20744857788085,-135.57310791015624,-2.5047804564237595,-9.848116079966227,0.0705873171488444,-2.0455642690261207,-19.231115341186523,-2.603889505068461,1.0779480747878551,-1.366607376684745,1.6642005344231923,0.4364146515727043,-9.367254098256428,-2.7391903003056846
8.6,-2.240266602655703,-9.36509547766411,-3.4072774639635375,0.0,0.0,1.005935335159302,22.507600402832033,0.01167756887152784,0.0,41.0,-122.7530757,49.19061458,-0.42217382192611697,0.4368940830230713,-0.3931522786617279,0.6872531175613403,0.726765489578247,1.1506983518600464,0.6161695957183838,-8.722999859321861,48.62675895690918,0.1451800098642706,0.951734978620979,-2.606454397128387,1.3261028398957215,-264.11779441833494,143.8599571228027,-133.21301727294923,-5.44417245388031,-1.5749503135681149,1.309627938270569,-2.397010010480881,-10.413922786712646,-1.5884753048419953,0.9527102950960398,-2.6109028366591893,1.3239648024918456,3.0243610382080077,-8.823227310180664,-2.9628167152404785
8.7,-2.280033666979183,-3.640353324738416,-0.05856976725838401,0.0,0.0,1.0080129384994507,22.599200439453124,0.00990263391286128,0.0,41.0,-122.7530752,49.19061226,-0.3114875108003616,0.28204826638102526,-0.4337276766697566,0.7946667075157166,0.3766920442382495,1.0514315962791443,0.523878313601017,-18.195079708099364,47.27926864624023,2.5052699547261,0.8265145382081921,-3.850755659016696,0.9858671006831256,-273.5898742675781,142.5124656677246,-130.8529266357422,-2.268931150436401,5.379343152046204,1.8623596628506978,2.416352078318596,-2.979811898743113,-0.1234297907600801,0.8274725154042244,-3.855198296633634,0.9837290705604986,4.662481804688771,-8.343409856160482,-2.050502916177114
8.8,6.950850605964661,-7.919844150543213,-1.6462620000044506,0.0,0.0,1.0100905418395998,22.69080047607422,0.008127698954194719,0.0,41.0,-122.7530747,49.19060994,-0.283545018484195,0.2665530735005935,-0.468021367986997,0.7904063562552135,0.36689713473121327,1.1087745130062103,0.4580227149029573,-15.930759620666503,48.05579948425293,-0.17324000895023348,0.24472788472970328,-0.42788566338519246,-2.0893118580182395,-271.3255554199219,143.28899841308595,-133.53143768310548,-1.3275673190752666,-0.40739784638086896,1.1270141502221425,2.945165914793809,-9.034625228183964,-0.6431209795797865,0.24569508930047354,-0.4323908022294442,-2.091449881593386,4.24993172287941,-8.61148198445638,-1.834848592678706
8.9,3.6094233942302796,-9.981704906983808,-1.3542288726929463,0.0,0.0,1.0121681451797486,22.78240051269531,0.006352763995528159,0.0,41.0,-122.7530742,49.19060762,-0.2556025261680285,0.2510578806201617,-0.5023150593042374,0.7861460049947103,0.35710222522417706,1.1661174297332764,0.3921671162048976,-12.710874724388123,48.86160936355591,-0.49226999604143207,0.027360521285145573,0.8088538750272358,-1.413868433908757,-268.10567016601567,144.0948081970215,-133.85046768188477,-0.38620348771413227,-6.194138844807942,0.3916686375935872,3.4739797512690225,-15.089438557624817,-1.162812168399493,0.0283161566282312,0.8043729900241348,-1.416006468038893,3.837381641070048,-8.87955411275228,-1.6191942691802979
9.0,0.2679961824958981,-12.043565663424404,-1.062195745381442,0.0,0.0,1.0142457485198977,22.874000549316406,0.0045778290368616,0.0,41.0,-122.7530737,49.1906053,-0.33522974252700805,0.34735732078552245,-0.5015419542789459,0.7157787084579468,0.5870721399784088,1.2602145671844482,0.4348138004541397,-9.490989828109742,49.667419242858884,-0.8112999831326306,-0.19000684215941213,2.045593413439664,-0.7384250097992745,-264.8857849121094,144.90061798095704,-134.16949768066405,-6.152195596694947,0.8333328247070313,0.9950693368911743,-3.5291741281747817,-8.422735595703125,-0.7993223667144775,-0.18906277604401112,2.041136782277714,-0.7405630544843999,2.600220060348511,-9.240323257446288,-1.8591051816940307
9.1,-0.4213361638513475,-9.93242772059007,-2.5301516290866966,0.0,0.0,1.0142457485198977,22.910714830671036,0.005844820822988185,0.0,41.0,-122.75307282857143,49.19060257142857,-0.3887397547562917,0.4819754312435786,-0.5096620271603266,0.5961989859739939,1.512357274691264,1.3851320147514343,-0.17843991851744553,-2.7794649552553894,49.97760429382324,-1.1233149750623852,-0.1990859515993207,2.387972356243567,-0.906048516273696,-258.1742603302002,145.21080284118653,-134.48151206970215,-2.874737858772278,1.0659583409627278,-4.214739998181661,-2.660021126270294,-8.519744873046875,-6.222834388415019,-0.19812394957989454,2.383523300741658,-0.9081865501710016,0.1919152649740378,-9.569958051045736,-2.0728078285853067
9.2,-1.1106685101985931,-7.821289777755737,-3.9981075127919516,0.0,0.0,1.0142457485198977,22.94742911202567,0.007111812609114771,0.0,41.0,-122.75307195714285,49.19059984285715,-0.4427020822962125,0.6032844632863998,-0.4731009006500244,0.4605584293603897,2.4910521109898887,1.3382965127627056,-0.8069360206524531,3.932059917598963,50.2877893447876,-1.4353299669921398,-0.20816506103922924,2.73035129904747,-1.0736720227481176,-251.462735748291,145.520987701416,-134.79352645874025,1.557145098845164,1.3393511772155762,-3.2621039847532907,-0.2314557333787283,-8.154091437657675,-4.8676492522160215,-0.207185123115778,2.725909819205602,-1.0758100458576034,-1.811402330795924,-9.477697451909384,-1.6702587803204854
9.3,-0.9697910696268082,-9.138688325881958,-8.155736605326334,0.0,0.0,1.0142457485198977,22.9841433933803,0.008378804395241357,0.0,41.0,-122.75307108571428,49.190597114285715,-0.4543423938254515,0.6066382204492886,-0.45308151841163635,0.46521365394194925,2.3428953389326734,1.3413475155830383,-0.6282198317348957,7.740899848937988,49.72719955444336,-4.923919892311096,-0.5795838584502538,0.815174208333095,-0.12342023849487305,-247.65389556884764,144.96039733886718,-138.28211669921876,0.24553040663401293,-1.7298866907755532,-4.245156104365985,-1.2736546248197556,-11.221764922142029,-6.023407506446044,-0.5786675612131754,0.8106690893570582,-0.12553280716141066,-1.54198648656408,-9.476133068402609,-1.8429648677508035
9.4,-1.4928720830516382,-12.91137637875297,-6.516779947235729,0.0,0.0,1.0142457485198977,23.020857674734934,0.009645796181367943,0.0,41.0,-122.75307021428571,49.190594385714284,-0.46598270535469055,0.6099919776121775,-0.4330621361732483,0.4698688785235087,2.1947385668754578,1.344398518403371,-0.4495036428173383,3.1405849158298222,49.752209186553955,-2.231379972398281,0.324946752297833,-0.5253915380912296,0.9801483303308487,-252.25420989990235,144.98540687561035,-135.5895767211914,-1.0660842855771382,-4.799124558766683,-5.228208223978679,-2.3158535162607827,-14.289438406626383,-7.179165760676066,0.32589083032287436,-0.5298723765846455,0.978023015019117,-1.272570642332236,-9.474568684895834,-2.015670955181122
9.5,-2.0159530964764683,-16.68406443162398,-4.877823289145123,0.0,0.0,1.0142457485198977,23.057571956089564,0.010912787967494527,0.0,41.0,-122.75306934285715,49.19059165714285,-0.4552836239337921,0.5322894811630249,-0.3746344208717346,0.6061581134796142,1.1317182183265686,1.2185683488845824,0.4458795368671417,-1.4597300172783434,49.77721881866455,0.461159947514534,1.22947736304592,-1.8659572845155543,2.0837168991565704,-256.85452423095705,145.01041641235352,-132.89703674316405,-3.0680173873901366,-10.495072555541991,1.2972408294677735,-1.6060626268386842,-19.591834259033202,-1.9740786492824554,1.230449221858924,-1.8704138425263492,2.0815788371996446,1.4391532480716704,-9.081016540527344,-3.3360329627990724
9.6,-1.4406038759784265,-9.246145307340406,-2.313786968419498,0.0,0.0,1.0142457485198977,23.094286237444198,0.012179779753621113,0.0,41.0,-122.75306847142856,49.19058892857143,-0.399920051296552,0.40465928117434186,-0.36873338123162586,0.732219785451889,0.6483563284079233,1.0501404106616974,0.6129470765590668,-11.374364835070446,48.01523380279541,0.8637599632143973,0.9553978640416806,-2.4978308948603543,1.241197774807612,-266.7691596984863,143.24843215942383,-132.49443702697755,-6.192422131697337,3.8292340437571206,0.7482540210088094,-2.226621150970459,-4.534598459800084,-2.4074786553780236,0.9563483073460785,-2.5022862591978274,1.2390597295580488,3.9429996013641357,-8.348087310791016,-3.2204461892445884
9.7,-0.8652546554803848,-1.8082261830568314,0.25024935230612755,0.0,0.0,1.0142457485198977,23.131000518798828,0.0134467715397477,0.0,41.0,-122.7530676,49.1905862,-0.3085878267884254,0.26933430383602774,-0.43718526264031726,0.7988070845603943,0.3417851539949576,1.0478571554025014,0.5333910062909126,-21.28899965286255,46.25324878692627,1.2663599789142608,0.6813183650374413,-3.1297045052051544,0.39867865045865375,-276.6837951660156,141.48644790649413,-132.09183731079102,1.0889041622479756,1.4496342738469448,0.8020247320334116,5.879663656155269,-6.886593331893285,-1.0056335777044296,0.6822473928332329,-3.134158675869306,0.39654062191645306,4.767957985401154,-8.32048225402832,-1.872371792793274
9.8,11.195019960403442,-14.644672989845276,-5.113063255945842,0.0,0.0,1.0163270711898806,23.21660041809082,0.01503894813358782,0.0,41.0,-122.75306676,49.19058458,-0.29285018220543857,0.2639543098707994,-0.4554340834418933,0.7965292811393738,0.34222384554644425,1.0799690435330072,0.49512548819184304,-13.888479518890382,48.90491905212402,-0.18177999332547187,0.4337143301963806,-0.8637888878583908,-1.2800426681836445,-269.2832794189453,144.13811645507812,-133.53997955322265,-2.209675898154577,-1.4741537054379776,1.7291307737429937,2.3418056396146616,-9.976240820686023,-0.0019990116357804233,0.4346560835838318,-0.8682176768779755,-1.282180693000555,4.528680044412613,-8.486341857910157,-1.7958432674407958
9.9,3.6500786271962253,-12.316021353006363,-2.352325971379425,0.0,0.0,1.0184083938598634,23.302200317382812,0.016631124727427938,0.0,41.0,-122.75306592,49.19058296,-0.27711253762245175,0.258574315905571,-0.47368290424346926,0.7942514777183532,0.34266253709793093,1.1120809316635132,0.45685997009277346,-12.575454658269884,49.10621891021728,0.15310999546200035,-0.14004085551608692,1.387539917095141,-1.1631927142540612,-267.97025299072266,144.33941612243652,-133.20508842468263,-5.50825595855713,-4.3979416847229,2.6562368154525755,-1.1960523769259457,-13.06588830947876,1.001635554432869,-0.1391048946163871,1.3830694976178082,-1.1653237906707958,4.289402103424072,-8.652201461791993,-1.719314742088318
10.0,-3.8948627060109917,-9.98736971616745,0.4084113131869923,0.0,0.0,1.0204897165298463,23.387800216674805,0.018223301321268058,0.0,41.0,-122.75306508,49.19058134,-0.3624598781267802,0.41833468278249103,-0.4560331453879674,0.6894915699958801,0.8832203348477682,1.2220855752627056,0.3121265644828478,-11.262429797649384,49.307518768310544,0.4879999842494726,-0.7137960412285544,3.638868722048673,-1.0463427603244781,-266.6572265625,144.54071578979492,-132.87019729614258,-8.409355958302816,1.648235559463501,2.5899383227030435,-6.102196375528972,-7.450452034672101,0.032502494752407074,-0.712865872816606,3.634356672113592,-1.0484668883410366,2.2843581388394036,-9.082942485809326,-2.6221492687861123
10.1,-1.8252478300974788,-8.703058491150538,-2.737370988184755,0.0,0.0,1.022571039199829,23.473400115966797,0.019815477915108178,0.0,41.0,-122.75306424,49.19057972,-0.43756406009197235,0.5469103852907816,-0.4730105847120285,0.5326178918282191,1.8245689868927002,1.3884155948956807,-0.2749659642577171,-4.065344924479723,49.82540874481201,-1.2474499838426707,-0.5365623943225453,2.809526010218895,-0.9504207191833605,-259.4601398468018,145.0586067199707,-134.60564727783202,0.6983876278003059,1.430900017420451,-5.914844731489818,0.2418745281174779,-8.167401552200317,-7.812964657942454,-0.5356073462771195,2.805042881292827,-0.9525517854331569,-0.47931451474626857,-9.5825564066569,-1.9628334442774455
10.2,0.24436704581603422,-7.418747266133626,-5.883153289556503,0.0,0.0,1.024652361869812,23.55900001525879,0.0214076545089483,0.0,41.0,-122.7530634,49.1905781,-0.4791472852230072,0.6328650712966919,-0.4343424439430237,0.42427517473697657,2.5458789467811584,1.3498541216055553,-0.7193029870589575,3.1317399486899378,50.343298721313474,-2.9828999519348143,-0.35932874741653603,1.980183298389117,-0.8544986780422429,-252.2630531311035,145.57649765014648,-136.3410972595215,1.4017106691996257,1.2573716640472412,-4.620449711879094,-0.43090745946392417,-8.26266590754191,-6.0719868540763855,-0.35834881973763305,1.9757290904720624,-0.8566366825252771,-1.855419546365738,-9.504292408625284,-1.5162506798903148
10.3,-1.176869947463274,-9.808578888575235,-8.384450515111288,0.0,0.0,1.024652361869812,23.625300025939943,0.023190684057772127,0.0,41.0,-122.75306211,49.19057627,-0.483579957485199,0.620815110206604,-0.4085793048143387,0.4583849683403969,2.1594818770885467,1.339374237259229,-0.34901791165272394,5.965799856185913,49.6466796875,-5.864539909362793,0.3320052723089854,0.37715839842955273,0.27758733633284766,-249.42899475097656,144.8798812866211,-139.22273712158204,-0.0631961921850841,-2.5671945810317993,-4.04104746679465,-1.1898111395072193,-12.046311839421591,-6.014459413290024,0.33297244707743323,0.372704158226649,0.2754493087219695,-1.1494163811206817,-9.463372095425925,-2.0381254424651463
10.4,-1.2259318765930154,-13.231692859620757,-6.320260342323419,0.0,0.0,1.024652361869812,23.691600036621093,0.02497371360659596,0.0,41.0,-122.75306082,49.190574440000006,-0.48801262974739074,0.6087651491165161,-0.3828161656856537,0.49249476194381714,1.773084807395935,1.328894352912903,0.021267163753509517,-0.6246399908792233,49.49875431060791,-1.4743699669837946,0.9191231154131168,-0.9980265685554706,1.251512472482511,-256.0194347381592,144.73195419311526,-134.83256759643555,-1.5281030535697937,-6.39176082611084,-3.461645221710205,-1.9487148195505142,-15.82995777130127,-5.9569319725036625,0.9200787309444313,-1.0024888601266975,1.2493744493730254,-0.4434132158756256,-9.422451782226563,-2.560000205039978
10.5,-1.2749938057227568,-16.65480683066628,-4.25607016953555,0.0,0.0,1.024652361869812,23.757900047302247,0.026756743155419788,0.0,41.0,-122.75305953,49.190572610000004,-0.4818995197614034,0.5267403423786163,-0.32382870217164356,0.6185044546922048,0.9851061900456747,1.143049160639445,0.6531603634357452,-7.215079837944359,49.35082893371582,2.9157999753952026,1.506240958517248,-2.373211535540494,2.2254376086321743,-262.6098747253418,144.5840270996094,-130.44239807128906,-2.92438797156016,-8.567206541697184,0.8677865266799927,-0.6718846559524535,-17.37069606781006,-2.720240573088328,1.5071850148114292,-2.377681878480044,2.223299590024081,2.2297018567721048,-8.787744363149008,-3.6527405977249146
10.6,-0.6148149786573468,-8.927528327136038,-1.8318235732502108,0.0,0.0,1.024652361869812,23.824200057983397,0.02853977270424362,0.0,41.0,-122.75305824,49.19057078,-0.3991226057211558,0.3852986494700113,-0.3300175567468007,0.7610925336678823,0.5934441834688187,0.9499728182951609,0.6525248090426127,-14.626274707866832,47.54858388900757,2.6742399618029595,1.0505036811880542,-2.4284438939031325,0.8141265927150731,-270.02106895446775,142.78178291320802,-130.68395767211913,-8.142880201339722,8.2930908203125,3.484904408454895,-3.351546953121821,0.4717848204697172,0.0888335754474004,1.0514465760947629,-2.43291892224189,0.8119949240971243,4.768531839052836,-7.80556074778239,-3.4607843160629272
10.7,0.045363848408063255,-1.200249823605797,0.592423023035129,0.0,0.0,1.024652361869812,23.89050006866455,0.03032280225306745,0.0,41.0,-122.75305695,49.19056895000001,-0.31119041551243176,0.2851051146333867,-0.43942918289791455,0.7909721461209384,0.3895508348941803,1.0645948648452759,0.513486385345459,-22.037469577789306,45.746338844299316,2.4326799482107164,0.5947664038588604,-2.4836762522657714,-0.5971844232020279,-277.43226318359376,140.97953872680665,-130.9255172729492,3.599893569946289,-1.1813182397322224,0.23954660242254083,8.183888467875393,-9.600222031501206,-1.7275635627183048,0.5957081373780966,-2.488155966003736,-0.5993097418298324,4.561193444512107,-8.403158578005703,-2.031823656775735
10.8,13.796536636352538,-17.620865535736083,-5.3355159044265745,0.0,0.0,1.024652361869812,23.956800079345705,0.03210583180189128,0.0,41.0,-122.75305566,49.190567120000004,-0.3084183057600801,0.3078614748788602,-0.44810598050103045,0.7783854021267458,0.47512204200029373,1.096514125665029,0.4561583027243614,-11.743719673156738,49.107439041137695,0.21350000575184822,0.5650808930397033,-1.7882774621248245,-0.34684928357601164,-267.1385162353516,144.34063720703125,-133.1446960449219,-2.252741813659668,-1.3455386342424336,1.7172649728529379,1.9076460861798488,-9.925038576238986,-0.47938481605414185,0.5660277485847474,-1.7927368313074112,-0.3489872932434082,4.137586384108572,-8.563754753632978,-2.261363278735768
10.9,3.603750346601009,-13.540768897533416,-3.0875238719706735,0.0,0.0,1.024652361869812,24.023100090026855,0.03388886135071511,0.0,41.0,-122.75305437,49.19056529,-0.3056461960077285,0.3306178351243337,-0.4567827781041463,0.7657986581325531,0.5606932491064072,1.128433386484782,0.39883022010326385,-10.108614774048327,49.39657917022705,1.077869975939393,-0.19131918245305624,0.9795249601205187,-0.6581589454164107,-265.50341033935547,144.62977752685546,-132.28032646179201,-8.105377197265625,-1.5097590287526448,3.194983343283335,-4.3685962955156965,-10.249855120976767,0.768793930610021,-0.19038759643832837,0.9750618125001591,-0.6602969654525319,3.7139793237050376,-8.724350929260254,-2.490902900695801
11.0,-6.58903594315052,-9.46067225933075,-0.8395318395147721,0.0,0.0,1.024652361869812,24.08940010070801,0.03567189089953894,0.0,41.0,-122.75305308,49.19056346,-0.40180934468905133,0.5065634101629257,-0.43596638242403657,0.6204748948415121,1.2757149239381154,1.262576202551524,0.14382814957449833,-8.473509874939918,49.6857192993164,1.942239946126938,-0.9477192579458157,3.7473273823658624,-0.9694686072568098,-263.86830444335936,144.91891784667968,-131.41595687866212,-9.81772232055664,0.536943515141805,0.5917555491129557,-8.764011849959692,-8.702596108118692,-2.318645137051741,-0.9468029414614042,3.7428604563077292,-0.9716066376616558,1.0309089987228315,-9.22379446029663,-2.975114186604818
11.1,-2.588884559770425,-8.554241200288137,-3.059697335275511,0.0,0.0,1.024652361869812,24.15570011138916,0.037454920448362766,0.0,41.0,-122.75305179,49.190561630000005,-0.448286513487498,0.5930165648460388,-0.4458363850911458,0.49584818879763287,2.0573299129803977,1.3511143922805786,-0.38603774706522626,-2.4665349818766114,49.93703899383544,-0.25924997925758353,-0.5676338061069448,2.939197201281786,-0.7823783936473774,-257.86132965087893,145.17023696899412,-133.61744651794436,4.594612558682759,1.806640386581421,-2.8746259411176047,3.560121258099874,-7.709175984064738,-4.957130928834279,-0.5666920474419992,2.934742985914151,-0.784516421459557,-1.0572928016384442,-9.500071207682291,-2.1472185452779136
11.2,1.41126682360967,-7.647810141245524,-5.27986283103625,0.0,0.0,1.024652361869812,24.222000122070312,0.0392379499971866,0.0,41.0,-122.7530505,49.1905598,-0.5004247047684409,0.6604372046210549,-0.3916589211333882,0.3993047150698575,2.4951437386599453,1.3420761823654175,-0.5497672964226116,3.540439911186695,50.18835868835449,-2.460739904642105,-0.18754835426807404,2.1310670201977095,-0.5952881800379449,-251.85435485839844,145.4215560913086,-135.81893615722657,0.9726315845142711,0.5882381959394976,-5.752983266657049,-0.8905650864947926,-8.908805066888982,-7.327366742220792,-0.18658115342259407,2.1266255155205727,-0.5974262052574583,-1.8859981298446655,-9.481298099864613,-1.639096975326538
11.3,-1.1514262795448302,-10.442756462097169,-9.616754245758056,0.0,0.0,1.0173913598060609,23.7757999420166,0.0424759648740291,0.0,41.0,-122.75304742,49.19055744,-0.4997709104509065,0.6350271394758513,-0.370056497102434,0.4520392901066578,2.0385627882047133,1.3158494333426156,-0.15109768244578986,3.75515992641449,49.7528190612793,-4.5139999151229855,0.5021923199295998,-0.26966646909713743,0.6788240008056163,-251.63963317871094,144.98601684570312,-137.87219696044923,0.22225932822082983,-3.601880572058938,-3.6490356597033413,-0.6869077628309077,-13.014077352754999,-5.869716263178623,0.5031697034835815,-0.27412577867507937,0.6766859771683812,-0.9319685337444147,-9.396451617732193,-2.2853940924008684
11.4,-1.0922637502352397,-12.819487496217093,-6.526523458212614,0.0,0.0,1.0101303577423095,23.329599761962893,0.045713979750871596,0.0,41.0,-122.75304434,49.19055508,-0.499117116133372,0.6096170743306478,-0.3484540730714798,0.504773865143458,1.5819818377494812,1.289622684319814,0.24757193153103188,-3.5663649812340728,49.18521394729614,-0.30408498942852,1.0221480883657934,-1.4766178322335084,1.3135766216864189,-258.96115951538087,144.41841201782228,-133.6622829437256,-0.5281129280726115,-7.791999340057373,-1.5450880527496338,-0.4832504391670227,-17.119349638621014,-4.412065784136455,1.0231012940406798,-1.4810873165726663,1.3114449633595844,0.02206106235583623,-9.311605135599772,-2.9316912094751992
11.5,-1.033101220925649,-15.196218530337015,-3.4362926706671715,0.0,0.0,1.0028693556785584,22.88339958190918,0.0489519946277141,0.0,41.0,-122.75304126,49.19055272,-0.48512787123521167,0.5141598184903463,-0.3012070804834366,0.6362643837928772,0.9098753233750662,1.0893938938776653,0.7239155371983846,-10.887889888882636,48.617608833312985,3.9058299362659454,1.5421038568019867,-2.6835691953698793,1.9483292425672214,-266.2826858520508,143.8508071899414,-129.45236892700194,-4.318319131930669,-4.728151957194011,1.4395541747411091,-1.5374881873528166,-13.304193496704102,-2.3313071628411612,1.5430328845977783,-2.688048854470253,1.9462039495507877,2.7580295403798423,-8.560296376546225,-3.835574825604757
11.6,-0.432584263158567,-7.928074068192279,-1.1311162517152047,0.0,0.0,0.9956083536148073,22.437199401855473,0.0521900095045566,0.0,41.0,-122.75303818,49.19055036,-0.39795667429765064,0.36244405309359234,-0.33169162770112354,0.77217764655749,0.5241652230421702,0.933904896179835,0.6818867027759552,-16.384294785559177,47.091693782806395,2.902684956835583,1.07784511199729,-2.3821575234107897,0.5748253504209446,-271.77909088134766,142.32489166259765,-130.45551319122313,-8.641659816106161,8.217348416646322,3.9894705613454184,-3.532603790362676,0.4749753276507059,0.8814560410877069,1.0787955471737818,-2.3866325745528396,0.5726936824168221,5.086254517237346,-7.7266279856363935,-3.1727280616760254
11.7,0.16793269460851495,-0.6599296060475436,1.1740601672367617,0.0,0.0,0.988347351551056,21.99099922180176,0.0554280243813991,0.0,41.0,-122.7530351,49.190548,-0.3172868165102872,0.3039766604250127,-0.4286447898908095,0.7881281050768766,0.4430439363826405,1.0544658465818926,0.5013256696137515,-21.88069968223572,45.565778732299805,1.8995399774052202,0.6135863671925935,-2.0807458514517005,-0.798678541725332,-277.2754959106445,140.7989761352539,-131.45865745544432,3.850931167602539,-1.296090082688765,1.458476803519509,8.393804266710173,-9.680218138478018,-0.7706521180543031,0.6145582097497854,-2.085216294635426,-0.8008165847171437,4.520071614872325,-8.36838267066262,-2.2938423590226606
11.8,11.483753950645527,-16.018152902523678,-2.8669005235036216,0.0,0.0,0.9886628031730653,21.74539947509766,0.05753819495439524,0.0,41.0,-122.75303374,49.19054678,-0.34144367638862494,0.33758120509711176,-0.4290660935820955,0.7610589798652765,0.5160349950645909,1.094029236020464,0.5203858751690749,-12.210979747772218,48.708499145507815,0.4721399933099747,0.2758565607170264,-0.882445752620697,0.13372857868671417,-267.60577392578125,143.9416976928711,-132.88605651855468,-3.126569827397664,-2.383848565997499,1.6678201565236757,0.9231219066476282,-10.96573491800915,-0.6619463179147604,0.2768492074683308,-0.8869254291057587,0.13159056007862088,4.026890192971085,-8.5661410779664,-2.3944799024047274
11.9,2.9936204509188737,-13.35227439304193,-3.2220353210965795,0.0,0.0,0.9889782547950746,21.49979972839356,0.059648365527391375,0.0,41.0,-122.75303238000001,49.19054556,-0.3656005362669627,0.3711857497692108,-0.42948739727338153,0.7339898546536764,0.5890260537465414,1.1335926254590352,0.5394460807243983,-10.419714748859406,48.819518852233884,0.7341349791735411,-0.4237177670001984,1.3381893883148832,-0.6356434741367897,-265.814510345459,144.052717590332,-132.62406311035156,-10.104070822397867,-3.471607049306234,1.8771635095278423,-6.547560453414917,-12.251251697540283,-0.5532405177752177,-0.4227378407182793,1.3337033589680987,-0.6377751256028811,3.5337087710698447,-8.763899485270182,-2.4951174457867937
12.0,-5.49651304880778,-10.68639588356018,-3.577170118689537,0.0,0.0,0.9892937064170838,21.254199981689453,0.06175853610038752,0.0,41.0,-122.75303102,49.19054434,-0.4373466322819392,0.5444615681966146,-0.41874756912390393,0.5776662131150564,1.4175321459770203,1.2925968368848164,0.13813931525995335,-8.628449749946594,48.93053855895996,0.9961299650371075,-1.1232920947174232,3.558824529250463,-1.4050155269602935,-264.0232467651367,144.16373748779296,-132.36206970214843,-4.957839806874593,0.19297504425048828,-3.6964696248372397,-4.4000020027160645,-9.15264638264974,-6.4718873500823975,-1.1223248889048894,3.5543321470419564,-1.407140811284383,0.5350364272793134,-9.329876263936361,-2.840131243069967
12.1,-2.3188808096967866,-8.913833130489696,-3.8736036616292866,0.0,0.0,0.9896091580390931,21.00860023498535,0.06386870667338365,0.0,41.0,-122.75302966,49.19054312,-0.4629576603571574,0.6274508436520895,-0.41189726690451295,0.46954213579495746,2.1221309900283813,1.3233352104822795,-0.3401244580745697,-2.629709897190332,49.25261878967285,-0.6072550032287835,-0.6465910223284455,2.8660096462928886,-0.9439036629981165,-258.02450637817384,144.48581771850587,-133.96545333862304,2.7592507799466452,2.8426568508148193,-0.4079518715540568,1.4602199991544087,-6.607181469599406,-2.6715864539146423,-0.645642328781612,2.861542113351099,-0.9460353192054863,-1.3218322495619457,-9.434093157450357,-2.328348080317179
12.2,0.8587514294142072,-7.141270377419212,-4.170037204569036,0.0,0.0,0.9899246096611024,20.76300048828125,0.0659788772463798,0.0,41.0,-122.7530283,49.1905419,-0.5105839588425376,0.6786008368838917,-0.36100498654625635,0.3844355290586298,2.441848798231645,1.3270516395568848,-0.4201164875518192,3.3690299555659293,49.574699020385744,-2.2106399714946745,-0.16988994993946768,2.1731947633353146,-0.48279179903593933,-252.02576599121093,144.80789794921876,-135.56883697509767,1.199024254625494,-0.21809903058138766,-6.091348886489868,-0.6959850842302496,-9.677825624292547,-7.812946492975408,-0.16895976865833456,2.1687520796602424,-0.48492982712658966,-1.917810851877386,-9.443981430747293,-1.7863111387599597
12.3,-1.4545370936393738,-11.213464895884195,-9.533304611841837,0.0,0.0,0.9899246096611024,20.640200424194337,0.07001100480556481,0.0,41.0,-122.75302506,49.19053936,-0.5091222707520832,0.6479761347626195,-0.3328235438375762,0.45000848648223013,1.948095949310245,1.2765899101893106,0.003479527478868316,2.7425599336624145,49.13671951293945,-3.7356398701667786,0.736779854943355,-0.7152213851610819,0.9742282709727684,-252.65223236083983,144.3699172973633,-137.09384002685547,-0.3723897365006532,-5.392669634385543,-2.8797629872957864,-1.1122999913764722,-14.68652471629056,-5.454180821550615,0.7377470284700394,-0.719726529593269,0.9721156520148119,-0.7627117420462046,-9.278109918941151,-2.6391313419197546
12.4,-1.4577524463335672,-12.6828573346138,-5.930959925055504,0.0,0.0,0.9899246096611024,20.517400360107423,0.07404313236474984,0.0,41.0,-122.75302182,49.19053682,-0.5076605826616287,0.6173514326413473,-0.30464210112889606,0.5155814439058304,1.4543431003888447,1.2261281808217366,0.4270755425095558,-4.903789862990379,48.123509120941165,0.4416400231420994,1.0941360189268987,-1.7808567065124712,1.4587716624761622,-260.298583984375,143.35670585632323,-132.9165590286255,-1.9438037276268005,-10.567240238189697,0.3318229118982951,-1.5286148985226948,-19.695223808288574,-3.0954151501258216,1.0951032042503357,-1.7853427805627384,1.4566527114560206,0.39238736778497696,-9.11223840713501,-3.4919515450795493
12.5,-1.4609677990277607,-14.152249773343405,-2.3286152382691703,0.0,0.0,0.9899246096611024,20.394600296020506,0.07807525992393485,0.0,41.0,-122.75301858,49.19053428,-0.4870895246664683,0.49630382657051086,-0.2887636224428813,0.6543880899747213,0.8388093809286753,1.0461000204086304,0.7727707326412201,-12.550139659643174,47.11029872894287,4.618919916450977,1.4514921829104424,-2.84649202786386,1.9433150539795558,-267.94493560791017,142.3434944152832,-128.7392780303955,-4.63732906182607,-0.269766887029012,2.3673133850097656,-1.3478571275870006,-8.640382866064707,-1.4326028724511464,1.452459380030632,-2.850959031532208,1.9411897708972294,3.26667054494222,-8.354870875676474,-3.8646297057469687
12.6,0.5088351052818878,-8.627326571580136,-1.3557334476517457,0.0,0.0,0.9899246096611024,20.271800231933593,0.08210738748311988,0.0,41.0,-122.75301534,49.19053174,-0.43468532462914783,0.3897588799397151,-0.29779131213823956,0.7536045213540395,0.5668668995300928,0.9101560215155283,0.763103723526001,-16.73382460772991,45.679543781280515,3.56483992356807,0.8647942918945443,-2.216593384150077,0.39083574734853976,-272.1286201477051,140.9127410888672,-129.7933578491211,-7.758622765541077,8.007310350735983,3.9172904094060264,-2.6501507510741553,0.3932205041249593,0.4862414797147115,0.865756867855618,-2.2210551297687218,0.38871798032160965,5.085670550664266,-7.598344802856445,-3.4957623879114785
12.7,2.4786380095915366,-3.1024033698168667,-0.3828516570343213,0.0,0.0,0.9899246096611024,20.14900016784668,0.0861395150423049,0.0,41.0,-122.7530121,49.1905292,-0.3606563941998915,0.35384295203469013,-0.40345809676430444,0.7619440067898143,0.5358603732152418,1.0570035034959966,0.5643165274099871,-20.91750955581665,44.248788833618164,2.5107599306851625,0.2780964008786462,-1.5866947404362939,-1.1616435592824763,-276.3123046875,139.48198776245118,-130.8474376678467,1.5631501024419614,-4.8972674716602675,-0.5140298496593129,5.845121903852983,-13.311435461044312,-3.152435051446611,0.2790543556806039,-1.5911512280052358,-1.1637538102540104,4.2591705105521465,-8.398422804745762,-2.703118692744862
12.8,3.4573295911153163,-18.27927033106486,-4.774379154046376,0.0,0.0,0.9918813586235047,20.065400314331054,0.08754370808601372,0.0,41.0,-122.7530097,49.19052824,-0.3575230631412881,0.37849118966947903,-0.4076167634039214,0.7484100813215429,0.6411474514188189,1.0783425099921948,0.4926231088060321,-13.156479835510254,46.85043907165527,0.19397999569773675,-0.16208292295535406,-0.2977204248309135,0.7299585218230883,-268.55127868652346,142.0836380004883,-133.16421661376953,-1.7267025239539868,-1.2136969819213403,-0.3923542047991897,2.108004214185657,-9.729597449302673,-3.2736759320127238,-0.1611411770184835,-0.3021746600667636,0.7278459543983141,3.8119054129629424,-8.500155253843829,-2.946035211736506
12.9,1.4993526196728153,-12.372936775286993,-3.9460636861622334,0.0,0.0,0.9938381075859071,19.98180046081543,0.08894790112972253,0.0,41.0,-122.75300730000001,49.19052728,-0.3543897320826848,0.4031394273042679,-0.4117754300435384,0.7348761558532715,0.7464345296223959,1.099681516488393,0.4209296902020772,-9.660569855570794,47.056009197235106,0.8073349840939045,-0.17031050877024734,0.9653898142278194,-0.5289965756237508,-265.0553661346436,142.28920783996583,-132.55086174011228,-5.016555150349935,2.4698735078175864,-0.2706785599390666,-1.6291134754816692,-6.147759437561035,-3.394916812578837,-0.16936239289740723,0.9609355789919694,-0.5311218661566576,3.3646403153737388,-8.601887702941895,-3.1889517307281494
13.0,-0.45862435176968575,-6.466603219509125,-3.11774821827809,0.0,0.0,0.9957948565483093,19.898200607299806,0.09035209417343136,0.0,41.0,-122.7530049,49.190526320000004,-0.37095604836940765,0.5196137775977453,-0.4630777984857559,0.6133389274279276,1.4854881763458252,1.2666849096616108,-0.10322192730382083,-6.164659875631332,47.26157932281494,1.4206899724900723,-0.17853809458514058,2.2285000532865524,-1.7879516730705898,-261.5594535827637,142.49477767944336,-131.93750686645507,0.38258705536524457,2.4620514710744223,0.3695187568664551,0.7573283389210701,-6.816553513209025,-2.711367145180702,-0.17758360877633095,2.2240458180507026,-1.7900896867116292,0.3519398371378581,-9.262859821319578,-3.1455994049708047
13.1,-0.48849839293821284,-7.372721533883702,-4.125747410298297,0.0,0.0,0.9977516055107117,19.81460075378418,0.09175628721714017,0.0,41.0,-122.7530025,49.19052536,-0.41339208483695983,0.5946144700050354,-0.44039636850357056,0.5303354501724243,1.9146631956100464,1.2835073232650758,-0.30620197057723997,-0.04239500463008827,47.27926912307739,0.2101449966430664,-0.07317135892244,1.8652741416272791,-1.2928292038991596,-255.43718910217285,142.51246757507323,-133.14805221557617,-0.9801513433456421,2.905830955505371,-0.551225996017456,-1.8937994956970214,-6.431907272338867,-3.3907493114471436,-0.07222208279100331,1.860811804449468,-1.2949672051225647,-0.9364496231079101,-9.32199306488037,-2.9042367935180664
13.2,-0.5183724341067399,-8.27883984825828,-5.133746602318504,0.0,0.0,0.999708354473114,19.731000900268555,0.093160480260849,0.0,41.0,-122.7530001,49.1905244,-0.41185519844293594,0.639661485950152,-0.42542826135953266,0.48720809320608777,2.153905620177587,1.2239186366399128,-0.4418523532028,6.079869866371155,47.296958923339844,-1.0003999792039395,0.03219537674026058,1.502048229968006,-0.7977067347277295,-249.31492462158204,142.53015747070313,-134.35859756469728,1.9144314378499985,-2.0523634354273477,-5.213975111643474,0.11191428111245234,-11.194322148958841,-8.11381228764852,0.03313944319432433,1.4975777908482335,-0.7998447235335003,-1.8253186369935672,-9.126213550567627,-2.9645506342252097
13.3,-0.4683950518568356,-12.526625951131185,-9.82443137963613,0.0,0.0,0.999708354473114,19.677800750732423,0.09424021542072296,0.0,41.0,-122.75299848,49.1905241,-0.43463632091879845,0.5883124247193336,-0.3857783650358518,0.5517062569657961,1.6246714790662131,1.1931771238644917,0.033069677806148945,4.848279891908168,46.58813896179199,0.767379978299141,1.030682387451331,-1.1078041394551594,2.4319818019866943,-250.54651489257813,141.821337890625,-132.59081420898437,-0.9100962653756142,-5.231504937012991,-1.7174704869588218,-0.9246016571608683,-14.256387412548065,-4.958053121964137,1.0316750506560008,-1.1123092646400135,2.429869214693705,-0.03730686381459236,-9.009137312571209,-3.305296113093694
13.4,-1.122632646933198,-11.33928739031156,-5.954938015590112,0.0,0.0,0.999708354473114,19.62460060119629,0.09531995058059692,0.0,41.0,-122.75299686,49.1905238,-0.45741744339466095,0.5369633634885153,-0.3461284687121709,0.6162044207255045,1.095437337954839,1.1624356110890706,0.5079917088150978,-4.224554968625307,45.56608409881592,0.8555249810684473,0.6866379945228498,-2.153478190302849,2.1157826806108155,-259.6193504333496,140.79928283691407,-132.50267066955564,-3.734623968601227,-8.410646438598633,1.77903413772583,-1.9611175954341888,-17.318452676137287,-1.8022939562797546,0.6876115618894498,-2.157964188605547,2.1136828288435936,1.7507049093643825,-8.892061074574789,-3.6460415919621787
13.5,-1.7768702420095603,-10.151948829491934,-2.085444651544094,0.0,0.0,0.999708354473114,19.571400451660157,0.09639968574047088,0.0,41.0,-122.75299524,49.1905235,-0.4101386119922002,0.38358232875665027,-0.36662274102369946,0.7398182054360708,0.5542944669723511,1.0346247752507527,0.6896700064341227,-13.297389829158783,44.544029235839844,0.9436699838377536,0.34259360159436864,-3.199152241150538,1.799583559234937,-268.6921859741211,139.77722778320313,-132.41452713012694,-5.897233684857686,5.299944321314494,0.5528875589370728,-1.5471592644850414,-3.016551891962687,-2.2393829226493835,0.34354807312289876,-3.2036191125710807,1.7974964429934819,4.32727313041687,-8.300751050313314,-2.8569839795430503
13.6,2.5611993564913664,-9.16933263341586,-1.6315198354423046,0.0,0.0,0.999708354473114,19.518200302124022,0.09747942090034484,0.0,41.0,-122.75299362,49.1905232,-0.3657922923564911,0.2678411722183227,-0.40181638598442077,0.7952292442321778,0.24264554679393763,0.9890830874443054,0.7311486005783081,-14.241364735364915,44.05663957595825,-1.8781899645458904,0.3473162367149736,-2.0253491906844303,0.41649324288873957,-269.6361595153809,139.2898376464844,-135.23638763427732,-5.099811172485351,7.217196941375732,3.563084936141968,0.2801995396614074,-0.8669196367263794,2.0985054850578306,0.34825855854785803,-2.029810897272193,0.41438760890653636,5.357209205627441,-8.068371391296386,-1.5292930126190185
13.7,6.899268954992294,-8.186716437339783,-1.1775950193405151,0.0,0.0,0.999708354473114,19.46500015258789,0.0985591560602188,0.0,41.0,-122.752992,49.1905229,-0.3247325370709101,0.30999882767597836,-0.45388903468847275,0.7689402351776758,0.43351708352565765,1.1199109454949696,0.5239739517370859,-15.185339641571044,43.56924991607666,-4.700049912929535,0.3520388718355786,-0.851546140218323,-0.9665970734574578,-270.58013305664065,138.8024475097656,-138.05824813842773,0.8994605938593546,-4.724080721537272,1.014661729335785,4.939982255299886,-13.455140749613443,-0.9201898078123728,0.3529690439728173,-0.8560026819733056,-0.9687212251804092,4.017719964186351,-8.715314865112305,-1.9995649258295696
13.8,-2.599602460861206,-12.579666694005331,1.884248157342275,0.0,0.0,1.0017439603805542,19.400400161743164,0.09989131987094878,18.022276306152342,41.0,-122.75298932000001,49.19052248,-0.35512592643499374,0.37058063472310704,-0.4521797808508078,0.7228999758760134,0.6463765998681386,1.1777654836575189,0.45907535528143245,-10.473699855804444,45.38155899047852,-2.9231199383735658,-0.7277186810970306,1.6035212725400925,0.1689551422993342,-265.8684906005859,140.61475677490233,-136.28131713867188,-2.5060544659694037,-1.0389784574508667,-0.7022022008895874,0.6304090519746142,-9.994720478852589,-2.8979324847459793,-0.726751446723938,1.5990670224030812,0.16684256618221602,3.113661989569664,-8.939996878306072,-2.260443756977717
13.9,-2.168042390183969,-9.966051867513945,-1.4002589375683756,0.0,0.0,1.0037795662879945,19.335800170898438,0.10122348368167876,36.044552612304685,41.0,-122.75298664,49.19052206,-0.38551931579907733,0.4311624417702357,-0.4504705270131429,0.676859716574351,0.8592361162106196,1.2356200218200684,0.39417675882577896,-7.0268949247896675,45.95404386520386,-3.1384499430656434,-0.44895703616467386,2.503554837947542,-0.8805298532048861,-262.4216876983643,141.18724288940427,-136.49664688110352,-5.9115695257981615,2.6461238066355386,-2.4190661311149597,-3.679164151350657,-6.534300208091736,-4.8756751616795855,-0.4480013788085092,2.49910641032638,-0.8826551505674919,2.2096040149529776,-9.164678891499838,-2.5213225881258645
14.0,-1.7364823195067318,-7.352437041022561,-4.684766032479026,0.0,0.0,1.0058151721954345,19.271200180053707,0.10255564749240874,54.06682891845703,41.0,-122.75298396000001,49.19052164,-0.4387871980667114,0.5625733017921448,-0.45113317370414735,0.5338750183582306,1.7538459539413451,1.354388380050659,-0.1665116176009178,-3.580089993774891,46.5265287399292,-3.353779947757721,-0.17019539123231714,3.4035884033549917,-1.9300148487091064,-258.9748847961426,141.75972900390624,-136.71197662353515,1.0394813239574432,1.1656673431396485,-2.123789358139038,0.6447460532188416,-8.368418502807618,-4.313541460037231,-0.16925131089308046,3.399145798249678,-1.9321528673171997,-0.4175367021933198,-9.518340682983398,-2.254465627670288
14.1,-0.8619101418916022,-7.941225519686034,-5.099188937833815,0.0,0.0,1.0078507781028747,19.20660018920898,0.10388781130313872,72.08910522460937,41.0,-122.75298128,49.19052122,-0.4521131217479706,0.6448139250278473,-0.4190075844526291,0.45096224546432495,2.3077973127365112,1.2929415504137676,-0.5072558373212814,0.9174399636685848,46.7305739402771,-4.249869918823242,-0.17832463629769557,2.2686771410658504,-1.1062891014541187,-254.47735481262208,141.96377334594726,-137.6080665588379,2.5235207279523215,1.7760945955912273,-1.4257237315177917,0.7005985379219055,-7.605387369791667,-3.604388559858004,-0.1773753600533713,2.26422236927531,-1.1084271248740456,-1.8457236886024475,-9.365736802419027,-2.243378301461538
14.2,0.01266203572352731,-8.530013998349508,-5.513611843188603,0.0,0.0,1.009886384010315,19.142000198364254,0.1052199751138687,90.11138153076172,41.0,-122.7529786,49.1905208,-0.4643021648128827,0.6560468276341757,-0.39589813599983853,0.43892400960127514,2.29878697792689,1.27180677652359,-0.43811565171927214,5.4149699211120605,46.934619140625,-5.145959889888763,-0.18645388136307398,1.1337658787767093,-0.2825633541991313,-249.97982482910157,142.16781768798828,-138.50415649414063,0.6034714728593826,-2.9528397719065347,-4.655454218387604,-1.166999563574791,-12.266356865564982,-6.861967166264852,-0.18549940921366215,1.1292989403009415,-0.2847013824308912,-1.7932725238303344,-9.29777193069458,-2.2712264160315194
14.3,-1.7269200682640076,-15.031412601470947,-6.49491818745931,0.0,0.0,1.009886384010315,19.092800140380856,0.10610179603099822,90.10955810546875,41.0,-122.75297694000001,49.190520660000004,-0.4635065508385499,0.5908328617612522,-0.3685328078766664,0.5314934973915418,1.6633084217707315,1.2120035390059152,0.06408535921946168,1.6970199465751648,47.426279067993164,-1.5579399824142457,1.6540703376134236,-2.3281855980555215,1.8361336787541707,-253.6977737426758,142.65947723388672,-134.9161361694336,-1.1707602962851524,-5.06709094842275,-1.7403229176998138,-1.0184451714158058,-14.162543972333271,-4.5917019577076035,1.6549866994222004,-2.3326143821080527,1.8339956204096477,0.1295136666546266,-9.079707860946655,-2.916092500090599
14.4,-1.98202306303111,-12.102801789614286,-4.291246386188449,0.0,0.0,1.009886384010315,19.043600082397457,0.10698361694812773,90.10773468017578,41.0,-122.75297528,49.19052052,-0.4627109368642171,0.5256188958883286,-0.34116747975349426,0.6240629851818085,1.0278298656145732,1.1522003014882405,0.5662863701581955,-6.723114889860153,46.33803911209107,-0.7570099817588926,1.0659459549369235,-2.9245370066527165,1.8864479001724357,-262.11791152954106,141.5712375640869,-134.1152057647705,-2.9449920654296875,-7.181342124938965,1.174808382987976,-0.8698907792568207,-16.058731079101562,-2.321436749150356,1.066890051870635,-2.9289657925114487,1.8843237549969645,2.0522998571395874,-8.86164379119873,-3.5609585841496787
14.5,-2.2371260577982124,-9.174190977757627,-2.0875745849175886,0.0,0.0,1.009886384010315,18.994400024414062,0.10786543786525726,90.10591125488281,41.0,-122.75297362,49.19052038,-0.4095925748348236,0.37912203669548034,-0.35736932158470147,0.7471172690391541,0.5453211903572083,1.0096082925796508,0.6944382667541504,-15.14324972629547,45.24979915618896,0.043920018896460536,0.47782157226042316,-3.520888415249911,1.936762121590701,-270.5380493164063,140.4829978942871,-133.31427536010742,-8.3670090675354,7.253480243682861,1.1691473722457886,-3.8277984142303465,-0.9469594717025757,-1.6648063659667969,0.4787934043190696,-3.5253172029148447,1.9346518895842812,4.516409206390381,-8.184694576263428,-2.898667240142822
14.6,2.5003818361314405,-9.134206317139395,-1.1889518517436404,0.0,0.0,1.009886384010315,18.945199966430664,0.10874725878238678,90.10408782958984,41.0,-122.75297196,49.19052024,-0.3646611620982488,0.268807848294576,-0.40542616446812946,0.7933598756790161,0.2472116450468699,0.9967506428559622,0.7251101136207581,-15.154839718341826,45.154029083251956,-2.590669961459935,0.44625499668164237,-2.146841917074088,0.5256055576839682,-270.5496376037598,140.38722763061523,-135.9488666534424,-3.285249869028727,5.996487935384114,3.9092191557089486,2.013959102332592,-2.1354945798714957,2.480260446667671,0.4472245126680443,-2.1513025243625497,0.5234814482091954,5.276407400767009,-8.116237243016561,-1.4936721722284954
14.7,7.237889730061094,-9.094221656521162,-0.29032911856969196,0.0,0.0,1.009886384010315,18.895999908447266,0.1096290796995163,90.10226440429688,41.0,-122.7529703,49.1905201,-0.33962733298540115,0.3427077904343605,-0.43947310745716095,0.7559860597054163,0.5301763713359833,1.1183952887852986,0.506999966998895,-15.166429710388183,45.05825901031494,-5.22525994181633,0.4146884211028616,-0.7727954188982645,-0.8855510062227646,-270.5612258911133,140.29145736694335,-138.58345794677734,-0.22049979368845618,-4.174956639607747,0.2897693316141764,3.616751412550608,-12.9073339899381,-1.996461535493533,0.415655621017019,-0.7772878458102545,-0.8876889931658903,3.8144496083259583,-8.71663228670756,-2.3509443004926047
14.8,-5.2965129762887955,-9.715059280395508,-1.1258230755726497,0.0,0.0,1.0114883581797283,18.858166694641113,0.11066178108255068,90.09815470377605,41.0,-122.75296793333334,49.19051998333333,-0.37946249917149544,0.42850670889019965,-0.43214794546365737,0.6842550878723462,0.8854543060064316,1.1927279869715373,0.3657067355855058,-14.466759777069091,45.58773918151856,-3.4342999696731566,-0.38067087903618807,3.0058897137641907,-0.5205335405965646,-269.86155090332034,140.82093963623046,-136.79249725341796,-3.032214801510175,-2.5138551870981853,-1.225084606806437,-0.5536393443743388,-11.520768044392268,-3.778212094803651,-0.3797290899480383,3.0014354983965554,-0.5226715809355179,2.4557739358395336,-8.991167744000752,-2.617840991417567
14.9,-3.3410874124277723,-8.983598839152943,-2.5985781837141877,0.0,0.0,1.0130903323491414,18.82033348083496,0.11169448246558507,90.0940450032552,41.0,-122.75296556666667,49.19051986666667,-0.4192976653575897,0.5143056273460388,-0.4248227834701538,0.6125241160392761,1.24073224067688,1.267060685157776,0.22441350417211653,-8.246284872666001,46.32797393798828,-2.8852999616414308,-0.44415688802572806,3.0442134006456896,-1.148249633215142,-263.6410793304443,141.56117401123046,-136.24349708557128,-5.843929809331894,-0.852753734588623,-2.7399385452270506,-4.724030101299286,-10.134202098846435,-5.55996265411377,-0.4432209038570749,3.039764984990611,-1.1503876857177326,1.0970982633531094,-9.265703201293945,-2.8847376823425295
15.0,-1.385661848566749,-8.252138397910379,-4.0713332918557255,0.0,0.0,1.0146923065185547,18.78250026702881,0.11272718384861945,90.08993530273438,41.0,-122.75296320000001,49.19051975,-0.45158971349398297,0.6219554344813029,-0.42658330500125885,0.4752923597892125,2.148502210776011,1.3175036311149597,-0.40422194202740985,-2.025809968262911,47.06820869445801,-2.336299953609705,-0.5076428970152681,3.0825370875271885,-1.7759657258337194,-257.42060775756835,142.30140838623046,-135.69449691772462,2.79276513059934,2.736043930053711,-0.5147724350293478,1.4379866520563762,-6.712266286214192,-2.712364153470844,-0.5067127177661116,3.078094471584667,-1.7781037904999473,-1.3775799969832103,-9.432565053304037,-2.26230518023173
15.1,-1.2804682885268421,-8.701719394235901,-5.570812892281648,0.0,0.0,1.016294280687968,18.744667053222656,0.11375988523165383,90.08582560221355,41.0,-122.75296083333333,49.19051963333333,-0.47838686406612396,0.675411065419515,-0.3834490825732549,0.4090119550625482,2.4095720052719116,1.2881036400794983,-0.47162583470344543,0.8515599604696038,46.904423999786374,-2.9057349313050507,-0.19605014233313722,1.987791948133346,-0.8709995345297185,-254.5432361602783,142.13762283325195,-136.26393203735353,1.489444891611735,1.3058826923370361,-2.074907581011454,-0.5747759466369947,-8.065906127293905,-4.0754754940668745,-0.1951205389658836,1.9833371609900938,-0.8731375795817284,-2.087022304534912,-9.356043656667074,-2.065281391143799
15.2,-1.1752747284869354,-9.151300390561422,-7.07029249270757,0.0,0.0,1.017896254857381,18.706833839416504,0.11479258661468822,90.0817159016927,41.0,-122.75295846666667,49.19051951666667,-0.4931452249487241,0.6743772973616918,-0.3400366057952245,0.42361148198445636,2.1589501599470773,1.2563602328300476,-0.17603701647991934,3.728929889202118,46.74063930511475,-3.475169909000397,0.11554261234899366,0.8930468087395033,0.033966656774282455,-251.66586456298828,141.97383728027344,-136.83336715698243,-0.04913167655467987,-4.34381087621053,-4.308702031771342,-1.5177474493781726,-13.604193846384684,-6.762316207091014,0.1164716398343444,0.8885798503955206,0.031828631336490325,-1.4914172117908795,-9.244637807210287,-2.5183277428150177
15.3,-1.3279168605804443,-16.92503261566162,-3.6533416509628296,0.0,0.0,1.0194982290267944,18.66900062561035,0.1158252879977226,90.07760620117188,41.0,-122.7529561,49.1905194,-0.4914208608369033,0.5968214804927507,-0.329024180273215,0.5224518756071727,1.5416013767321903,1.1954870998859406,0.27080038638475035,-2.7364599108695984,46.19773864746094,1.9019799530506134,1.3320934573809307,-2.571131785710653,2.5297456979751587,-258.1312515258789,141.43093566894532,-131.45621795654296,-1.684814666211605,-4.44256984392802,-1.3452384789784748,-1.1587143895526728,-13.475798972447713,-4.2890548308690395,1.3330606917540233,-2.5755860408147178,2.5276331106821694,0.5032988217969734,-9.017483965555826,-3.008529868721962
15.4,-1.560859054327011,-11.515051012689417,-2.5164835263382304,0.0,0.0,1.0194982290267944,18.63780059814453,0.11671431213617321,90.07373657226563,41.0,-122.75295428000001,49.19051938,-0.4896964967250824,0.5192656636238098,-0.31801175475120547,0.6212922692298889,0.9242525935173035,1.1346139669418336,0.7176377892494201,-9.8597347676754,44.679753971099856,1.2434849715791643,0.9132180830858875,-3.18745316881122,1.9578439366411078,-265.2545280456543,139.91295166015624,-132.1147132873535,-3.32049765586853,-4.541328811645508,1.6182250738143922,-0.7996813297271729,-13.347404098510742,-1.8157934546470642,0.9141737333301342,-3.1919085780779524,1.9557186169267604,2.4980148553848265,-8.790330123901366,-3.498731994628906
15.5,-1.7938012480735779,-6.105069409717213,-1.3796254017136313,0.0,0.0,1.0194982290267944,18.60660057067871,0.11760333627462384,90.06986694335937,41.0,-122.75295246,49.190519359999996,-0.42840752998987836,0.37044476966063183,-0.34494198858737946,0.7464702824751536,0.49171200891335803,0.9876184463500977,0.7714679737885793,-16.983009624481202,43.16176929473877,0.5849899901077151,0.49434270879084424,-3.8037745519117876,1.385942175307057,-272.3778045654297,138.39496765136718,-132.77320861816406,-7.422796090443929,7.981726884841919,1.7685819069544475,-2.580559511979421,-0.09830508629480998,-0.8977073132991791,0.4952867749062451,-3.8082311153411865,1.3838041231713512,4.819435159365336,-8.064286867777506,-2.7310027281443277
15.6,2.4254837185144424,-7.712506915583755,-0.9494339485060085,0.0,0.0,1.0194982290267944,18.57540054321289,0.11849236041307445,90.06599731445313,41.0,-122.75295064000001,49.19051934,-0.37419449786345166,0.32167838513851166,-0.39725805819034576,0.7727348407109579,0.4078597128391266,1.0243717829386394,0.6652232656876246,-15.192049741744995,43.56985931396484,-0.6828949746210129,0.43918666514483373,-1.908466805449941,0.24585591440060828,-270.5868431091309,138.8030578613281,-134.04109268188478,0.1333258549372355,5.4558703899383545,3.695234457651774,4.935595661401749,-2.8156543162961802,1.6018950790166855,0.4401486620419856,-1.9129094680150351,0.24372424089321587,4.779468377431233,-8.25577942530314,-2.1580528616905212
15.7,6.644768685102463,-9.319944421450296,-0.5192424952983856,0.0,0.0,1.0194982290267944,18.54420051574707,0.11938138455152508,90.06212768554687,41.0,-122.75294882,49.19051932,-0.3623251671140844,0.3668408014557578,-0.42959639159115875,0.7386320883577521,0.5755840241909027,1.1285347721793435,0.5399972796440125,-13.401089859008788,43.97794933319092,-1.9507799393497407,0.38403062149882317,-0.01315905898809433,-0.8942303465058407,-268.795881652832,139.21114807128907,-135.30897674560546,-2.276993448084051,-5.428445902737705,0.47132023898037995,1.372229337692261,-14.205154939131303,-1.8973995799368077,0.3850105491777261,-0.017587820688883538,-0.8963556413849195,3.6264213648709385,-8.760963613336736,-2.4334332942962646
15.8,-7.0831140041351315,-12.209377288818361,-1.2254841446876525,0.0,0.0,1.0194982290267944,18.51300048828125,0.1202704086899757,90.05825805664062,41.0,-122.752947,49.1905193,-0.4027650085362521,0.45837416341810516,-0.428198199606303,0.6496900222969778,1.0470043569803238,1.2229257216959288,0.29880735712746775,-10.678659820556641,45.11071929931641,-1.6970199763774871,-0.45799619555473325,3.529854249954224,-1.2765556871891022,-266.0734558105469,140.3439193725586,-135.0552185058594,-3.250815056038625,-2.6843096053961557,-1.8586375478542214,-1.263188302516937,-11.789967558600686,-4.274075227704915,-0.4570188343524933,3.5253949403762816,-1.2786936819553376,1.9648252860219642,-9.089912660194166,-2.4801511764526367
15.9,-4.241931180655956,-10.055886844793957,-2.9790691979229447,0.0,0.0,1.0215718746185303,18.441000366210936,0.12139673531055446,90.05294342041016,41.0,-122.75294398,49.19051934,-0.44320484995841974,0.5499075253804525,-0.42680000762144726,0.5607479562362035,1.5184246897697449,1.3173166712125142,0.057617434610923134,-4.91659993827343,45.816488933563235,-2.5995149686932564,-0.4600578760941668,3.2136767764886223,-1.2409027724837265,-260.31139488220214,141.04968795776367,-135.95771331787108,-4.224636663993199,0.05982669194539388,-4.188595334688823,-3.8986059427261353,-9.374780178070068,-6.6507508754730225,-0.4590855920726123,3.209188195069631,-1.2430344166855019,0.30322920717298985,-9.418861707051596,-2.526869058609009
16.0,-1.4007483571767807,-7.902396400769551,-4.7326542511582375,0.0,0.0,1.0236455202102661,18.369000244140626,0.12252306193113323,90.0476287841797,41.0,-122.75294096,49.19051938,-0.4675285071134567,0.6510514318943024,-0.398966242869695,0.444022461771965,2.2544720570246377,1.3026485641797383,-0.40449415644009906,0.8454599440097809,46.522258567810056,-3.5020099610090254,-0.4621195566336003,2.8974993030230203,-1.2052498577783506,-254.54933395385743,141.75545654296874,-136.8602081298828,2.7968741059303284,2.9553101857503257,-0.5072309573491415,1.142572820186615,-6.461119651794434,-2.685345242420832,-0.4611523497927313,2.89298144976298,-1.2073751514156659,-1.6771026651064556,-9.400684674580893,-2.2428277730941772
16.1,-0.6809823336079717,-8.97762127717336,-5.9933976121246815,0.0,0.0,1.025719165802002,18.297000122070312,0.12364938855171198,90.04231414794921,41.0,-122.75293794,49.19051942,-0.5017397403717041,0.6924777527650198,-0.35575386385122937,0.37552425265312195,2.484035770098368,1.2965740164120991,-0.4413014203310013,2.1758699387311933,46.46278371810913,-4.0284399256110195,-0.15467616681902047,1.4333062153309584,-0.44422629475593567,-253.21892509460451,141.69598121643065,-137.38663749694825,2.73825404047966,0.5873680114746094,-3.7773801485697427,0.5947161316871643,-8.81186850865682,-5.530311624209086,-0.15371532887608436,1.4288138182212908,-0.446357953051726,-2.166339417298635,-9.383491357167562,-1.817644973595937
16.2,0.0387836899608374,-10.05284615357717,-7.2541409730911255,0.0,0.0,1.0277928113937378,18.225,0.12477571517229075,90.03699951171875,41.0,-122.75293492,49.19051946,-0.5009103119373322,0.6533929380503568,-0.33937397870150476,0.4453121694651517,2.0019174705852163,1.2701809189536355,-0.05478470687839118,3.506279933452606,46.4033088684082,-4.554869890213013,0.1527672229955594,-0.030886872361103695,0.3167972682664792,-251.88851623535157,141.6365058898926,-137.91306686401367,-0.49697873809120874,-5.668933521617543,-3.907289136539806,-1.407741068777713,-14.973250822587447,-6.38432269746607,0.15372169204056263,-0.03535381332039833,0.3146592453122139,-0.9335637769915841,-9.288572138006037,-2.5417470281774346
16.3,-2.553739994764328,-19.335681915283203,-3.4916067838668825,0.0,0.0,1.0298664569854736,18.152999877929688,0.1259020417928695,90.03168487548828,41.0,-122.7529319,49.1905195,-0.4816077475746473,0.5637096600099043,-0.3386722419298056,0.5548571433984872,1.3987608646804637,1.1864594808130553,0.3257374457281196,-5.253319896757603,46.596679306030275,1.7153199553489684,1.450438416004181,-2.6409231662750243,2.3959661960601806,-260.6481109619141,141.8298782348633,-131.64288024902345,-2.6445933571367553,-3.7590744350895737,-1.3183271036003577,-1.5236615483846627,-12.743905939839102,-4.171772971523531,1.4514157950878144,-2.6453824758529665,2.3938587427139284,1.0981303909511275,-8.969086321917448,-2.918159353010582
16.4,-2.40488646676143,-11.946530933181444,-2.1533808482189976,0.0,0.0,1.020148754119873,18.047999954223634,0.12970170676708218,90.04709014892578,41.0,-122.7529273,49.19051908,-0.4623051832119624,0.4740263819694519,-0.3379705051581065,0.6644021173318228,0.7956042587757111,1.102738042672475,0.7062595983346304,-11.256329686194658,45.59932918548584,-0.06771001759916562,0.939715633665522,-3.326950288812319,1.601472311777373,-266.65112457275393,140.832527923584,-133.4259086608887,-4.7922079761823015,-1.8492153485616045,1.270634929339091,-1.6395820279916127,-10.51456105709076,-1.959223245580991,0.9406688240667185,-3.3314134240150453,1.5993559382855893,3.1298245588938394,-8.649600505828857,-3.2945716778437295
16.5,-2.256032938758532,-4.557379951079686,-0.8151549125711123,0.0,0.0,1.0104310512542725,17.943000030517577,0.13350137174129484,90.06249542236328,41.0,-122.7529227,49.19051866,-0.38254889845848083,0.305549810330073,-0.38024047513802844,0.7830422818660736,0.3455410699049632,0.981104850769043,0.7227486968040466,-17.259339475631712,44.6019790649414,-1.8507399905472994,0.428992851326863,-4.012977411349614,0.8069784274945656,-272.6541381835938,139.83517761230468,-135.2089370727539,-8.05797020594279,9.422688007354736,2.414510409037272,-2.827020267645518,1.368694583574931,0.458125834663709,0.4299218530456225,-4.017444372177124,0.8048531338572502,5.2081483999888105,-8.03824814160665,-2.0210980772972107
16.6,1.3095718448360762,-7.957954796031117,-0.5287639275193214,0.0,0.0,1.0007133483886719,17.838000106811524,0.13730103671550747,90.07790069580078,41.0,-122.75291809999999,49.190518239999996,-0.3264028827349345,0.30335085093975067,-0.44722500443458557,0.7743072311083475,0.41973687211672467,1.0980311234792073,0.5321155140797297,-14.394169652462004,45.61091890335083,-2.6467899734154345,0.30291916569694877,-1.7393687988320985,0.08933903804669774,-269.78896636962895,140.8441162109375,-136.00498657226564,3.903953472773234,-2.201035261154175,1.9238994121551514,8.115556955337524,-10.839885314305624,0.08354942003885905,0.3038672739639878,-1.7438293670614562,0.08721372981866193,4.188802123069763,-8.623104890187582,-1.9050633907318115
16.7,4.875176628430684,-11.358529640982548,-0.24237294246753058,0.0,0.0,0.9909956455230714,17.733000183105467,0.14110070168972014,90.09330596923829,41.0,-122.75291349999999,49.19051782,-0.3362178423187949,0.3332690813324668,-0.44590784202922473,0.7559528730132363,0.5045096196911552,1.126185330477628,0.5115739648992365,-11.528999829292298,46.619858741760254,-3.4428399562835694,0.17684548006703457,0.5342398136854172,-0.6283003514011701,-266.9237945556641,141.85305480957032,-136.80103607177733,-3.9795662706548516,-2.1119083491238686,0.31316979364915326,-0.16711695627732712,-10.88478704338724,-1.7652504674412988,0.17781269488235318,0.529785638054212,-0.6304256742199262,3.789647860960527,-8.757133483886719,-2.1431337053125556
16.8,-2.406700921058655,-9.641041469573974,-3.4212577819824217,0.0,0.0,0.9812779426574708,17.628000259399414,0.1449003666639328,90.10871124267578,41.0,-122.7529089,49.1905174,-0.37477677157430933,0.43115136365998874,-0.4501901521827235,0.6686639081348072,1.0038533269455938,1.2205709977583452,0.24228661608966912,-11.05685977935791,47.20301856994629,-2.4070599377155304,0.25036310106515874,3.318586540222168,-1.3805859953165054,-266.45165100097654,142.43621826171875,-135.7652587890625,-2.657972781382727,-1.1013280117150512,-1.5890749114932436,-0.6037481669900996,-10.208248198258154,-3.855657529424537,0.2513099618256093,3.314127230644226,-1.3827240407466888,2.031423174098811,-9.091174999872845,-2.331296118822965
16.9,-1.3606785564372939,-8.815562423070272,-3.5223944208274283,0.0,0.0,0.982759177684784,17.586000061035158,0.1576299875974655,89.82023162841797,41.0,-122.75290405999999,49.19051682,-0.4133357008298238,0.5290336459875107,-0.45447246233622235,0.5813749432563782,1.5031970342000325,1.3149566650390625,-0.027000732719898234,-4.4112149134278305,47.79746398925781,-2.796849935874343,-0.10015136897563942,3.1387452642122904,-1.443515296621869,-259.8060081481933,143.03066368103026,-136.1550479888916,-1.3363792921106021,-0.09074767430623372,-3.4913196166356406,-1.040379377702872,-9.531709353129068,-5.946064591407776,-0.099213423145314,3.134282124042511,-1.4456533322110772,0.27319848723709583,-9.425216515858969,-2.519458532333374
17.0,-0.3146561918159326,-7.990083376566569,-3.6235310596724353,0.0,0.0,0.9842404127120972,17.543999862670898,0.17035960853099819,89.53175201416016,41.0,-122.75289921999999,49.19051624,-0.44046273330847424,0.6413516104221344,-0.4248499572277069,0.46157750487327576,2.274540146191915,1.280303378899892,-0.5058549145857493,2.234429952502251,48.39190940856933,-3.1866399340331553,-0.45066583901643753,2.958903988202413,-1.5064445979272325,-253.16036529541014,143.6251091003418,-136.5448371887207,2.2544721364974976,2.8805018266042075,1.1125507752100627,0.4565306007862091,-6.479564269383748,-1.1717852093279362,-0.44973680811623734,2.954437017440796,-1.5085826236754656,-1.8207430243492126,-9.344320933024088,-2.3490494092305503
17.1,-0.5745765576421311,-9.348982305237742,-5.615293036751224,0.0,0.0,0.9857216477394104,17.50199966430664,0.1830892294645309,89.24327239990234,41.0,-122.75289438,49.190515659999996,-0.47503116230169934,0.6815592050552368,-0.4053469051917394,0.38112054765224457,2.6605842113494873,1.2751890818277996,-0.7133270800113678,3.7295399248600005,48.24245920181274,-4.266339924558997,-0.05926781926642766,1.4339980655208682,-0.43819631778663304,-251.6652549743652,143.47565879821778,-137.6245372772217,1.7383561531702678,-0.6230456034342448,-5.829689383506775,-0.8190432588259379,-9.975976626078287,-7.298408190409343,-0.05833126347737777,1.429536314765838,-0.44032740279693483,-2.5802008708318076,-9.337185859680176,-1.5334322253863018
17.2,-0.8344969234683297,-10.707881233908914,-7.607055013830012,0.0,0.0,0.9872028827667235,17.45999946594238,0.1958188503980636,88.95479278564453,41.0,-122.75288954,49.19051508,-0.48092843998562207,0.6263390562751077,-0.3569886278022419,0.48956112699075177,1.815672679380937,1.2556136738170276,0.02002452110702341,5.22464989721775,48.09300899505615,-5.346039915084839,0.3321302004835822,-0.0909078571606766,0.6300519623539664,-250.1701446533203,143.32620849609376,-138.70423736572266,-0.9976073286750098,-6.516451835632324,-2.108526359904896,-1.450757468288595,-15.779740767045455,-4.831054459918629,0.33307428116148174,-0.09536438790911977,0.6279278180815957,-0.47595159167593176,-9.247543768449264,-2.787241578102112
17.3,-2.013261134425799,-19.23031775156657,-2.392124742269516,0.0,0.0,0.9886841177940368,17.417999267578125,0.2085484713315963,88.66631317138672,41.0,-122.7528847,49.1905145,-0.45687739257559634,0.5317767625956824,-0.3596585885141835,0.5933090032953204,1.262037611820481,1.1734812801534478,0.3430138046317028,-6.8905597686767575,48.677999114990236,1.4139799773693085,0.9911034218190858,-2.5294402639071145,2.188271999359131,-262.2853576660156,143.91119689941405,-131.94421844482423,-2.973084717085867,-1.913871804873149,-0.30301228707486927,-1.4421786520855897,-10.854527799469052,-3.1631347541556214,0.9920451546398303,-2.533945381641388,2.1861340204874673,1.5081045629851744,-8.924910841566144,-2.924835940202077
17.4,-1.5703895321736732,-10.922562271356583,-1.396560963243246,0.0,0.0,0.9886841177940368,17.407570702689036,0.21548034037862498,88.50923156738281,41.0,-122.75288267142857,49.19051438571429,-0.43282634516557056,0.4372144689162572,-0.36232854922612506,0.6970568795998892,0.708402544260025,1.091348886489868,0.6660030881563822,-12.323219704627991,47.52875919342041,-0.22447998821735382,0.7690029937075451,-2.985272983709971,1.404722798615694,-267.71801528930666,142.76195602416993,-133.58267784118652,-4.948562105496724,2.688708225886027,1.5025017857551575,-1.4335998358825843,-5.92931483189265,-1.4952150483926137,0.769951091768841,-2.9897717498242855,1.4025848017384608,3.4921607176462808,-8.602277914683023,-3.0624303023020425
17.5,-1.1275179299215476,-2.6148067911465964,-0.40099718421697617,0.0,0.0,0.9886841177940368,17.397142137799943,0.22241220942565368,88.3521499633789,41.0,-122.75288064285714,49.19051427142857,-0.3682548503081004,0.2967366923888524,-0.39073096215724945,0.7887914081414541,0.33557382225990295,0.9902357955773672,0.6912496785322825,-17.755879640579224,46.37951927185058,-1.8629399538040161,0.5469025655960044,-3.4411057035128274,0.6211735978722572,-273.15067291259766,141.6127151489258,-135.22113723754882,-5.968493739763896,8.782379786173502,2.6906850337982178,-0.7759724259376526,0.6685945192972819,0.8224330842494965,0.5478570288978517,-3.445598118007183,0.6190355829894543,5.169719854990642,-8.098040262858072,-1.9329654574394226
17.6,1.763397058584925,-8.132902762203505,-0.7073419368402525,0.0,0.0,0.9886841177940368,17.386713572910853,0.22934407847268237,88.195068359375,41.0,-122.7528786142857,49.19051415714286,-0.3053939044475555,0.31687643130620313,-0.45091970761617023,0.7756950855255127,0.5105144282182058,1.1049556533495586,0.4284696926673253,-14.242279732227326,47.44518909454345,-1.6265649566426874,0.3452834941475003,-1.4342375359300412,-0.04366645741869102,-269.63707275390624,142.67838630676272,-134.98476295471193,7.946873903274536,-6.559590816497804,-0.881888190905253,11.932109196980795,-15.24058485031128,-3.087439010540644,0.3462258028924804,-1.4387189512225715,-0.04580447196283122,3.962433934211731,-8.665248394012451,-2.270264287789663
17.7,4.6543120470913975,-13.650998733260415,-1.0136866894635288,0.0,0.0,0.9886841177940368,17.376285008021764,0.23627594751971104,88.0379867553711,41.0,-122.75287658571429,49.19051404285714,-0.31999865716153925,0.3727259717204354,-0.4544609216126529,0.7371188347989862,0.7361313104629517,1.1536459706046365,0.3162447447803887,-10.728679823875428,48.51085891723633,-1.3901899594813585,0.1436644226989963,0.5726306316527453,-0.7085065127096393,-266.1234725952148,143.74405746459962,-134.748388671875,-7.202352827245539,-0.2562249790538441,0.8757688890803944,-4.139800656925548,-9.143464782021262,-1.6833507289940661,0.1445945768871091,0.5681602155620401,-0.7106445269151167,3.039750863205303,-8.87149464000355,-2.6238330602645874
17.8,-4.254837473233541,-6.932705084482829,-4.498207449913025,0.0,0.0,0.9886841177940368,17.365856443132675,0.24320781656673973,87.88090515136719,41.0,-122.75287455714286,49.19051392857143,-0.3666529757055369,0.4769254218448292,-0.4574525444345041,0.6314382650183908,1.3543527324994407,1.2317276985356302,-0.03855923077825346,-5.841359782218933,49.56127853393555,0.7783599868416786,-0.34378986976419884,3.3435200254122415,-1.8278615375359852,-261.2361541748047,144.7944763183594,-132.5798370361328,-2.9563073344302904,0.2195341442570542,-0.343361522212173,-1.9037985449487511,-8.946210969578136,-2.8053352867789343,-0.34284811707523954,3.3390403588612876,-1.8299995760122936,1.0297074151987382,-9.149999950871322,-2.5266872247060137
17.9,-1.9334754813462496,-7.469345390796661,-4.270166491468748,0.0,0.0,0.9886841177940368,17.35542787824358,0.2501396856137684,87.72382354736328,41.0,-122.75287252857143,49.19051381428571,-0.4133072942495346,0.581124871969223,-0.4604441672563553,0.5257576952377955,1.9725741545359294,1.309809426466624,-0.39336320633689564,-0.36752493977546674,49.42524852752686,-1.4472249679267408,-0.21655809528844353,3.15924870967865,-1.3569862392420569,-255.76231918334963,144.65844612121583,-134.8054225921631,1.289738158384959,0.6952932675679525,-1.5624919335047405,0.3322035670280457,-8.74895715713501,-3.9273198445638022,-0.2156099771552059,3.1547753860553107,-1.3591242780288062,-0.980336032807827,-9.428505261739096,-2.4295413891474404
18.0,0.3878865105410417,-8.005985697110495,-4.04212553302447,0.0,0.0,0.9886841177940368,17.344999313354492,0.2570715546607971,87.56674194335938,41.0,-122.7528705,49.1905137,-0.4492519398530324,0.656404991944631,-0.4138419230779012,0.44142574071884155,2.3503952026367188,1.273863156636556,-0.5255833864212036,5.1063099026679994,49.289218521118165,-3.67280992269516,-0.0893263208126882,2.9749773939450583,-0.8861109409481287,-250.28848419189453,144.52241592407228,-137.03100814819337,2.501278499762217,2.052687406539917,-1.8633168935775757,0.48903317997852963,-7.294121026992798,-4.027718623479207,-0.08837183723517228,2.970510413249334,-0.8882489800453186,-2.0350467960039773,-9.331063270568848,-2.2291152079900107
18.1,-0.2904130017779994,-10.248722251617547,-5.699021471720753,0.0,0.0,0.989701336622238,17.326999473571778,0.2691923022270203,87.35772323608398,41.0,-122.7528672,49.19051356,-0.4758093595504761,0.6972777724266053,-0.3764512658119201,0.38160600066184996,2.5442386627197267,1.2559970378875733,-0.5500545561313629,4.093404920399189,49.35997886657715,-3.3004049376584588,0.3441872772402183,1.0727459008833677,0.1861912669952619,-251.30139045715333,144.5931770324707,-136.65860290527343,2.5998467206954956,-1.1331209182739257,-6.900596761703492,0.05766701698303223,-10.42469081878662,-8.73320426940918,0.3451434958584617,1.0682771830170443,0.18405322798273782,-2.5649811267852782,-9.275824737548827,-1.897321105003357
18.2,-0.9687125140970404,-12.4914588061246,-7.355917410417036,0.0,0.0,0.9907185554504394,17.308999633789064,0.2813130497932434,87.1487045288086,41.0,-122.7528639,49.190513419999995,-0.4853716790676117,0.5987915645043055,-0.33180472006400424,0.5324178685744604,1.4927829553683598,1.2085340023040771,0.301907517015934,3.080499938130379,49.43073921203613,-2.927999952621758,0.7777008752931248,-0.8294855921783231,1.2584934749386527,-252.3142967224121,144.66393814086913,-136.28619766235352,-1.595472385485967,-6.296543916066487,-0.919383923212687,-1.0790633261203766,-15.400904337565104,-4.02836678425471,0.7786588289520957,-0.833956047215245,1.2563554360107942,0.4936075806617737,-9.08861525853475,-3.1736963391304016
18.3,-0.398504634698232,-16.543975671132404,-2.0316060880819955,0.0,0.0,0.9917357742786407,17.290999794006346,0.2934337973594665,86.9396858215332,41.0,-122.7528606,49.19051328,-0.45056317249933875,0.4893077810605367,-0.34222577636440593,0.6385121817390125,1.0163634990652402,1.1066825290520987,0.508047132442395,-12.78193974494934,48.50231857299805,1.9861599683761597,0.7311293445527554,-3.5199328859647117,1.7779232958952587,-268.17673645019534,143.7355163574219,-131.37203826904297,-4.923887237906456,0.8378190994262695,-0.027273158232370864,-2.3817060093084974,-7.815257822473844,-2.955111041665077,0.7320710867643356,-3.524387021859487,1.7757852375507355,2.5193797647953033,-8.63733168443044,-2.992551366488139
18.4,0.020687982439994868,-8.857132663639883,-0.8093971734245617,0.0,0.0,0.992752993106842,17.272999954223632,0.3055545449256897,86.73066711425781,41.0,-122.7528573,49.19051314,-0.41575466593106586,0.3798239976167679,-0.3526468326648076,0.7446064949035645,0.5399440427621206,1.00483105580012,0.7141867478688558,-16.037204670906068,47.585488891601564,-0.7127849649637936,0.7238053195178509,-2.822808322807153,0.7059947699308395,-271.43199996948243,142.81868667602538,-134.07098236083985,-8.252302090326944,7.972182114919026,0.8648376067479452,-3.684348692496618,-0.22961130738258362,-1.8818552990754445,0.7247534338384867,-2.827268881102403,0.7038440195222695,4.545151948928833,-8.186048110326132,-2.811406393845876
18.5,0.4398805995782218,-1.1702896561473608,0.412811741232872,0.0,0.0,0.9937702119350433,17.255000114440918,0.31767529249191284,86.52164840698242,41.0,-122.752854,49.190512999999996,-0.35220737258593243,0.28770865003267926,-0.4168213407198588,0.7860864897569021,0.3250393196940422,1.0308691958586376,0.6527747263511022,-19.292469596862794,46.66865921020508,-3.411729898303747,0.7164812944829464,-2.1256837596495948,-0.3659337560335795,-274.68726348876953,141.9018569946289,-136.76992645263672,-0.276003360748291,6.191590070724487,4.4726795355478925,4.609573473532994,-2.142074773708979,2.8366912404696145,0.7174357809126377,-2.1301507403453193,-0.3680971985061963,4.862775365511577,-8.317919731140137,-1.7007018327713013
18.6,0.9716673281156656,-7.95291773238304,-0.8311002572829072,0.0,0.0,0.9947874307632446,17.237000274658204,0.32979604005813595,86.31262969970703,41.0,-122.7528507,49.19051286,-0.2977664113044739,0.31438828706741334,-0.4667953133583069,0.7704059958457947,0.5144385576248169,1.1365296840667725,0.40450629591941833,-14.208729708194733,47.99144411087036,-3.143939907476306,0.2761695095422593,-0.713899013445233,-0.4488043320845022,-269.60352554321287,143.22464256286622,-136.50213699340821,7.717137193679809,-9.479234504699708,-1.1725471258163451,11.439008331298828,-18.313707542419433,-3.259024429321289,0.2771326742050323,-0.7183468502127763,-0.4509550579682444,3.69906964302063,-8.818727684020995,-2.1511908769607544
18.7,1.5034540566531094,-14.735545808618719,-2.0750122557986863,0.0,0.0,0.9958046495914459,17.21900043487549,0.34191678762435906,86.10361099243164,41.0,-122.7528474,49.19051272,-0.3599206507205963,0.4162667766213417,-0.4671705861886342,0.6817357391119003,0.9467927639683088,1.2346101800600688,0.2403113517599801,-9.124989819526672,49.314229011535645,-2.8761499166488647,-0.1641422753984278,0.6978857327591289,-0.531674908135425,-264.51978759765626,144.54742813110352,-136.23434753417968,-7.231203645467758,-0.8673415581385294,-1.0303925971190135,-5.1409794588883715,-10.053494254748026,-3.256282632549604,-0.16317043250257315,0.6934570399197665,-0.5338129174302925,2.067422814667225,-9.17040753364563,-2.290603518486023
18.8,-3.570191169778506,-8.309176325798035,-5.607280770937602,0.0,0.0,0.9968218684196472,17.201000595092772,0.35403753519058223,85.89459228515625,41.0,-122.7528441,49.190512580000004,-0.391837939620018,0.5171888309220474,-0.4554932092626889,0.585585318505764,1.562829396377007,1.2609685162703197,-0.12891530129127207,-1.6469999849796295,49.954118728637695,-2.8999399304389955,-0.7803803632656733,3.9458840688069663,-2.1869229873021445,-257.04179229736326,145.18731842041015,-136.25813751220704,-1.8061206887165708,0.9089283347129821,-0.4313548356294632,-1.5316059049218893,-8.379390815893808,-2.720414993663629,-0.7794640536109606,3.941404382387797,-2.189061085383097,0.2517133392393589,-9.272573987642925,-2.353773633639018
18.9,-1.0146066858574296,-8.015244337645445,-4.6990822020805245,0.0,0.0,0.9978390872478485,17.183000755310058,0.3661582827568054,85.68557357788086,41.0,-122.7528408,49.19051244,-0.4237552285194397,0.6181108852227529,-0.4438158323367436,0.4894348978996277,2.1788660287857056,1.2873268524805705,-0.49814195434252423,1.8949649542570115,49.82815361022949,-3.692634934186936,-0.36217367739388434,3.141346770705599,-1.3381963278533835,-253.49982986450195,145.06135330200195,-137.05083236694338,3.618962268034617,2.6851982275644937,0.16768292586008707,2.0777676490445933,-6.705287377039592,-2.184547354777654,-0.3612226670410371,3.136885597850337,-1.3403343872138946,-1.563996136188507,-9.374740441640219,-2.4169437487920127
19.0,1.5409777980636468,-7.7213123494928535,-3.790883633223447,0.0,0.0,0.9988563060760498,17.165000915527344,0.3782790303230285,85.47655487060547,41.0,-122.7528375,49.1905123,-0.464401912689209,0.6705896377563476,-0.3990761637687683,0.41813130378723146,2.4238775730133058,1.2760275363922118,-0.5303293943405152,5.4369298934936525,49.70218849182129,-4.485329937934876,0.0560330084779046,2.3368094726042314,-0.4894696684046225,-249.95786743164064,144.93538818359374,-137.8435272216797,3.0951258182525634,0.38405790328979494,-3.6049066543579102,0.9468399452045559,-8.974759960174561,-5.576353454589844,0.05701871952888642,2.3323668133128774,-0.4916076890446923,-2.171087408065796,-9.343072700500489,-2.0361603260040284
19.1,0.15575781820172607,-11.13005136721062,-5.137168157958623,0.0,0.0,0.9998963713645935,17.138900756835938,0.3879859179258346,85.2976791381836,41.0,-122.75283427,49.19051229,-0.47573451697826385,0.6704799433549246,-0.3932127108176549,0.41080373525619507,2.4374253352483115,1.2904039422671,-0.5192264666159948,2.8355849601328376,49.735128784179686,-3.607234951108694,0.4601654891827793,0.15945260480723578,0.5224419311253412,-252.55921134948733,144.96832847595215,-136.96543235778807,1.7668421069780986,-0.48389514287312824,-8.58971365292867,-0.29332015415032703,-9.88365364074707,-10.431310971577963,0.46114831506697973,0.1549914220178672,0.520303883794413,-2.0829637249310813,-9.384013334910074,-1.9063107371330261
19.2,-1.2294621616601944,-14.538790384928385,-6.483452682693799,0.0,0.0,1.0009364366531373,17.11280059814453,0.3976928055286407,85.11880340576172,41.0,-122.75283104,49.19051228,-0.43584846953550976,0.5279023423790932,-0.36325129369894665,0.6199759319424629,1.1852616965770721,1.162280152241389,0.3637419219594449,0.23424002677202224,49.76806907653808,-2.7291399642825125,0.864297969887654,-2.0179042629897594,1.5343535306553047,-255.160555267334,145.00126876831055,-136.08733749389648,-3.5544554193814597,-5.9475821654001875,1.1785504917303722,-1.894517332315445,-14.867055599888166,-2.0986051658789315,0.865277910605073,-2.0223839692771435,1.5322154566335182,1.6371366480986278,-8.903728246688843,-3.3418691754341125
19.3,-1.6916258881489437,-10.493524303038916,-1.8554345108568668,0.0,0.0,1.0019765019416809,17.086700439453125,0.4073996931314468,84.93992767333984,41.0,-122.75282781,49.19051227,-0.3930405527353287,0.410120639950037,-0.37573419014612836,0.7095842051009338,0.7707870068649451,1.0678807944059372,0.49974243719285977,-13.998279666900634,48.647499084472656,0.7100399911403656,0.769002969066302,-3.8613301515579224,1.5546266039212544,-269.39307556152346,143.88069610595704,-132.64815673828124,-5.710626552502314,2.1628042459487906,1.7733444819847741,-2.2569800938169164,-6.315531281133493,-0.8508976995944977,0.769919291138649,-3.8657843669255576,1.5524631142616272,3.4308450768391294,-8.46259041627248,-2.688955684502919
19.4,0.18935473782546608,-6.240354585150878,-0.6547179592942649,0.0,0.0,1.0030165672302247,17.06060028076172,0.4171065807342529,84.76105194091797,41.0,-122.75282458,49.19051226,-0.3502326359351476,0.29233893752098083,-0.38821708659331006,0.7991924782594045,0.356312317152818,0.9734814365704855,0.6357429524262747,-15.37260971069336,48.143639373779294,-1.6341899663209916,0.6220655904123278,-2.6872633329846645,0.34907594825508004,-270.76740341186525,143.37683715820313,-134.99238700866698,-7.866797685623169,10.27319065729777,2.3681384722391763,-2.6194428553183875,2.23599303762118,0.39680976668993634,0.6229957809502429,-2.69173954675595,0.34692516931417305,5.224553505579631,-8.02145258585612,-2.0360421935717263
19.5,2.0703353637998756,-1.9871848672628403,0.5459985922683369,0.0,0.0,1.0040566325187683,17.034500122070312,0.426813468337059,84.5821762084961,41.0,-122.75282135,49.190512250000005,-0.29829627871513364,0.2775011003017425,-0.451361721754074,0.7930137157440186,0.382912603020668,1.078151035308838,0.48375014066696165,-16.746939754486085,47.63977966308594,-3.9784199237823485,0.4751282117583535,-1.5131965144114061,-0.8564747074110941,-272.14173126220703,142.87297821044922,-137.33661727905275,3.3312400341033936,1.482935810089111,2.5857970476150514,7.7480793476104735,-7.089215469360352,0.8671588957309723,0.47607227076183667,-1.5176947265863419,-0.858612775633281,4.394037914276123,-8.556406021118164,-1.7833516120910644
19.6,0.9167727706107227,-7.441352131466071,-0.6152114698832686,0.0,0.0,1.005096697807312,17.008399963378906,0.4365203559398651,84.40330047607422,41.0,-122.75281812,49.190512240000004,-0.27300214270750683,0.2790087163448334,-0.4660178671280543,0.7938128113746643,0.4313931465148926,1.1027384201685588,0.3945263723532359,-12.947554779052735,48.68684434890747,-2.897194950282574,0.2143639576282691,0.27160886359034153,-0.6040965502827682,-268.34234924316405,143.92004280090333,-136.25539283752443,1.781697670618693,-6.203593969345093,1.8041340112686157,5.941478252410889,-14.896318316459656,-0.08165510495503729,0.21530685932234384,0.2671262783308823,-0.6062346020798115,4.13697874546051,-8.676979223887125,-1.950502594312032
