time,TotalAcceleration_z,TotalAcceleration_y,TotalAcceleration_x,Location_bearingAccuracy,Location_speedAccuracy,Location_verticalAccuracy,Location_horizontalAccuracy,Location_speed,Location_bearing,Location_altitude,Location_longitude,Location_latitude,Orientation_qz,Orientation_qy,Orientation_qx,Orientation_qw,Orientation_roll,Orientation_pitch,Orientation_yaw,Magnetometer_z,Magnetometer_y,Magnetometer_x,GyroscopeUncalibrated_z,GyroscopeUncalibrated_y,GyroscopeUncalibrated_x,MagnetometerUncalibrated_z,MagnetometerUncalibrated_y,MagnetometerUncalibrated_x,Accelerometer_z,Accelerometer_y,Accelerometer_x,AccelerometerUncalibrated_z,AccelerometerUncalibrated_y,AccelerometerUncalibrated_x,Gyroscope_z,Gyroscope_y,Gyroscope_x,Gravity_z,Gravity_y,Gravity_x
3.1,0.819940522313118,-7.013961394627889,-2.876073122024536,0.0,0.0,12.538587535511363,72.46070750843394,0.9121219548312101,61.804628823020245,332.1072631835938,-122.91777191818183,49.27913450545455,-0.03185562318421113,0.13185687817035197,-0.6038583433537772,0.7785187368140076,0.5689092723998439,1.26832759922201,-0.33245456436028087,12.870999813079834,48.706058502197266,7.051599872112274,-1.3820826172828675,0.5788864612579345,-2.023399519920349,-241.6575958251953,142.02385406494142,-124.95239715576172,-0.041429259108774596,-0.5425440163323372,-1.0313205389362392,1.4219348678986232,-6.14626407623291,-3.0625139276186624,-1.3616441190242767,0.3556763157248497,-1.8024851828813553,2.0161742120981216,-9.315454403559368,-1.6893192258677585
3.2,2.606023144721985,-16.22537155151367,-5.014279532432556,0.0,0.0,12.808960325067693,73.28605291193182,0.941545243696733,63.79832652698864,332.32362670898436,-122.91776370909092,49.27913259272727,-0.032794821730931255,0.052978750929469236,-0.6312280346949896,0.7696442504723867,0.245513560793673,1.3615515232086182,-0.12339225846032303,16.273579692840578,48.1948787689209,1.1272799849510193,-1.3851369520028431,-2.4154629906018577,0.3269401661430796,-238.25501861572266,141.51267852783204,-130.87671813964843,0.2042304819280451,-3.567745902321555,-1.2972339229150252,1.6387844284375508,-15.466009140014648,-4.104687839746475,-1.4383738398551942,-2.6794993400573732,0.3831346869468689,1.7773258686065674,-9.605782508850098,-0.4206885650161315
3.3,1.460917890071869,-10.630613009134928,1.0288140202562015,0.0,0.0,13.079333114624022,74.11139831542968,0.9709685325622559,65.79202423095704,332.539990234375,-122.9177555,49.27913068,0.0016755725708208005,0.013121056489762868,-0.6070432091752689,0.7903589139382045,0.11968242292447637,1.3038134455680848,-0.10372938297999403,11.698579692840577,49.45757904052734,0.6307399809360504,-0.055283301509916775,-1.8025360604127247,1.0302751461664836,-242.83001556396485,142.77537536621094,-131.37325744628907,-0.08979975454735034,-1.2635371179291695,-1.4383020170710303,2.1351953943570456,-10.324930191040039,0.8102695445219675,-0.09580403286963701,-1.8890753090381622,1.0359002153078716,2.427306592464447,-9.458494583765667,-0.24083678314292972
3.4,2.4944926400979357,-9.236195643742878,0.11318548768758774,0.0,0.0,13.349705904180352,74.93674371892754,1.0003918214277787,67.78572193492543,332.7563537597656,-122.91774729090909,49.27912876727273,0.03614596687257286,-0.0267366379499435,-0.5828583836555481,0.8110735774040222,-0.006148714944720261,1.2460753679275514,-0.08406650749966502,8.354254812002182,49.626853942871094,2.4894099682569504,0.20250183331187477,-1.3221402958487019,0.758379947281245,-246.17434005737306,142.94465103149415,-129.5145872116089,-0.3838299910227458,1.040671666463216,-1.5793701112270355,2.794753409696348,-9.034704706885599,0.10377508018052939,0.18047250201925635,-1.3466969709843397,0.7432957521329324,3.0772873163223267,-9.311206658681234,-0.060985001269727925
3.5,3.528067390124003,-7.84177827835083,-0.8024430448810259,0.0,0.0,13.620078693736682,75.76208912242542,1.0298151102933017,69.77941963889383,332.97271728515625,-122.91773908181818,49.27912685454545,0.09156941187878444,-0.0615870334828893,-0.5636024177074432,0.8185202727715174,0.007519406091887483,1.2055304249127705,-0.22823045899470643,5.0099299311637875,49.796128845214845,4.34807995557785,0.4602869681336663,-0.8417445312846791,0.48648474839600647,-249.51866455078124,143.11392669677736,-127.65591697692871,1.8428159554799397,1.123246153195699,-0.004796385765075684,3.45431142503565,-7.744479222731157,-0.6027193841609088,0.4567490369081497,-0.8043186329305172,0.4506912889579932,3.464650511741638,-9.175635576248169,-0.13481031457195056
3.6,6.251847346623738,-8.692227204640707,-0.3150550077358882,0.0,0.0,13.890451483293011,76.58743452592329,1.0592383991588246,71.77311734286222,333.1890808105469,-122.91773087272728,49.27912494181818,0.1022768051673968,-0.05947683355771001,-0.5779152040680249,0.806917833785216,0.07826562325741782,1.2383280297120411,-0.31079909205436707,4.385899901390076,49.33069915771485,6.694139814376831,0.23587033897638318,-0.2535345281163851,-0.33276884257793427,-250.14269561767577,142.64849548339845,-125.30985717773437,0.906534321380384,0.5383481130455479,-0.08720163052732294,6.155635913213094,-8.716056108474731,-0.18265212078889212,0.21352285146713257,-0.2294308071335156,-0.3755039572715759,3.1552255099469964,-9.272805376486346,-0.3203898829021703
3.7,6.3690956115722654,-9.437651538848877,-0.3324827253818512,0.0,0.0,14.160824272849341,77.41277992942116,1.0886616880243476,73.76681504683062,333.4054443359375,-122.91772266363637,49.27912302909091,0.11298419845600917,-0.05736663363253072,-0.5922279904286066,0.7953153947989146,0.14901184042294816,1.2711256345113118,-0.3933677251140277,6.9735198497772215,48.75729866027832,7.635979890823364,0.22991440196832016,-0.22411118447780606,-0.5879323482513428,-247.5550735473633,142.0750991821289,-124.36801681518554,-0.029747312719171696,-0.04654992710460316,-0.1696068752895702,5.666602837542693,-10.059924999872843,-0.4580261285106341,0.24706444442272185,-0.3118467092514038,-0.584934014081955,2.845800508152355,-9.369975176724521,-0.50596945123239
3.8,-0.14506490031878155,-9.399206678072611,-0.9617152661085129,0.0,0.0,14.431197062405673,78.23812533291903,1.1180849768898704,75.76051275079901,333.62180786132814,-122.91771445454546,49.27912111636364,0.06260844084123768,-0.018415220341800403,-0.621852878232797,0.7763235439856847,0.20687913323442136,1.3412124554316203,-0.32321246539553006,8.949919700622559,48.56087875366211,8.038579940795898,0.12548190696785844,1.3865368341406186,-0.27888544524709385,-245.57867736816405,141.87867736816406,-123.96541824340821,-1.7716575888070192,0.3503166184280858,-0.4476881031737183,-0.03459621469179793,-8.627820452054342,-0.9069795136650404,0.15653422226508454,1.3159310122330983,-0.23210333660244942,2.145953153118943,-9.521862709161008,-0.504195780239322
3.9,-0.6452894434332848,-9.396091083685556,-1.2856685724109411,0.0,0.0,14.701569851962002,79.06347073641689,1.1475082657553932,77.7542104547674,333.8381713867187,-122.91770624545455,49.27911920363636,0.01223268322646618,0.020536192948929922,-0.6514777660369873,0.7573316931724549,0.2647464260458946,1.4112992763519288,-0.2530572056770325,14.173959612846375,47.42902402877807,2.9194599963724617,-0.4716064746142806,1.488962055720163,-0.908473469712066,-240.35463676452636,140.74682235717773,-129.08453845977783,-3.513567864894867,0.7471831639607748,-0.7257693310578665,-0.6032949383511688,-9.049143099423612,-1.230939578716502,-0.4038837361149491,1.4680746247371037,-0.8986400309950113,1.4461057980855305,-9.673750241597494,-0.502422109246254
4.0,-1.145513986547788,-9.392975489298502,-1.6096218787133694,0.0,0.0,14.971942641518332,79.88881613991477,1.1769315546209163,79.7479081587358,334.0545349121094,-122.91769803636365,49.27911729090909,-0.08513396233320232,0.040770626277662786,-0.7264856497446696,0.6778123527765274,-2.0374498243133226,1.44611660639445,2.216372311115265,19.39799952507019,46.297169303894044,-2.199659948050976,-1.0686948561964198,1.5913872772997075,-1.538061494177038,-235.13059616088867,139.6149673461914,-134.20365867614746,0.6361225518313322,0.7567558288574219,-1.8876759382811459,-1.1719936620105396,-9.47046574679288,-1.5548996437679639,-0.9643016944949826,1.6202182372411091,-1.5651767253875732,-0.7013540870764039,-9.731859293850986,0.6429884867234663
4.1,0.12430714145302772,-7.914500331878662,-0.3494717448949814,0.0,0.0,15.242315431074662,80.71416154341263,1.206354843486439,81.74160586270419,334.2708984375,-122.91768982727274,49.27911537818182,-0.11290452730926595,0.06515398591396988,-0.7481468870784297,0.6467259790409695,-2.3509261112547284,1.3930862853021333,2.6050470390103078,28.508959579467774,41.412899017333984,-9.43425989151001,0.12538009385267893,1.0341439644495647,-1.2026154895623524,-226.01963500976564,134.73069458007814,-141.43825988769532,0.7513076103094852,-1.338944911956787,-2.93340524647272,0.05772685011227926,-8.141778469085693,-0.4532404982795319,0.11997393518686295,0.9454055905342102,-1.1276572465896606,-1.3426043916154993,-9.639658097064856,0.7902854463141975
4.2,-1.0270193989078205,-11.6676025390625,-3.5749767323335013,0.0,0.0,15.512688220630992,81.5395069469105,1.235778132351962,83.73530356667258,334.4872619628906,-122.91768161818182,49.27911346545455,-0.1406750922853296,0.08953734555027698,-0.7698081244121898,0.6156396053054116,-2.664402398196134,1.3400559642098167,2.993721766905351,31.12341938018799,38.38485908508301,-13.627399730682374,-0.5435937146345774,0.37580939133961994,-0.6093126262227694,-223.4051742553711,131.7026565551758,-145.631396484375,0.8664926687876383,-3.434645652770996,-3.9791345546642938,-0.799800972143809,-12.214960734049479,-3.818845272064209,-0.5957972407341003,0.40393464515606564,-0.6196718787153562,-1.9838546961545944,-9.547456900278727,0.9375824059049288
4.3,-1.2079766343037288,-14.296915849049887,-2.5083760718504586,0.0,0.0,15.783061010187321,82.36485235040837,1.265201421217485,85.72900127064098,334.70362548828126,-122.91767340909091,49.27911155272727,-0.12399631840261541,0.06487524946869319,-0.7251642549579793,0.6683759382276824,-1.9921278967098757,1.3898000726194093,2.2615951218388295,30.556119537353517,39.22421875,-13.522479629516601,0.9208793441454569,-0.3290782024463017,1.5949182311693828,-223.97247772216798,132.5420166015625,-145.52647705078124,-0.7677050729592642,-2.898317813873291,-1.3268010343114534,-1.2585050940513611,-14.638810539245606,-2.558525598049164,0.9299914240837097,-0.24426973145455122,1.4401148209969203,-0.5654346883917849,-9.601331869761148,0.9540935444335142
4.4,-1.4511472396552563,-12.430364606281122,0.3456880934536457,0.0,0.0,16.05343379974365,83.19019775390625,1.294624710083008,87.72269897460937,334.91998901367185,-122.9176652,49.27910964,-0.10731754451990123,0.040213153387109415,-0.6805203855037689,0.7211122711499532,-1.3198533952236176,1.439544181029002,1.5294684767723083,20.92391464766115,43.288648796081546,-13.882074642181397,0.15402133514483773,-0.8095017347597714,2.46836298252597,-233.60468101501465,136.6064468383789,-145.88607254028318,-2.4019028147061667,-2.361989974975586,1.3255324860413868,-1.3911422164489826,-12.835708935558795,0.37108690692111823,0.21080577435592818,-0.8138379432227035,2.380860003332297,0.8529853193710247,-9.65520683924357,0.9706046829620997
4.5,-1.6943178450067837,-10.563813363512358,3.19975225875775,0.0,0.0,16.32380658929998,84.01554315740411,1.3240479989485308,89.71639667857778,335.1363525390625,-122.9176569909091,49.27910772727273,-0.07239557709544893,-0.10158694411317504,-0.4961552197734515,0.853662446141243,-0.5052079260349274,0.9945789227883021,0.45950297514597577,11.291709757968784,47.353078842163086,-14.241669654846191,-0.6128366738557816,-1.289925267073241,3.341807733882557,-243.23688430786132,140.6708770751953,-146.24566802978515,-5.09491351517764,3.130497455596924,0.7060373262925581,-1.523779338846604,-11.032607331871986,3.300699411891401,-0.5083798753718535,-1.3834061549908558,3.3216051856676736,4.685115532441572,-8.183656215667725,2.3908343965357
4.6,1.3056436777114868,-0.18496522903442386,1.8886549174785614,0.0,0.0,16.59417937885631,84.84088856090197,1.3534712878140536,91.71009438254617,335.35271606445315,-122.91764878181819,49.27910581454545,-0.034238082145086716,-0.15029496806814813,-0.493905405316389,0.8502476262775334,-0.5808681967583569,0.9916170742927175,0.40769915914896765,-7.0845399618148805,50.08709945678711,-14.697339534759521,-0.042531489084164285,-1.9274325768152873,1.5729525685310364,-261.6131317138672,143.40489959716797,-146.7013366699219,-1.4935291174686318,-0.07870268821716309,0.9414846468152421,0.7819544871648153,-0.28464617207646375,1.790230135122935,-0.16652186438441272,-1.9213544487953187,1.460212278366089,4.4926876606363235,-8.18999942143758,2.7849056549144517
4.7,6.770990073680878,-7.216653386751811,2.1625134547551474,0.0,0.0,16.86455216841264,85.66623396439985,1.3828945766795766,93.70379208651457,335.56907958984374,-122.91764057272728,49.27910390181818,0.0039194128052755,-0.1990029920231212,-0.4916555908593265,0.8468328064138239,-0.6565284674817865,0.988655225797133,0.35589534315195953,-1.3456599175930024,50.91547889709473,-15.013319778442384,0.34689509868621826,-0.7417431175708771,-1.949856420358022,-255.87425231933594,144.2332794189453,-147.01731719970704,2.107855280240377,-3.28790283203125,1.1769319673379262,7.702097256978353,-9.006783723831177,2.4495524764060974,0.35412366812427837,-0.7034367918968201,-1.9745201071103413,4.300259788831075,-8.196342627207438,3.178976913293203
4.8,6.044967770576477,-15.752151091893515,6.549055894215901,0.0,0.0,17.13492495796897,86.49157936789771,1.4123178655450994,95.69748979048296,335.7854431152344,-122.91763236363637,49.27910198909091,-0.0017567131065086249,-0.185554838880445,-0.5127459778027101,0.8364367457953366,-0.6679397844003908,1.034201491059679,0.39680293337865313,4.076019954681397,52.222098922729494,-13.613979625701905,0.24862215854227543,-0.6868670384089152,0.40225477144122124,-250.45257568359375,145.53989868164064,-145.61797790527345,-1.2198981940746303,0.1112064520517988,-0.09772854546705889,5.846622705459595,-15.814404296875,7.287341213226318,0.271402341624101,-0.8129089313248793,0.3706933968157197,3.8685897787412005,-8.468356768290201,2.9570514857769012
4.9,1.906803117557006,-11.657442251841228,3.7290282795826593,0.0,0.0,17.4052977475253,87.31692477139559,1.4417411544106224,97.69118749445136,336.001806640625,-122.91762415454546,49.27910007636364,-0.00743283901829275,-0.17210668573776877,-0.5338363647460938,0.8260406851768494,-0.6793511013189951,1.079747756322225,0.4377105236053467,8.356694942712785,51.3796890258789,-15.236884593963623,-0.16678009021349927,0.7364165936455581,-1.1375213290818713,-246.1719005584717,144.69748840332034,-147.2408821105957,-4.547651668389638,3.510315736134847,-1.372389058272044,1.9460427053272724,-11.764382470647494,4.074154352645079,-0.15411273478248128,0.6845994618241534,-1.138155317930575,3.4369197686513266,-8.740370909372965,2.7351260582605996
5.0,-2.231361535462466,-7.56273341178894,0.9090006649494171,0.0,0.0,17.67567053708163,88.14227017489345,1.4711644432761453,99.68488519841975,336.2181701660156,-122.91761594545456,49.27909816363636,-0.1439261784156163,-0.06482698488980528,-0.7014776716629664,0.6918311069409052,-1.5486860871315002,1.2526982724666595,1.6621271918217342,12.637369930744171,50.53727912902832,-16.85978956222534,-0.582182338969274,2.1597002257000315,-2.677297429604964,-241.8912254333496,143.855078125,-148.86378631591796,-1.2066456242041155,-0.10337326743386009,-2.5483128157528965,-1.95453729480505,-7.714360644419988,0.8609674920638403,-0.5796278111890636,2.1821078549731863,-2.64700403267687,-0.05989165163852956,-9.340070897882635,2.8557516011324795
5.1,0.6577271297574043,-8.678468545277914,0.25952160358428955,0.0,0.0,17.94604332663796,88.96761557839133,1.5005877321416683,101.67858290238814,336.4345336914063,-122.91760773636364,49.27909625090909,-0.16729908955819675,-0.045685598584399946,-0.7383248848897037,0.646580677366618,-1.8360071697018363,1.2135307423093102,2.0114042869571485,28.52237949371338,43.425899505615234,-23.067759704589843,0.4696026562402646,0.41294489800930023,-1.8090774019559224,-226.00621490478517,136.7436981201172,-155.07175903320314,0.15076670231241174,-1.849555978269288,-3.0730629626548653,0.6898308495680491,-8.209375778834024,0.7398807033896446,0.4332307204604149,0.38268162806828815,-1.792456825574239,-1.0333443237186382,-9.205839521957166,2.986291004852815
5.2,0.006580265859762828,-9.584849993387857,0.3765704929828644,0.0,0.0,18.21641611619429,89.7929609818892,1.530011021007191,103.67228060635654,336.65089721679686,-122.91759952727273,49.27909433818182,-0.1906720007007772,-0.026544212278994617,-0.7751720981164412,0.6013302477923307,-2.1233282522721724,1.174363212151961,2.3606813820925625,33.58049964904785,40.028198623657225,-24.55127944946289,-0.7064911089837551,0.22446751842896143,-1.1634946763515472,-220.948095703125,133.34599761962892,-156.5552749633789,1.5081790288289387,-3.595738689104716,-3.5978131095568338,-0.5804987668991088,-9.64654483795166,0.5668596684932709,-0.6651558876037598,0.2608394573132197,-1.2031500041484833,-2.0067969957987466,-9.071608146031698,3.1168304085731506
5.3,-1.0040881981452305,-15.750156879425049,-1.3387843022743862,0.0,0.0,18.48678890575062,90.61830638538706,1.559434309872714,105.66597831032493,336.8672607421875,-122.91759131818182,49.27909242545455,-0.1763780976109432,-0.01923204364367954,-0.735525565165462,0.6493901199463642,-1.7819396325133063,1.2388784768003407,2.0079836682839827,33.93185958862305,39.57435913085938,-26.48253974914551,0.6922121429815888,0.16223563005526861,1.1904491086800892,-220.59673614501952,132.89216003417968,-158.48653564453124,-0.13539584477742506,-3.7340918978055315,0.4613255361715951,-0.46410788595676417,-15.56750456492106,-1.8106688459714253,0.607530931631724,0.1367574509155626,1.0304787543912728,-0.7457995538910229,-9.276525298754374,2.687977433204651
5.4,-0.8564537795204105,-14.154388882897116,2.0018408782215733,0.0,0.0,18.75716169530695,91.44365178888494,1.588857598738237,107.65967601429332,337.0836242675781,-122.91758310909091,49.27909051272727,-0.16208419452110923,-0.011919875008364467,-0.6958790322144827,0.6974499921003977,-1.4405510127544403,1.3033937414487202,1.6552859544754028,22.85456465706229,45.8607141494751,-23.01895971298218,0.7575793484310536,-0.16957989374570773,2.2609568947192393,-231.67403068542478,139.17851333618165,-155.02295608520507,-1.778970718383789,-3.8724451065063477,4.520464181900024,-0.7640332567195096,-13.916407187779743,1.6327774145950873,0.7163147054838411,-0.1850609387055914,2.1841787617427837,0.5151978880167007,-9.481442451477049,2.259124457836151
5.5,-0.7088193608955904,-12.558620886369185,5.342466058717533,0.0,0.0,19.02753448486328,92.2689971923828,1.6182808876037598,109.65337371826172,337.29998779296875,-122.9175749,49.2790886,-0.07545988797210153,-0.07101057485366857,-0.5151760702331861,0.8444291651248932,-0.45419325431187946,1.0487359017133713,0.45806169385711354,11.777269725501537,52.14706916809082,-19.55537967681885,0.8229465538805182,-0.501395417546684,3.3314646807583896,-242.75132522583007,145.4648666381836,-151.55937652587892,-5.555405139923096,3.198361873626709,0.03546909852461388,-1.0639586274822552,-12.265309810638428,5.0762236751616,0.8250984793359583,-0.5068793283267454,3.337878769094294,4.364731246774847,-8.462034398859197,1.924648718400435
5.6,-2.1475583712259927,0.01974080006281533,0.578265463312467,0.0,0.0,18.94020630763127,91.24451644604021,1.6361417082639842,109.16429637028621,337.12498767559345,-122.91756880384617,49.27909017692308,-0.03059019458173265,-0.13314001947274484,-0.5021466078857582,0.8464788130738519,-0.5403441235874639,1.0207200219685382,0.38702440470682853,-11.443599557876587,53.79467926025391,-13.981199645996094,0.11092295683920385,-2.7372108697891235,2.234366891284784,-265.9722015380859,147.1124740600586,-145.98519744873047,-1.7290515800317126,0.6130452553431192,0.8769080309253752,-1.7324035962422686,0.31694930046796793,0.941775086025397,0.17595464736223218,-2.6995916664600372,2.360586941242218,4.362697409861015,-8.33707879709475,2.4785629691499653
5.7,5.456433176994324,-4.116951048374176,2.5715864300727844,0.0,0.0,18.852878130399265,90.22003569969763,1.6540025289242084,108.6752190223107,336.94998755821814,-122.91756270769231,49.27909175384615,0.014279498808636236,-0.1952694640918211,-0.4891171455383301,0.8485284610228105,-0.6264949928630482,0.992704142223705,0.31598711555654346,-9.009699845314026,53.60679893493652,-15.29391975402832,0.47016260772943497,-0.4245004504919052,-2.0679315825303397,-263.5382934570313,146.92459716796876,-147.29791717529298,2.09730197985967,-1.9722713629404705,1.7183469633261363,5.156652450561523,-3.6230924248695375,2.6163122415542603,0.4711552746593952,-0.44269912689924235,-2.0126483142375946,4.3606635729471845,-8.212123195330301,3.0324772198994956
5.8,7.45922573407491,-16.252151330312092,6.929813841978709,0.0,0.0,18.765549953167255,89.19555495335504,1.6718633495844328,108.18614167433519,336.77498744084284,-122.91755661153847,49.279093330769236,0.02587670744237995,-0.20379451470393117,-0.507210652033488,0.8352604838031712,-0.6726166601433898,1.0356006170764114,0.33383097025481134,-3.120759975910187,53.947178268432616,-14.2752197265625,0.27519480139017105,-1.9561432361602784,0.7063129484653474,-257.64934997558595,147.26497497558594,-146.27921600341796,-1.0497529168923694,-1.1480498870213827,-0.6599227497975033,9.37747197598219,-15.880067110061646,5.853442331155141,0.26944248378276825,-1.6044630308945973,0.4270711715022723,3.936988957722982,-8.424629350503285,3.0275006453196207
5.9,2.4895325375325745,-12.13541309038798,3.9891797909230897,0.0,0.0,18.678221775935246,88.17107420701245,1.689724170244657,107.69706432635968,336.59998732346753,-122.91755051538462,49.27909490769231,0.037473916076123666,-0.21231956531604126,-0.5253041585286459,0.8219925065835317,-0.7187383274237314,1.078497091929118,0.3516748249530792,1.305094968900085,53.01418371200562,-13.838459682464599,-0.053857953908542755,0.28051441113154096,-0.9182131804525853,-253.22349853515624,146.33198127746584,-145.84245681762695,-4.196807813644409,-0.32382841110229493,-3.0381924629211428,3.224453152467807,-12.238390465577442,3.776397531231244,-0.06913420557975769,0.5316205113335994,-1.1365668510623048,3.5133143424987794,-8.63713550567627,3.0225240707397463
6.0,-2.4801606590097602,-8.018674850463867,1.0485457398674705,0.0,0.0,18.59089359870324,87.14659346066988,1.7075849909048815,107.20798697838417,336.4249872060922,-122.91754441923078,49.27909648461539,-0.1276309137853483,-0.06418813904747363,-0.69706558684508,0.6976601382096609,-1.4925307830174763,1.2680328885714214,1.58345328271389,5.730949913710356,52.08118915557861,-13.401699638366699,-0.3829107092072566,2.5171720584233603,-2.5427393093705177,-248.79764709472656,145.39898757934571,-145.40569763183595,-1.9835611432790756,0.8006290594736735,-1.6002479791641235,-2.928565671046575,-8.59671382109324,1.6993527313073475,-0.40771089494228363,2.667704053561796,-2.700204873626882,0.2588209899452825,-9.369967778523764,2.604410549004873
6.1,0.5275176763534546,-9.90568765004476,0.07258229516446583,0.0,0.0,18.50356542147123,86.12211271432729,1.7254458115651057,106.71890963040866,336.2499870887169,-122.91753832307693,49.27909806153846,-0.16458922691615013,-0.03868045418692579,-0.7371264752565008,0.6466117722518516,-1.812506287386923,1.2189421500220443,1.994361344386231,21.56715965270996,45.42669906616211,-20.094619750976562,0.06699155519405998,0.22131138915816942,-1.7392351627349854,-232.96143341064453,138.74449615478517,-152.09861450195314,-0.08263738701740886,-1.0569644570350647,-2.7527817140022917,1.1285150138040383,-9.379964272181192,0.3361916144688924,-0.0064140719672044115,0.23841559886932373,-1.728774110476176,-0.9134633594658228,-9.206667343775432,2.8783795336882276
6.2,-0.38703904549280804,-8.853344122568766,0.9301100894808769,0.0,0.0,18.41623724423922,85.0976319679847,1.74330663222533,106.22983228243314,336.0749869713417,-122.91753222692309,49.27909963846154,-0.20154754004695194,-0.013172769326377953,-0.7771873636679216,0.5955634062940424,-2.1324817917563696,1.1698514114726672,2.4052694060585718,26.7484992980957,41.74839897155762,-21.52201976776123,-0.4528038625915845,0.5658139449854692,-1.2029972871144612,-227.78009490966798,135.06620025634766,-153.52601776123046,1.8182863692442577,-2.9145579735438027,-3.9053154488404593,-1.3301701545715332,-8.896514511108398,0.9346365213394165,-0.40943243354558945,0.6000732878843943,-1.2234358092149098,-2.085747708876928,-9.0433669090271,3.152348518371582
6.3,-0.1481555700302124,-15.062818686167398,-2.4362922509511313,0.0,0.0,18.32890906700721,84.07315122164212,1.7611674528855543,105.74075493445763,335.89998685396637,-122.91752613076923,49.279101215384614,-0.18843875294833468,-0.00759569337683246,-0.7496331961769047,0.6312796545751167,-1.915224889011094,1.2297916457508549,2.175774038741083,29.02867946624756,38.06521911621094,-22.955519676208496,0.08515461534261703,-0.08585710525512699,0.15656476020812987,-225.49991607666016,131.38301696777344,-154.9595153808594,0.05138503213723511,-2.701722307999929,-1.0540997515122097,0.12273181478182467,-14.483556270599365,-2.3345973193645477,0.2210568686326345,0.002443467577298473,0.34002285202344257,-1.2954370396832626,-9.244622182846069,2.806871747970581
6.4,-0.5283877930857919,-14.096145492611509,1.7059918996511079,0.0,0.0,18.241580889775204,83.04867047529953,1.7790282735457787,105.25167758648212,335.72498673659106,-122.91752003461539,49.2791027923077,-0.1753299658497174,-0.002018617427286967,-0.7220790286858877,0.666995902856191,-1.6979679862658184,1.2897318800290425,1.9462786714235942,21.72118461728096,42.11531410217285,-19.930529713630676,0.4533650993059079,-0.28109600618481634,1.6712662220001222,-232.80741081237792,135.43311195373536,-151.93452644348145,-1.7155163049697877,-2.4888866424560545,1.79711594581604,-0.29015470637629437,-13.86411424477895,1.5013217416902385,0.5029885326371049,-0.281039666271571,1.7994805931141882,-0.5051263704895973,-9.44587745666504,2.4613949775695803
6.5,-0.9086200161413713,-13.12947229905562,5.8482760502533475,0.0,0.0,18.154252712543194,82.02418972895694,1.796889094206003,104.76260023850661,335.54998661921576,-122.91751393846154,49.27910436923077,-0.1031176966022361,-0.03951847573361271,-0.5548702695152976,0.820269378748807,-0.5016740343787454,1.1318326971747659,0.5929193821820345,14.413689768314361,46.165409088134766,-16.905539751052856,0.8215755832691988,-0.47633490711450577,3.1859676837921143,-240.1149055480957,139.48320693969725,-148.9095375061035,-4.885198046763738,0.5902470747629801,1.8724354455868404,-0.7030412275344133,-13.244672218958536,5.337240802745025,0.7849201966415752,-0.5645228001204404,3.258938334204934,3.584087153275808,-8.838150223096212,1.8026654819647472
6.6,-2.7873393098513284,-2.3711875279744468,0.17676977316538492,0.0,0.0,18.066924535311184,80.99970898261437,1.8147499148662274,104.2735228905311,335.37498650184045,-122.9175078423077,49.27910594615385,-0.05367825446636272,-0.1070251441013886,-0.5183218888035326,0.8387243587410811,-0.5393229279328476,1.0521878864277494,0.458653626455502,-4.424939953535795,51.086279296875,-11.24717960357666,0.47418416539827984,-1.8233309586842854,2.6521732409795127,-258.95353546142576,144.4040771484375,-143.2511779785156,-1.0651350649017273,-0.13190150983405835,0.8060738094376796,-3.677409553527832,-2.028515362739563,0.2660818755626678,0.5448154285550117,-1.6940311168630917,2.711554447809855,4.083932398846655,-8.48324553713654,2.3528118833447946
6.7,3.7352957725524902,-2.4735804299513497,2.535993138949076,0.0,0.0,17.979596358079178,79.97522823627178,1.8326107355264516,103.78444554255559,335.19998638446515,-122.91750174615385,49.279107523076924,-0.004238812330489341,-0.1745318124691645,-0.4817735080917676,0.8571793387333552,-0.5769718214869499,0.9725430756807327,0.3243878707289695,-8.407019662857056,51.12897872924805,-13.177219676971436,0.14792103320360184,-1.1726474702358245,-0.8622973747551441,-262.93561096191405,144.44677734375,-145.18121795654298,2.7549279169602827,-0.8540500944310968,-0.26028782671148126,3.1943185528119407,-1.8756737764924765,2.575175662835439,0.2547562674929698,-1.107778671508034,-1.0258209059635799,4.583777644417503,-8.128340851176869,2.9029582847248423
6.8,11.662497901916504,-16.793308067321778,2.7704100608825684,0.0,0.0,17.892268180847168,78.95074748992919,1.850471556186676,103.29536819458008,335.02498626708984,-122.91749565,49.2791091,0.02241548472860205,-0.19742569327354426,-0.4940097418924173,0.8445162251591682,-0.6299788417915504,1.008473771313826,0.304937694221735,0.7136999726295471,52.74669876098633,-11.106879806518554,0.33653583750128746,-1.5279521613071363,-0.2721913854281107,-253.8148941040039,146.0645004272461,-143.11087646484376,-0.457001147848187,-0.3062637719241056,0.6327108614372485,11.59192975362142,-15.225929180781046,3.3970105250676474,0.16994270849972964,-1.7143933117389678,0.06548472642898559,4.210669248393088,-8.301156347448176,3.004490082914179
6.9,5.116418128957351,-12.316870216528574,3.0965218494335813,0.0,0.0,17.804940003615158,77.92626674358661,1.8683323768469002,102.80629084660457,334.84998614971454,-122.91748955384615,49.279110676923075,0.049069781787693445,-0.22031957407792405,-0.506245975693067,0.8318531115849813,-0.6829858620961508,1.0444044669469197,0.2854875177145004,3.820734855346382,53.091043853759764,-10.824754786491393,0.13076969825973114,0.2597258975729344,-1.3370058511694274,-250.70785942077637,146.40884399414062,-142.8287521362305,-3.6689302126566568,0.2415225505828856,1.5257095495859783,4.669045135378838,-11.498086025317509,3.2282417863607407,0.08000170734788602,0.1089058175683022,-1.1225565465788048,3.837560852368673,-8.473971843719482,3.1060218811035156
7.0,-1.4296616440018017,-7.840432365735372,3.422633637984594,0.0,0.0,17.717611826383152,76.90178599724402,1.8861931975071247,102.31721349862906,334.67498603233923,-122.91748345769231,49.27911225384616,-0.09895793856544927,-0.08057882298122748,-0.6716494993730024,0.7220766706900164,-1.2981855489990928,1.260900995948098,1.3242162764072418,6.927769738063216,53.4353889465332,-10.542629766464234,-0.07499644098182519,2.0474039564530053,-2.4018203169107437,-247.60082473754883,146.75318756103516,-142.5466278076172,-2.776269853115082,0.15652910868326825,-1.586661289135615,-2.2538394828637442,-7.770242869853973,3.059473047653834,-0.009939293803957602,1.9322049468755722,-2.310597819586595,0.7199742902691165,-9.318590005238852,2.5093182722727456
7.1,-1.0850454370180767,-10.876176516215006,-0.3685943844417731,0.0,0.0,17.630283649151142,75.87730525090143,1.9040540181673489,101.82813615065355,334.49998591496393,-122.91747736153846,49.279113830769234,-0.14571294442496513,-0.04878765256779095,-0.7252398101669368,0.6589449328003507,-1.7252873986056358,1.2169842083345759,1.8653334230184555,25.208859634399413,46.3636589050293,-19.722519874572754,-0.5858452330188205,0.7294240122040113,-1.876908928155899,-229.31973571777343,139.68145599365235,-151.7265167236328,-0.5567104410041464,-0.5285613609082771,-2.3060765668298258,-1.0389636039733887,-11.514142990112305,-0.39780675768852236,-0.7029022872447968,0.7536804222812256,-1.954539696375529,-0.7330027385050374,-9.175070596463753,2.8070303237799443
7.2,-0.47976094111800194,-8.065008560816446,1.5586248536904652,0.0,0.0,17.542955471919132,74.85282450455885,1.9219148388275733,101.33905880267804,334.3249857975886,-122.91747126538462,49.27911540769231,-0.19246795028448102,-0.016996482154354415,-0.7788301209608713,0.5958131949106852,-2.1523892482121787,1.173067420721054,2.406450569629669,31.28079891204834,42.84639892578125,-21.831899642944336,-0.04951062500476838,0.7806246817111969,-1.2460734605789185,-223.24779510498047,136.16419677734376,-153.83589782714844,1.6628489711067893,-1.2136518304998225,-3.0254918445240366,-0.26949165078500903,-7.835596879323323,1.4013964633146923,-0.07292203853527704,0.7346672713756561,-1.281315286954244,-2.1859797672791914,-9.031551187688654,3.1047423752871426
7.3,-0.5754738569259643,-12.861780548095703,-1.696271961927414,0.0,0.0,17.455627294687126,73.82834375821626,1.9397756594877977,100.84998145470253,334.1499856802133,-122.91746516923077,49.279116984615385,-0.19476027662555373,-0.0002191087890726813,-0.7697281936804453,0.606181393067042,-2.1016960640748343,1.2046185980240502,2.3825914661089582,34.31859931945801,39.612179565429685,-24.67205944061279,-0.34424802164236706,0.2799799057344595,-0.6157776080071926,-220.20999450683593,132.9299774169922,-156.67605590820312,1.369541099577239,-3.050596085461703,-2.0964048956379746,-0.7234300424655279,-13.088341236114502,-1.4570295413335164,-0.3879910588264465,0.33903020322322847,-0.4913189113140106,-2.0095032620610613,-9.109517805504076,2.944417639212175
7.4,-1.1816306633253892,-13.737099957466125,1.5963566751529776,0.0,0.0,17.368299117455116,72.80386301187367,1.957636480148022,100.36090410672702,333.974985562838,-122.91745907307693,49.27911856153846,-0.19705260296662644,0.016558264576209052,-0.7606262664000193,0.6165495912233988,-2.05100287993749,1.2361697753270466,2.358732362588247,27.27065943479538,44.013329315185544,-22.84449944496155,0.3027409960826238,-0.0306641565014919,1.0356583974013727,-227.25793533325196,137.3311279296875,-154.84849548339844,1.0762332280476887,-4.887540340423584,-1.1673179467519124,-1.300734750023394,-13.86028014529835,1.9166962865627173,0.28333839252591136,0.023995550411442912,1.060427685578664,-1.833026756842931,-9.187484423319498,2.784092903137207
7.5,-1.7877874697248142,-14.612419366836548,4.888985312233369,0.0,0.0,17.280970940223106,71.7793822655311,1.9754973008082464,99.8718267587515,333.79998544546277,-122.91745297692307,49.279120138461536,-0.13750942390073423,-0.008844720453701237,-0.5960522537881677,0.7851987806233492,-0.6771397726102308,1.20948833769018,0.8618302914229307,20.22271955013275,48.4144790649414,-21.016939449310303,0.9497300138076147,-0.34130821873744327,2.687094402809938,-234.30587615966797,141.7322784423828,-153.02093505859375,-4.597638388474782,-0.6293359994888306,2.208277185757955,-1.87803945758126,-14.6322190544822,5.290422114458951,0.9546678438782692,-0.29103910240034264,2.6121742824713388,2.6691095697072647,-9.123154163360596,1.799725164969762
7.6,-1.038684368133545,-4.35563504199187,-0.14556337396303817,0.0,0.0,17.193642762991097,70.75490151918851,1.9933581214684706,99.38274941077599,333.62498532808746,-122.91744688076923,49.27912171538462,-0.07062799698465048,-0.07412525341196943,-0.5447112493442766,0.8209872979557875,-0.5793880465807336,1.1097013331723935,0.5718444212142265,-5.174019885063172,54.291219329833986,-13.064979743957519,0.9858143568038941,-1.3179112064652145,3.376068925857544,-259.70261535644534,147.60901641845703,-145.06897430419923,-1.73310992844177,-0.11962042613462964,1.1375496405543704,-0.863410234451294,-5.160620542864005,0.34785662839810055,0.9144143660863241,-1.5428928857048352,3.2795064051946006,3.6315451144226687,-8.714791688052092,2.054332543954705
7.7,0.9236295938491821,-0.008733817934989929,2.142174470424652,0.0,0.0,17.10631458575909,69.73042077284592,2.011218942128695,98.89367206280048,333.44998521071216,-122.91744078461538,49.279123292307695,-0.00374657006856675,-0.13940578637023762,-0.49337024490038556,0.8567758152882258,-0.48163632055123645,1.009914328654607,0.2818585510055224,-14.614379596710204,52.67105903625488,-12.639199542999268,0.2838996276259422,-1.885664661725362,0.6404922207196554,-269.1429779052734,145.98885955810547,-144.64319610595703,1.131418531591242,0.3900951472195712,0.06682209535078568,0.8293124586343765,-0.21625137329101562,2.063709817826748,0.20515909790992737,-1.8639025568962098,0.44831402897834777,4.593980659138072,-8.306429212743586,2.3089399229396474
7.8,9.726624647776285,-14.506287654240927,2.5701905687650046,0.0,0.0,17.01898640852708,68.70594002650334,2.0290797627889194,98.40459471482497,333.27498509333685,-122.91743468846154,49.27912486923077,0.024768565015013615,-0.17379251463959608,-0.5046842098236084,0.8429253672560055,-0.56682438403368,1.0406943211952844,0.27492271115382505,-5.901139879226685,54.05697822570801,-10.904359817504883,0.35554903497298557,-1.4331662332018216,-1.119130551815033,-260.4297332763672,147.3747772216797,-142.90835723876953,-0.5894106698758674,-0.2664563294613,0.8199850537560203,10.61206865310669,-15.703497131665548,2.4873390893141427,0.394389884158348,-1.3258575648069382,-1.2869403958320618,4.1658875291997735,-8.464964620994799,2.557590161309098
7.9,4.3141097364326315,-11.217004080613455,2.861865704258283,0.0,0.0,16.93165823129507,67.68145928016075,2.0469405834491434,97.91551736684946,333.09998497596155,-122.91742859230769,49.279126446153846,0.053283700098593983,-0.20817924290895454,-0.5159981747468313,0.8290749192237854,-0.6520124475161234,1.071474313735962,0.2679868713021278,-4.043689911067486,53.5375636100769,-11.025749802589417,0.0843312218785286,0.2404200223584969,-1.4843516388209537,-258.572282409668,146.85536270141603,-143.02974739074705,-2.310239871342977,-0.9230078061421713,1.5731480121612549,4.5615401660854165,-11.571962332635215,2.95780064594565,0.1289371153883015,0.26240478952725743,-1.520265452330932,3.7377943992614746,-8.623500029246012,2.8062403996785483
8.0,-1.0984051749110222,-7.927720506985982,3.1535408397515616,0.0,0.0,16.844330054063064,66.65697853381816,2.064801404109368,97.42644001887395,332.92498485858624,-122.91742249615385,49.27912802307692,-0.08031806853515179,-0.08335362307050008,-0.6627931215546348,0.7326978282494978,-1.2011710784652017,1.2724148793654009,1.1962911432439631,-2.186239942908287,53.0181489944458,-11.14713978767395,-0.1868865912159284,1.9140062779188156,-1.8495727258268744,-256.71483154296874,146.33594818115233,-143.1511375427246,-2.852531393369039,0.7225520213445028,-1.0965137779712677,-1.4889883209358563,-7.440427533604882,3.4282622025771574,-0.13651565338174504,1.8506671438614528,-1.7535905088298023,0.9253982131679853,-9.353506008783976,2.30775519212087
8.1,-0.23030916849772134,-10.953444798787435,0.4944169869025548,0.0,0.0,16.757001876831055,65.63249778747559,2.0826622247695923,96.93736267089844,332.74998474121094,-122.91741640000001,49.279129600000005,-0.12761047299753758,-0.054412576264109086,-0.7216918353330005,0.6654465017896709,-1.6944960247386587,1.227613268476544,1.8001014662511423,16.175979709625246,48.45229873657227,-17.043399620056153,-0.9034391522407532,-0.2734843693673611,-2.2650882959365846,-238.3526168823242,141.7700973510742,-149.04739837646486,-0.27357743183771754,0.036280276197375616,-1.916213944554329,-0.9863413920005163,-10.747961203257242,0.5811568188170592,-0.7881943297882875,-0.09348781903584798,-2.2688807249069214,-0.6591679107284908,-9.210658727270184,2.623156625213045
8.2,0.0577866718173027,-8.230352783203125,0.9818947672843933,0.0,0.0,16.669673699599045,64.608017041133,2.1005230454298167,96.44828532292293,332.57498462383563,-122.91741030384615,49.27913117692308,-0.1749028774599234,-0.025471529457718092,-0.7805905491113663,0.5981951753298441,-2.1878209710121155,1.1828116575876872,2.4039117892583213,22.702979469299315,44.672739028930664,-19.04663963317871,0.19820031989365816,1.2356276710828145,-1.4488705396652222,-231.82561645507812,137.99053802490235,-151.0506378173828,2.3053765296936035,-0.6499914689497515,-2.73591411113739,-0.0028913294275601706,-8.441978136698404,1.0415757695833843,0.20146336108446117,1.2724628448486328,-1.350103783607483,-2.243734034624967,-9.067811445756393,2.93855805830522
8.3,0.06460619143520792,-10.957632382710775,-0.4469592968622844,0.0,0.0,16.58234552236704,63.583536294790406,2.1183838660900407,95.95920797494742,332.3999845064603,-122.91740420769231,49.279132753846156,-0.17788735491534072,-0.013922293018549666,-0.7796277180314064,0.5988833089669545,-2.194711261987686,1.193992837270101,2.431503061453501,26.820479583740234,40.95173873901367,-21.341459465026855,-0.6329836448033651,0.09063713252544402,-0.7811439310510954,-227.70811614990234,134.26953887939453,-153.3454574584961,1.4693711300690968,-3.2729957681713686,-2.4943381150563555,-0.14317053059736887,-11.7502547899882,-0.840478907028834,-0.6410267303387324,0.11133018632729845,-0.8437576144933701,-2.16704651352131,-9.105173168760357,2.842930692614931
8.4,-0.6865905601686487,-12.87550453344981,2.0183209478855133,0.0,0.0,16.49501734513503,62.55905554844782,2.136244686750265,95.47013062697191,332.224984389085,-122.91739811153846,49.27913433076923,-0.18087183237075805,-0.00237305657938124,-0.7786648869514465,0.5995714426040649,-2.2016015529632567,1.2051740169525147,2.4590943336486815,20.8949397072196,43.09375400543213,-19.175959491729735,0.2156898176692651,0.13192953524941747,0.9739344135829896,-233.63365631103517,136.41155319213868,-151.17995796203616,0.6333657304445902,-5.896000067392985,-2.2527621189753213,-0.6913807204726969,-13.21157602107886,2.011004342725783,0.16556356677513884,0.04073707759380339,0.9181113758434851,-2.0903589924176535,-9.142534891764322,2.747303326924642
8.5,-1.4377873117725055,-14.793376684188843,4.483601192633311,0.0,0.0,16.40768916790302,61.53457480210524,2.1541055074104896,94.9810532789964,332.0499842717097,-122.91739201538462,49.27913590769231,-0.13503105503817395,0.005831427096078792,-0.6160964320103327,0.7700032939513525,-0.7662369894484679,1.249902456998825,0.9681646004319191,14.969399830698967,45.235769271850586,-17.01045951843262,1.0643632801418954,0.17322193797339094,2.7290127582170745,-239.55919647216797,138.5535675048828,-149.01445846557618,-4.653055757284164,-1.2322235107421875,2.7357186476389566,-1.2395909103480252,-14.672897252169522,4.8624875924804,0.97215386388901,-0.02985603113969167,2.6799803661803403,2.4507479767004647,-9.231034278869629,1.5270693798859913
8.6,-2.9864419301350913,-6.378766703108947,0.05254240706562996,0.0,0.0,16.320360990671013,60.51009405576265,2.171966328070714,94.49197593102089,331.8749841543344,-122.91738591923077,49.27913748461538,-0.06611170172012254,-0.05932941931920745,-0.5554978127280871,0.8140991280476253,-0.5941789442052443,1.135439964632193,0.6015160754323006,-6.35009994506836,47.880118942260744,-10.958039855957031,1.0601566548769672,-1.5082772175470989,2.79941725730896,-260.8786956787109,141.1979187011719,-142.9620346069336,-1.814860128543594,0.14307804541154345,1.6950930176359233,-3.4660036166508994,-7.604888767004013,0.7990033676226934,1.1376347119609516,-1.6260214497645695,2.89883553981781,3.553891501191891,-8.793374039910056,1.7668540563547248
8.7,2.0662023294717073,0.8951549291610718,1.6907684683799744,0.0,0.0,16.233032813439003,59.48561330942007,2.189827148730938,94.00289858304538,331.6999840369591,-122.91737982307693,49.279139061538466,0.002807651597928875,-0.12449026573449369,-0.4948991934458415,0.858194962143898,-0.4221208989620209,1.0209774722655613,0.234867550432682,-15.81241970062256,45.443779373168944,-9.595299816131591,0.3059925852964322,-2.4879523565371833,1.0279334783554077,-270.3410125732422,138.7615768432617,-141.59930114746095,1.023335500196977,1.5183796015652744,0.6544673876328901,1.6699908096343279,0.7543373306592306,1.5229319334030151,0.23698516921140253,-2.3805113434791565,0.7901236772537231,4.657035025683316,-8.355713800950484,2.0066387328234585
8.8,8.691928267478943,-13.281361997127533,3.4694931308428445,0.0,0.0,16.145704636206993,58.461132563077484,2.2076879693911624,93.51382123506986,331.52498391958386,-122.91737372692307,49.27914063846154,0.029700248757338437,-0.16489898646250362,-0.49903996785481775,0.8477785363793373,-0.5169564813375473,1.0342455620567004,0.2303850896656513,-7.927559852600098,46.246538925170896,-8.42653980255127,0.18356501559416458,-1.3402638174593449,-1.1127419074376423,-262.45615844726564,139.56433715820313,-140.4305389404297,-0.49514365015607886,-0.4572805599732832,1.205172063726367,9.84068258603414,-14.629817525545755,3.568695584932963,0.2431752706567446,-1.1336386629069846,-1.2893074750900269,4.33001362916195,-8.442666747353293,2.3663712378704185
8.9,4.231457541386287,-10.805014938116074,3.297533944249153,0.0,0.0,16.058376458974983,57.436651816734894,2.225548790051387,93.02474388709435,331.34998380220856,-122.91736763076923,49.27914221538462,0.056592845916748,-0.20530770719051356,-0.503180742263794,0.8373621106147766,-0.6117920637130737,1.0475136518478394,0.22590262889862056,-6.127754890918732,45.61640901565552,-8.462224781513214,0.02537173844051946,0.4450303717431696,-1.3228055175506706,-260.65635070800784,138.93420753479006,-140.46622314453126,-2.013622800509135,-2.432940721511841,1.755876739819844,4.681004670307492,-11.240905279011438,3.3859890613592034,-0.009710213363481102,0.4692208454944191,-1.4547819461052618,4.002992232640584,-8.529619693756104,2.726103742917379
9.0,-0.2290131847063702,-8.328667879104614,3.1255747576554618,0.0,0.0,15.971048281742977,56.41217107039231,2.2434096107116113,92.53566653911884,331.17498368483325,-122.91736153461538,49.27914379230769,-0.0766355984378606,-0.06750640862931802,-0.6334207107623419,0.7559582243363062,-0.9859564155340195,1.251252015431722,0.9975051979223887,-4.3279499292373655,44.98627910614014,-8.497909760475158,-0.13282153871312566,2.230324560945684,-1.532869127663699,-258.85654296875,138.30407791137696,-140.5019073486328,-3.857011404904452,0.9810160290111195,-1.2193453203548084,-0.4786732454191556,-7.851993032477119,3.2032825377854435,-0.26259569738370675,2.072080353895823,-1.6202564171204965,1.667714713183655,-9.31903058832342,2.011548172343861
9.1,-1.880040740966797,-11.510433959960938,-0.38057842254638674,0.0,0.0,15.883720104510967,55.38769032404973,2.2612704313718357,92.04658919114333,330.99998356745795,-122.91735543846154,49.27914536923077,-0.12778221577702256,-0.03430433949864835,-0.7046746121663037,0.6798431157614245,-1.5893620990894057,1.2327375755165562,1.7233956018180558,12.237819719314576,41.254299545288085,-13.684739875793458,-1.2610549094776313,-0.02374737709760666,-2.4826581875483194,-242.29077606201173,134.5720977783203,-145.68873748779296,-0.8441060296062268,0.3387763843391881,-1.9114117518518912,-1.8707884748776753,-11.19591728846232,0.10588237643241884,-1.2014497487805784,-0.34926219061017033,-2.1826520681381227,-0.18083319158970634,-9.2506038275632,2.3702372962778266
9.2,0.494416984419028,-7.529814004898071,1.4631113211313884,0.0,0.0,15.79639192727896,54.36320957770714,2.2791312520320597,91.55751184316782,330.82498345008264,-122.91734934230769,49.279146946153844,-0.17892883311618454,-0.001102270367978673,-0.7759285135702654,0.6037280071865428,-2.192767782644792,1.2142231356013904,2.449286005713723,20.432559776306153,37.13801956176758,-15.315879726409912,0.18005253126223883,1.1219303893546264,-1.8559358517328899,-234.09603576660157,130.45581817626953,-147.31987609863282,2.168799345691999,-0.30346326033274335,-2.6034781833489737,0.14935202399889627,-7.524430274963379,1.7339987754821777,0.20886500428120294,1.0998628909389179,-1.950721800327301,-2.0293810963630676,-9.182177066802979,2.728926420211792
9.3,-0.21585250645875922,-11.441779772440592,-1.212463229894638,0.0,0.0,15.70906375004695,53.338728831364556,2.296992072692284,91.0684344951923,330.64998333270734,-122.91734324615385,49.27914852307693,-0.18343548273498358,0.01100284957228168,-0.7756474099375985,0.6024237776344472,-2.2036078192970967,1.2214454358274285,2.484012833147338,24.243839836120607,33.1388599395752,-17.638759994506835,-0.5348125385741392,0.3885357578595479,-0.4734969188769658,-230.28475646972657,126.45665817260742,-149.64275665283202,1.6408308769265811,-3.254131297270457,-2.8916467279195786,-0.05168492794036865,-11.336236381530764,-1.03764750957489,-0.5648721903562546,0.3862195461988449,-0.496048038204511,-1.961233377456665,-9.226999203364056,2.5803549389044447
9.4,-1.1942677332942064,-13.34272797902425,1.494043543934822,0.0,0.0,15.621735572814941,52.31424808502197,2.3148528933525085,90.5793571472168,330.47498321533203,-122.91733715,49.2791501,-0.18794213235378263,0.023107969512542032,-0.7753663063049316,0.6011195480823517,-2.214447855949402,1.2286677360534668,2.518739660580953,20.98674476146698,35.22322945594787,-16.40899977684021,0.2811507141838471,0.14923045308696048,1.1729758031892055,-233.54185180664064,128.5410280227661,-148.41299743652343,1.1128624081611633,-6.204799334208171,-3.1798152724901834,-0.9287342221786579,-13.368171644210816,1.3414213438828786,0.22563198480444646,-0.02382374058167136,1.1071041723092399,-1.8930856585502625,-9.27182133992513,2.431783457597097
9.5,-2.1726829601296536,-15.24367618560791,4.200550317764282,0.0,0.0,15.534407395582933,51.28976733867938,2.332713714012733,90.09027979924129,330.2999830979567,-122.91733105384615,49.27915167692308,-0.11941138437638676,-0.0005451124161481748,-0.6032674958308538,0.780624583363533,-0.6994909917314848,1.2394483884175618,0.8694132616122564,17.729649686813353,37.307598972320555,-15.179239559173585,1.0971139669418335,-0.09007485168562694,2.8194485252553765,-236.7989471435547,130.6253978729248,-147.18323822021483,-4.201695030385798,-2.4665846824645996,3.68262902173129,-1.8057835164169471,-15.40010690689087,3.7204901973406472,1.0161361599651475,-0.4338670273621877,2.7102563828229904,2.516685875979337,-9.228288303722035,1.4726682034405796
9.6,0.5706881046295166,-7.716374301910401,0.3622733592987061,0.0,0.0,15.447079218350924,50.2652865923368,2.350574534672957,89.60120245126578,330.1249829805814,-122.9173249576923,49.279153253846154,-0.04905492750306924,-0.08165848365222861,-0.5395381624499958,0.8216143650087444,-0.5952352110409376,1.1091736166766195,0.543668163545204,1.6286999434232712,44.794738388061525,-10.986099815368652,0.521907995454967,-2.383545219898224,3.0389018853505454,-252.89989624023437,138.11253814697267,-142.99009857177734,-2.342506242520882,-0.040132880210876465,1.7234631442662443,-0.8331010341644284,-7.456733368337154,0.9195417563120524,0.5759543031454086,-1.8570303559303283,3.16492338180542,3.6432660881317025,-8.69755570635651,1.9730417195594672
9.7,0.13010976711908975,1.6126627400517464,1.3625130901734035,0.0,0.0,15.359751041118916,49.24080584599422,2.3684353553331814,89.11212510329027,329.9499828632061,-122.91731886153846,49.27915483076923,0.0213015293702483,-0.16277185488830906,-0.4758088290691376,0.8626041466539557,-0.4909794303503903,0.9788988449356772,0.2179230654781515,-6.819799900054932,46.20261840820312,-9.633119869232178,0.29922215625022847,-2.6503406167030334,0.8233954360087713,-261.3483917236328,139.52041778564453,-141.63711853027343,-0.48331745465596515,2.3863189220428467,-0.23570273319880167,0.6667001843452454,1.4348960121472676,1.8181464672088623,0.29415706855555374,-2.7926467955112457,1.0181087752183278,4.769846300284068,-8.166823108990988,2.4734152356783548
9.8,8.442675709724426,-13.173984090487162,3.1126633832852044,0.0,0.0,15.272422863886908,48.21632509965163,2.386296175993406,88.62304775531476,329.7749827458308,-122.91731276538461,49.279156407692305,0.05392340834562974,-0.20364582369273354,-0.48008958995342255,0.848945516076955,-0.5799044853810108,0.9992236802072236,0.19754792151577544,0.3879600286483765,47.97039909362793,-7.509099769592285,0.3845396613081296,-0.8983791594703993,-1.0169888039429982,-254.14064025878906,141.28819732666017,-139.51309661865236,-1.0418484608332317,0.132685462633769,0.9145445525646209,8.63808970451355,-12.933804845809936,2.7067610323429108,0.4256203571955363,-0.7483353946978847,-1.1779263218243916,4.401382774114609,-8.267029146353405,2.8132980962594347
9.9,4.489850626750426,-10.917402872533508,3.4306460160649186,0.0,0.0,15.185094686654898,47.191844353309044,2.4041569966536303,88.13397040733925,329.5999826284555,-122.91730666923077,49.27915798461539,0.08654528732101119,-0.24451979249715802,-0.4843703508377075,0.8352868854999542,-0.6688295404116312,1.01954851547877,0.17717277755339936,1.9602349781431256,48.908884334564206,-7.212944817543029,0.29903935686205374,0.3529042349846073,-1.3258459992481,-252.56836318969727,142.2266819000244,-139.21694259643556,-1.600379467010498,-2.120947996775309,2.0647918383280435,4.780012204870582,-11.175902603069941,3.340495064854622,0.33437236590367375,0.3371432325238305,-1.3279435036308838,4.032919247945149,-8.36723518371582,3.153180956840515
10.0,0.5370255437764253,-8.660821654579856,3.7486286488446323,0.0,0.0,15.09776650942289,46.16736360696646,2.4220178173138542,87.64489305936372,329.4249825110802,-122.91730057307691,49.279159561538464,-0.029666184340991702,-0.11384847139318781,-0.6309536471962929,0.7538694540659586,-1.0904040485620499,1.2524714767932892,0.9668607376515865,3.532509927637875,49.84736957550049,-6.916789865493774,0.21353905241597781,1.604187629439614,-1.6347031945532018,-250.99608612060547,143.16516647338867,-138.92078857421876,-3.898011641068892,0.5336686047640714,-1.1898621862584895,0.9219347052276131,-9.418000360329946,3.974229097366333,0.24312437461181122,1.4226218597455458,-1.477960685437376,1.500158660791137,-9.305817343971945,2.152879931709983
10.1,-2.948455959558487,-10.692726771036783,0.11066804577906934,0.0,0.0,15.01043833219088,45.14288286062387,2.4398786379740787,87.15581571138821,329.24998239370495,-122.91729447692308,49.27916113846154,-0.090448994347808,-0.0650636432868795,-0.7052012082527984,0.6798456943396366,-1.671049304306507,1.2381916140968148,1.7065017922696741,22.355279541015626,44.79839935302734,-13.590799808502197,-0.9080511797219515,0.9430232252925634,-2.5036566257476807,-232.1733154296875,138.11619873046874,-145.59479675292968,-0.6762936146873417,0.09892460071679321,-1.79108076023333,-2.2262223958969116,-10.640284061431885,0.07587243368228279,-0.9635126516222955,1.1118002161383629,-2.6178629795710244,-0.32278909376173304,-9.25660783955545,2.329306780388861
10.2,0.0544367382923762,-7.637690385182698,0.7059823870658875,0.0,0.0,14.923110154958872,44.11840211428129,2.457739458634303,86.6667383634127,329.07498227632965,-122.91728838076922,49.279162715384615,-0.1512318043546243,-0.0162788151805712,-0.779448769309304,0.6058219346133146,-2.2516945600509644,1.2239117514003406,2.4461428468877617,29.262919425964355,40.728478622436526,-16.021039485931396,0.15019649018843967,1.5120441615581512,-1.924632728099823,-225.26567687988282,134.04627685546876,-148.02503509521483,2.5454244116942086,-0.33581940333048504,-2.3922993342081704,-0.22719849944114684,-7.477690315246582,0.8240881145000458,0.1831068598354856,1.490791141986847,-1.9544633428255718,-2.1457368483146033,-9.207398335138956,2.505733629067739
10.3,0.7446663329998652,-11.449058055877686,-0.47936213451127213,0.0,0.0,14.835781977726864,43.093921367938705,2.4756002792945275,86.1776610154372,328.89998215895434,-122.91728228461538,49.27916429230769,-0.1605929527996164,0.00022213227136738678,-0.7818190663149862,0.6005971467856205,-2.2830699284871416,1.2241509800607506,2.5147789788968637,34.206359481811525,35.96071929931641,-19.196699333190917,-0.4783074919444819,0.35124752422173816,-0.7425830587744713,-220.32223510742188,129.2785171508789,-151.20069580078126,1.7855184078216553,-3.3372766176859536,-2.270100692907969,0.8893323540687561,-10.930015087127686,-0.13449659322698912,-0.5089016432563463,0.33205616722504294,-0.8269079113379121,-2.141289827724298,-9.233809272448221,2.392981638511022
10.4,-0.2678556565308209,-13.135263854807073,1.5379685900371636,0.0,0.0,14.748453800494854,42.069440621596115,2.493461099954752,85.68858366746169,328.72498204157904,-122.91727618846153,49.279165869230766,-0.16995410124460852,0.01672307972330597,-0.7841893633206686,0.5953723589579264,-2.3144452969233194,1.2243902087211609,2.5834151109059653,28.98414944410324,39.403864002227785,-18.16701958179474,0.2340308050554472,0.3197115974105669,1.073842110816093,-225.54444541931153,132.7216625213623,-150.1710174560547,1.0256124039491017,-6.338733832041423,-2.1479020516077676,-0.2787140106471875,-12.813939174016316,1.689806388691068,0.22480766825152165,0.33465465584021964,0.9960065330378711,-2.1368428071339927,-9.260220209757486,2.280229647954305
10.5,-1.280377646061507,-14.821469653736461,3.555299314585599,0.0,0.0,14.661125623262846,41.04495987525353,2.511321920614976,85.19950631948618,328.54998192420373,-122.91727009230769,49.27916744615385,-0.13066193740814921,0.0030400847705701907,-0.6061181575059891,0.7773015896479288,-0.7351329450805982,1.2400808036327362,0.9265546649694443,23.76193940639496,42.84700870513916,-17.13733983039856,0.9463691020553763,0.2881756705993956,2.890267280406657,-230.76665573120118,136.1648078918457,-149.14133911132814,-4.635498236526143,-2.0805016430941494,2.5532250621102075,-1.4467603753631313,-14.697863260904947,3.5141093706091246,0.9585169797593897,0.33725314445539634,2.8189209774136543,2.463603875853799,-9.235870014537465,1.5448252721266313
10.6,-2.746063083410263,-9.173384348551432,1.1270195245742798,0.0,0.0,14.573797446030836,40.02047912891094,2.5291827412752004,84.71042897151067,328.37498180682843,-122.91726399615384,49.279169023076925,-0.05297405446617631,-0.07810459693075354,-0.5375936363231052,0.8218797400142207,-0.5991987119795699,1.103898198767142,0.5582192980430343,-0.8674199402332305,50.448218536376956,-12.548919868469238,0.5097415919105212,-2.573295305172602,3.116328994433085,-255.39601287841796,143.76601867675782,-144.55291748046875,-2.466902638926651,-0.05973969264463941,1.5736312775900871,-3.1376885175704956,-8.254440466562906,0.17108685026566187,0.464639388024807,-2.4846434891223907,3.0796262423197427,3.682345579970967,-8.667362357630875,1.9713439625321012
10.7,0.845464030901591,0.5144569128751755,1.5941184361775715,0.0,0.0,14.486469268798828,38.99599838256836,2.547043561935425,84.22135162353516,328.1999816894531,-122.9172579,49.2791706,0.024713828475796597,-0.15924927863207727,-0.4690691151402213,0.8664578903805126,-0.46326447887854144,0.9677155939015475,0.18988393111662427,-12.590399742126465,48.931758880615234,-11.772999954223632,0.5429828418418764,-2.5525768299897513,1.1868093808492024,-267.118994140625,142.2495559692383,-143.7769989013672,-0.29830704132715863,1.9610222578048706,0.5940374930699667,1.0619346857070924,0.8433503329753875,2.0009979218244554,0.5201008593042692,-2.727131575345993,1.447088822722435,4.901087284088135,-8.098854700724283,2.397862652937571
10.8,8.359824339548746,-12.790434499581655,4.389433741569519,0.0,0.11659701665242513,14.399325892329216,42.045706828435264,2.539306869109472,84.141126314799,328.24894014994305,-122.91725542395832,49.27917117291667,0.06479398313240378,-0.19255295779668924,-0.48212567807147,0.8493063951080495,-0.5261231231870074,1.0132949216799303,0.14521875723519104,-5.222819912433624,50.438458633422854,-7.8153198719024655,1.0943956255912781,-0.20402899980545045,-2.0568443655967714,-259.7514190673828,143.75625762939453,-139.8193161010742,-1.4423913498719534,-0.2804373860359193,2.052828017870585,7.499405225118001,-10.142975668112436,4.580361048380534,0.931391324227055,-0.7106653479859233,-1.5558992077906926,4.454278540611267,-8.323537762959798,2.5301645418008167
10.9,4.133741555791913,-10.596551514936216,3.726259345358068,0.0,0.23319403330485025,14.312182515859604,45.09541527430216,2.5315701762835183,84.06090100606282,328.2978986104329,-122.91725294791667,49.27917174583333,0.10487413778901096,-0.22585663696130118,-0.4951822410027186,0.8321548998355865,-0.5889817674954733,1.058874249458313,0.10055358335375782,-3.329379941523075,50.2475287437439,-6.986939883232116,0.5813935371271024,0.574455122742802,-1.6911600698406497,-257.85797653198244,143.56532669067383,-138.99093589782714,-2.586475658416748,-2.521897029876709,3.5116185426712034,3.9116668452819185,-9.753394268453121,3.8143088296055794,0.5356744436660048,0.48151800066063366,-1.5213031815647176,4.0074697971344,-8.548220825195312,2.6624664306640624
11.0,-0.09234122796492143,-8.402668530290777,3.0630849491466177,0.0,0.3497910499572754,14.225039139389992,48.14512372016907,2.5238334834575653,83.98067569732666,328.34685707092285,-122.917250471875,49.27917231875,-0.0325256378952569,-0.09800896700471635,-0.6402029494444529,0.7478363166252772,-1.0576853255430858,1.2748425006866455,0.9617861385146776,-1.435939970612526,50.056598854064944,-6.158559894561767,0.06839144866292675,1.3529392452910542,-1.3254757740845282,-255.96453399658202,143.37439575195313,-138.16255569458008,-3.3114933172861734,0.5313619375228881,-2.0569993257522583,0.32392846544583637,-9.363812868793806,3.048256610830625,0.13995756310495464,1.6737013493071904,-1.4867071553387425,1.578029331130286,-9.325626055399576,2.0043817261854806
11.1,-2.113859474658966,-11.409177780151367,-0.5761717756589254,0.0,0.4663880666097005,14.13789576292038,51.19483216603597,2.5160967906316123,83.9004503885905,328.3958155314128,-122.91724799583334,49.27917289166667,-0.09721920619653465,-0.047121875347908244,-0.7078045331167452,0.6785603912942337,-1.6520319061748912,1.2586535052819685,1.7232167604520465,16.412659740448,45.1973388671875,-13.593239784240723,-1.202360959413151,1.3049863527218502,-2.5849271615346274,-238.11593475341797,138.5151351928711,-145.59723968505858,-0.6087126135826111,0.28968503077824903,-2.1538606087366743,-1.3056835234165192,-11.528419971466064,-0.7519445319970449,-1.2974268769224484,1.4404457000394661,-2.65489669640859,-0.21635113827263308,-9.298879464467365,2.2124345153570175
11.2,0.2885345369577408,-7.591329574584961,1.0710872299969196,0.0,0.5829850832621256,14.050752386450768,54.24454061190287,2.508360097805659,83.82022507985432,328.44477399190265,-122.91724551979166,49.27917346458334,-0.16191277449781238,0.0037652163088998723,-0.7754061167890375,0.6092844659631903,-2.2463784868066963,1.2424645098772915,2.4846473823894155,24.08889980316162,41.12131881713867,-16.46389970779419,0.314901032174627,1.1440742462873459,-1.6212872465451558,-230.4396957397461,134.43911895751953,-148.4678970336914,2.094068090120951,0.048008124033610024,-2.25072189172109,0.21176480650901794,-7.373841857910156,1.3018151581287385,0.36537377660473186,1.1534917503595352,-1.6815338532129924,-2.0107316076755524,-9.272132873535156,2.4204873045285544
11.3,-0.1221336517482996,-10.85723320643107,-0.7318049321571986,0.0,0.6995820999145508,13.963609009981155,57.294249057769775,2.500623404979706,83.73999977111816,328.4937324523926,-122.91724304374999,49.2791740375,-0.16691487305092084,0.011846083419213978,-0.7778317603197964,0.6046776599956282,-2.2685494549346696,1.2386041717095808,2.5257425850087944,28.0197395324707,37.41983985900879,-18.787999534606932,-0.6423248171806335,0.13698653131723407,-0.646051076054573,-226.50885772705078,130.73763732910157,-150.79199981689453,2.2082011600335436,-3.5415673414866133,-2.54657785097758,0.25792635045945644,-10.357033570607504,-0.27078774307544035,-0.6071237027645111,0.1114829070866108,-0.5622505520780882,-2.141639366745949,-9.250161457061768,2.396068892876307
11.4,-0.5241051948713986,-12.832526503187237,1.5350047740520854,0.0,0.8161791165669758,13.876465633511543,60.34395750363668,2.492886712153753,83.659774462382,328.5426909128825,-122.91724056770833,49.27917461041667,-0.1719169716040293,0.019926950529528083,-0.7802574038505554,0.600070854028066,-2.2907204230626426,1.2347438335418701,2.566837787628174,24.25573455095291,39.69696931838989,-18.0916846036911,0.08827638899286594,0.11796062874297303,0.9095541704407271,-230.27286224365236,133.01476821899416,-150.0956832885742,2.3223342299461365,-7.131142807006836,-2.84243381023407,-0.3303341489906113,-12.577971935272217,1.705085555789992,0.16137601096521725,0.13363370925865392,1.022849878014037,-2.272547125816345,-9.228190040588379,2.37165048122406
11.5,-0.9260767379944975,-14.807819799943404,3.801814480261369,0.0,0.932776133219401,13.789322257041931,63.393665949503585,2.4851500193277993,83.57954915364583,328.5916493733724,-122.91723809166666,49.27917518333334,-0.13925074650482694,0.010984826409681264,-0.6205443739891052,0.7661487243392251,-0.7750461480834268,1.2701006477529353,0.9901029467582703,20.49172956943512,41.974098777771,-17.395369672775267,0.8188775951663653,0.09893472616871198,2.4651594169360274,-234.0368667602539,135.29189910888672,-149.3993667602539,-3.3522020330031714,-2.3165334463119507,2.685051163037618,-0.918594648440679,-14.79891029993693,3.6809588546554246,0.9298757246949456,0.15578451143069702,2.607950308106162,2.095906764268875,-9.304900487263998,1.5744467377662659
11.6,-0.7736793160438538,-9.728419303894043,1.1563314795494082,0.0,1.0493731498718262,13.702178880572319,66.44337439537048,2.4774133265018463,83.49932384490967,328.6406078338623,-122.917235615625,49.27917575625,-0.06737763070056892,-0.059657087606011,-0.5574019613365332,0.8114223570534678,-0.6047524614541819,1.145462502810088,0.6130252343912919,0.012199978530406951,48.96591911315918,-13.916539764404297,0.456189068655173,-1.7315229624509811,2.7838656504948935,-254.51639251708986,142.2837173461914,-145.92053833007813,-2.581087874869506,1.5501456639983435,1.327933876803427,-0.13531415462493887,-10.127741622924805,0.7607980012893677,0.3882557724912961,-1.7352390587329865,2.7901779413223267,3.3851398053494366,-8.81001917521159,1.853876224972985
11.7,-0.8528418789307276,0.373479704062144,0.7574280699094137,0.0,1.1659701665242512,13.615035504102707,69.49308284123738,2.4696766336758933,83.41909853617351,328.68956629435223,-122.91723313958333,49.27917632916667,0.004495485103689116,-0.13029900162170327,-0.4942595486839612,0.8566959897677103,-0.43445877482493717,1.020824357867241,0.23594752202431357,-10.594479751586913,48.584059143066405,-11.737619590759277,0.31734449565410616,-3.0852970838546754,1.700923776626587,-265.1230743408203,141.90185546875,-143.74161682128906,-1.8099737167358398,5.416824774308638,-0.02918340943076394,-1.5417753731211026,0.20947170754273733,0.4526422669490178,0.45168394471208256,-2.8598928848902383,1.3700689331938822,4.674372846429998,-8.31513786315918,2.133305712179704
11.8,7.324789047241211,-6.824808645248413,3.71988205909729,0.0,1.2825671831766763,13.527892127633095,72.5427912871043,2.46193994084994,83.33887322743733,328.7385247548421,-122.91723066354166,49.279176902083336,0.05003059641846142,-0.16927248099818826,-0.5047073525687059,0.8411472141742706,-0.5029102427264055,1.0600780571500459,0.18078491091728205,-3.858859961479902,49.95045890808105,-8.51681981086731,1.140918105840683,-0.7043530742327372,-2.048943887154261,-258.3874542236328,143.26825714111328,-140.52081909179688,-1.6110290686289468,-1.407648426113707,1.8841312915989847,7.40768043200175,-8.764311154683432,4.03080936272939,1.2359941784292459,-0.5730526864528656,-2.299235701560974,4.1938954663999155,-8.540287097295124,2.2460590817711568
11.9,4.011597067117691,-9.13596132795016,3.4403255969285964,0.0,1.3991641998291016,13.440748751163483,75.59249973297119,2.454203248023987,83.25864791870117,328.78748321533203,-122.9172281875,49.279177475,0.09556570773323374,-0.20824596037467322,-0.5151551564534506,0.8255984385808309,-0.5713617106278738,1.099331756432851,0.12562229981025055,-1.2093249715864656,50.142913818359375,-7.583824849128723,0.58899499491478,0.39912409335374843,-1.6999361912409463,-255.73791999816893,143.46071243286133,-139.58782348632815,-1.4120844205220537,-8.232121626536053,3.797445992628733,3.675026595592499,-9.537018430729708,3.5552608321110406,0.6494502859500547,0.3894215067227682,-1.7794517351624868,3.7134180863698325,-8.76543633143107,2.35881245136261
12.0,0.6984050869941713,-11.447114010651907,3.160769134759903,0.0,1.5157612164815266,13.35360537469387,78.64220817883809,2.446466555198034,83.17842260996501,328.83644167582196,-122.91722571145833,49.279178047916666,-0.03933113762600855,-0.07821985130960286,-0.648657500743866,0.7431995272636414,-1.0618117993528193,1.3054422573609785,1.0046125074679202,1.4402100183069706,50.3353687286377,-6.650829887390136,0.03707188398887714,1.502601260940234,-1.3509284953276317,-253.08838577270507,143.65316772460938,-138.6548278808594,-3.072826405366262,1.1500226259231567,-1.9024685521920521,-0.057627240816752266,-10.309725706775984,3.079712301492691,0.0629063934708635,1.351895699898402,-1.2596677687639992,1.2517253536110122,-9.417766014734903,1.827019453048706
12.1,-2.7380869388580322,-10.6392871538798,-0.31655051310857135,0.0,1.6323582331339517,13.266461998224258,81.691916624705,2.4387298623720803,83.09819730122884,328.88540013631183,-122.91722323541667,49.279178620833335,-0.10218944623501912,-0.030642853412163343,-0.7106031800309818,0.6772304748495419,-1.653323175780701,1.280693190115871,1.7555571904010847,18.09259948730469,45.29859924316406,-15.057239627838134,-1.0835222055514653,0.9485973666111628,-2.145231525103251,-236.43599548339844,138.61639709472655,-147.06123809814454,-0.4245474952639956,0.6751477013934742,-1.8025641879349044,-3.2707491397857664,-10.934720993041992,-0.6914061341434717,-1.1708504979809125,1.1343258569637935,-2.2527692119280496,-0.35541738994476035,-9.368410135760453,2.0473907644098457
12.2,-0.21814567099014914,-8.157331784566244,0.703788954919825,0.0,1.748955249786377,13.179318621754646,84.7416250705719,2.4309931695461273,83.01797199249268,328.93435859680176,-122.917220759375,49.279179193750004,-0.1650477548440297,0.016934144485276175,-0.7725488593180975,0.6112614224354426,-2.2448345522085824,1.255944122870763,2.506501873334249,24.236519432067873,41.96433868408203,-17.63387985229492,0.4269031763076782,1.5050192713737487,-1.2699583292007446,-230.29207611083984,135.28213500976562,-149.63787841796875,2.2237314148382707,0.20027277686379172,-1.7026598236777566,0.33170504371325177,-8.302795569101969,0.7338986635829011,0.34317899495363235,1.336624061067899,-1.345023473103841,-1.9625601335005327,-9.319054256786,2.267762075770985
12.3,0.8360522270202637,-10.27286605834961,0.3984049789607525,0.0,1.865552266438802,13.092175245285034,87.79133351643881,2.4232564767201743,82.93774668375652,328.9833170572917,-122.91721828333333,49.279179766666665,-0.17466228082776064,0.03011442372614203,-0.7776976004242897,0.6014422501126925,-2.2873585273822146,1.2439812173446019,2.5822326342264814,29.066499328613283,38.53735847473145,-19.959199714660645,-0.6996697783470154,0.06986771027247113,-1.0131709203124046,-225.46209411621095,131.85515747070312,-151.96319580078125,2.1249777805624586,-3.182083657293609,-2.4143954407085073,0.3949154118696849,-10.48046350479126,0.11126626531283061,-0.7660250186920166,-0.0059864819049835205,-0.9777814693748951,-2.192429908297279,-9.252107844208226,2.324874893282399
12.4,-0.17003497083981833,-12.643639945983887,1.630683726693193,0.0,1.982149283091227,13.005031868815422,90.84104196230571,2.415519783894221,82.85752137502034,329.03227551778156,-122.91721580729167,49.279180339583334,-0.1842768068114916,0.04329470296700788,-0.7828463415304819,0.5916230777899424,-2.329882502555847,1.2320183118184407,2.6579633951187134,25.20794452428818,41.157308673858644,-19.261054730415346,0.05932392381752538,0.16193019319325686,0.7544440192480881,-229.32065048217774,134.47510719299316,-151.265051651001,2.0262241462866464,-6.564440091451009,-3.126131057739258,-0.36836326167438976,-12.76416347243569,1.4830062005555993,0.01981494476397838,0.1374930392388099,0.7407873696337145,-2.4222996830940247,-9.185161431630453,2.381987710793813
12.5,-1.1761221686999004,-15.014413833618164,2.862962474425634,0.0,2.0987462997436523,12.91788849234581,93.89075040817261,2.407783091068268,82.77729606628418,329.0812339782715,-122.91721333125,49.2791809125,-0.15618957172740588,0.03726480494845993,-0.617644651369615,0.764325737953186,-0.7410611835393038,1.2733595804734663,1.0186202797022732,21.349389719963074,43.77725887298584,-18.562909746170043,0.818317625982066,0.2539926761140426,2.522058958808581,-233.17920684814453,137.0950569152832,-150.5669075012207,-3.7862272560596466,-2.177128791809082,2.854283476869265,-1.1316419352184643,-15.047863440080123,2.8547461357983677,0.8056549082199732,0.2809725603826033,2.459356208642324,2.15450806543231,-9.303427696228027,1.3643868764241536
12.6,-1.3076775471369426,-8.68235699335734,1.9669001897176106,0.0,2.215343316396077,12.830745115876198,96.94045885403952,2.400046398242315,82.69707075754802,329.1301924387614,-122.91721085520834,49.279181485416665,-0.09658347284174382,-0.03021199948323721,-0.5517490201375701,0.8148679956793785,-0.5638769928253058,1.1329657279632308,0.6579090330862637,-2.3948598206043243,51.088718795776366,-14.001939678192139,0.6809620201587677,-1.3744773745536805,2.9454700469970705,-256.92345733642577,144.4065170288086,-146.0059387207031,-2.4770239415493878,1.0348690206354316,1.2268684630592663,-0.40149570008118945,-9.94048297405243,3.1684959133466086,0.6887505600849787,-1.4410565793514252,2.9047406117121377,3.569345298307863,-8.73163663257252,1.6904599251169148
12.7,-1.4373685359954833,0.9588040292263031,0.9397811174392701,0.0,2.3319403330485025,12.743601739406586,99.99016729990642,2.3923097054163613,82.61684544881184,329.1791508992513,-122.91720837916667,49.27918205833333,-0.03697737395608175,-0.09768880391493434,-0.4858533889055252,0.865410253405571,-0.3866928021113078,0.9925718754529953,0.29719778647025424,-14.012919807434082,49.38681831359863,-12.975919818878173,0.20446168879667917,-2.7978901267051697,1.8743636359771092,-268.54151306152346,142.70461730957032,-144.97991943359375,-1.1678206270391291,4.246866833079945,-0.4005465507507324,-1.838286116719246,0.6768696953852972,0.9742776105801264,0.05699373558163647,-2.988872003555298,1.9055025041103364,4.984182531183416,-8.159845568917014,2.0165329738096758
12.8,8.194221218427023,-7.9730843504269915,2.1792632242043815,0.0,2.4485373497009277,12.656458362936974,103.03987574577332,2.3845730125904083,82.53662014007568,329.2281093597412,-122.917205903125,49.27918263125,0.00358486487918222,-0.13270331290550527,-0.5060304030776024,0.8487704023718834,-0.4635799129803976,1.0459944233298302,0.26409564912319183,-8.183759760856628,50.5872989654541,-10.965359687805178,1.0153852999210358,-0.5389613211154938,-1.9605974753697712,-262.7123565673828,143.90509643554688,-142.9693588256836,-1.9863803458936289,-0.5501780257080533,2.814973990122477,8.770592331886292,-10.948758870363235,2.6239294471840062,1.049924651781718,-0.5612579037745794,-2.040289963285128,4.417810030055769,-8.450104742339164,2.117759176275947
12.9,4.595291230051468,-9.331634432077408,2.8788149009148283,0.0,2.5651343663533526,12.569314986467361,106.08958419164023,2.3768363197644553,82.45639483133952,329.27706782023114,-122.91720342708334,49.27918320416667,0.04414710371444618,-0.1677178218960762,-0.5262074172496796,0.8321305513381958,-0.5404670238494873,1.099416971206665,0.2309935117761294,-4.6204448863863945,50.597668933868405,-10.13728473186493,0.5610670055417964,0.398589571317037,-1.7053512434164682,-259.1490417480469,143.91546630859375,-142.1412841796875,-2.8049400647481284,-5.347222884496053,6.0304945309956866,4.915469503538175,-10.331918243657459,3.073136595557585,0.5926156515876453,0.3232240701715151,-1.6887242595354715,3.851437528928121,-8.740363915761312,2.218985378742218
13.0,0.9963612416759133,-10.690184513727823,3.5783665776252747,0.0,2.681731383005778,12.48217160999775,109.13929263750713,2.369099626938502,82.37616952260335,329.326026280721,-122.91720095104166,49.27918377708333,-0.07191980084065684,-0.04616438133896073,-0.6391555125063116,0.7542524175210432,-0.9409886490214955,1.3025045720013706,0.9764382812109861,-1.0571300119161606,50.608038902282715,-9.309209775924682,0.10674871116255719,1.3361404637495677,-1.4501050114631653,-255.58572692871093,143.92583618164062,-141.3132095336914,-2.6680914858977,0.8492014408111572,-1.9471120436986287,1.0603466751900585,-9.715077616951682,3.5223437439311636,0.13530665139357248,1.2077060441176097,-1.337158555785815,1.5611481784532468,-9.399995724360148,1.7428991595904033
13.1,-3.1605199178059897,-9.809276739756266,0.6839484771092733,0.0,2.798328399658203,12.395028233528137,112.18900108337402,2.361362934112549,82.29594421386719,329.37498474121094,-122.917198475,49.27918435,-0.12079285991829675,-0.008877746266962007,-0.7037778250647314,0.6843492779316325,-1.5858142023736779,1.2866269462939464,1.745897887782617,14.148339557647706,46.636939239501956,-14.420399570465088,-1.3037696719169616,0.16337585747241984,-1.8529069781303407,-240.38025665283203,139.954736328125,-146.4243957519531,-0.1597513497778862,0.5515298518267545,-1.7983227552789631,-4.755834658940633,-9.616554816563925,0.8573284037411213,-1.127759067962567,0.064471701780955,-2.067727963129679,-0.14395582086096215,-9.380090977206375,1.9707460358287348
13.2,0.3823730647563935,-7.440242671966553,1.6907684803009033,0.0,2.914925416310628,12.307884857058525,115.23870952924094,2.353626241286596,82.21571890513103,329.42394320170087,-122.91719599895833,49.27918492291667,-0.16966591899593667,0.028408888805036715,-0.7684001376231512,0.6144461383422216,-2.2306397557258606,1.2707493205865223,2.515357494354248,22.028319549560546,42.89153938293457,-16.330919551849366,0.24169901510079703,1.498859703540802,-1.7067575057347615,-232.50027465820312,136.20933685302734,-148.3349151611328,2.3485887863419275,0.25385826284235175,-1.6495334668592974,1.2263216475645702,-7.687540928522746,1.6165511012077332,0.3112969309091568,2.096061897277832,-1.5477797985076904,-1.849059820175171,-9.360186230052602,2.1985929120670664
13.3,0.5969095478455225,-10.495019753774008,-0.4025924038141966,0.0,3.0315224329630532,12.220741480588913,118.28841797510783,2.3458895484606423,82.13549359639485,329.47290166219074,-122.91719352291666,49.27918549583333,-0.17970257612566148,0.04074566293663032,-0.7770707632104557,0.6002169961730639,-2.298850327730179,1.2486329505840938,2.6163967847824097,26.35565929412842,39.14369926452637,-19.035659790039062,-0.6099744041760763,0.0032833988467852273,-1.0008772537112236,-228.17293395996094,132.46149597167968,-151.03965759277344,2.266303957411737,-2.8809281117988355,-2.300284423611381,0.4712864011526108,-10.928918520609537,-0.6192425390084585,-0.6052147497733434,-0.007584917048613231,-1.0860420625346403,-2.079831451177597,-9.30237053379868,2.2397315059647416
13.4,-0.11959128888944781,-12.531561175982159,1.1263215569779277,0.0,3.1481194496154785,12.1335981041193,121.33812642097473,2.3381528556346893,82.05526828765869,329.52186012268066,-122.917191046875,49.27918606875,-0.1897392332553863,0.05308243706822392,-0.78574138879776,0.5859878540039063,-2.367060899734497,1.2265165805816651,2.7174360752105713,23.480729413032535,40.17703914642334,-18.471409726142884,0.110755197252288,0.09241766606767973,0.6833904470232399,-231.04786491394043,133.4948356628418,-150.47540779113768,2.184019128481547,-6.0157144864400225,-2.9510353803634644,-0.14712684652344743,-12.800717454968076,0.9973493376464556,0.07489462072650588,0.07706446674031515,0.654618465225212,-2.310603082180023,-9.24455483754476,2.2808700998624167
13.5,-0.8360921256244183,-14.568102598190308,2.655235517770052,0.0,3.2647164662679033,12.046454727649689,124.38783486684164,2.3304161628087363,81.97504297892253,329.5708185831706,-122.91718857083333,49.27918664166667,-0.17054384077588713,0.05354289586345351,-0.6331658661365509,0.7469784766435623,-0.879767949382464,1.290355344613393,1.2013603548208873,20.605799531936647,41.21037902832031,-17.907159662246706,0.8314847986806523,0.18155193328857422,2.3676581477577034,-233.92279586791992,134.5281753540039,-149.91115798950196,-2.700639833103527,-3.48348686911843,3.379955519329418,-0.7655400941995057,-14.672516389326615,2.6139412143013696,0.7550039912263552,0.16171385052924356,2.3952789929850646,1.8120598020878704,-9.404915029352361,1.354966326193376
13.6,-0.10061820745468135,-11.703893852233886,3.2396426439285273,0.0,3.3813134829203286,11.959311351180077,127.43754331270854,2.322679469982783,81.89481767018636,329.61977704366046,-122.91718609479166,49.27918721458334,-0.10825182784659163,-0.009476300600605697,-0.5597186200320721,0.8069220284620922,-0.6012671416004498,1.1444728275140126,0.7425169665366411,0.25619999766349794,47.498259735107425,-14.08855972290039,0.5717953089624643,-0.7131342602272829,2.556191086769104,-254.27239379882812,140.81605682373046,-146.09255676269532,-2.9345632141286675,1.4353279778451635,1.4672650839343215,-0.8030911361177763,-11.408380031585693,3.554238960146904,0.5915008023381233,-0.8131837978959083,2.420736837387085,3.4180584958556928,-8.811355359626539,1.4795204145890293
13.7,-2.9693931937217712,0.5759723633527755,-0.12123631437619513,0.0,3.497910499572754,11.872167974710464,130.48725175857544,2.31494277715683,81.8145923614502,329.6687355041504,-122.91718361875,49.2791877875,-0.045959814917296116,-0.07249549706466492,-0.48627137392759323,0.8668655802806219,-0.32276633381843567,0.9985903104146322,0.283673578252395,-10.252879905700684,47.312818908691405,-11.337459754943847,0.4261548550178607,-2.8385635217030845,2.4464389445881047,-264.78147583007814,140.6306182861328,-143.3414566040039,-3.1684865951538086,6.354142824808757,-0.4454253514607747,-2.0630118548870087,0.8402795096238455,0.23778673013051352,0.4809800156702598,-2.781702160835266,2.571971744298935,5.024057189623515,-8.217795689900717,1.6040745029846828
13.8,6.680262406667073,-4.3035913209120435,2.438286284605662,0.0,3.6145075162251787,11.785024598240852,133.53696020444235,2.307206084330877,81.73436705271403,329.7176939646403,-122.91718114270833,49.27918836041667,-0.006977191451005636,-0.11061081478837873,-0.5079699657857418,0.8504681552449862,-0.41067796349525454,1.0520274798075357,0.25932738917569315,-4.838519912958145,48.37421913146973,-9.645319843292237,0.9421578397353491,-0.5648212805390358,-2.508289078871409,-259.3671127319336,141.6920181274414,-141.6493179321289,-1.5082012017567952,-1.5616957743962603,2.7693014343579607,7.58225663503011,-6.592126746972402,2.7050860126813254,1.0034479976942141,-0.5906557862957319,-2.5095871686935425,4.429425199826559,-8.504303773244223,1.826936406393846
13.9,3.9738802450398603,-8.341454531687003,3.0837750782569247,0.0,3.731104532877604,11.69788122177124,136.58666865030926,2.2994693915049234,81.65414174397786,329.7666524251302,-122.91717866666667,49.27918893333334,0.03200543201528484,-0.14872613251209255,-0.5296685576438904,0.8340707302093506,-0.49858959317207335,1.1054646492004394,0.23498120009899134,-1.2224399764090776,48.84513912200928,-8.504924821853638,0.5481590057412784,0.14108556068756362,-1.65107505418586,-255.75103378295898,142.16293754577634,-140.50892219543456,0.1520841916402181,-9.477534373601278,5.984028220176697,4.349580430623257,-9.120220898678808,3.2346067690488063,0.5382613770974178,0.22873722994700063,-1.7603672798722982,3.834793210029602,-8.790811856587728,2.049798309803009
14.0,1.2674980834126472,-12.379317742461959,3.729263871908188,0.0,3.8477015495300293,11.610737845301628,139.63637709617615,2.2917326986789703,81.5739164352417,329.8156108856201,-122.917176190625,49.27918950625,-0.059985060322408856,-0.048663811719355465,-0.6249170253674189,0.7659279803435007,-0.8098676949739456,1.2836282749970753,0.8244337600966295,2.39363996013999,49.31605911254883,-7.364529800415039,0.15416017174720764,0.846992401914163,-0.7938610295003111,-252.13495483398438,142.63385696411132,-139.36852645874023,-4.596802765672857,0.7662652189081366,-1.9359203468669544,1.1169042262164028,-11.648315050385214,3.7641275254162876,0.07307475650062163,1.0481302461897333,-1.011147391051054,1.9493348896503448,-9.373961622064764,1.5540630275552922
14.1,-4.082633936405182,-11.14911766052246,-0.15014958381652832,0.0,3.964298566182454,11.523594468832016,142.68608554204306,2.2839960058530173,81.49369112650554,329.86456934611004,-122.91717371458333,49.27919007916667,-0.11336655766265746,-0.004355024082487405,-0.6936193327560569,0.6943033549821738,-1.5183940306305885,1.2909803476297492,1.6738775967987198,16.127179622650146,45.836619186401364,-13.56639986038208,-1.476003165046374,1.3309989869594574,-2.5409703254699707,-238.401416015625,139.1544174194336,-145.57039489746094,-0.9173200674580801,0.691075774756345,-1.6496894951119567,-3.3713874022165933,-10.897113800048828,0.15942183136940002,-1.6427082300186158,0.9217040300369262,-2.2762977123260497,0.15439718589186668,-9.403995163512953,1.786963664221041
14.2,1.1638091308996081,-7.6639119784037275,0.8531409700711569,0.0,4.080895582834879,11.436451092362404,145.73579398790997,2.276259313027064,81.41346581776936,329.9135278065999,-122.91717123854167,49.27919065208334,-0.16674805500290607,0.039953763554380656,-0.762321640144695,0.6226787296208468,-2.2269203662872314,1.2983324202624233,2.52332143350081,25.685879707336426,41.498299789428714,-16.247959518432616,0.34600425659057993,1.1683052262912195,-1.6052520473798115,-228.84271545410155,134.81609802246095,-148.2519546508789,2.762162630756696,0.6158863306045532,-1.363458643356959,0.5799603586395582,-7.58435042699178,0.9704889754454294,0.3557526506483555,1.0821477770805359,-1.6424639423688252,-1.6405405178666115,-9.434028704961142,2.01986430088679
14.3,1.0791630328943331,-9.972686608632406,0.45942196249961853,0.0,4.197492599487305,11.349307715892792,148.78550243377686,2.268522620201111,81.3332405090332,329.96248626708984,-122.9171687625,49.279191225,-0.17814247095675176,0.0474172828817796,-0.7754796490524755,0.6024363501505419,-2.3078103462855024,1.2592762446764745,2.6324563243172383,30.664699363708497,38.345819091796876,-17.955959510803222,-0.4743877798318863,0.17412204792102173,-1.0422633762160938,-223.8638946533203,131.66361541748046,-149.9599578857422,2.362647665043672,-2.652685900529226,-2.6545965125163393,1.5180066764354705,-10.045907020568848,0.6134000808000565,-0.45300749440987903,0.1463276706635952,-1.111163894335429,-2.023304093629122,-9.335622588793438,2.1292219857374826
14.4,-0.019666007099052196,-12.039312640825909,1.0236794321487346,0.0,4.3140896161397295,11.26216433942318,151.83521087964377,2.260785927375158,81.25301520029704,330.01144472757977,-122.91716628645834,49.27919179791667,-0.18953688691059745,0.05488080220917855,-0.788637657960256,0.5821939706802368,-2.388700326283773,1.2202200690905254,2.741591215133667,28.24787938594818,39.95347423553467,-17.857444524765015,0.12739547748457303,0.1879301458371408,0.5212126504488739,-226.28071517944335,133.2712715148926,-149.86144218444826,1.9631326993306477,-5.921258131663005,-3.94573438167572,0.2002543305357296,-11.975798209508259,0.9650751993060112,0.11703796125948435,0.19494872765305143,0.5172501462511716,-2.406067669391632,-9.237216472625734,2.2385796705881753
14.5,-1.1184950470924377,-14.10593867301941,1.5879369017978509,0.0,4.430686632792154,11.175020962953568,154.88491932551068,2.2530492345492044,81.17278989156087,330.06040318806964,-122.91716381041667,49.279192370833336,-0.1694235118726889,0.05515727920768157,-0.6446585009495417,0.7360733399788538,-1.0050109922885895,1.3037390212217967,1.3269784450531006,25.831059408187866,41.56112937927246,-17.758929538726807,0.7291787348010323,0.20173824375325988,2.0846886771138418,-228.6975357055664,134.8789276123047,-149.7629264831543,-2.088157827203924,-3.497771523215554,3.2068011543967505,-1.117498015364011,-13.905689398447672,1.316750317811966,0.6870834169288477,0.24356978464250764,2.1456641868377724,1.493623061613603,-9.440825288945978,1.367094711823897
14.6,0.8444271087646484,-12.801361846923829,4.202514362335205,0.0,4.54728364944458,11.087877586483955,157.93462777137756,2.2453125417232513,81.0925645828247,330.10936164855957,-122.917161334375,49.279192943750004,-0.11532178967062268,-0.012050875593117918,-0.5623125341353994,0.8026224769877665,-0.6822677688165144,1.1401244722532504,0.829667324369604,3.82469989657402,50.107838821411136,-13.616419792175293,0.10366892566283543,-1.2916490683952968,3.073823014895121,-250.70389404296876,143.42564086914064,-145.62041625976562,-3.0042367451118697,1.3353982260732935,1.2633070440003364,0.7575278033812841,-12.775977929433187,4.032205323378245,-0.006414079666137695,-1.6749314188957214,2.9766241550445556,3.2556168753089327,-8.807859115528338,1.626145947160143
14.7,-3.6254253250857196,-1.1190434098243713,0.21355937918027243,0.0,4.663880666097005,11.000734210014343,160.98433621724448,2.2375758488972983,81.01233927408855,330.1583201090495,-122.91715885833334,49.279193516666666,-0.061220067468556454,-0.0792590303939174,-0.47996656732125714,0.8691716139966791,-0.3595245453444394,0.976509923284704,0.3323562036861073,-8.818159890174865,49.758919143676756,-11.411879634857177,0.40877066055933636,-2.424269661307335,2.438421348730723,-263.3467529296875,143.07671661376952,-143.41587829589844,-3.920315663019816,6.168567975362142,-0.6801870663960775,-3.0765716483195615,-0.2315056025981903,0.7761718286201358,0.4462625135978063,-2.3288218888143697,2.5329272548357644,5.017610689004262,-8.174892942110697,1.8851971824963887
14.8,5.819743514060974,-2.8939195672671,2.196212368949394,0.0,4.78047768274943,10.913590833544731,164.0340446631114,2.229839156071345,80.93211396535237,330.20727856953937,-122.91715638229167,49.279194089583335,-0.019606558874136558,-0.11394705803302874,-0.5026408465522708,0.8527556233333818,-0.4355512049162027,1.033849037957914,0.29713979566639115,-8.447279858589173,49.96753921508789,-10.247999668121338,1.1367692947387695,-0.5136104002594948,-2.179083595673243,-262.97587432861326,143.28533782958985,-142.2519973754883,0.07833343744277999,-0.6658866802851362,2.2335796058177944,5.404070234298706,-2.7315266132354736,2.3058435529470445,1.1459831992785137,-0.5740606139103571,-2.0748801610122123,4.477612286806107,-8.432016789913177,2.0740241408348083
14.9,4.558227494020354,-7.676238529609911,3.1508217054418335,0.0,4.8970746994018555,10.826447457075119,167.08375310897827,2.222102463245392,80.85188865661621,330.2562370300293,-122.91715390625001,49.279194662500004,0.022006949720283334,-0.14863508567214007,-0.5253151257832845,0.8363396326700846,-0.5115778644879659,1.0911881526311238,0.26192338764667505,-4.935204909741879,50.187749195098874,-8.9197247505188,0.6855180564929139,-0.15458245677026838,-1.3791127457763208,-259.46380004882815,143.50554695129395,-140.92372245788573,4.0769825379053755,-7.500341335932414,5.147346278031667,4.435211307555437,-7.493333424131076,3.149183939397335,0.6886880876298882,-0.24759478754166397,-1.2983836727781277,3.9376138846079507,-8.689140637715658,2.262851099173228
15.0,3.2967114739797334,-12.458557491952723,4.105431041934273,0.0,5.01367171605428,10.739304080605507,170.13346155484518,2.214365770419439,80.77166334788005,330.3051954905192,-122.91715143020834,49.279195235416665,-0.04621770093217494,-0.06469072975839178,-0.6136204053958257,0.7727941473325094,-0.8112633923689524,1.2654418845971425,0.7825073351462682,-1.4231299608945847,50.407959175109866,-7.591449832916259,0.23426681824705817,0.20444548671895804,-0.5791418958793986,-255.95172576904298,143.72575607299805,-139.5954475402832,-7.109226140108976,0.39671702818437055,-0.38949266888878564,3.466352380812168,-12.255140235026678,3.9925243258476257,0.2313929759812626,0.07887103882702914,-0.5218871845440431,2.1410466984591703,-9.298621957952326,1.6564532193270596
15.1,-7.138089140256246,-9.66939640045166,2.2059830762445927,0.0,5.130268732706705,10.652160704135895,173.1831700007121,2.2066290775934854,80.69143803914388,330.3541539510091,-122.91714895416666,49.279195808333334,-0.10744234409437259,-0.013225984085831019,-0.6854440784364035,0.7004199100263191,-1.4913756490656822,1.2847706029812493,1.6253170653274567,13.032039690017701,47.189598846435544,-10.98609972000122,-1.2011901487906773,3.0482939779758453,-3.059289519985517,-241.4965560913086,140.5073989868164,-142.99009857177734,-1.8860148751374446,0.41595949548663513,-1.1938768765240004,-7.154539664586385,-9.71954576174418,1.6968103448549907,-1.1545353010296822,3.322419653336207,-3.2367204328378043,0.32238242244630166,-9.374039086428557,1.8513973093394076
15.2,2.6062822937965398,-8.524629990259806,-0.358524593214194,0.0,5.246865749359131,10.565017327666283,176.23287844657898,2.1988923847675323,80.61121273040771,330.403112411499,-122.917146478125,49.27919638125,-0.16866698725657026,0.038238761586729744,-0.7572677514769814,0.6280456727201288,-2.171487905762412,1.3040993213653564,2.468126795508645,21.232879638671875,42.71219902038574,-15.28049964904785,0.15521067629257837,0.7061602473258972,-1.5510631998380024,-233.29571533203125,136.02999572753907,-147.2844970703125,3.337196389834086,0.4352019627888997,-1.9982610841592152,3.382015514373779,-8.363274002075196,-0.1508674591779709,0.12054407596588135,0.5705735683441162,-1.5220725735028584,-1.4962818535665672,-9.449456214904785,2.0463413993517556
15.3,1.0752746611833572,-9.504191795984903,0.45443689574797946,0.0,5.363462766011556,10.47787395119667,179.2825868924459,2.1911556919415793,80.53098742167155,330.45207087198895,-122.91714400208333,49.27919695416667,-0.18093908262072184,0.04789435348798037,-0.7731389692335418,0.6041581851966453,-2.278048782637625,1.260451594988505,2.6074951200774223,25.407719612121582,39.44259910583496,-17.48015937805176,-0.4273511463155349,0.08419760068257649,-1.3380239605903625,-229.12087707519532,132.7603973388672,-149.48415985107422,3.040147264798482,-2.7383529345194497,-3.0984066377083463,0.6978068947792053,-9.293025096257528,0.6033901100357374,-0.395051642631491,0.07745262235403061,-1.3729705413182576,-1.9566607431819043,-9.33634654680888,2.1690189639727273
15.4,0.02701441604982735,-11.917648037274677,0.603381055435448,0.0,5.4800597826639805,10.390730574727058,182.3322953383128,2.183418999115626,80.45076211293538,330.5010293324788,-122.91714152604168,49.27919752708333,-0.19321117798487342,0.057549945389231,-0.7890101869901022,0.5802706976731619,-2.384609659512838,1.2168038686116536,2.7468634446461997,24.18039960861206,39.68446407318115,-17.657669615745547,0.18289397620229103,0.23125183153333084,0.3660714147104458,-230.34819526672362,133.00226249694825,-149.66166839599612,2.7430981397628784,-5.9119078318278,-4.198552191257477,-0.0515453964471817,-11.79806121190389,0.8081259901324909,0.1806969418839523,0.2378406160595742,0.2986251667325357,-2.417039632797241,-9.223236878712973,2.291696528593699
15.5,-1.0212458290837028,-14.331104278564453,0.7523252151229165,0.0,5.596656799316406,10.303587198257446,185.3820037841797,2.175682306289673,80.37053680419922,330.54998779296875,-122.91713905,49.2791981,-0.1760923104981581,0.06823425282103317,-0.6440462668736776,0.7335140605767568,-0.9679320827126503,1.308044304450353,1.3184067954619725,22.953079605102538,39.92632904052734,-17.83517985343933,0.793139098720117,0.3783060623840852,2.070166790011254,-231.57551345825195,133.2441276550293,-149.83917694091798,-2.240263266996904,-3.6782174543900923,4.030882011760365,-0.8008976876735687,-14.303097327550253,1.0128618702292442,0.7564455263993957,0.3982286097651178,1.970220874783329,1.4733365354212848,-9.455557563088156,1.2635254101319746
15.6,0.7919245958328247,-12.940484523773193,6.419943124055862,0.0,4.7971343994140625,9.700821944645472,168.50628880092077,1.8883207951273238,79.64557320731026,330.88570295061385,-122.91715797142858,49.279196614285716,-0.12282629443727655,5.159659000734951e-05,-0.5608037674065792,0.8022412580974174,-0.6518131755292416,1.1399614571621923,0.8279108958262386,3.581919938325882,47.7605583190918,-13.350459575653076,0.2589305068055789,-1.5694146230816841,3.1727831761042276,-250.9466751098633,141.07835845947267,-145.35445556640624,-3.2794088739337344,1.2944983424562397,1.5904412572131013,0.6550352027018865,-12.34865951538086,5.849055588245392,0.26666813033322495,-1.605786566932996,3.2161800861358643,3.2818312832351886,-8.803406764160503,1.5225525864145972
15.7,-3.110170940247675,-1.0422737101713817,-0.641974369684855,0.0,3.9976119995117188,9.0980566910335,151.63057381766183,1.6009592839649747,78.92060961042132,331.22141810825894,-122.91717689285714,49.27919512857143,-0.069560278376395,-0.06813105964101848,-0.4775612679394809,0.870968455618078,-0.33569426834583277,0.9718786098740317,0.3374149961905046,-7.733579754829407,47.96307907104492,-10.886059761047363,0.32057698257267475,-2.125429268926382,2.367510070403417,-262.2621765136719,141.28087463378907,-142.8900588989258,-4.3185544808705645,6.267214139302571,-0.8499994973341624,-3.6914074599742888,-0.44099714756011965,-0.7708478212356568,0.35875606661041576,-2.0198514287670455,2.4689391454060874,5.090326031049092,-8.15125596523285,1.7815797626972198
15.8,4.653441747029622,-2.7261229157447815,2.504886493086815,0.0,3.198089599609375,8.495291437421526,134.7548588344029,1.3135977728026254,78.19564601353237,331.55713326590404,-122.91719581428572,49.279193642857145,-0.036132590541841834,-0.09782012625752634,-0.5019893262422446,0.8553275240190101,-0.41061953206857044,1.0290323306213724,0.3202324864087682,-8.32649985551834,48.304678726196286,-12.06457977294922,0.9975124001502991,-0.6503882395103574,-2.0761781960725783,-262.85509338378904,141.62247619628906,-144.06857604980468,1.6455876668294271,-1.1214684804280592,0.9508558521668117,3.577568933367729,-1.9129619697729747,2.7643083731333413,0.9503281489014626,-0.6909140615413586,-2.0942242008944354,4.563359812895457,-8.413937842845916,1.955854943394661
15.9,4.346100088321801,-7.816966297951612,3.3716683977029542,0.0,2.3985671997070312,7.892526183809553,117.87914385114398,1.0262362616402763,77.47068241664341,331.8928484235491,-122.91721473571428,49.27919215714286,-0.002704902707288667,-0.1275091928740342,-0.5264173845450083,0.8396865924199423,-0.4855447957913081,1.0861860513687134,0.3030499766270319,-3.6233999371994283,48.9918436050415,-10.869284796714783,0.5836791951830189,-0.1928781723914047,-1.4578235102196533,-258.1519950866699,142.30964241027831,-142.8732822418213,7.609729814529419,-8.51015110015869,2.751711201667786,3.8135361187160015,-7.218946471810342,3.3973844572901726,0.5298087468201464,-0.2576521064126582,-1.3588130177619557,4.0363935947418215,-8.676619720458984,2.1301301240921022
16.0,4.03875842961398,-12.907809680158442,4.238450302319094,0.0,1.5990447998046875,7.28976093019758,101.00342886788505,0.7388747504779272,76.74571881975446,332.2285635811942,-122.91723365714286,49.27919067142857,-0.06262323184108193,-0.06047452986240386,-0.6034412384033203,0.7821932814337991,-0.7284667220982638,1.244096127423373,0.7296473194252361,1.0796999811194836,49.67900848388672,-9.673989820480347,0.16984599021573862,0.26463189472754794,-0.8394688243667284,-253.4488967895508,142.99680862426757,-141.6779884338379,-7.031515880064531,-0.3179940743879839,0.8331925598057833,4.049503304064274,-12.524930973847708,4.030460541447003,0.10928934473883022,0.17560984871604227,-0.6234018346294761,2.5351031016219747,-9.179669380187988,1.858150070363825
16.1,-6.869195620218913,-9.598409175872803,1.2448660085598628,0.0,0.7995223999023438,6.686995676585607,84.12771388462613,0.45151323931557796,76.02075522286552,332.5642787388393,-122.91725257857142,49.27918918571429,-0.1235682997767898,-0.0022571723287304474,-0.6775860885779064,0.7052590688972762,-1.4266939027742906,1.2763373987241224,1.5998754058823441,14.488719749450684,46.28191909790039,-14.4313796043396,-1.0612256700793903,2.624709889292717,-2.9223538835843406,-240.03987731933594,139.59971771240234,-146.4353775024414,-2.182362359581572,0.09496806245861628,-0.47217793875571445,-7.681439304351807,-9.38130054473877,1.391665655374527,-1.0335076426466305,2.9031115770339966,-3.039334535598755,0.5771205776201731,-9.323783278465271,1.9511616604797766
16.2,2.4036900401115417,-8.677371819814047,0.26610180983940757,0.0,0.0,6.084230422973633,67.25199890136719,0.1641517281532287,75.29579162597656,332.8999938964844,-122.9172715,49.2791877,-0.18451336771249768,0.05596018520494297,-0.7517309387524923,0.6283248563607534,-2.1249210834503174,1.3085786700248718,2.4701034923394523,23.71923961639404,41.859419631958005,-18.29023971557617,0.3041854376594226,1.0770826973021033,-1.817884087562561,-230.80935668945312,135.17721405029297,-150.2942367553711,2.6667911609013877,0.5079301993052164,-1.7775484373172123,2.327717920144399,-8.97737201054891,0.15194423993428552,0.2872593868523836,0.9274207204580307,-1.845322052637736,-1.3808619463816285,-9.467897176742554,2.0441732505957284
16.3,0.5678965610762438,-9.187641382217407,0.31904301792383194,0.0,0.0,6.084230422973633,66.98399963378907,0.1483096301555633,60.23663330078125,332.8999938964844,-122.91727482,49.2791875,-0.19891903921961784,0.06903311579177772,-0.7686349004507065,0.6016319841146469,-2.2482471466064453,1.263256291548411,2.634673471252124,27.376799392700196,38.86919898986817,-21.356099700927736,-0.4533841874450445,0.06688974201679229,-1.2052065849304199,-227.15179748535155,132.18699798583984,-153.36009826660157,2.44430543979009,-2.4848405122756962,-3.3721645896633463,0.25583262244860333,-8.977571328481039,0.5066801843543848,-0.4392630259195964,0.14029539128144583,-1.2004011273384094,-1.909248942354073,-9.336693247159321,2.1957179357608156
16.4,-0.13223971025736037,-11.791458465836264,0.6397719000550834,0.0,0.0,6.084230422973633,66.71600036621093,0.13246753215789792,45.17747497558594,332.8999938964844,-122.91727814,49.2791873,-0.21332471072673798,0.08210604637861248,-0.7855388621489207,0.5749391118685404,-2.3715732097625732,1.2179339130719502,2.799243450164795,26.488029432296756,39.83970928192139,-21.77486462593079,0.09032788233210642,0.23661482967436312,0.3100866516625198,-228.04056701660156,133.1575080871582,-153.77886238098145,2.2218197186787925,-5.477611223856608,-4.9667807420094805,-0.20528423304979998,-11.67236316204071,0.8833503791441519,0.12976258259379497,0.279063606916955,0.38781843740831734,-2.4376359383265176,-9.20548931757609,2.3472626209259033
16.5,-0.8323759815909646,-14.395275549455123,0.9605007821863348,0.0,0.0,6.084230422973633,66.44800109863282,0.1166254341602325,30.118316650390625,332.8999938964844,-122.91728146,49.2791871,-0.2007208331064744,0.09352205168794497,-0.6507567438212308,0.7196107560938055,-1.0261772898110477,1.325320135463368,1.4488245411352678,25.599259471893312,40.81021957397461,-22.19362955093384,0.6340399521092573,0.406339917331934,1.8253798882554595,-228.92933654785156,134.12801818847657,-154.19762649536133,-1.7755327007987283,-3.897162437438965,4.315309535373341,-0.6664010885482033,-14.367154995600382,1.2600205739339192,0.6987881911071864,0.4178318225524642,1.9760380021550439,1.2218934107910504,-9.484106584028764,1.2663997249169783
16.6,0.47318068860719603,-12.790035883585611,5.74257477124532,0.0,0.0,6.084230422973633,66.18000183105468,0.1007833361625671,15.059158325195312,332.8999938964844,-122.91728477999999,49.2791869,-0.14858950695700263,0.028497900148839544,-0.5711419643326239,0.7908993340802916,-0.6637737795597676,1.165554116621162,0.9190352230586789,3.015839935839176,51.9109992980957,-17.247139549255373,0.3689371620615323,-1.7662405123313267,3.0208303928375244,-251.51275482177735,145.22879638671876,-149.25113677978516,-3.0571328889239915,1.0402661561965942,1.633439049576268,0.1422532856464386,-12.636855316162109,6.325426769256592,0.3894265800093611,-1.7532595992088318,3.0599767367045083,3.101642599160021,-8.879626554070096,1.4093970277092673
16.7,-2.6684957842032113,-1.5766707062721255,-0.9466604590415955,0.0,0.0,6.084230422973633,65.91200256347656,0.0849412381649017,0.0,332.8999938964844,-122.9172881,49.2791867,-0.09645818080753084,-0.0365262513902659,-0.49152718484401703,0.8621879120667776,-0.30137026930848754,1.0057880977789562,0.38924590498209,-9.938119792938233,52.52099838256836,-13.328499698638916,0.6539312407374382,-1.9537913799285889,2.323273277282715,-264.4667114257812,145.83879852294922,-145.3324966430664,-4.338733077049255,5.977694749832153,-1.048431436220805,-2.4753750214974084,-2.605085908124844,-1.210568865140279,0.5488624150554339,-1.902692511677742,2.2197824716567993,4.981391787528992,-8.27514652411143,1.5523943305015564
16.8,3.7917863639071583,-2.0318653106689455,2.375474691390991,0.0,0.0,6.086352348327637,65.76520233154297,0.06918923780322073,0.0,332.8999938964844,-122.91729133999999,49.27918682,-0.05026251803307483,-0.07306525536114347,-0.512837899227937,0.8495608816544216,-0.36880251578986645,1.0574846317370734,0.3357278282443682,-10.831159782409667,52.779638671875,-13.354119777679443,0.8569675634304682,-0.8740717793504397,-1.2380965786675613,-265.35975646972656,146.0974380493164,-145.35811767578124,1.0414378643035889,-0.7591989040374756,0.8103371957937877,3.77238463362058,-2.024826486905416,2.343869467576345,0.9959241576492787,-0.705457727611065,-1.5199243545532226,4.46381030480067,-8.527787307898203,1.6963933110237122
16.9,3.8999818004357314,-7.17059649626414,3.027942593519886,0.0,0.0,6.088474273681641,65.61840209960937,0.05343723744153974,0.0,332.8999938964844,-122.91729457999999,49.279186939999995,-0.004066855258618818,-0.10960425933202105,-0.5341486136118571,0.8369338512420654,-0.4362347622712453,1.1091811656951904,0.28220975150664646,-6.805464862287044,53.850798988342284,-11.618974804878235,0.5248477729037404,-0.5040847224493821,-0.9652370841552814,-261.3340614318848,147.16859741210936,-143.62297172546386,6.421608805656433,-7.4960925579071045,2.66910582780838,3.6741044248143835,-7.214484830697378,3.0669007351001105,0.6067597212269902,-0.46905416181931897,-1.100475008195887,3.946228822072347,-8.780428091684977,1.840392291545868
17.0,4.008177236964305,-12.309327681859335,3.6804104956487813,0.0,0.0,6.0905961990356445,65.47160186767579,0.037685237079858755,0.0,332.8999938964844,-122.91729782,49.27918706,-0.05348336700858039,-0.05951746694997629,-0.5978395180268721,0.7871782888065685,-0.6655058291825381,1.2391190637241711,0.6549124311317097,-2.779769942164421,54.92195930480957,-9.883829832077026,0.19272798237701258,-0.13409766554832458,-0.6923775896430016,-257.308366394043,148.23975677490233,-141.8878257751465,-7.672203063964844,0.2192445234818892,0.3366265513680198,3.5758242160081863,-12.40414317448934,3.789932002623876,0.2175952848047018,-0.23265059602757296,-0.6810256618385514,2.545934083786878,-9.210934552279385,1.686302824453874
17.1,-6.82662312189738,-10.011470079421997,0.825922624518474,0.0,0.0,6.092718124389648,65.32480163574219,0.021933236718177776,0.0,332.8999938964844,-122.91730106,49.279187179999994,-0.12019723221292773,-0.0008947621205483217,-0.671112603761933,0.7118057935978427,-1.3626328521605693,1.2800811484004513,1.532728547399694,9.326899862289428,53.09439888000488,-12.916139698028564,-1.40600816719234,3.0679434537887573,-2.9259172876675925,-245.20169677734376,146.41219787597657,-144.92013854980468,-2.6877556927502155,0.3069161989472129,-0.6463205060272506,-7.398488140106201,-9.60311508178711,0.9791430033743381,-1.3635530297954876,3.3406693041324615,-3.028797169526418,0.6872268568611508,-9.355800585313276,1.8534106878620205
17.2,2.303390897810459,-8.604091803232828,0.09661019841829938,0.0,0.0,6.094840049743652,65.1780014038086,0.0061812363564968,0.0,332.8999938964844,-122.9173043,49.2791873,-0.18691109741727507,0.057727942708879654,-0.744385689496994,0.6364332983891169,-2.059759875138601,1.3210432330767314,2.410544663667679,19.748139762878417,48.83171844482422,-18.77457962036133,0.3825543701648712,0.5670051336288452,-1.8127731323242187,-234.78045806884765,142.14951782226564,-150.77857818603516,2.2966916784644127,0.3945878744125366,-1.6292675634225209,2.194318043688933,-9.24038314819336,-0.09571289022763568,0.3457497258981069,0.5645412604014078,-1.6846645176410675,-1.1714803700645764,-9.500666618347168,2.020518551270167
17.3,0.0009571284055709839,-9.034460830688477,0.9939785361289978,0.0,0.0,6.094840049743652,64.97060089111328,0.00538711408153174,0.0,332.8999938964844,-122.9173067,49.279187439999994,-0.19668681112428504,0.06770053498136497,-0.7646077175935109,0.6077547793587048,-2.2187189360459647,1.2733361323674521,2.5994986444711685,24.277999687194825,46.63083839416504,-20.206859588623047,-0.2577851352592309,0.2007710412144661,-1.199841171503067,-230.25059509277344,139.94863891601562,-152.2108581542969,2.5498964202900725,-2.0717562635739646,-3.123836651444435,0.06779664754867554,-9.006783723831177,1.003589669863383,-0.3348457902669907,0.04324926137924197,-1.2542590856552125,-1.7872226598362126,-9.366202910741169,2.1524748255809145
17.4,-0.08209875126679739,-11.323315246899924,0.8122934879424671,0.0,0.0,6.094840049743652,64.76320037841796,0.004592991806566679,0.0,332.8999938964844,-122.9173091,49.27918758,-0.20646252483129499,0.07767312725385027,-0.7848297456900278,0.5790762603282928,-2.3776779969533286,1.2256290316581726,2.788452625274658,23.86136956214905,46.54879379272461,-20.418529558181763,0.10503700965394575,0.19011907714108628,0.14643584564328194,-230.66722450256347,139.86659240722656,-152.42252769470215,2.8031011621157327,-4.538100401560466,-4.61840573946635,-0.061433912678198366,-11.321304873986676,0.7611985601710551,0.050528737902641285,0.10268517372508845,0.06948591656982894,-2.402964949607849,-9.231739203135172,2.2844310998916626
17.5,-0.16515463093916574,-13.612169663111368,0.6306084397559365,0.0,0.0,6.094840049743652,64.55579986572266,0.0037988695316016194,0.0,332.8999938964844,-122.9173115,49.279187719999996,-0.2076285603371533,0.09778785705566405,-0.6665661497549578,0.70287179405039,-1.195363773541017,1.3315442908893933,1.6341453899036755,23.444739437103273,46.46674919128418,-20.63019952774048,0.46785915456712246,0.17946711306770644,1.492712862789631,-231.0838539123535,139.7845458984375,-152.63419723510742,-1.0302438735961914,-4.44183332269842,3.6530388593673706,-0.1906644729050723,-13.635826024142178,0.5188074504787271,0.43590326607227325,0.16212108607093492,1.3932309187948704,0.8068685125220906,-9.507622285322709,1.3666832772168247
17.6,0.6385845616459846,-14.04048490524292,5.721637606620789,0.0,0.0,6.094840049743652,64.34839935302735,0.0030047472566365595,0.0,332.8999938964844,-122.9173139,49.27918786,-0.16987513894723216,0.0452592217285807,-0.5785895033993504,0.7801882622368408,-0.7351040249746856,1.1693894718632554,1.0461200678890403,-0.3354999765753746,53.032179260253905,-16.344339656829835,0.29654452949762344,-0.5390275150537491,3.058541178703308,-254.86409606933594,146.3499771118164,-148.34833831787108,-3.0565986037254333,0.7400772445129622,1.5789162938793502,0.35672997931639344,-14.394423325856527,6.095316847165425,0.41490476004158455,-0.5996406128009161,2.9183323780695596,2.895826388940667,-8.886337500630002,1.3975574387745424
17.7,-5.044070196151734,-3.1088749051094053,-1.4183456182479859,0.0,0.0,6.094840049743652,64.14099884033203,0.0022106249816715,0.0,332.8999938964844,-122.9173163,49.279188,-0.13212171755731103,-0.0072694135985026595,-0.49061285704374313,0.8575047304232916,-0.2748442764083544,1.0072346528371174,0.4580947458744049,-12.362259817123412,51.54133834838867,-13.300439643859864,0.8916087274750074,-2.0141245061531663,2.86261639992396,-266.89085388183594,144.85914001464843,-145.30443725585937,-5.082953333854675,5.921987811724345,-0.4952062716086705,-3.79062985877196,-3.378266751766205,-1.0579266995191574,0.9256746643222868,-2.085677246749401,3.0180103302001955,4.9847842653592425,-8.265052715937296,1.4284316003322601
17.8,3.1636106222867966,-0.5961119631926218,2.763411064942678,0.0,0.0,6.096869850158692,63.99619903564453,0.00216657579876476,0.0,332.8999938964844,-122.91731844,49.2791882,-0.08824568785106139,-0.03309711259013659,-0.5203137459854286,0.8443891778588295,-0.31904393061995506,1.0754784246285756,0.4001285657286644,-17.83029956817627,49.28067855834961,-14.686359786987305,0.7361435267763833,-1.2582551514108975,-0.8057821442683538,-272.3588928222656,142.59847564697264,-146.69035949707032,0.7913632194201146,-1.8138187527656546,0.0972260360916456,3.6059837539990744,-1.342872013648351,3.049752175807953,0.655611136307319,-1.406746303041776,-0.5363906050721805,4.390629639228185,-8.596572836240131,1.4265279918909073
17.9,3.590355614821116,-6.118946007142465,2.895913603405158,0.0,0.0,6.09889965057373,63.85139923095703,0.00212252661585802,0.0,332.8999938964844,-122.91732058,49.2791884,-0.04436965814481175,-0.05892481158177052,-0.5500146349271139,0.8312736252943674,-0.36324358483155567,1.1437221964200337,0.3421623855829239,-11.650389724969862,50.71295881271362,-12.31650984287262,0.6140277447023739,-0.8409196399152279,-0.809453711224099,-266.1789840698242,144.0307563781738,-144.32050895690918,6.665679772694905,-9.549625317255655,0.6896583437919617,3.8941557012272607,-6.760408282731518,3.147508957169273,0.588454132899642,-0.9509262933085362,-0.6761005576699972,3.7964750130971274,-8.928092956542969,1.4246243834495544
18.0,4.017100607355435,-11.641780051092306,3.0284161418676376,0.0,0.0,6.10092945098877,63.706599426269534,0.0020784774329512803,0.0,332.8999938964844,-122.91732272,49.2791886,-0.06255053967999459,-0.03136433415453542,-0.6010159741748463,0.7884515252980319,-0.5545379356904463,1.2578137462789363,0.598129852251573,-5.470479881763458,52.14523906707764,-9.946659898757934,0.49191196262836456,-0.4235841284195582,-0.8131252781798443,-259.9990753173828,145.463037109375,-141.95065841674804,-6.616284587166526,2.163094477220015,1.380083907734264,4.182327648455447,-12.177944551814686,3.2452657385305925,0.5212971294919649,-0.4951062835752964,-0.815810510267814,2.5560181086713616,-9.282183387062766,1.3252350037748164
18.1,-5.303392211596171,-9.972387472788492,1.0917253096898396,0.0,0.0,6.102959251403808,63.56179962158203,0.00203442825004454,0.0,332.8999938964844,-122.91732486,49.2791888,-0.1391189861584059,0.03446727896560774,-0.6726966470931516,0.7049536172187689,-1.3430846202554125,1.2885019354748004,1.5922889081817684,5.591260001063347,50.84959945678711,-11.320379590988159,-1.562410017848015,3.6741406440734865,-3.3881640911102293,-248.9373352050781,144.16739807128906,-143.32437744140626,-2.6172129155108426,0.9245897116083088,-0.19918535694931494,-4.632704108953476,-9.252746184666952,1.3019946018854778,-1.5879187658429146,3.3702708085378013,-3.2732959588368735,0.6079104159408333,-9.387323368679393,1.63991789745562
18.2,0.6960720896720887,-10.28794069290161,-1.0281959116458892,0.0,0.0,6.104989051818848,63.41699981689453,0.0019903790671378,0.0,332.8999938964844,-122.917327,49.279189,-0.21568743263681725,0.10029889208575088,-0.7443773200114568,0.621455709139506,-2.1316313048203788,1.3191901246706645,2.5864479641119638,16.08935966491699,46.425879287719724,-18.930739974975587,-0.036371941367785134,0.6292166573305925,-1.9833521842956543,-238.4392349243164,139.7436782836914,-150.9347351074219,1.3818587561448414,-0.31391505400339764,-1.7784546216328938,0.2504487770299117,-10.556236346562704,-0.7836494396130244,0.27488936185836793,0.5076901018619537,-1.9497902393341064,-1.340197276789695,-9.49246335029602,1.9546007911364238
18.3,-0.058524459600448574,-8.876674175262451,1.198704461256663,0.0,0.0,6.104989051818848,63.2363998413086,0.0020430425647645803,0.0,332.8999938964844,-122.91732916,49.279189280000004,-0.22870843547085917,0.11997023752580083,-0.7644039178888002,0.5876231571038564,-2.2894194970528288,1.2656640430291493,2.7944533636172615,21.103559494018555,44.477539443969725,-19.33699951171875,-0.006541356444358826,0.8985064296672741,-1.0747919380664825,-233.42503356933594,137.7953369140625,-151.34099731445312,1.9204080472389857,-1.6541974981625875,-2.8024006048838297,-0.15543378392855325,-9.091529687245687,1.2613166371981304,0.05482516251504421,0.9520844022432963,-1.0884600679079692,-2.0025202988181263,-9.33721125125885,2.0739252706368765
18.4,-0.0875125198314587,-11.030538479487102,0.8941429853439331,0.0,0.0,6.104989051818848,63.05579986572266,0.00209570606239136,0.0,332.8999938964844,-122.91733132,49.27918956,-0.24172943830490107,0.13964158296585077,-0.7844305157661438,0.5537906050682068,-2.4472076892852783,1.2121379613876342,3.0024587631225588,21.69617455005646,44.05358934402466,-19.618819570541383,0.24395619586787443,0.5218489923316872,-0.01250306787815969,-232.83241920471193,137.37138633728028,-151.62281799316406,2.45895733833313,-2.994479942321777,-3.826346588134766,-0.06947795798381169,-11.207573334376018,0.8445984317046223,0.2530254743372401,0.5520885563455522,0.03768273893122864,-2.6648433208465576,-9.18195915222168,2.193249750137329
18.5,-0.11650058006246883,-13.184402783711752,0.5895815094312032,0.0,0.0,6.104989051818848,62.87519989013672,0.00214836956001814,0.0,332.8999938964844,-122.91733348,49.27918984,-0.2447245431443055,0.15762614024182156,-0.6843319882949194,0.6606594522794088,-1.4523230368892353,1.3444534838199615,2.0335542807976403,22.28878960609436,43.62963924407959,-19.900639629364015,0.4944537481801076,0.14519155499610034,1.0497858023101634,-232.23980484008788,136.94743576049805,-151.904638671875,-0.6337050298849741,-4.694570859273274,3.1473626097043357,0.01647786796092987,-13.323616981506348,0.4278802262111144,0.4512257861594359,0.15209271044780812,1.1638255457704265,0.0215776227414608,-9.53369394938151,1.2155252546072006
18.6,-2.054477572441101,-14.545849227905274,7.242954444885254,0.0,0.0,6.104989051818848,62.694599914550786,0.00220103305764492,0.0,332.8999938964844,-122.91733564,49.279190119999996,-0.21308742525676883,0.09428960001969242,-0.5902159387866657,0.7529833416144054,-0.8545955785860618,1.18477434416612,1.3015729673206806,1.8324400037527084,50.53849906921387,-16.032019710540773,0.32062790046135586,-0.6034076114495596,3.075630168120066,-252.69615631103517,143.85629577636718,-148.03601837158203,-2.6409407009681063,0.34416186809539795,1.3101567377646766,-1.4094721972942352,-14.226527214050293,6.758028984069824,0.3457191791385412,-0.6238461494445802,3.0316020250320435,2.440104547267159,-8.9468009074529,1.2534531528751054
18.7,-1.9826528802514076,-5.4833523618678255,-1.4490535457928975,0.0,0.0,6.104989051818848,62.51399993896485,0.0022536965552717,0.0,332.8999938964844,-122.9173378,49.2791904,-0.18145030736923215,0.030953059797563284,-0.49609988927841187,0.8453072309494019,-0.25686812028288836,1.0250952045122783,0.5695916538437208,-10.855559825897217,49.39657897949219,-13.765259742736816,0.6530149479707081,-2.005521466334661,3.1712051232655845,-265.3841552734375,142.7143768310547,-145.76925811767578,-4.648176372051239,5.38289459546407,-0.5270491341749827,-2.406581401824951,-4.480061898628871,-1.7301104466120403,0.6858998661239942,-2.0507255295912423,3.1272737185160318,4.858631471792857,-8.359907865524292,1.2913810511430104
18.8,2.491227467854818,-1.1747762113809586,3.086342364549637,0.0,0.0,6.106957244873047,62.3697998046875,0.00232155383564528,0.0,332.8999938964844,-122.9173398,49.27919074,-0.15352611541748043,0.02694106376050815,-0.5244832634925842,0.8341379582881927,-0.2565508913248777,1.0920721431573233,0.520475551734368,-17.808339405059815,47.00659942626953,-15.118239688873292,0.5031238918503126,-0.620206393301487,-0.43605597813924163,-272.33693542480466,140.32439422607422,-147.1222366333008,0.6616046965122226,-1.7912661155064908,-0.6051901449759801,2.839183727900187,-1.5089737822612126,3.3841490745544434,0.4282928891479969,-0.7621816545724869,-0.17427478482325873,4.3202633877595265,-8.674434638023376,1.1326027045647302
18.9,3.6773945093154907,-6.368921188016732,2.9526184637409942,0.0,0.0,6.108925437927246,62.22559967041016,0.00238941111601886,0.0,332.8999938964844,-122.9173418,49.27919108,-0.1256019234657287,0.02292906772345302,-0.5528666377067566,0.8229686856269837,-0.256233662366867,1.1590490818023682,0.47135944962501525,-12.73222463130951,48.320234298706055,-13.14641478061676,0.45443168480062124,-0.6180000977844677,-0.5644510643500271,-267.26082000732424,141.63803100585938,-145.15041275024413,5.971385765075683,-8.965426826477051,-0.6833311557769776,3.6660987283244273,-6.941646494422898,3.297794477675449,0.41092140887243056,-0.622853472828865,-0.5040592836836973,3.781895303726196,-8.98896141052246,0.9738243579864502
19.0,4.863561550776164,-11.563066164652506,2.818894562932352,0.0,0.0,6.110893630981446,62.081399536132814,0.00245726839639244,0.0,332.8999938964844,-122.9173438,49.279191420000004,-0.1253351345658302,0.039905281970277436,-0.5847641925017039,0.7936685134967169,-0.3271800987422466,1.2472771406173706,0.5645264536142349,-7.656109857559204,49.63386917114258,-11.17458987236023,0.40573947775092994,-0.6157938022674485,-0.6928461505608126,-262.18470458984376,142.95166778564453,-143.1785888671875,-4.440599004427592,1.5374375184377034,1.9497905696431796,4.493013728748668,-12.374319206584584,3.2114398807964544,0.39354992859686416,-0.4835252910852432,-0.833843782544136,2.928919623295466,-9.235190709431967,0.9029769822955132
