time,TotalAcceleration_z,TotalAcceleration_y,TotalAcceleration_x,Location_bearingAccuracy,Location_speedAccuracy,Location_verticalAccuracy,Location_horizontalAccuracy,Location_speed,Location_bearing,Location_altitude,Location_longitude,Location_latitude,Orientation_qz,Orientation_qy,Orientation_qx,Orientation_qw,Orientation_roll,Orientation_pitch,Orientation_yaw,Magnetometer_z,Magnetometer_y,Magnetometer_x,GyroscopeUncalibrated_z,GyroscopeUncalibrated_y,GyroscopeUncalibrated_x,MagnetometerUncalibrated_z,MagnetometerUncalibrated_y,MagnetometerUncalibrated_x,Accelerometer_z,Accelerometer_y,Accelerometer_x,AccelerometerUncalibrated_z,AccelerometerUncalibrated_y,AccelerometerUncalibrated_x,Gyroscope_z,Gyroscope_y,Gyroscope_x,Gravity_z,Gravity_y,Gravity_x
3.1,11.795718431472778,-14.017853021621704,6.1841505368550616,0.0,0.0,1.6389610767364502,27.114199066162108,0.01126908549340438,0.0,24.693532739065596,-122.75010564,49.192858,0.6133846541245779,-0.5461093087991079,-0.2803780784209569,0.49515576660633087,-0.6973599493503571,1.2493862509727478,-1.2652629613876343,-10.461499786376953,46.872399520874026,-6.034119939804077,0.5515858680009842,-0.24062997102737427,-2.0150153239568076,-266.0880920410156,141.72740020751954,-139.1605194091797,-0.11451264222462972,0.6650760173797607,-2.69116602341334,3.479463199774424,-7.710771242777507,0.9089734752972921,0.6171266138553619,-0.47607786655426027,-2.19297571182251,2.8519317706425986,-8.805865128835043,3.165136694908142
3.2,-3.6850465585788093,-9.188089936971664,3.029363326728344,0.0,0.0,1.6389610767364502,29.876398849487302,0.00860611984971906,0.0,24.693532739065596,-122.75010658,49.192858,0.5403566241264344,-0.5404761552810669,-0.38715076446533203,0.5148854613304138,-0.8877524495124817,1.388307476043701,-0.8629432201385498,-2.818200021982193,48.161939239501955,-3.184199905395508,-0.12046771962195636,1.6722181737422943,-1.2637529174486797,-258.4447967529297,143.01693878173828,-136.31059722900392,-3.890922466913859,1.3874690532684326,-0.83574378490448,-2.293640172481537,-7.648657512664795,1.5731612205505372,-0.05645412951707839,1.8902970403432846,-1.2679271697998047,1.6779903769493103,-9.3296537399292,2.511609355608622
3.3,-0.11415756990512227,-8.44165397187074,1.936865298698346,0.0,0.0,1.6389610767364502,32.638598632812496,0.0059431542060337395,0.0,24.693532739065596,-122.75010752,49.192858,0.5041860590378443,-0.5729184746742249,-0.39696243902047473,0.509652778506279,-1.415845255057017,1.3831575314203899,-0.32642437517642975,0.9259799897670746,47.85205917358398,-4.782399845123291,-0.24190263698498407,-0.7094181776046753,0.0891354165505618,-254.70061340332032,142.7070556640625,-137.90879974365234,-0.0202120840549469,-7.371367295583089,-3.7596540451049805,0.5996015270551046,-16.50260003407796,-0.5584250216682752,-0.2963969086607297,-0.7077637513478597,-0.04235332707564036,0.8181487818559011,-9.324759642283121,2.9289382298787436
3.4,3.4567314187685647,-7.695218006769816,0.8443672706683477,0.0,0.0,1.6389610767364502,35.4007984161377,0.0032801885623484194,0.0,24.693532739065596,-122.75010845999999,49.192858,0.565340002377828,-0.5141646812359492,-0.3508605162302653,0.538301040728887,-0.6977504541476568,1.2825724482536316,-1.0658139685789745,-9.174399709701538,46.61619873046875,-2.4180399484932424,0.6107430756092072,-0.0800538718700409,3.6187962532043456,-264.8009948730469,141.47119750976563,-135.5444366455078,-2.4675873756408695,-4.06018295288086,-1.131218719482422,-0.35503506660461426,-13.358630021413168,1.7246269509196281,0.665232261021932,-0.17302757749954858,3.5309792359670005,2.61455659866333,-9.024297332763672,2.667782211303711
3.5,-2.3163719892501833,-7.633104038238526,1.508555030822754,0.0,0.0,1.6389610767364502,38.16299819946289,0.0006172229186631,0.0,24.693532739065596,-122.7501094,49.192858,0.6609958112239838,-0.4169414490461349,-0.24424000084400174,0.5718048910299937,-0.28232435137033457,0.9841687083244324,-1.564024825890859,-25.75175952911377,40.3039192199707,-1.4578999780118465,0.04853833094239237,-1.4784466102719307,3.152497331301371,-281.37835388183595,135.1589157104492,-134.58429565429688,-6.721098820368449,-4.9230568408966064,4.271782557169597,-1.0488539735476177,-11.95015517870585,6.658926407496135,-0.09618073403835294,-1.749029380083084,3.050080728530884,5.217837969462077,-7.8469468752543134,2.608571926752726
3.6,0.5768697261810303,-16.48704655965169,-0.6230312138795854,0.0,0.0,1.6410410404205322,39.54319839477539,0.0005325517675373,0.0,24.33482611495853,-122.75011018,49.192857860000004,0.7431066433588663,-0.34639738996823627,-0.10399488732218738,0.5602359573046366,-0.30933804810047144,0.6864122152328491,-1.7388673027356465,-37.32223892211914,30.37555923461914,-3.6124198913574217,0.5598580042521158,-1.766647769138217,3.169016162554423,-292.94883117675784,125.23055801391601,-136.7388168334961,-10.959864775339762,4.537852128346761,-3.7920502026875815,-3.722135345141093,-0.7383851508299509,-0.3509473248074452,0.5776494617263476,-1.628286749124527,3.2435162464777627,6.975247065226237,-5.95590607325236,3.400317589441935
3.7,-0.724676306049029,-12.638839364051819,4.127170388276379,0.0,0.0,1.6431210041046143,40.92339859008789,0.00044788061641149997,0.0,23.976119490851467,-122.75011096,49.19285772,0.765355920791626,-0.3542127966880798,-5.906890146440032e-06,0.5370593190193176,-0.47043879628181456,0.573179566860199,-1.7764960527420044,-40.513759231567384,24.090119552612304,-11.5216796875,0.11761701355377834,-1.167287106315295,-0.7841473370790482,-296.1403564453125,118.9451187133789,-144.64807739257813,-1.6476903756459553,1.8488312562306721,-0.6166240771611532,4.643750882148742,-3.100380265712738,4.719005107879639,0.05907576282819108,-1.27014156182607,-0.5950081795454025,6.915120760599772,-4.983137289683024,4.835362275441487
3.8,-2.2347717160979905,-6.680835609634717,1.8558084305065377,0.0,0.0,1.6452009677886963,42.30359878540039,0.0003632094652857,0.0,23.617412866744402,-122.75011174,49.19285758,0.7555329700311025,-0.4131978253523509,0.009085300999383117,0.5074807504812876,-0.582381933927536,0.6633482873439789,-1.7533589402834575,-37.277099609375,26.574039459228516,-15.601359558105468,-0.10934488351146382,-1.0241155723730724,0.22342395782470703,-292.90369873046876,121.42903900146484,-148.72775573730468,3.8959995905558267,-9.701248407363892,3.878744125366211,10.717352946599325,-15.4324099222819,8.926424860954285,-0.08152505631248157,-1.1321114550034206,0.1931097855170567,5.934343973795573,-5.626582702000936,5.405400117238362
3.9,-3.744867126146952,-0.7228318552176157,-0.4155535272633036,0.0,0.0,1.6472809314727783,43.68379898071289,0.0002785383141599,0.0,23.258706242637338,-122.75011252,49.19285744,0.7408114075660706,-0.4404368946949641,-0.03731136186979712,0.5026271641254425,-0.567651242017746,0.7649781703948975,-1.7178398768107097,-35.99487991333008,29.06283950805664,-13.468799591064453,0.8449182421900332,2.4039379835128782,-2.760988712310791,-291.62147216796876,123.91783752441407,-146.59519805908204,-10.292604351043702,1.1025140762329102,-2.0508216381073,-2.972683273255825,-5.477270682652791,3.4210384686787925,0.8608872952560583,2.637054314215978,-2.9715030590693154,5.527228832244873,-6.343800258636475,4.994125556945801
4.0,4.621019053459167,-3.084826934337616,4.6543989181518555,0.0,0.0,1.6493608951568604,45.06399917602539,0.0001938671630341,0.0,22.899999618530273,-122.7501133,49.1928573,0.6319066087404887,-0.49396084745724994,-0.2591100012262662,0.5342710514863332,-0.5094007104635239,1.1284862458705902,-1.405281404654185,-24.89653968811035,40.37833938598633,-2.022759994864464,-0.6915503715475401,3.0435597697893777,-3.5045339465141296,-280.52313537597655,135.23334045410155,-135.14916076660157,-10.076890468597412,-1.7639090220133464,-2.356645941734314,-6.08125901222229,-10.670792500178019,0.5796612699826559,-0.9885632276535035,3.1398778438568113,-3.469134199619293,3.9954620997111,-8.329423507054647,3.216060519218445
4.1,10.694620927174887,-15.41685676574707,8.861818591753641,0.0,0.0,1.6540085077285767,46.22366587320963,0.00053210186403395,0.0,22.899999618530273,-122.75011325,49.1928566,0.5785959601402283,-0.5588786482810975,-0.3091538488864899,0.5056365728378296,-0.8669473052024841,1.2893848896026612,-1.0316260576248166,-16.692039585113527,44.45557899475098,-2.6656999558210375,0.7220936386535565,0.6398813426494598,-2.074498395125071,-272.3186309814453,139.31057891845703,-135.79209747314454,1.6582635045051575,0.09412566820780428,-3.2345165808995566,4.722594404220581,-8.950113868713379,0.013040900230407715,0.6799184692402681,0.4018474767605464,-2.0341048737366996,2.0864344040552774,-9.022352695465088,3.1701021591822305
4.2,-4.549702939887841,-8.058478315671286,1.935743659734726,0.0,0.0,1.658656120300293,47.38333257039388,0.0008703365650338,0.0,22.899999618530273,-122.7501132,49.1928559,0.5251463651657104,-0.5695924063523611,-0.39176497360070545,0.4957774529854457,-1.2936079700787861,1.4063382546106975,-0.4854867284496625,-9.696559762954712,46.78211936950684,-0.3245200127363205,-0.35575264568130177,-0.3568216562271118,-1.1714104612668355,-265.3231567382812,141.63712158203126,-133.45091552734374,-0.4649188369512558,-0.9876050154368082,-0.19238040844599405,-0.22671995063622793,-9.7775719165802,2.6636104186375937,-0.2969059646129608,-0.23223060369491577,-1.2199742496013641,0.7805023541053137,-9.405129273732504,2.6472094853719077
4.3,0.07507978801926019,-8.496519402662912,0.9420891672372818,0.0,0.0,1.6633037328720093,48.542999267578125,0.00120857126603365,0.0,22.899999618530273,-122.75011315,49.192855200000004,0.5177517831325531,-0.5869251588980356,-0.37932165960470837,0.49314004679520923,-1.4462293982505798,1.3793996771176655,-0.35839611291885376,-10.154059886932373,46.94437866210937,-4.537179970741272,0.12993104457855226,0.6698137491941452,0.828485980629921,-265.78065490722656,141.79937896728515,-137.6635757446289,-1.3040910243988038,-5.68955249786377,-3.743439245223999,0.4651048978169758,-14.707085768381754,-0.435992235938708,0.11980593949556351,0.46420667444666225,1.0950523031254609,0.6676502048969268,-9.33778018951416,2.9197223663330076
4.4,4.699862515926361,-8.93456048965454,-0.05156532526016235,0.0,0.0,1.6679513454437256,49.70266596476237,0.0015468059670335,0.0,22.899999618530273,-122.7501131,49.1928545,0.6210990448792776,-0.5013106067975363,-0.30532471835613245,0.5159347554047903,-0.4749445418516795,1.2190332015355427,-1.4036146700382233,-22.537059688568114,41.381178283691405,-6.003619909286499,0.7020368725061417,-0.39067377895116806,3.8299214839935303,-278.1636535644531,136.23617858886718,-139.13001861572266,-4.295859018961589,-4.834033648173015,-0.8326612114906311,-1.740678783506155,-14.097912947336832,2.3451655556758246,0.6498333544780811,-0.37715837856133777,3.87128218015035,3.0798366467158,-8.915332158406576,2.4922755559285483
4.5,-0.2494517688949903,-9.76201844215393,2.5990042289098105,0.0,0.0,1.672598958015442,50.86233266194662,0.00188504066803335,0.0,22.899999618530273,-122.75011305,49.1928538,0.7343651950359344,-0.4294902930657069,-0.1694432012736797,0.49430303772290546,-0.304501270254453,0.9285138050715128,-1.8014490207036336,-31.876159286499025,32.27143955230713,-9.071919822692871,0.2467386523882548,-1.5163965746760368,3.033225933710734,-287.50275268554685,127.12643737792969,-142.1983184814453,-6.21189562479655,-3.1103564898173013,2.079622467358907,-1.4566307961940765,-9.758130113283793,4.547160605589549,0.26248879134655,-1.7346130013465881,2.905672216415405,5.494577407836914,-7.587662220001221,2.822465936342875
4.6,0.4423731168111165,-14.691532135009766,-0.5005984480182329,0.0,0.0,1.6772465705871582,52.02199935913086,0.0022232753690332,0.0,22.899999618530273,-122.750113,49.1928531,0.8212950825691223,-0.3534849405288696,-0.045738005079329,0.44268715381622314,-0.31035292744636533,0.6728178858757019,-2.044482135772705,-37.672379684448245,22.759099578857423,-11.084919738769532,0.389732014387846,-2.108706792195638,2.5234843492507935,-293.2989776611328,117.6140983581543,-144.21131896972656,-10.26818561553955,5.473104635874431,-2.0285621881484985,-3.3920652627944947,-0.05659026503562927,1.2421142220497132,0.43361251552899677,-2.0838139851888022,2.644053876399994,7.004604975382487,-5.844797293345134,3.5309481620788574
4.7,-1.621386627977093,-11.912468155225119,3.3815569629271827,0.0,0.0,1.6793353796005248,52.42559967041016,0.00260568521916864,0.0,22.899999618530273,-122.75011234,49.19285234,0.8377296129862467,-0.37038592994213104,0.025736845098435834,0.3994216322898865,-0.4388435830672582,0.6440911988417307,-2.1024880409240723,-36.678079223632814,21.559839820861818,-15.82095947265625,0.2701297017435233,-0.9535097392896811,-0.9572258541981379,-292.30467529296874,116.41483764648437,-148.94735870361328,3.1208982467651367,-2.3376618226369223,0.2498530944188436,8.33390204111735,-5.457928841312726,4.46281361579895,0.2865467071533203,-0.9286424458647767,-1.0663162060081959,6.57983414332072,-5.702628453572591,4.487529357274373
4.8,-2.5180919491375486,-5.976752535502116,2.2795324916640918,0.0,0.0,1.6814241886138916,52.829199981689456,0.0029880950693040803,0.0,22.899999618530273,-122.75011168,49.19285158,0.8386141061782837,-0.4021699031194051,0.1049840729683637,0.35091958443323773,-0.6115814944108328,0.6452231903870901,-2.1388259728749595,-34.45645942687988,21.05353946685791,-21.797739601135255,-0.29098566323518754,-1.558286678791046,0.1399186968803406,-290.083056640625,115.90853729248047,-154.92413635253905,0.44914913177490234,-6.486462116241455,2.243037700653076,5.75394082069397,-13.798112034797668,7.518448193868001,-0.21927516162395477,-1.182049701611201,0.014457126458485884,5.791262531280518,-5.6175586700439455,5.569899654388427
4.9,-3.414797270298004,-0.04103691577911377,1.1775080204010009,0.0,0.0,1.6835129976272583,53.23280029296875,0.00337050491943952,0.0,22.899999618530273,-122.75011101999999,49.19285082,0.8087442914644877,-0.4621850947539012,0.0053624982635180314,0.355786070227623,-0.536913588643074,0.8459201157093048,-2.06879452864329,-33.71469917297363,27.108399391174316,-16.90553960800171,0.8661051069696745,3.0780481696128845,-3.2522465586662292,-289.34129333496094,121.96339797973633,-150.0319381713867,-7.509860197703044,-0.6998922030131022,-2.2249083121617637,-1.6864415009816487,-6.983452955881755,2.6380869448184967,0.994061005115509,3.2026137351989745,-3.3893246412277223,5.191843350728353,-6.827038208643596,4.647534012794495
5.0,8.311170220375061,-5.442375250160694,4.398207426071167,0.0,0.0,1.685601806640625,53.636400604248045,0.00375291476957496,0.0,22.899999618530273,-122.75011036,49.19285006,0.7065094232559204,-0.542970848083496,-0.1819465816020965,0.4143681704998016,-0.5191410899162292,1.165015959739685,-1.7320759296417236,-26.93759937286377,38.69717903137207,-7.197999811172485,-0.5269476345662648,1.690569519996643,-2.6405922969182334,-282.56419982910154,133.55217742919922,-140.32439575195312,-8.883572538693747,-1.3384750684102376,-2.9175851345062256,-6.618068718910218,-10.25336446762085,0.07202398180961608,-0.5389358534788092,1.9745455185572307,-2.7714446981747947,3.4200907150904336,-8.633122285207113,3.1225626866022744
5.1,5.731208960215251,-13.782558878262838,7.453841924667358,0.0,0.0,1.6876906156539917,54.040000915527344,0.0041353246197104,0.0,22.899999618530273,-122.7501097,49.1928493,0.6508375406265259,-0.612889806429545,-0.22106524308522543,0.38703779876232147,-0.9309999247392019,1.3260005315144856,-1.313769519329071,-18.974659538269044,44.93991928100586,-7.800679779052734,0.3085378569861253,1.7654005736112595,-2.3443480928738913,-274.60126037597655,139.79491577148437,-140.9270767211914,1.8035428126653035,1.0352897644042969,-1.589933176835378,3.7692939514915147,-8.363214254379272,1.2518450617790222,0.3184898675729831,1.5752941817045212,-2.3476823767026267,1.4593999981880188,-9.225630124409994,2.964303135871887
5.2,-3.950822201642123,-8.454222895882346,1.407088501886888,0.0,0.0,1.5917439222335816,54.594800567626955,0.0047308449633419,0.0,23.26651020772539,-122.75010818,49.19284728,0.584610770146052,-0.6506442328294119,-0.283407598733902,0.39240171015262604,-1.6013696789741516,1.387517233689626,-0.5390153974294662,-11.74859972000122,49.35997886657715,-8.681519794464112,-0.4952895360067487,-0.41477749347686765,-1.12160966694355,-267.3751922607422,144.21497802734376,-141.80791625976562,2.3309879064559937,-2.7622127532958984,-2.1855257511138917,1.9533409277598064,-12.27049446105957,0.4746761911859115,-0.46031240994731587,0.0687477911512057,-0.9466375062863032,0.21370942294597625,-9.376743507385253,2.8530159473419188
5.3,-0.10213007766640558,-8.400941837917674,1.2971636720679025,0.0,0.0,1.4957972288131713,55.149600219726565,0.0053263653069734,0.0,23.6330207969205,-122.75010666,49.19284526,0.6128112177054087,-0.6318807005882263,-0.2558572764197985,0.39733150601387024,-1.2407104969024658,1.3550289869308472,-0.9343513051668803,-15.940519714355469,49.30507888793945,-14.267899894714356,0.3749949025611083,0.23047434290250143,2.0781126618385315,-271.5671142578125,144.1600769042969,-147.39429931640626,-1.6979101300239563,-5.5366214116414385,-4.20108421643575,-0.7930213809013367,-14.408780415852865,-0.6510471105575562,0.5417611231096089,0.00791580975055702,2.55741278330485,0.8112997437516848,-9.295795758565268,2.971365292867025
5.4,3.7465620463093123,-8.347660779953003,1.1872388422489168,0.0,0.0,1.3998505353927613,55.70439987182617,0.0059218856506049,0.0,23.999531386115617,-122.75010514,49.19284324,0.7389560639858246,-0.5165255069732666,-0.19145960112412766,0.3840242276589076,-0.3048486138383547,1.1488826870918274,-1.9776493310928345,-27.86723937988281,43.63695945739746,-14.650979804992676,0.693408423413833,-0.5324199634293715,3.5086827278137207,-283.49383544921875,138.49195861816406,-147.77737579345703,-6.543628692626953,-5.7986674308776855,3.897497773170471,-3.076870838801066,-14.756437460581461,6.9619176387786865,0.7046941459178925,-0.6733262181282044,3.3856289863586424,3.78124463558197,-8.726571083068848,2.239685853322347
5.5,1.930609146753947,-12.254940668741861,0.41006998841961223,0.0,0.0,1.303903841972351,56.25919952392578,0.0065174059942364,0.0,24.36604197531073,-122.75010362,49.19284122,0.8330167651176452,-0.42918111085891725,-0.07902898266911504,0.3372227311134338,-0.2557356178760528,0.877715802192688,-2.249256992340088,-33.87939987182617,34.800498962402344,-17.05681982040405,0.712447039783001,-1.4274139106273651,2.996930400530497,-289.50599365234376,129.65549850463867,-150.18321685791017,-7.600276867548625,0.18030250072479248,-0.7883874972661337,-0.7597211837768555,-6.9109502792358395,1.3672588765621185,0.6598108236988386,-1.4215852183600266,3.014874537785848,5.965909481048584,-7.277820825576782,2.6651505629221597
5.6,-0.815753161907196,-14.393227100372314,-0.7156534095605215,0.0,0.0,1.207957148551941,56.81399917602539,0.0071129263378679,0.0,24.732552564505845,-122.7501021,49.1928392,0.894956241051356,-0.34954966604709625,0.023274446527163168,0.2728135734796524,-0.29915406306584674,0.6617986361185709,-2.4475396076838174,-37.61381912231445,27.421939849853516,-18.09747943878174,0.05497787054628136,-1.7896061067779858,1.1598294998208682,-293.24041442871095,122.27693786621094,-151.2238784790039,-7.572015206019084,7.170877297719319,-1.746400276819865,-1.4144572988152504,1.3334004084269206,1.346560964981715,0.0776816966633002,-1.8999436497688293,1.3303626887500286,7.0580869515736895,-5.809667984644572,3.518576900164286
5.7,-2.046352830800143,-11.174753665924072,4.3542845899408515,0.0,0.0,1.207957148551941,56.075199127197266,0.01979997046291822,0.0,24.732552564505845,-122.75008688000001,49.192820260000005,0.8871686160564423,-0.394983505209287,0.06779446701208747,0.22612187514702475,-0.41615239282449085,0.7355354328950247,-2.479508638381958,-33.73177986145019,31.414999198913574,-19.50779972076416,0.21022927165031433,-0.8740871012210846,-1.322859239578247,-289.3583740234375,126.26999588012696,-152.6341995239258,3.854608917236328,-8.56801118850708,1.3109314441680908,10.146166324615479,-15.288043439388275,5.2490553855896,0.15714508481323722,-1.2586369439959526,-0.8697957595189413,6.170888900756836,-6.50478458404541,3.9440784454345703
5.8,-1.7417709776623682,-4.912899946173032,2.818119677630338,0.0,0.0,1.207957148551941,55.33639907836914,0.03248701458796854,0.0,24.732552564505845,-122.75007166,49.19280132,0.8839726746082306,-0.4087906628847122,0.14212454855442044,0.17583541820446646,-0.5640012621879578,0.7381517191727957,-2.525472323099772,-30.74521961212158,31.712679290771483,-22.831079483032227,0.08300131745636465,-0.6961827551325163,-0.24773132676879564,-286.37181701660154,126.56767807006835,-155.95747833251954,-3.8430798053741455,-3.319183031717936,0.4294670820236206,0.5452645023663845,-7.722735325495402,5.013063028454781,0.09786061197519302,-0.29962939620018003,-0.6310543669387698,5.582791328430176,-6.423102060953776,4.869231700897217
5.9,-1.4371891245245934,1.348953773578008,1.2819547653198242,0.0,0.0,1.207957148551941,54.597599029541016,0.04517405871301886,0.0,24.732552564505845,-122.75005644000001,49.192782380000004,0.848083746433258,-0.49224973320960996,0.04412599839270112,0.17925932407379147,-0.4664530575275421,0.9662686586380005,-2.475454235076904,-25.618779754638673,39.13393936157227,-14.52043981552124,0.3310889552036921,3.319645345211029,-3.7352118690808616,-281.24537658691406,133.9889373779297,-147.64683685302734,-5.230219562848409,1.3523475726445515,-1.1843719879786174,0.6514459371566772,-6.71713171005249,2.7951758027076723,0.43078726281722385,3.2227723201115928,-3.615176866451899,4.530049840609233,-7.847771883010864,3.6116835673650107
6.0,10.12343454360962,-15.272489666938782,5.1844489971796675,0.0,0.0,1.207957148551941,53.85879898071289,0.05786110283806918,0.0,24.732552564505845,-122.75004122,49.19276344,0.7613272368907928,-0.5958454112211863,-0.05800453387200829,0.2466010823845863,-0.6445341755946478,1.211418608824412,-2.0554290612538657,-15.669679546356202,45.09363861083985,-11.28499994277954,-0.2719623123606047,0.1497383614381154,-2.115146299203237,-271.29627380371096,139.94863739013672,-144.4113967895508,-3.4344623486200967,-1.2468002637227376,-4.337206323941548,-2.1948165545860934,-10.12413247426351,-0.835593601067861,-0.3594687456885974,0.273133118947347,-2.1553107698758445,2.502488056818644,-8.922803243001303,3.153449455897013
6.1,0.5225325624148048,-7.707181890805562,4.948456982771556,0.0,0.0,1.207957148551941,53.119998931884766,0.0705481469631195,0.0,24.732552564505845,-122.750026,49.1927445,0.7026612460613251,-0.6649815042813619,-0.0988737915953,0.2313032100598017,-1.083668738603592,1.372636318206787,-1.584200143814087,-6.880799913406372,47.956979751586914,-9.051179838180541,0.28685213640953106,1.2384529411792755,-1.665727694829305,-262.5073974609375,142.81197814941407,-142.17757720947264,-0.45917773246765137,0.5608832041422526,-1.4581072131792705,1.0249257336060207,-8.803194522857666,1.274875928958257,0.32971452300747234,1.2583314875761669,-1.707470178604126,0.8481411139170328,-9.374254703521729,2.735468109448751
6.2,-0.9237926819107749,-8.559942375529896,0.7501499056816101,0.0,0.0,1.2058840155601502,52.48639907836914,0.07479147240519524,17.947906494140625,24.73648841045766,-122.75002133000001,49.192738160000005,0.659579207499822,-0.7065792779127756,-0.11004966373244918,0.23112074037392927,-1.6903443535168965,1.386377215385437,-0.9618105093638102,-0.7136999785900116,48.648719024658206,-9.098759746551513,-0.47348164916038515,-0.2226603627204895,-0.48615711331367495,-256.3402923583984,143.50371551513672,-142.22515716552735,-0.32815257012844085,-5.003746032714844,-3.1064117908477784,-0.8065806527932485,-14.202897866566977,-0.1499502162138621,-0.37771834681431454,-0.21334468324979147,-0.38677951072653133,-0.16854740530252454,-9.37740478515625,2.870013189315796
6.3,0.039200583190629024,-8.673791751717076,0.9802098212142786,0.0,0.0,1.2038108825683593,51.85279922485351,0.07903479784727097,35.89581298828125,24.74042425640948,-122.75001666,49.192731820000006,0.7086111406485239,-0.662834495306015,-0.08882022276520728,0.21925314267476395,-1.0810228337844212,1.3536481658617656,-1.6186354358990986,-5.848679983615876,48.41325912475586,-8.305759763717651,0.5483279228210449,0.026241744092355173,2.6732481320699057,-261.47527770996095,143.26825714111328,-141.43215637207032,-0.24864928921063742,-4.575847625732422,-2.4203498363494873,0.4553341865539551,-13.589238484700521,0.43140598200261593,0.5857892304658889,0.10977247357368473,2.9455005168914794,0.8191681349029144,-9.344007015228271,2.729016383488973
6.4,1.002193848292033,-8.787641127904257,1.210269736746947,0.0,0.0,1.2017377495765686,51.219199371337886,0.0832781232893467,53.843719482421875,24.7443601023613,-122.75001199,49.19272548,0.8139808893203735,-0.5410641372203827,-0.04961226452141994,0.19945026040077204,-0.3276956796646118,1.1260799884796142,-2.4507890224456785,-24.148679542541505,43.32463912963867,-6.528219890594483,0.07093671523034574,-1.1833223501841228,3.472768863042196,-279.7752746582031,138.17963714599608,-139.6546188354492,-5.340850591659546,-4.3123791217803955,4.2012867132822675,-0.913101077079773,-13.211611366271972,7.531887865066528,0.11766790846983594,-1.150437409679095,3.4901022911071777,3.886742353439331,-8.622031291325888,2.4299152294794717
6.5,-0.8293124337991079,-14.187344551086426,-0.21455642580986023,0.0,0.0,1.1996646165847777,50.58559951782226,0.08752144873142242,71.7916259765625,24.748295948313114,-122.75000732000001,49.19271914,0.8872723678747813,-0.42425533135732013,0.022627008011719782,0.17373296866814292,-0.29036617775758106,0.8425502975781759,-2.622435132662455,-36.469459533691406,33.93063850402832,-8.873059940338134,0.3335324306972325,-1.1514555215835571,2.994461456934611,-292.09605712890624,128.78563842773437,-141.99945831298828,-9.686337232589722,2.7529675563176474,-3.033404548962911,-3.3392836761971316,-5.088038265705109,0.63040903955698,0.3308089841157198,-1.0938051442305248,2.9806151390075684,6.099226951599121,-7.055370012919108,2.9580230712890625
6.6,0.4326023956139882,-13.57368532816569,0.3667997792363167,0.0,0.0,1.197591483592987,49.95199966430663,0.09176477417349815,89.73953247070312,24.75223179426493,-122.75000265,49.1927128,0.9239343603452047,-0.34160749117533357,0.11244749774535494,0.1280257813632488,-0.3792568991581599,0.6471366385618845,-2.737768610318502,-41.29699935913086,26.698479461669923,-14.716859722137452,0.25173756480216986,-1.3662306755781173,0.22965479791164398,-296.92359313964846,121.5534782409668,-147.84325714111327,-5.192631244659424,5.906137084960937,-1.6211938858032227,1.7855441744128864,-0.31884363169471425,2.1687946741779647,0.36682456980148953,-1.2371293795295062,-0.023492872714996338,6.795393753051758,-5.8543798446655275,3.9610278606414795
6.7,-2.2592051991007547,-8.765018105506897,3.702838708053936,0.0,0.0,1.1955183506011964,49.318399810791014,0.09600809961557388,107.68743896484375,24.75616764021675,-122.74999798,49.192706460000004,0.9012733300526937,-0.3937578946352005,0.14898828168710068,0.09373183672626806,-0.48840176065762836,0.752127339442571,-2.739064852396647,-36.701259231567384,31.284458923339844,-17.165399646759035,0.19318611485262724,-1.699528922016422,-0.12018775939941406,-292.3278564453125,126.13945693969727,-150.291796875,6.9279584884643555,-10.087634166081747,1.3627028465270996,13.23569885889689,-16.669997731844585,5.712963898976644,0.011392635107040394,-1.918513959646225,0.19422459602355965,5.769485076268514,-6.6972267627716064,4.220243414243062
6.8,-0.24819642644036888,-4.53415418167909,2.9035135540321018,0.0,0.0,1.1934452176094055,48.68479995727539,0.10025142505764961,125.63534545898438,24.760103486168568,-122.74999331000001,49.192700120000005,0.8900915265083313,-0.40596176981925963,0.19140661656856534,0.07223940938711162,-0.5912795424461365,0.7695230722427369,-2.7341121673583983,-34.27711906433105,31.773679542541505,-20.874199295043944,0.6240497507775823,0.9997827882568041,-1.8660151610771816,-289.9037170410156,126.62867736816406,-154.00059509277344,-7.062386592229207,2.526906172434489,0.3634036382039388,-3.4695928573608397,-4.5888356924057,5.620022439956665,0.6002005537350973,0.7315111234784126,-1.653357704480489,5.150651216506958,-6.8425687948862715,4.743769566218059
6.9,1.7628123462200165,-0.30329025785128283,2.1041884000102677,0.0,0.0,1.1913720846176148,48.05120010375976,0.10449475049972534,143.583251953125,24.764039332120383,-122.74998864000001,49.19269378,0.8219735523064932,-0.542179544766744,0.049557441833409634,0.14241467912991834,-0.5586012204488119,1.0817715624968212,-2.448811332384745,-24.963639640808104,42.405979537963866,-11.380159759521485,-0.6956482588623961,3.3389639804760614,-3.7696239352226257,-280.59023132324216,137.26097717285157,-144.50655517578124,-9.378688017527262,-1.8504756291707356,-1.4640945394833882,-5.255436186989148,-9.609875043233236,2.5144578317801156,-0.6099998578429222,3.52443794409434,-3.8873173594474792,3.281706174214681,-8.570972442626953,3.3681755860646567
7.0,13.212967077891031,-16.654444535573322,5.648357510566711,0.0,0.0,1.1892989516258239,47.417600250244135,0.10873807594180107,161.53115844726562,24.7679751780722,-122.74998397,49.19268744,0.7389117578665415,-0.6464293996493021,-0.008245489948118715,0.1846453001101811,-0.9886040091514587,1.2838264505068462,-1.8763289252916973,-12.98567967414856,47.5470588684082,-9.917379808425903,0.8238281398856392,0.30525441964467365,-2.1693861285845437,-268.6122741699219,142.40205841064454,-143.0437744140625,1.6806719501813252,0.5768748919169108,-4.071812709172566,2.133001983165741,-9.311170736948648,-1.288634608189265,0.7586182604233423,0.18588117758433023,-2.1579832832018533,1.138003374139468,-9.167315324147543,3.221954266230265
7.1,-3.492324638366699,-4.573282241821289,5.5554163455963135,0.0,0.0,1.1872258186340332,46.78400039672851,0.1129814013838768,179.47906494140625,24.771911024024018,-122.7499793,49.1926811,0.6783981025218964,-0.6978564659754435,-0.09340587630867954,0.20819532622893647,-1.5157456795374553,1.402299165725708,-1.1943659881750743,-5.015419936180114,49.83821830749512,-6.287879896163941,-0.17400496751070021,1.1913093864917754,-1.2474173784255982,-260.6420135498047,144.6932174682617,-139.41427764892578,-1.0623849749565124,0.8479548454284668,-0.11120254993438723,-1.2396815915902455,-8.797810792922974,2.6961129307746887,-0.23686300218105316,0.8692612449328104,-1.2384783724943798,0.0031324662268161774,-9.43775691986084,2.6667494773864746
7.2,-1.5839489462474983,-9.444969614346823,0.5483053475618362,0.0,0.0,1.1872258186340332,46.09016672770181,0.11316385865211487,179.5130386352539,24.771911024024018,-122.74997806666667,49.192678216666664,0.6489759087562561,-0.7233248353004456,-0.07883216068148609,0.22174662103255585,-1.8315250476201375,1.3411459525426228,-0.8788176576296488,-1.1833999693393706,49.789418411254886,-8.902339792251587,-0.40416371822357183,-0.35404735306898755,0.143629677593708,-256.8099960327148,144.64441680908203,-142.02873687744142,2.104605913162232,-7.674751281738281,-5.461265405019124,1.8051853875319164,-17.142181237538654,-2.4835504963994026,-0.35717290043830874,-0.12681565880775442,0.2597399115562439,-0.6674864043792089,-9.257667064666748,3.1659427483876548
7.3,-1.423181169355909,-9.113613466421764,1.589906024436156,0.0,0.0,1.1872258186340332,45.396333058675125,0.11334631592035294,179.54701232910156,24.771911024024018,-122.74997683333333,49.192675333333334,0.729729688167572,-0.6466572642326355,-0.06437080949544902,0.20726225078105923,-0.9083182096481324,1.3221771717071533,-1.8436234951019288,-12.278079843521118,48.1509593963623,-6.8197998046875,0.7851145565509796,-0.45583273967107135,3.4252741734186807,-267.90467529296876,143.00595703125,-139.94619445800782,-3.06548639635245,-3.029284954071045,-0.5479390621185303,-1.8116060495376587,-11.96590805053711,1.9494325637817382,0.7767151494820913,-0.4835252985358238,3.361082394917806,1.374588416268428,-9.265444119771322,2.7387600342432656
7.4,-1.26241339246432,-8.782257318496704,2.631506701310476,0.0,0.0,1.1872258186340332,44.70249938964844,0.113528773188591,179.58098602294922,24.771911024024018,-122.74997560000001,49.19267245,0.8322332302729288,-0.5225003659725189,-0.010946632207681732,0.1776178106665611,-0.36286065479119617,1.067196438709895,-2.502702077229818,-28.627299308776855,41.56905860900879,-7.040619850158691,0.1211803900077939,-1.2496521497766178,3.237305839856466,-284.25389404296874,136.42405853271484,-140.1670166015625,-5.039152185122172,-3.4239651362101235,4.43473756313324,-0.9837491909662882,-12.099108537038168,7.931907892227173,0.11972959712147717,-1.2972741822401683,3.250922997792562,4.320338408152263,-8.342049757639566,2.718199292818705
7.5,1.782453566789627,-17.126628081003826,-2.5481567283471427,0.0,0.0,1.1872258186340332,44.00866572062174,0.11371123045682907,179.61495971679688,24.771911024024018,-122.74997436666668,49.192669566666666,0.9036176005999247,-0.4033934026956558,0.046668744956453616,0.12806678439180053,-0.2763957728942235,0.8017825285593668,-2.741645097732544,-39.15589942932129,32.05305938720703,-8.082499933242797,0.5308724328875541,-1.191950798034668,2.8198761463165285,-294.78249206542966,126.9080581665039,-141.20889892578126,-11.091354370117188,6.336782932281494,-4.052293872833252,-4.24008172750473,-1.2517452637354534,-0.995314534753561,0.4155919775366783,-1.21292382478714,2.7125471433003745,6.127613735198975,-7.1134209632873535,2.7888959407806397
7.6,-1.8343378394842147,-11.95035457611084,1.8848263621330261,0.0,0.0,1.1872258186340332,43.31483205159505,0.11389368772506714,179.64893341064453,24.771911024024018,-122.74997313333334,49.19266668333333,0.9150179227193197,-0.3743813037872314,0.11246033757925028,0.09387506917119022,-0.37980271379152936,0.727148691813151,-2.7903863191604614,-40.862679672241214,28.705379295349122,-12.98445987701416,0.46237410015116137,-0.9307040882995352,-1.1357003053029378,-296.48927612304686,123.56037826538086,-146.11085815429686,-0.9017012119293213,3.809394677480062,0.0654532512029012,7.116454005241394,-3.9627137134472528,3.954039732615153,0.5913481086492538,-0.7700567334890366,-1.502728521823883,6.338224411010742,-6.538715521494548,3.605627655982971
7.7,-2.634647309780121,-6.659873614708583,3.4036904775227117,0.0,0.0,1.1872258186340332,42.62099838256836,0.1140761449933052,179.6829071044922,24.771911024024018,-122.7499719,49.1926638,0.8936984539031982,-0.40560448666413623,0.17981827631592742,0.0563896689563989,-0.5451539407173792,0.7833804488182068,-2.7860823472340903,-36.33891983032227,31.17831916809082,-18.249979496002197,-0.07819075634082158,-1.9397516399621964,0.3182098803420862,-291.96551818847655,126.03331680297852,-151.37637786865236,5.244423468907674,-8.575753529866537,0.7734069426854452,8.193523248036703,-15.142080585161844,5.612664620081584,-0.04344780494769415,-1.9935842255751293,0.3147228608528773,5.278143803278605,-7.043303728103638,4.304952780405681
7.8,2.2295373380184174,-5.303516977156202,3.646561990336826,0.0,0.0,1.1850563287734985,42.50119857788086,0.11415275186300276,179.6922393798828,24.83932825130686,-122.74997148,49.19266244,0.8656275033950805,-0.4694550037384033,0.15388907641172406,0.061220877617597556,-0.5634424030780792,0.9209782719612122,-2.717630672454834,-32.49103927612305,36.00219917297363,-16.501719760894776,0.825406218568484,2.6618197982509932,-2.754620442787806,-288.1176361083984,130.85719833374023,-149.62811584472655,-7.443267782529195,1.0815004507700603,0.4220665693283081,-2.2967508018016813,-6.773243427276611,4.02652233839035,0.8070802663763365,2.5083145312964916,-2.656932940085729,4.24070421854655,-7.860274871190389,3.966262936592102
7.9,7.093721985816956,-3.9471603396038213,3.88943350315094,0.0,0.0,1.1828868389129639,42.38139877319336,0.11422935873270032,179.70157165527343,24.906745478589706,-122.74997106000001,49.19266108,0.7838306228319804,-0.5941702127456665,-0.0206536961098512,0.1652102656662464,-0.5415103038152059,1.2281736135482788,-2.3326549927393594,-21.676959609985353,45.477939224243165,-5.57783989906311,-0.7686466462910175,2.36715367436409,-2.5841635266939798,-277.3035552978516,140.33293609619142,-138.70423736572266,-9.70196541150411,-0.3255959351857503,-2.315441151460012,-7.467700394491355,-9.340582609176636,1.0790633037686348,-0.7305948411424955,2.657874643802643,-2.767983098824819,2.303188443183899,-9.144206682840982,2.6609970728556314
8.0,8.170791467030844,-15.126527428627014,5.5480583508809405,0.0,0.0,1.1807173490524294,42.26159896850586,0.11430596560239789,179.71090393066407,24.974162705872548,-122.74997064,49.192659719999995,0.7164483169714609,-0.6684021751085917,-0.05263178329914803,0.18727886180082953,-1.1044169863065083,1.3631698091824849,-1.69422181447347,-12.27807970046997,48.355918884277344,-5.824279952049255,0.43258422017097475,1.1942110300064086,-2.1571484327316286,-267.9046691894531,143.2109176635742,-138.95067596435547,3.920944035053253,0.5239414215087891,-2.9798292398452757,3.835594952106476,-8.628119548161825,-0.27058835575977963,0.36562830209732056,1.0793480078379314,-2.0728694001833596,0.6453294903039932,-9.382098579406739,2.7573090553283692
8.1,-2.319482588768005,-6.757689952850342,3.9619160294532776,0.0,0.0,1.1785478591918948,42.14179916381836,0.11438257247209545,179.7202362060547,25.041579933155393,-122.74997022000001,49.192658359999996,0.6481425166130066,-0.7231298287709554,-0.10320187980930007,0.21396111200253165,-1.9151072303454082,1.3793994784355164,-0.7719292541344961,-3.300099951028824,49.98583869934082,-4.577439880371093,-0.6159048726161321,-0.33877568940321606,-1.3778320252895355,-258.9266876220703,144.84083709716796,-137.7038375854492,1.0085534652074177,-1.922377109527588,-0.8208495775858561,1.139980634053548,-12.159327824910482,1.4909278949101765,-0.7320609107613564,-0.6609256625175476,-1.3496151089668273,-0.6921723606064916,-9.398672580718994,2.6831559340159097
8.2,-1.8387845245500405,-8.96879776318868,0.33963126999636484,0.0,0.0,1.17637836933136,42.02199935913086,0.114459179341793,179.7295684814453,25.108997160438236,-122.7499698,49.192657,0.6457646131515503,-0.7224596023559571,-0.09249962568283077,0.2278688102960586,-1.8475054502487183,1.3489903688430787,-0.8340526580810547,-3.059759920835495,49.34777908325195,-6.7807599067687985,0.21838433295488358,-0.34450254837671923,1.287525790433089,-258.6863555908203,144.20277709960936,-139.90716094970702,-0.5043967167536417,-7.23500410715739,-5.578139146169026,-2.867797937244177,-16.895840454101563,-2.9416165560483933,0.1519272724787394,-0.3229695459206899,1.116305318971475,-0.714417132238547,-9.301202456156412,3.016116460164388
8.3,-0.3607678456852834,-10.556286056836447,0.8829764875893791,0.0,0.0,1.17637836933136,41.05479965209961,0.11413424015045161,179.75413513183594,25.108997160438236,-122.74996962,49.192654919999995,0.7483400205771128,-0.6297530929247538,-0.061340879648923825,0.19135598838329312,-0.741823156674703,1.3063024282455444,-2.0370581348737082,-17.674139976501465,46.69427909851074,-3.9564599275588987,0.593073790272077,0.2303216519455115,3.733659267425537,-273.3007385253906,141.54927825927734,-137.08285827636718,-2.624531090259552,-2.7423795064290366,3.87550683816274,0.0004985431830088297,-11.923235893249512,5.510570724805196,0.6380232870578766,0.20021107730766138,3.7328957319259644,1.974411318699519,-9.253246943155924,2.3775293827056885
8.4,1.1172488331794739,-12.143774350484213,1.4263217051823933,0.0,0.0,1.17637836933136,40.08759994506836,0.11380930095911021,179.77870178222656,25.108997160438236,-122.74996944,49.19265284,0.8472377161184946,-0.5004940629005432,-0.0119773221667856,0.17055283735195792,-0.300407071908315,1.023776004711787,-2.572497089703878,-31.827359199523926,38.94728012084961,-4.789719915390014,0.24025329500436782,-1.2563054436817764,3.0565864562988283,-287.45396118164064,133.80227661132812,-137.9161178588867,-6.231057500839233,-1.9619974136352538,1.5745745182037354,-1.711566095550855,-10.035897095998129,4.294717838366826,0.3407864458858967,-1.1261046230793,3.127910057703654,4.479800844192505,-8.345970916748048,2.4754098892211913
8.5,-2.8905297249555586,-16.880287170410156,-3.006222701072693,0.0,0.0,1.17637836933136,39.12040023803711,0.1134843617677688,179.8032684326172,25.108997160438236,-122.74996926,49.19265076,0.918116956949234,-0.3691471914450328,0.07011946818480884,0.11405701066056884,-0.2888385454813639,0.7262347141901652,-2.785844842592875,-41.67641944885254,27.859919357299805,-8.352119779586792,0.24335343266526863,-2.1839450697104135,2.8335747718811035,-297.3030151367187,122.7149169921875,-141.4785171508789,-9.760751644770304,6.459678967793782,-3.6894198656082153,-2.662713055809339,0.0674975688258807,-0.1666002869606018,0.10790935456752782,-2.4325570583343508,2.8671571016311646,6.4020562171936035,-6.808839162190755,2.8643869956334433
8.6,-0.02223336696624756,-11.907682577768961,5.445964574813843,0.0,0.0,1.17637836933136,38.15320053100586,0.1131594225764274,179.8278350830078,25.108997160438236,-122.74996908,49.192648680000005,0.9026825726032257,-0.39990860720475513,0.13070216774940488,0.0809624679386615,-0.43879253168900806,0.7777507603168488,-2.779108206431071,-39.07293930053711,29.151899528503417,-13.860419654846192,0.512795940041542,-0.6038657563428084,-2.196976830561956,-294.6995330810547,124.0068977355957,-146.98681640625,3.231443405151367,-0.021013577779134113,1.8256470759709675,9.620742321014404,-9.710573017597198,6.021937092145284,0.6043239086866379,-0.6067419153017303,-2.210695872704188,5.824622631072998,-6.919376055399577,3.713829517364502
8.7,-2.20987140138944,-4.968646449347337,1.9994525611400604,0.0,0.0,1.17637836933136,37.18600082397461,0.112834483385086,179.85240173339844,25.108997160438236,-122.7499689,49.1926466,0.8801704525947571,-0.431902813911438,0.18301590085029598,0.068834825605154,-0.5997186899185181,0.8262779831886291,-2.7155815601348876,-33.56341915130615,32.28851947784424,-18.39027919769287,-0.06879871090253194,-0.6006332685550054,-0.6824128131071726,-289.1900146484375,127.14351501464844,-151.5166763305664,-1.5841556390126552,-7.020938475926719,2.0365295807520547,3.187239789962768,-13.168062114715577,5.679723525047303,-0.17865263173977533,-0.821308307349682,-0.5714644193649292,4.7249649365743,-7.380770762761434,4.386895497639974
8.8,3.6940695295731234,-7.331832941621542,3.9783915927012763,0.0,0.0,1.1813066959381104,36.12800064086914,0.11292293965816493,179.86239318847657,24.667197652056643,-122.74996896,49.192645600000006,0.8343474070231119,-0.5292834540208181,0.07543977947595217,0.11022423331936194,-0.527814785639445,1.0589827994505565,-2.564263184865316,-28.694399452209474,39.12295913696289,-11.685159635543823,0.3184898595015208,3.78425931930542,-3.4929020404815674,-284.3209930419922,133.97795715332032,-144.81155853271486,-4.993275960286458,4.52813196182251,-0.5906869769096375,-1.9520447452863057,-4.313960035641988,3.258326450983683,0.4084143439928691,3.6880225340525308,-3.421379824479421,3.3413612047831216,-8.627343813578287,3.1143096685409546
8.9,9.598010460535686,-9.695019433895746,5.957330624262492,0.0,0.0,1.186235022544861,35.07000045776367,0.11301139593124385,179.87238464355468,24.22539814367505,-122.74996902,49.1926446,0.7414922614892324,-0.6385815838972727,-0.040504651765028585,0.19997159391641608,-0.8379666606585184,1.2988243103027344,-1.9585652947425842,-16.469999694824217,46.16967964172363,-6.762459850311279,-0.44541239821119244,-0.11823298931121817,-1.5511701345443725,-272.0965972900391,141.0246780395508,-139.88885803222655,-5.006203246116638,-2.5067632675170897,-4.024609327316284,-1.982553203900655,-11.311570485432943,-0.6645068128903707,-0.37784559566838044,0.14989100749759623,-1.7166840434074402,1.422761869430542,-9.265014457702637,2.869127702713013
9.0,3.1645080089569095,-13.152508544921876,5.615117335319519,0.0,0.0,1.1911633491516114,34.012000274658206,0.11309985220432275,179.88237609863282,23.78359863529346,-122.74996908,49.192643600000004,0.6934910515944163,-0.6745906372865041,-0.10566478967666622,0.22492595016956327,-1.1861701011657715,1.3992724617322285,-1.4813175400098164,-10.2479998588562,48.07653884887695,-4.531079936027527,0.46799913545449573,2.7175358533859253,-1.0835476716359456,-265.8745910644531,142.9315383911133,-137.65747528076173,1.5872714519500732,0.7049522399902344,-2.105905910332998,-0.02333001295725475,-8.436693827311197,0.7723832031091055,0.504269254207611,3.05258526802063,-0.9337991595268249,0.43579036990801495,-9.459899266560873,2.5525585412979126
9.1,-1.9747765858968098,-4.298406879107158,3.1937203208605447,0.0,0.0,1.196091675758362,32.954000091552736,0.11318830847740168,179.89236755371093,23.341799126911866,-122.74996913999999,49.1926426,0.6458290457725525,-0.7171250104904174,-0.12338105142116544,0.2264063686132431,-1.8925965785980225,1.3902574062347413,-0.7466805338859558,-3.9222998917102814,48.99641876220703,-4.711639857292175,-0.7001279244820277,-1.8747963309288025,-1.2295953681071599,-259.54889526367185,143.851416015625,-137.8380355834961,1.912720799446106,-3.3203883171081543,-0.8443256616592407,1.2368499279022214,-13.043037033081054,2.363749861717224,-0.6816747138897578,-1.8458057343959808,-1.3125967252999544,-0.7534679546952248,-9.419605096181233,2.5592740774154663
9.2,-1.0256734291712444,-9.85857884089152,-0.010668000827232996,0.0,0.0,1.2010200023651123,31.895999908447266,0.1132767647504806,179.90235900878906,22.899999618530273,-122.7499692,49.1926416,0.6583060224850973,-0.7157337665557861,-0.09349890425801273,0.2112885067860285,-1.7758501966794331,1.3785870273907979,-0.9291640321413676,-4.867799913883209,48.73777885437012,-6.1561198234558105,0.3876703605055809,-0.01264996329943339,2.1175134778022766,-260.49439392089846,143.59277954101563,-139.2825180053711,-0.18325787782669067,-4.935381730397542,-3.3330920139948526,0.04147563378016154,-14.703296979268393,-1.2315060396989186,0.357508880396684,0.08231410508354502,1.962531824906667,-0.4798230193555355,-9.416077931722006,2.643253763516744
9.3,0.09422235886255881,-11.443031295140585,1.144237775976459,0.0,0.0,1.2010200023651123,31.045199966430662,0.11329524815082545,179.91443481445313,22.899999618530273,-122.74996933999999,49.19263984,0.7716343104839325,-0.6012485027313232,-0.05746030434966082,0.19318697601556775,-0.537779321273168,1.2566161354382832,-2.2427825729052224,-20.72779960632324,44.782538986206056,-5.038599920272827,0.22238549292087556,-0.33408221006393435,3.472463512420654,-276.3543975830078,139.63753814697264,-138.1649963378906,-4.25297703742981,-4.101600456237793,3.776878547668457,-1.7747764885425568,-13.213465849558512,6.20289425055186,0.19435695931315422,-0.5516367654005686,3.4633005460103354,2.313405084609985,-9.226469230651855,2.281402015686035
9.4,1.2141181468963622,-13.02748374938965,2.2991435527801514,0.0,0.0,1.2010200023651123,30.194400024414062,0.11331373155117032,179.9265106201172,22.899999618530273,-122.74996947999999,49.19263808,0.8613778650760651,-0.47959105173746747,0.022491017201294483,0.1583844125270843,-0.34893638888994855,0.9625613888104757,-2.591245492299398,-33.980659294128415,36.606099700927736,-8.309419775009156,0.30942870614429313,-1.3747776721914609,3.159624139467875,-289.6072540283203,131.46109619140626,-141.43581848144532,-6.245553056399028,0.0009504954020182291,-0.6932525038719177,-1.9593230088551838,-7.313363194465637,1.0676974058151245,0.3735950017968814,-1.3789010246594746,3.173775831858317,4.603408972422282,-8.196475346883139,2.6975331703821817
9.5,0.01874379316965739,-14.687743345896402,-1.2961122294267018,0.0,0.0,1.2010200023651123,29.343600082397458,0.11333221495151517,179.93858642578124,22.899999618530273,-122.74996962,49.19263632,0.912970115741094,-0.37640073398749035,0.11353012298544245,0.10378244270881011,-0.3919585744539897,0.727015882730484,-2.765162626902262,-41.600779342651364,26.73873977661133,-13.836019515991211,0.10626510096093017,-1.88474839925766,1.5286393873393536,-297.2273712158203,121.5937370300293,-146.96241760253906,-7.232148011525472,7.569631894429524,-2.234086195627848,-0.18434706827004751,0.4828516896814108,1.8398812015851338,0.019944749027490615,-1.9756298065185547,1.4042264997959137,6.146434942881267,-6.795561154683431,3.4624939362208047
9.6,-1.797508329153061,-13.197912534077963,6.138288060824077,0.0,0.0,1.2010200023651123,28.492800140380858,0.11335069835186004,179.9506622314453,22.899999618530273,-122.74996976,49.19263456,0.8902243852615357,-0.4278457462787628,0.13784437775611874,0.06906416565179821,-0.4735368251800537,0.8377719402313233,-2.7722723484039307,-37.081899642944336,31.245419120788576,-16.35287971496582,0.39713877129058045,-1.1661672008534272,-0.9092220067977905,-292.70849609375,126.10041656494141,-149.47927703857422,5.930697123209636,-8.072238604227701,1.3990753491719563,11.852966594696046,-16.42230052947998,5.469035577774048,0.45038585364818573,-1.0237592446307342,-1.0426197449366252,5.219088792800903,-7.402651071548462,3.7271408637364707
9.7,-1.0945668530960877,-3.3997024772688746,1.3891831003129482,0.0,0.0,1.2010200023651123,27.642000198364254,0.1133691817522049,179.96273803710938,22.899999618530273,-122.7499699,49.1926328,0.8739698529243469,-0.4384491840998332,0.20298018803199128,0.039204210663835164,-0.6346844335397085,0.849698563416799,-2.755431811014811,-33.141299438476565,32.04695911407471,-21.569599533081053,0.4407647189994653,0.32393671572208405,-1.4126512973258893,-288.7678924560547,126.90195693969727,-154.6959976196289,-4.0669368505477905,-0.6548896233240763,0.8454397122065226,1.3517453571160634,-9.566106081008911,5.695914914210637,0.3780492249255379,0.011148306230703989,-1.2795845319827397,4.375142455101013,-7.603845675786336,4.348074555397034
9.8,5.36783398029705,-9.903225004579872,3.396806148812175,0.0,0.0,1.2013596057891847,27.003600311279293,0.11372076123952865,179.96568908691407,22.899999618530273,-122.74996992,49.19263184,0.8274110555648804,-0.545109748840332,0.058923410251736606,0.09196319679419196,-0.4798992971579234,1.1120365262031555,-2.614996592203776,-28.713919639587402,40.34295921325683,-10.354139852523804,0.3849367618560791,4.000373268127442,-3.501693367958069,-284.34051513671875,135.19795684814454,-143.48053894042968,-3.739036273956299,5.946596336364746,-0.41827778816223143,-0.6990032990773519,-3.6303107142448425,2.0332013368606567,0.1438842217127482,4.026390949885051,-3.347159822781881,3.287201738357544,-8.81611671447754,2.644572353363037
9.9,11.830234813690186,-16.40674753189087,5.404429197311401,0.0,0.0,1.2016992092132568,26.365200424194335,0.11407234072685242,179.96864013671876,22.899999618530273,-122.74996994,49.192630879999996,0.7444667319456736,-0.6387356718381246,-0.0243492253745595,0.19020512700080872,-0.8657136559486389,1.2881876428922017,-1.9680419365564983,-19.38579978942871,45.701198196411134,-7.860459899902343,-0.7171558079620203,0.37107519308725995,-1.7077501739064853,-275.01239624023435,140.5561965942383,-140.98685607910156,-4.490583101908366,-3.0626654624938965,-4.1312869389851885,-1.7398812572161357,-12.60170046488444,-1.5067803810040157,-0.6249151229858397,-0.14010192155838014,-1.3825713004916906,1.5062650243441265,-9.256390730539957,2.842345635096232
10.0,1.3290135761102047,-9.55055276552836,5.631308714548747,0.0,0.0,1.2020388126373291,25.726800537109373,0.11442392021417618,179.97159118652343,22.899999618530273,-122.74996996,49.19262992,0.6747180342674255,-0.7078598022460938,-0.07757902629673477,0.19027698934078213,-1.6822441816329956,1.3984750986099244,-1.0766610741615295,-8.095919847488403,48.96225929260254,-6.092679786682129,0.5676719745000204,1.3500122129917145,-2.2527183294296265,-263.72251586914064,143.8172576904297,-139.21907806396484,0.031418303648630776,2.1933741569519043,-0.2625187238057454,-1.5023337602615356,-6.908677101135254,2.2951954543590545,0.6365979438026746,1.373785004640619,-2.357023537158966,-0.5033724866807461,-9.45978593826294,2.503588875134786
10.1,-0.7217351247866949,-3.6147573590278625,1.9685951471328735,0.0,0.0,1.2023784160614013,25.088400650024415,0.11477549970149994,179.97454223632812,22.899999618530273,-122.74996998,49.19262896,0.6289324263731638,-0.7485163609186808,-0.07938305164376892,0.1937155152360598,-2.185066262880961,1.3360981543858845,-0.5650655825932821,-1.743379944562912,49.523458862304686,-6.930819892883301,-0.607021901756525,0.5835290352503458,-0.18695020427306488,-257.36997680664064,144.37845916748046,-140.05721740722657,2.6131776173909507,-5.7028811772664385,-3.7524009148279824,1.6443676427006721,-14.122239907582602,-0.17387847105662027,-0.641764834523201,0.48551060756047565,-0.2836960007747014,-1.5903156399726868,-9.274999936421713,2.761565327644348
10.2,-1.6546369140798396,-9.998409401286732,0.15678426352414218,0.0,0.0,1.2027180194854736,24.450000762939453,0.1151270791888237,179.9774932861328,22.899999618530273,-122.74997,49.192628,0.6659068663914999,-0.7133639454841614,-0.07210825507839516,0.20106894771258033,-1.680093954006831,1.3601280053456624,-1.0703998804092407,-7.413939952850342,48.92077903747558,-7.194339895248413,0.577471274882555,-0.7184284304579099,2.6771678229173026,-263.0405334472656,143.7757797241211,-140.32073516845702,0.49106303850809735,-4.438132921854655,-2.808602273464203,-0.39850472410519916,-14.286547183990479,-0.7430711487929026,0.5372305226822695,-0.7104871769746145,2.5636232992013297,-0.3769750694433848,-9.39867083231608,2.6453842322031655
10.3,-0.016500528676040238,-12.052547996694392,-0.04085020359718439,0.0,0.0,1.2045234658501365,23.62436433271928,0.11553242396224628,179.97966835715553,22.899999618530273,-122.7499700909091,49.19262707272727,0.7853291928768158,-0.5911784172058105,-0.04529329061430565,0.16923520217339194,-0.44860543807347614,1.2402013142903645,-2.384161631266276,-23.705819511413573,44.447039413452146,-4.350519919395447,0.41028765439987175,-1.1795807853341103,3.395525074005127,-279.33241271972656,139.30203552246093,-137.47691497802734,-5.34423942565918,-4.588371849060058,6.726080703735351,-2.419044017791748,-13.361322244008383,8.09850819905599,0.39151372263828915,-1.3991613934437435,3.330615480740865,2.5212372303009034,-9.226876258850098,2.042310643196106
10.4,1.6216358567277591,-14.10668659210205,-0.23848467071851095,0.0,0.0,1.2063289122147993,22.798727902499113,0.11593776873566887,179.98184342817828,22.899999618530273,-122.74997018181818,49.19262614545455,0.8762143850326538,-0.46439334253470105,0.04098210018128152,0.11124823739131288,-0.30993826190630597,0.9376092851161957,-2.727505842844645,-36.54997940063477,35.410499000549315,-7.978799772262573,0.5156211629509925,-1.3855441554139059,3.2289318641026816,-292.17656860351565,130.26549911499023,-141.10519714355468,-6.610453724861145,2.592606782913208,-2.3944586316744485,-2.301297187805176,-4.657828629016876,-0.5425724958380064,0.6054896339774132,-1.0722517877817155,3.2874935150146483,4.8148698806762695,-8.14924693107605,2.4443015257517495
10.5,-0.42123650511105853,-14.27099355061849,-0.8076773832241694,0.0,0.0,1.2081343585794622,21.97309147227894,0.11634311350909145,179.984018499201,22.899999618530273,-122.74997027272728,49.19262521818182,0.9163653612136841,-0.372738629579544,0.12754891067743296,0.06608120128512378,-0.38946827054023736,0.7298447608947753,-2.8475975513458254,-42.38157920837402,26.32881965637207,-14.170299625396728,0.006490447868903478,-1.7626262257496517,0.7933612515528997,-298.00816955566404,121.18381805419922,-147.29669799804688,-5.639526089032491,6.443060874938965,-1.685250461101532,0.5508277654647827,-0.37375890612602236,1.9258633375167846,-0.041437022387981394,-1.8557831396659215,1.000571812192599,6.113534530003865,-6.87606954574585,3.3726813395818076
10.6,-2.4417757987976074,-13.345768769582113,8.033902009328207,0.0,0.0,1.209939804944125,21.147455042058773,0.11674845828251403,179.98619357022372,22.899999618530273,-122.74997036363636,49.19262429090909,0.887392262617747,-0.42815323173999786,0.1637238760789235,0.03417298011481757,-0.5058383097251257,0.8472282687822977,-2.8320603370666504,-36.39747924804688,31.222239112854005,-17.30691957473755,0.11950052032868064,-1.6709200342496235,-0.5547929008801779,-292.024072265625,126.07723617553711,-150.43331451416014,7.111957470575969,-9.004563967386881,2.9634339809417725,12.010175148646036,-16.18405508995056,6.667301177978516,0.1659517387549083,-1.5777885814507802,-0.7031567841768265,4.910610357920329,-7.6008345286051435,3.746930480003357
10.7,-1.0276085409251126,-2.6949708461761475,0.5148375833576376,0.0,0.0,1.2117452513087879,20.3218186118386,0.1171538030559366,179.98836864124644,22.899999618530273,-122.74997045454546,49.192623363636365,0.2848835488160451,-0.1629649649063746,0.0594380497932434,0.008884696770110117,-0.6306694050629934,0.871980220079422,-2.822542150815328,-33.42189979553223,32.227519035339355,-21.23653964996338,0.6600093528628349,1.0037737727165221,-1.509386944770813,-289.0484924316406,127.08251647949218,-154.362939453125,-5.089795446395874,1.1492605209350586,0.07968339920043946,-0.29950156807899475,-6.679664174715678,4.051746663327019,0.7295003533363342,1.2111930424968402,-1.4083498120307922,4.351539945602417,-7.6909260749816895,4.228964996337891
10.8,5.479917413357533,-9.43173631032308,3.558766285804185,0.0,0.0,1.213550697673451,19.49618218161843,0.1175591478293592,179.9905437122692,22.899999618530273,-122.74997054545454,49.192622436363635,0.8103903730710348,-0.5706318815549215,0.04912997712381182,0.08429157361388202,-0.5203310797611872,1.17563400665919,-2.5718209743499756,-27.082779502868654,41.87893943786621,-9.15975980758667,0.09379325310389193,4.242026448249817,-3.791335125764211,-282.7093780517578,136.73393707275392,-142.2861557006836,-4.689668496449788,3.454275131225586,0.34331341584523517,-2.3480569049715996,-5.735496203104655,2.9702905217806497,0.004031726717948913,4.251347255706787,-4.144354200363159,2.9130276640256247,-8.956578413645426,2.540927608807882
10.9,11.987443367640177,-16.168501774470013,6.602694988250732,0.0,0.0,1.2153561440381138,18.67054575139826,0.11796449260278177,179.9927187832919,22.899999618530273,-122.74997063636364,49.19262150909091,0.7243283867835999,-0.6616910934448242,-0.03530541546642774,0.18836161494255063,-1.0413042545318603,1.3318816900253296,-1.780272889137268,-16.473659610748292,47.364058303833005,-6.805159854888916,-0.4472297190998991,0.4078543285528819,-2.067320684591929,-272.1002563476562,142.21905670166015,-139.93155670166016,-2.5842937032381696,-1.4967530568440754,-3.9414058923721313,-2.0735002517700196,-11.504571723937989,-1.7499908328056335,-0.5385540835559368,0.5482769791269675,-2.0632991790771484,0.7260976210236549,-9.386110782623291,2.687060753504435
11.0,-0.3222333590189616,-6.664110759894053,3.987140470494827,0.0,0.0,1.2171615904027766,17.84490932117809,0.11836983737620435,179.99489385431463,22.899999618530273,-122.74997072727272,49.19262058181818,0.6574104924996694,-0.7196805079778036,-0.08463246251145994,0.20347945640484488,-1.8401772379875183,1.3772950768470764,-0.8889134128888448,-7.018659925460815,49.76135902404785,-5.804759883880616,0.03453933695952094,1.8301777442296345,-1.4243850509325664,-262.6452575683594,144.6163543701172,-138.93115692138673,0.5724574824174244,0.9616554578145345,-2.0994093815485635,0.693021277586619,-8.286943038304647,0.5317051348586878,0.08030332252383231,1.8804977337519329,-1.5097534855206807,-0.8874824345111847,-9.418097654978434,2.5839484135309854
11.1,-2.3707886996368566,-5.719942728678386,2.9056843320528665,0.0,0.0,1.2189670367674394,17.019272890957918,0.11877518214962693,179.99706892533735,22.899999618530273,-122.74997081818182,49.19261965454545,0.6141693592071533,-0.75138258934021,-0.09766860927144683,0.21983273078997925,-2.1834643681844077,1.3100247581799824,-0.501259466012319,-1.7458199635148048,50.02243919372559,-6.9003198623657225,-0.2351576735575994,-0.1539634813865026,-0.2203441808621089,-257.3724136352539,144.87743682861327,-140.02671508789064,1.7006512681643169,-6.422730445861816,-3.457476496696472,0.12542378902435303,-15.138691107432047,-0.2229313055674235,-0.2744566748539607,-0.12774715820948282,-0.2777146114579712,-1.723053753376007,-9.226636250813803,2.845006068547567
11.2,-0.5872204520485618,-9.733948144045742,-0.5700356256724759,0.0,0.0,1.2207724831321023,16.19363646073775,0.11918052692304952,179.9992439963601,22.899999618530273,-122.7499709090909,49.19261872727273,0.6649328867594401,-0.7084605594476064,-0.09126242498556769,0.21219509840011594,-1.644688795010249,1.365000049273173,-1.061954379081726,-7.6981998682022095,49.26725845336914,-5.979219913482666,0.5786726355552674,-0.47931540906429293,2.966789221763611,-263.3247924804688,144.12225952148438,-139.10561828613282,1.9935681432485581,-3.3402637481689452,-1.1746814489364623,0.5901299913724264,-13.337693055470785,1.0628120775024097,0.6119342545668284,-0.3945171460509301,2.908176690340042,-0.5493298981338739,-9.428842544555664,2.519460153579712
11.3,-0.24226426671851764,-12.428542729580041,-0.42878656048384123,0.0,0.0,1.2225779294967651,15.368000030517578,0.1195858716964721,180.0014190673828,22.899999618530273,-122.749971,49.1926178,0.7857259313265482,-0.5809156894683838,-0.054314190832277065,0.1978665838638941,-0.45360129574934643,1.2132545908292134,-2.3234805266062417,-25.19055938720703,44.260379028320315,-4.568899941444397,0.2055816121865064,-1.0423397136231263,3.4052683115005493,-280.81715087890626,139.1153778076172,-137.69529571533204,-4.98771087328593,-4.307679812113444,4.922346909840901,-1.968894253174464,-13.203894456227621,7.254838864008586,0.11456777136772875,-1.1712425023317337,3.4389880657196046,2.5130637486775718,-9.191137631734213,2.1495330135027566
11.4,0.10269191861152649,-15.12313731511434,-0.2875374952952066,0.0,0.0,1.2349949479103088,15.345700073242188,0.12031677514314645,180.00196685791016,23.141297982326112,-122.74997122,49.19261666,0.8705538511276245,-0.46454680562019346,0.017511266004294118,0.15571378469467162,-0.30626157522201536,0.9343978285789489,-2.6294667720794678,-38.705719757080075,33.966019248962404,-7.215079879760742,0.6924412064254284,-1.3007612119739254,3.1862985690434775,-294.3323150634766,128.82101593017578,-140.3414764404297,-7.7275798718134565,3.256333033243815,-2.985501686731974,-2.895195785164833,-4.950032195448875,-0.7965706527233124,0.6826164449254671,-1.2787191445628803,3.198719541231791,5.096003532409668,-7.982663790384929,2.4421239693959556
11.5,0.5673979719479879,-13.322139898935953,0.9982058250655732,0.0,0.0,1.2474119663238525,15.323400115966797,0.1210476785898208,180.0025146484375,23.38259634612195,-122.74997144,49.192615520000004,0.90683447321256,-0.3938702543576558,0.11124186341961222,0.0957123314340909,-0.39516713718573254,0.7667250136534373,-2.7704383532206216,-42.843959426879884,26.754599380493165,-14.237399864196778,0.3075706499318282,-1.6578373610973358,-0.11759154001871745,-298.47055969238284,121.6095977783203,-147.36380004882812,-3.607139746348063,7.168524146080017,-0.7602379322052002,1.0075777086118858,0.5289134979248047,2.2577278514703116,0.2607122001548608,-1.772349163889885,0.12311481932799022,5.917938629786174,-7.040914535522461,3.385854721069336
11.6,-1.9916260639826457,-13.18834114074707,7.190232594807942,0.0,0.0,1.2598289847373962,15.301100158691407,0.12177858203649515,180.00306243896483,23.62389470991779,-122.74997166,49.19261438,0.8771474858125051,-0.44733186562856037,0.16002002855141953,0.058237234751383433,-0.5460204482078552,0.8744928936163584,-2.749261260032654,-36.370639419555665,31.96521987915039,-18.075519943237303,-0.1726305149495602,-1.9725754737854004,-0.11966855525970459,-291.9972320556641,126.82021789550781,-151.20191650390626,8.398314189910888,-11.099093437194824,2.1638041973114013,12.509477138519287,-16.183258056640625,5.371188918749492,0.05388338367144274,-1.7843373914559681,-0.11776974300543468,4.685809803009033,-7.750773334503174,3.7372678756713866
11.7,-0.7891420674594966,-1.9459629654884338,0.8048041435805234,0.0,0.0,1.27224600315094,15.278800201416015,0.1225094854831695,180.00361022949218,23.865193073713627,-122.74997188,49.19261324,0.8613399465878805,-0.4705031563838323,0.18483626594146088,0.028907013125717584,-0.6170295377572378,0.929195910692215,-2.7581217686335244,-34.4186393737793,33.219379615783694,-20.241019630432127,0.9439904441436132,1.080976942166065,-1.2672908455133438,-290.04522705078125,128.0743782043457,-153.36741485595704,-5.683002670605977,0.6097389856974283,0.10219279925028484,-1.69551420211792,-7.54945508018136,4.259324034055074,0.9007513463497162,1.2735624402761458,-1.5632346987724304,4.17964231967926,-7.922910372416179,3.9521385033925376
11.8,5.848801645026965,-9.056833853324255,3.055693436301116,0.0,0.0,1.2846630215644834,15.256500244140625,0.12324038892984386,180.00415802001953,24.106491437509465,-122.7499721,49.192612100000005,0.8020116686820984,-0.5835643172264099,0.04412467353977258,0.09504648894071574,-0.5693643093109131,1.1966288805007934,-2.49956374168396,-27.057159996032716,42.441358947753905,-9.02921986579895,-0.4423428053657214,3.7994545698165894,-3.8005745013554892,-282.6837554931641,137.29635925292968,-142.1556182861328,-5.451509952545166,2.9715206623077393,0.9462204178174337,-2.766222655773163,-5.826882076263428,3.702294874191284,-0.30655253616472083,3.7889679670333862,-3.778354287147522,2.51484876871109,-9.092966715494791,2.494750658671061
11.9,12.486745357513428,-16.167704741160076,5.3065827290217085,0.0,0.0,1.2970800399780271,15.234200286865235,0.1239712923765182,180.00470581054688,24.347789801305304,-122.74997232,49.19261096,0.7093822658061981,-0.6781395574410757,-0.026823387170831315,0.1861063589652379,-1.2587885757287343,1.3297549486160278,-1.5782370368639629,-15.315879917144775,47.64221878051758,-7.323659753799438,-0.00030543655157089233,0.19079358006517091,-2.2441916267077127,-270.9424743652344,142.4972183227539,-140.45005493164064,-0.7177523076534271,-1.71248992284139,-4.83186690012614,-1.2589240074157715,-11.465608755747477,-2.0680967271327972,-0.10361801336208981,0.2636137803395589,-2.279010991255442,0.18248800685008368,-9.376754919687906,2.7720378637313843
12.0,-1.7182460427284239,-7.533901626865069,4.194717844327291,0.0,0.0,1.3094970583915708,15.211900329589843,0.12470219582319256,180.00525360107423,24.589088165101142,-122.74997254,49.19260982,0.640986442565918,-0.7348860303560892,-0.08154055910805856,0.2038469736774762,-2.0109393994013467,1.3504338065783184,-0.7215603291988373,-5.805979776382446,50.098078918457034,-6.018259954452515,-0.09030624354879058,1.137507438659668,-1.1839332083861034,-261.4325775146484,144.953076171875,-139.1446563720703,0.3741023341814677,0.6017595926920573,-0.8169069290161133,-0.4379862844944,-8.46411140759786,1.7126628359158833,-0.032146788512666995,1.3214033544063568,-1.1891255378723145,-1.2833448151747386,-9.358102321624756,2.6344475746154785
12.1,-2.7889544546604155,-5.81132869720459,3.637688684463501,0.0,0.0,1.3219140768051145,15.189600372314453,0.1254330992698669,180.00580139160155,24.83038652889698,-122.74997276,49.19260868,0.6069596310456594,-0.7602418859799703,-0.07914211601018901,0.21719013651212052,-2.194332758585612,1.2777800559997559,-0.5203876346349716,-1.838539969921112,50.11515884399414,-8.108119821548462,-0.32525519728660585,-0.06640104651451105,-0.04856378436088562,-257.46513671875,144.97015991210938,-141.2345169067383,2.3959563732147218,-6.92800121307373,-4.759655618667603,-0.06261211633682251,-15.79123306274414,-1.1461620330810547,-0.24108815441528955,-0.388993889093399,0.02705622712771098,-1.9507216453552245,-9.134944915771486,2.9912524700164793
12.2,-0.8711869294444718,-9.94930668671926,-0.24232314527034762,0.0,0.0,1.3343310952186582,15.167300415039062,0.12616400271654127,180.0063491821289,25.07168489269282,-122.74997298,49.192607540000004,0.6830661594867706,-0.6941369970639547,-0.07160811871290201,0.20831169436375296,-1.4266680777072906,1.3479827046394348,-1.3138875365257263,-10.812859869003296,48.90125923156738,-6.494059944152832,0.740699569384257,-0.23151792337497076,3.0782517989476523,-266.4394561767578,143.75625610351562,-139.620458984375,0.33012815316518146,-4.127368291219075,-1.4128376046816509,-0.29072799285252887,-13.312468528747559,1.5757734030485153,0.7448279917240143,0.0214413821697235,3.4039854526519777,-0.3202277688930432,-9.392386436462402,2.6131296952565513
12.3,-0.47826547299822164,-12.862493534882864,-0.7265456840395927,0.0,0.0,1.346748113632202,15.145000457763672,0.1268949061632156,180.00689697265625,25.312983256488657,-122.7499732,49.1926064,0.7942976713180542,-0.5789644598960877,-0.02162606227211652,0.17545014619827265,-0.4890678882598877,1.193528652191162,-2.3679244995117186,-27.30115966796875,42.8878791809082,-5.751079893112182,0.11105022331078847,-1.7869335611661274,3.403512120246887,-282.9277587890625,137.7428771972656,-138.87747497558593,-3.938043475151062,-3.4737046559651694,4.5308224360148115,-1.300379467010498,-12.897553443908691,7.930771350860596,0.1511128032580018,-1.7932967245578766,3.383913437525431,2.797594428062439,-9.068881034851074,2.3225131034851074
12.4,-0.08534401655197144,-15.775680383046469,-1.210768222808838,0.0,0.0,1.3397329250971475,15.131333748499552,0.1275512228409449,180.00640106201172,25.389016103753097,-122.74997354166666,49.192605400000005,0.8721511761347452,-0.4700687726338704,0.05389258948465184,0.1148444923261801,-0.35835568110148114,0.942391167084376,-2.693138837814331,-38.880179214477536,33.498759269714355,-9.146339607238769,0.6239988456169764,-1.5071063538392384,2.823673725128174,-294.50677185058595,128.3537582397461,-142.27273864746093,-8.536763032277426,5.693015019098918,-3.1234126488367715,-2.9209385414918265,-3.0796625117460885,-0.3053839846203724,0.6534985614319643,-1.4391476313273113,2.8752154111862183,5.084249258041382,-7.955934921900432,2.5881107648213706
12.5,-0.3134597837924957,-13.296915372212728,1.5111672307054203,0.0,0.0,1.332717736562093,15.117667039235434,0.1282075395186742,180.0059051513672,25.465048951017536,-122.74997388333333,49.1926044,0.8977178335189819,-0.4145628412564595,0.1343392853935559,0.06042374670505518,-0.43958306312561035,0.8161234557628632,-2.8144471645355225,-41.565399169921875,27.87455940246582,-15.060899543762208,0.45262061059474945,-1.053009530901909,-0.5161200404167176,-297.1919921875,122.72955703735352,-148.1872985839844,-2.805788993835449,6.3620076179504395,0.37573881149291993,2.8558338532845178,-1.1022936205069225,3.4312080020705857,0.5413793101906776,-1.0472775362432003,-0.7021895994742712,5.583666801452637,-7.316552066802979,3.3811247825622557
12.6,-1.3231112599372863,-12.882000160217284,7.8661651611328125,0.0,0.0,1.3257025480270384,15.104000329971313,0.12886385619640348,180.00540924072266,25.54108179828198,-122.749974225,49.1926034,0.580838680267334,-0.3093971411387126,0.10405778388182318,0.020409430532405733,-0.5600958367188772,0.90824027856191,-2.8208278814951577,-35.43123931884766,32.37147960662842,-18.38905973434448,0.0823141069461902,-1.8369226555029552,0.05721770723660787,-291.0578369140625,127.22647857666016,-151.5154556274414,7.5637900829315186,-8.951819817225138,0.7471110026041666,12.158131202061972,-17.131114562352497,4.993621448675792,-0.11893547177314759,-2.0532097458839416,0.4850880965590477,4.5453182856241865,-7.934935490290324,3.525964101155599
12.7,-0.0552841325600942,-2.075424720843633,1.4983057714998722,0.0,0.0,1.318687359491984,15.090333620707193,0.12952017287413278,180.00491333007812,25.61711464554642,-122.74997456666667,49.1926024,0.5651009480158488,-0.33846111098925274,0.09917616968353586,0.01362899657882125,-0.5851514438788096,0.9851152102152506,-2.7949774662653604,-33.92819881439209,34.34177913665771,-18.408579730987547,0.7731263190507889,1.9934569150209427,-1.9378427267074585,-289.55479431152344,129.19677734375,-151.53497619628905,-6.015161116917928,2.3793320655822754,1.3223960399627686,-2.5495525598526,-5.579563935597737,4.479164620240529,0.7590509702761968,1.7693711817264557,-1.7701601882775624,3.9964466492335,-8.218524853388468,3.512194832166036
12.8,6.04005764424801,-9.59549298385779,3.213660535092155,0.0,0.0,1.3116721709569295,15.076666911443075,0.13017648955186206,180.0044174194336,25.69314749281086,-122.74997490833333,49.1926014,0.7622960925102233,-0.6290831327438354,0.0252437660936266,0.13207552582025525,-0.8248014688491822,1.2681239366531372,-2.1639309406280516,-23.65701961517334,44.39335899353027,-8.85841989517212,-1.0893763558318217,3.4214053079485893,-3.580382992823919,-279.2836120605469,139.24835662841798,-141.9848205566406,-8.935785492261251,-0.7991147041320801,-1.2668160994847615,-8.017391681671143,-10.066126251220703,1.5609578538686038,-1.0481175159414609,3.624874403079351,-3.735288252433141,1.598324865102768,-9.277667363484701,2.6341072718302407
12.9,12.135399421056112,-17.11556124687195,4.929015298684438,0.0,0.0,1.304656982421875,15.063000202178955,0.13083280622959137,180.00392150878906,25.7691803400753,-122.74997525,49.1926004,0.686970442533493,-0.7048627932866415,-0.01396953679310775,0.17149994522333137,-1.5796083211898804,1.33605295419693,-1.2970554133256276,-12.93687982559204,48.351039505004884,-8.154479789733887,0.6555347666144371,0.5141703219463428,-2.0410025914510093,-268.5634735107422,143.20603637695314,-141.28087463378907,5.088768223921458,0.9388581911722819,-4.005293488502502,3.833700786034266,-9.004690170288086,-1.648854245742162,0.6204863817741474,0.39584070444107056,-2.023058454195658,-0.49950376867006224,-9.392409006754557,2.7236303091049194
13.0,-2.572284380594889,-5.564010461171468,4.414558331171672,0.0,0.0,1.2976417938868205,15.049333492914835,0.13148912290732065,180.00342559814453,25.84521318733974,-122.74997559166667,49.1925994,0.627699206272761,-0.7473159929116567,-0.08471113940080004,0.19924121598402655,-2.160189688205719,1.3341779708862305,-0.5741033554077148,-5.382639813423157,50.083439636230466,-5.174019813537598,-0.17461583209224046,0.31462615728378296,-1.3483628511428833,-261.0092346191406,144.93843841552734,-138.3004180908203,-0.9421941757202148,-0.29355335235595703,-0.9297685861587525,-1.8426728745301564,-10.120842138926188,1.8362919967621565,-0.2545017364124457,-0.07373654842376709,-1.3215051690737407,-1.5523931503295898,-9.355910301208496,2.490738773345947
13.1,-8.04012348651886,-10.050573062896728,1.4963516116142273,0.0,0.0,1.290626605351766,15.035666783650717,0.13214543958504993,180.0029296875,25.92124603460418,-122.74997593333333,49.1925984,0.6133483648300171,-0.7631782988707224,-0.0659709169218937,0.19114273041486737,-2.254085977872213,1.293091853459676,-0.5181960612535477,-2.2691999673843384,50.2273983001709,-7.23337984085083,-0.04174245645602546,-0.35987596586346626,0.5176064769426981,-257.8957916259766,145.0824005126953,-140.35977783203126,3.0039104421933494,-7.383055051167806,-5.286078294118245,1.278764287630717,-16.144773483276367,-2.9120651284853616,0.07831292748451232,0.15250253081321716,0.7181942760944366,-2.056422213713328,-9.207688172658285,2.670516093571981
13.2,0.9727821623285612,-9.547212839126587,0.029112673985461395,0.0,0.0,1.2836114168167114,15.022000074386597,0.13280175626277924,180.00243377685547,25.99727888186862,-122.749976275,49.1925974,0.7083436250686646,-0.6803454518318176,-0.058438687771558716,0.17255092859268187,-1.198377251625061,1.3807546138763427,-1.613565158843994,-15.896599817276002,47.960639572143556,-4.377359914779663,0.729678546388944,-0.09328421259609365,3.5887060165405273,-271.5231964111328,142.81563568115234,-137.50375671386718,-1.294078787167867,-3.703337033589681,1.2027420202891033,-1.3405788362026214,-13.36319637298584,3.283311605453491,0.7531459430853525,-0.14123714218537015,3.502854029337565,0.3025831046203772,-9.52329683303833,2.0685380697250366
13.3,1.1144072947402794,-12.838216265042623,-1.4737793221138416,0.0,0.0,1.276596228281657,15.008333365122477,0.13345807294050852,180.00193786621094,26.07331172913306,-122.74997661666666,49.1925964,0.8134889900684357,-0.5608104666074117,0.008859425550326682,0.14101239169637358,-0.4504642238219579,1.1513489683469136,-2.5001744429270425,-31.677299308776856,40.153859329223636,-7.024759888648987,-0.15167275505761307,-1.9530125210682552,3.533091902732849,-287.30389099121095,135.00885620117188,-140.15115661621093,-4.213502804438273,-1.6419680913289387,3.147153457005819,-0.9302098055680593,-11.246465841929117,6.339384863773982,-0.18124880641698835,-2.006641407807668,3.539455016454061,3.4192154010136924,-8.854654630025228,2.32323028643926
13.4,1.2560324271519978,-16.12921969095866,-2.976671318213145,0.0,0.0,1.2695810397466025,14.994666655858358,0.13411438961823782,180.0014419555664,26.149344576397503,-122.74997695833333,49.192595399999995,0.8938372234503428,-0.4274681707223256,0.09670212057729559,0.07937118845681344,-0.37588102618853253,0.8495819469292959,-2.7929776509602866,-42.28031883239746,28.551659393310548,-11.881579685211182,0.10891726762056353,-1.8700417757034302,2.929220962524414,-297.90691528320315,123.40665740966797,-145.0079803466797,-9.199789237976074,7.232098388671875,-4.00166506767273,-2.983650437245766,-0.6950153112411499,-0.8512466549873352,0.09071349104245503,-1.7790432175000508,2.7068966229756675,5.59038610458374,-7.544289398193359,2.774996852874756
13.5,-1.3633107185363769,-13.347643280029297,3.21870539188385,0.0,0.0,1.262565851211548,14.980999946594238,0.1347707062959671,180.00094604492188,26.225377423661943,-122.7499773,49.1925944,0.8926428059736887,-0.4197015513976414,0.1518860707680384,0.046792359401782314,-0.4793238341808319,0.8276473581790924,-2.822234630584717,-41.30919914245605,27.40729923248291,-16.627379417419434,0.7016041924556097,-0.28588492920001346,-1.8838830043872197,-296.9357940673828,122.26229782104492,-149.75377655029297,0.9277966022491452,4.94792111714681,0.4111681381861369,8.16431067387263,-3.541576884686947,4.0626139640808105,0.7174357684950032,-0.02756529425581296,-2.2487731805692115,5.5228846073150635,-7.291798114776611,3.472574830055237
13.6,-0.9529416064421335,-11.230912526448568,6.27477843562762,0.0,0.0,1.262565851211548,14.967799949645997,0.13580605983734131,180.00086669921876,26.225377423661943,-122.74997818,49.192592239999996,0.8633269369602203,-0.45674144228299457,0.2099934617678324,0.017026720626745314,-0.6541647712389628,0.8992348313331604,-2.778046131134033,-35.18235893249512,31.53699951171875,-20.83271942138672,-0.2914845248063405,-1.8779525061448414,0.23979008197784416,-290.8089538574219,126.39199752807617,-153.95911865234376,4.931712945302327,-9.12590495745341,3.2855971654256186,5.8342000643412275,-16.931612809499104,7.607481161753337,-0.33081406392157076,-2.3576649606227873,0.757778351008892,4.3317311604817705,-7.861148675282796,3.92406964302063
13.7,2.567598294777175,-2.1027427036315203,1.541077454884847,0.0,0.0,1.262565851211548,14.954599952697754,0.1368414133787155,180.00078735351562,26.225377423661943,-122.74997906,49.192590079999995,0.8341110348701477,-0.523820984363556,0.1616289675235748,0.02139726001769298,-0.631583297252655,1.054675555229187,-2.7166285514831543,-32.20799922943115,36.34257888793945,-17.782719898223878,1.1171198238929112,2.955187858392795,-2.7006861766179404,-287.8345916748047,131.19757614135742,-150.90911865234375,-6.077832023302714,2.596123218536377,-1.4505476554234822,-1.7941384807229042,-5.174957513809204,1.0934003323316572,1.1270972539981206,2.8045587117473283,-2.661896228790283,3.261210640271505,-8.628037929534912,3.21614408493042
13.8,4.189533289056271,-9.509401178297898,4.54197617371877,0.0,0.0,1.262565851211548,14.941399955749512,0.1378767669200897,180.0007080078125,26.225377423661943,-122.74997994,49.19258792,0.745165487130483,-0.6472126046816508,0.004218167431342102,0.14467463890711463,-0.9166337351004282,1.3083641131718953,-2.024184008439382,-21.182859420776367,46.030599212646486,-7.437119770050049,-0.9288715024789175,2.382730777064959,-2.5852580765883126,-276.80945739746096,140.8855972290039,-140.56351623535156,-6.66955491900444,-0.3598336378733317,-1.2927390734354656,-5.881458376844724,-9.43121067682902,1.887936994433403,-0.9277770494421324,2.7156014889478683,-2.720717499653498,0.9904199739297231,-9.424126784006754,2.4827618996302285
13.9,5.811468283335368,-16.916059652964275,7.542874892552693,0.0,0.0,1.262565851211548,14.928199958801269,0.1389121204614639,180.00062866210936,26.225377423661943,-122.74998082,49.19258576,0.6737385590871176,-0.7175506949424744,-0.025726931872971617,0.17027612278858817,-1.735451062520345,1.3506670196851094,-1.1262551844120026,-12.079219818115234,48.93053855895996,-7.422479867935181,0.5019174292683601,1.02753643989563,-1.9175365447998047,-267.705810546875,143.78553924560546,-140.5488754272461,4.733815920352936,0.4542628288269043,-3.8038923740386963,3.5257244780659676,-9.021439949671427,-1.1573285286625226,0.45664722472429276,0.7807366748650869,-1.8864791591962178,-0.6979114264249802,-9.431223678588868,2.5875133514404296
14.0,-1.816870267689228,-5.159404230117798,1.028794091939926,0.0,0.0,1.262565851211548,14.914999961853027,0.1399474740028381,180.00054931640625,26.225377423661943,-122.7499817,49.1925836,0.6154338220755259,-0.7606388926506042,-0.07645085640251634,0.19073625902334845,-2.2746618588765464,1.307964563369751,-0.48339951038360596,-4.222419941425324,50.39331970214844,-5.513179874420166,-0.276543786128362,-0.23472498233119646,-1.3062844276428223,-259.84901123046876,145.2483154296875,-138.63957824707032,1.658673236767451,-1.5710474650065105,0.013695816198984781,0.349252387881279,-11.590134938557943,2.114656984806061,-0.34293975234031676,-0.3598912715911865,-1.2860240697860719,-1.8215545415878296,-9.319992224375406,2.4308640559514365
14.1,-5.904190162817637,-9.41565728187561,1.8233307997385662,0.0,0.0,1.2645753145217897,14.90359992980957,0.150321152806282,179.98826293945314,26.23214003917055,-122.74998254,49.19258194,0.6115294456481933,-0.7634548902511596,-0.06752708032727237,0.19585528373718258,-2.2485639095306396,1.2884430885314941,-0.5144931018352509,-3.5477599024772646,50.026099014282224,-6.877139902114868,0.142891563475132,0.0675005962451299,1.0553206205368042,-259.1743591308594,144.88109893798827,-140.0035369873047,2.8813540736834207,-6.530661106109619,-5.037327488263448,-0.0649650812149046,-16.12367649078369,-2.65758838057518,0.0999528169631958,0.0024943544218937555,0.877711521461606,-1.9416426817576091,-9.246721585591635,2.617976744969686
14.2,1.9147566258907318,-10.290234128634134,0.41405801350871724,0.0,0.0,1.2665847778320314,14.892199897766114,0.1606948316097259,179.9759765625,26.238902654679155,-122.74998338,49.19258028,0.7125448187192281,-0.6736783385276794,-0.05455694533884518,0.18037067105372748,-1.159209152062734,1.357530117034912,-1.6466508507728577,-17.378899765014648,47.531199264526364,-4.764099907875061,0.4619922985633214,-0.1470912645260493,3.7200928926467896,-273.0054931640625,142.38619842529297,-137.89049835205077,-2.9046215613683066,-3.7084110577901206,1.6751134991645813,-1.4498511950174968,-13.149457772572836,3.0749765833218894,0.5012403875589371,-0.07755443453788756,3.7136279741923013,0.831769290069739,-9.494892756144205,2.103145877520243
14.3,0.9135298699140548,-13.199178477128346,-1.1540683037290969,0.0,0.0,1.268594241142273,14.880799865722656,0.1710685104131698,179.96369018554688,26.245665270187757,-122.74998422,49.19257862,0.8241415123144785,-0.5432624220848083,0.022092147381044914,0.14784911399086312,-0.4663289487361908,1.1004623174667358,-2.492515285809835,-33.00221881866455,38.8667594909668,-7.434679889678955,-0.021868979930877684,-1.7114611566066742,3.5725232124328614,-288.6288116455078,133.7217575073242,-140.5610794067383,-4.53773341178894,-1.102472972869873,2.4624072551727294,-1.0638090471426647,-9.777771155039469,4.839782903591792,0.10051277326419951,-1.5503505617380142,3.595196485519409,3.6108038425445557,-8.754687881469726,2.4585644721984865
14.4,-0.08769688606262208,-16.10812282562256,-2.7221946209669112,0.0,0.0,1.2706037044525147,14.8693998336792,0.1814421892166137,179.95140380859374,26.252427885696363,-122.74998506,49.192576960000004,0.8968532979488373,-0.42093798518180847,0.10399309669931726,0.07469984019796048,-0.38180724779764813,0.8350622753302256,-2.8050137758255005,-42.36327896118164,27.473179626464844,-12.01943998336792,0.4155410857250293,-1.9821050365765889,2.3524929185708365,-297.98987731933596,122.32817840576172,-145.14583740234374,-8.394993543624878,7.864036560058594,-3.5623509089152017,-2.503789740304152,0.6402794569730759,-0.24536406993865967,0.3283655295769374,-2.0255018770694733,1.856521298487981,5.608980655670166,-7.532837549845378,2.771316170692444
14.5,-1.4725829760233562,-13.133904298146566,3.010370363791784,0.0,0.0,1.2726131677627563,14.857999801635742,0.1918158680200576,179.93911743164062,26.25919050120497,-122.7499859,49.1925753,0.8829125265280405,-0.44549712042013795,0.1399432669083277,0.035354739365478303,-0.46077000101407367,0.8908656140168508,-2.8379030227661133,-39.401119232177734,29.61183967590332,-14.781519603729247,0.6905068059762319,-0.285375880698363,-1.6432529936234157,-295.02771911621096,124.46683731079102,-147.9079147338867,5.344913283983867,-0.3272278308868408,1.337652047475179,10.864511330922445,-11.160523702700933,4.793322245279948,0.8193230092525482,-0.11569788008928299,-2.0333260715007784,5.179847240447998,-7.711566766103108,3.073907732963562
14.6,-1.086540882786115,-9.76221783955892,4.775176708896955,0.0,0.0,1.2684046745300293,14.849799919128417,0.20202921926975242,179.9188262939453,26.125466821435065,-122.74998638,49.19257406,-0.5164862036705017,0.2720613837242126,-0.1385871827602386,0.01135486366692926,-0.6356083989143372,0.9057664752006531,-2.8373321533203124,-35.769178771972655,31.16245937347412,-21.242639541625977,0.11369729042053223,-1.4440854887167613,-0.06780606508255005,-291.39577331542966,126.01745681762695,-154.3690383911133,-1.12772270043691,-6.041567087173462,2.171169320742289,3.4207791805267336,-12.1657084941864,6.321239185333252,0.03431027630964915,-1.644118328889211,0.028328895568847656,4.36055604616801,-7.928137461344401,3.772096037864685
14.7,4.157628970841567,-5.244568889339765,2.209372897942861,0.0,0.0,1.2641961812973022,14.841600036621093,0.21224257051944728,179.89853515625,25.99174314166516,-122.74998685999999,49.19257282,0.5476429462432861,-0.3736485093832016,0.06094461431105928,0.026837336597964116,-0.5619866847991943,1.0931777854760487,-2.731498122215271,-32.606939506530765,37.55526008605957,-13.587139797210693,0.42432227234045666,3.3609551588694253,-3.5386660198370614,-288.23353576660156,132.4102584838867,-146.71353759765626,-4.004175583521525,3.653834501902262,0.6322999795277914,-0.7870392341477176,-5.460421284039815,2.9941190757478275,0.5010367777819434,3.2645911375681558,-3.3425273448228836,3.1232481400171914,-8.871092637379965,2.58075479666392
14.8,3.7778381851812206,-8.69736204991738,4.23300299445788,0.0,0.0,1.2599876880645753,14.833400154113768,0.2224559217691421,179.87824401855468,25.85801946189526,-122.74998734,49.19257158,0.7206618388493856,-0.670834998289744,-0.013309614500030867,0.1659440795580546,-1.136399745941162,1.336899717648824,-1.7490411202112834,-19.70787982940674,46.58325881958008,-6.490399789810181,-0.7700261980295181,2.892874574661255,-2.1700376749038695,-275.3344757080078,141.4382568359375,-139.6167984008789,-7.3776322364807125,-1.2965272903442382,-3.417897939682007,-5.061916510264079,-10.346963802973429,-0.6917251447836558,-0.6645195906360944,2.5619688679774604,-2.421978930632273,0.6284868299961089,-9.463325881958008,2.489854097366333
14.9,3.398047399520874,-12.150155210494995,6.2566330909729,0.0,0.0,1.2557791948318482,14.825200271606445,0.23266927301883694,179.8579528808594,25.724295782125356,-122.74998782,49.19257034,0.6375119686126709,-0.738222082455953,-0.08380725483099614,0.20073793083429334,-2.063195844491323,1.346318781375885,-0.6704508711894354,-9.126819801330566,49.67839889526367,-4.531079864501953,0.3733659287293752,1.061149296661218,-2.329229156176249,-264.7534118652344,144.53339538574218,-137.65747833251953,3.5610058705012,1.339354674021403,-2.9391496181488037,1.9215362792213757,-8.059724648793539,-0.07128617664178205,0.42742241024971006,1.3046248853206635,-2.2193345069885253,-1.1144144336382549,-9.440861543019613,2.3717439572016397
15.0,-0.8097711003695925,-5.444867968559265,2.9295127925773463,0.0,0.0,1.251570701599121,14.81700038909912,0.2428826242685318,179.83766174316406,25.590572102355452,-122.7499883,49.1925691,0.5842352867126465,-0.772737443447113,-0.11355171948671336,0.2201826810836791,-2.3850419521331787,1.2632580757141114,-0.2742577254772186,-1.6860400050878526,50.5323989868164,-4.423719906806946,-0.5335398763418198,0.4349105954170227,-0.7847836762666702,-257.31263275146483,145.38739471435548,-137.55011749267578,2.674348513285319,-3.5626309712727866,-2.0547462701797485,0.8754141449928283,-12.702658081054688,1.0957931399345398,-0.5131013492743174,0.33337969332933426,-0.8977937580396732,-2.3103103240331015,-9.189625898996988,2.526324152946472
15.1,-5.0846482912699384,-10.331410566965738,-0.7563313394784927,0.0,0.0,1.2386028289794921,14.792000389099119,0.43567475080490115,180.13201293945312,25.585774080140954,-122.74999442,49.19256648,0.599007119735082,-0.7584105432033539,-0.10580733045935627,0.2318785612781842,-2.2073872884114585,1.280148168404897,-0.44648732244968414,-4.635999917984009,50.38965911865235,-5.491219878196716,0.5154430071512858,-0.21952970822652182,2.0390427708625793,-260.26259155273436,145.24465637207032,-138.61761627197265,1.35968221227328,-6.735487302144368,-4.419863700866699,-0.7087740004062653,-16.5860497156779,-2.345364987850189,0.4437936097383499,-0.12448922793070478,1.892282356818517,-1.7112972537676494,-9.271706104278564,2.6278315782546997
15.2,1.423294429074634,-10.154595548456365,0.3945982185277072,0.0,0.0,1.2256349563598632,14.767000389099119,0.6284668773412705,180.42636413574218,25.580976057926456,-122.75000054,49.19256386,0.7209938863913218,-0.6479070285956064,-0.09928213184078528,0.21844103932380676,-0.890390877922376,1.3544779817263286,-1.795154611269633,-20.808319568634033,46.71257972717285,-1.4090999960899353,0.4898121158281962,-0.6992880081137022,3.5502978960673013,-276.43491821289064,141.56757659912108,-134.53549499511718,-4.504813214143117,-3.9198404947916665,5.579486727714539,-2.802693168322245,-13.002797762552897,6.5849482615788775,0.5468262092520794,-0.5592471236983935,3.5843281745910645,1.421691382303834,-9.482366720835367,1.8343676726023357
15.3,0.34589431886420097,-13.362545894853998,-1.0076864993933474,0.0,0.0,1.2126670837402345,14.74200038909912,0.8212590038776397,180.72071533203123,25.576178035711955,-122.75000666,49.19256124,0.8289482990900675,-0.5313753386338552,-0.0010506516167273332,0.16642750551303226,-0.4004206458727519,1.081452836592992,-2.496625781059265,-35.26165981292725,37.83829956054687,-5.275279903411866,0.6685920298099518,-1.4303715169429778,3.188838815689087,-290.88825073242185,132.69329910278321,-138.40167694091798,-4.2557474136352536,1.148826789855957,-1.57177791595459,-1.0959127023816109,-7.3771719336509705,1.5442679127057393,0.7009933218359947,-1.6160185225307941,3.1402546564737954,3.945568084716797,-8.677053070068359,2.205290126800537
15.4,-0.7315057913462321,-16.57049624125163,-2.409971217314402,0.0,0.0,1.1996992111206055,14.71700038909912,1.0140511304140092,181.0150665283203,25.571380013497457,-122.75001278,49.19255862,0.8934075832366943,-0.42795053621133167,0.09014777652919287,0.0936356397966543,-0.37225796778996784,0.8469642500082651,-2.764667590459188,-43.17213897705078,28.192979621887208,-10.16747980117798,0.0640390341480573,-2.419764498869578,1.8076011836528778,-298.7987335205078,123.04797821044922,-143.29387664794922,-7.3513840436935425,9.205668926239014,-2.061217208703359,-0.8788637767235438,1.321336607138316,1.1284153461456299,-0.1295645147562027,-2.515848469734192,1.7706539888866246,5.637554883956909,-7.56390102704366,2.6113595167795816
15.5,-2.825424998998642,-12.987244129180908,6.520342071851094,0.0,0.0,1.1867313385009766,14.69200038909912,1.2068432569503784,181.30941772460935,25.56658199128296,-122.7500189,49.192556,0.8796026706695557,-0.4520917534828186,0.13539710938930508,0.055050293356180155,-0.47958803176879883,0.8960511207580566,-2.7823965549468994,-40.48447952270508,29.534979629516602,-15.275619792938233,0.5351434027155241,-1.381446326772372,-0.8088619410991669,-296.1110778808594,124.3899772644043,-148.40201873779296,6.407925049463908,-6.302622437477112,1.7217358748118083,11.778789043426514,-14.148042583465577,4.85539608001709,0.5689191545049349,-1.2736285651723545,-0.8863400096694628,5.075659434000651,-7.759604771931966,3.171180089314779
15.6,-1.1186445703109105,-7.361618558565776,1.4796616385380428,0.0,0.0,1.1864588260650635,14.653000259399413,1.169569706916809,181.03653869628903,25.03326551673242,-122.7500144,49.19255624,0.2853463391462962,-0.16058717668056488,0.0618751769264539,0.01079432926781005,-0.6669670740763346,0.9199755191802979,-2.7784419854482016,-35.93753852844238,31.300319290161134,-21.891679573059083,0.1893936830262343,-0.1657989720503489,-0.8528697068492571,-291.5641387939453,126.15531768798829,-155.01807861328126,-2.5034581820170083,-0.48547808329264325,2.6255220969518027,2.8139594172437987,-9.953444401423136,7.243971467018127,0.1392772748755912,-0.5070436050494512,-0.7761042962471644,4.17706827322642,-7.971163511276245,3.8850417931874595
15.7,4.851882988756353,-5.694646022536538,2.757891286503185,0.0,0.0,1.1861863136291504,14.614000129699706,1.1322961568832397,180.76365966796874,24.499949042181886,-122.7500099,49.19255648,0.8091639876365662,-0.5684629678726196,0.10136920648316539,0.06738445007552699,-0.6763695478439331,1.1468698978424072,-2.515924612681071,-30.717159271240234,39.57191886901855,-12.68433952331543,0.43664646372199056,3.5311980724334715,-4.159259223937989,-286.3437561035156,134.42691650390626,-145.81073760986328,-4.018182373046875,3.7396530151367187,-1.2394189357757568,-1.3647064572821062,-5.629613836606343,1.2912268936634064,0.2604067549109459,3.7147988080978394,-3.9992330074310303,2.8467063665390016,-8.944089698791505,2.6769195556640626
15.8,3.8215553100136193,-7.816268554239562,4.968628202423904,0.0,0.0,1.1859138011932373,14.575,1.0950226068496702,180.49078063964842,23.966632567631347,-122.7500054,49.192556720000006,0.7015553514162699,-0.6859987278779348,-0.018297739443369185,0.18865615874528882,-1.3407069842020671,1.3208583394686382,-1.5047596096992493,-19.14179973602295,47.02855911254883,-7.351719856262207,-0.5662720824281374,1.3610332558552425,-2.3321816623210907,-274.7683959960938,141.88355865478516,-140.47811737060547,-4.404412905375163,-1.3201878865559895,-3.7065659761428833,-2.8664021094640098,-10.828519662221273,-1.4902300437291462,-0.5297423392534257,0.9719171166419983,-2.0065396428108215,0.461968553562959,-9.415019194285074,2.6693694988886514
15.9,2.7912276312708855,-9.937891085942587,7.1793651183446245,0.0,0.0,1.1856412887573242,14.535999870300293,1.057749056816101,180.21790161132813,23.433316093080812,-122.7500009,49.192556960000005,0.6316070437431336,-0.7489083051681519,-0.06465459093451498,0.1876955509185791,-2.14657666683197,1.3274319171905518,-0.633401608467102,-7.818979787826538,50.01877899169922,-5.675439882278442,0.5139667515953382,1.308855167279641,-1.9639317790667217,-263.44557189941406,144.87377471923827,-138.8018356323242,3.6726615031560264,0.23823420206705728,-1.8919443686803181,1.9134206354618073,-8.887900257110596,0.6632904231548311,0.5336416972180208,1.1596767505009968,-2.048129379749298,-1.512311339378357,-9.388993899027506,2.380770524342855
16.0,-1.3874383829534054,-5.614060401916504,1.2266206840674083,0.0,0.0,1.1853687763214111,14.496999740600586,1.0204755067825315,179.9450225830078,22.899999618530273,-122.7499964,49.1925572,0.580856035153071,-0.7820949057737986,-0.09649404759208356,0.20318813373645142,-2.4365479151407876,1.2469823956489563,-0.2722165857752164,-1.1028799891471863,50.467738723754884,-5.1178998947143555,-0.44442991850276786,0.1435533364613851,-0.41470115383466083,-256.72947692871094,145.32273864746094,-138.24429779052736,2.2045415242513022,-4.762794494628906,-2.309599995613098,-0.07278165221214294,-13.259926319122314,0.8859426577885946,-0.43839761614799505,0.17004961458345255,-0.5242750744024912,-2.5781905253728232,-9.13692045211792,2.4577480951944985
16.1,-2.889133890469869,-10.812966187795004,-1.5548362533251445,0.0,0.0,1.1853687763214111,14.397599792480468,1.0358170270919798,180.16619262695312,22.899999618530273,-122.74999632,49.19255788,0.6196139454841614,-0.7509224514166514,-0.08672037596503888,0.20676095783710477,-2.128419518470764,1.3107392191886902,-0.5912232051293055,-5.582719945907593,50.17859878540039,-5.365559816360474,0.6434192707141241,-0.09689848870038986,2.7191902895768485,-261.2093231201172,145.03359680175782,-138.49196014404296,1.2635829250017803,-4.073220094045003,-3.5421213507652283,-0.29262232780456543,-13.90489149093628,-1.821436529358228,0.6006077999869982,-0.08404488861560822,2.5999443332354226,-1.3766137547791004,-9.383623282114664,2.329750339190165
16.2,0.8073057667775587,-11.257088574496182,0.7201308946717869,0.0,0.0,1.1853687763214111,14.29819984436035,1.051158547401428,180.38736267089845,22.899999618530273,-122.74999624,49.19255856,0.7481162548065186,-0.6294387479623159,-0.06392105831764636,0.1911873618761698,-0.7113658587137858,1.3160165349642436,-2.064342180887858,-23.112899589538575,45.80611915588379,-2.63641996383667,0.35112535059452055,-1.439717710018158,3.4639419078826905,-278.7394958496094,140.66111602783204,-135.7628173828125,-4.908393859863281,-4.994451522827148,6.920919418334961,-3.128615657488505,-14.041083335876465,7.966803232828776,0.31589369724194216,-1.6836464206377666,3.425554116566976,1.7224004745483399,-9.459321403503418,1.7935138940811157
16.3,0.24597582898356696,-12.573213454448815,-0.582955914690639,0.0,0.0,1.1853687763214111,14.198799896240235,1.0665000677108765,180.60853271484376,22.899999618530273,-122.74999616,49.19255924,0.8536880910396576,-0.5029017875591913,0.04185953394820288,0.11510421956578887,-0.3812493085861206,1.01747461160024,-2.6531925598780313,-38.558099365234376,34.590658569335936,-7.678679895401001,0.6507751072446505,-1.8961257363359134,3.527772227923075,-294.1846893310547,129.44565658569337,-140.8050796508789,-6.060230811436971,3.002355972925822,-2.6232819159825644,-2.304786721865336,-4.5404806931813555,-1.0506485501925151,0.7826405599713325,-1.5213599026203155,3.6188878536224367,4.275813380877177,-8.509544610977173,2.172825495402018
16.4,-0.3153541088104248,-13.88933833440145,-1.886042724053065,0.0,0.0,1.1853687763214111,14.099399948120118,1.0818415880203247,180.8297027587891,22.899999618530273,-122.74999608,49.19255992,0.8959152340888977,-0.4180193305015564,0.14184141755104063,0.04317772425711151,-0.44410501718521117,0.8290930390357971,-2.8474929332733154,-43.51251907348633,26.269039344787597,-15.478139400482178,0.45733444516857463,-1.7999908079703648,0.5445100118716558,-299.139111328125,121.1240364074707,-148.6045379638672,-3.6226680676142373,6.704361200332642,-0.29824984073638916,2.22400906085968,-0.6796812534332275,2.9459235936403276,0.391386441886425,-1.9629391183455784,0.7840455075105032,5.603755791982015,-7.447240432103475,3.0404170751571655
16.5,-3.1513474384943643,-14.025530020395914,7.902197202046712,0.0,0.0,1.1853687763214111,14.0,1.097183108329773,181.0508728027344,22.899999618530273,-122.749996,49.1925606,0.5770123302936554,-0.3222421854734421,0.08700054387251537,0.009216035056548768,-0.49891698360443115,0.9796292384465536,-2.86040465037028,-37.21975936889648,32.87411880493164,-16.223559761047362,0.25679249316453934,-1.381649878496925,-0.8631780048211416,-292.8463562011719,127.72911682128907,-149.3499557495117,7.500966548919678,-5.952346483866374,2.0347112019856772,11.45404314994812,-13.808979352315268,4.822335163752238,0.3250312162563205,-1.3070988847563665,-0.9969320793946584,4.341342290242513,-8.30479613939921,2.8624918460845947
16.6,-2.3275185426076255,-4.524927377700806,-1.1152547597885132,0.0,0.0,1.1948111295700072,13.916200065612793,1.1141391754150392,181.30049133300784,23.476967032960754,-122.74999764,49.19256056,0.2764384647210439,-0.18305154144763947,0.041152276098728145,0.01779890727872645,-0.6216898163159689,1.0163557330767314,-2.775248646736145,-35.13234024047851,33.85865955352783,-19.029559707641603,0.1390329420566559,1.7854369685053826,-1.1720060646533965,-290.758935546875,128.71365966796876,-152.1559585571289,-8.725857067108155,-0.4051939010620117,2.2585052490234374,-3.7717863023281097,-8.035895983378092,5.003791054089865,0.33880112941066426,1.6048702895641327,-1.3478741943836212,3.8136815071105956,-8.424967193603516,3.2587578296661377
16.7,7.235841323028911,-7.825563300739635,3.9048146226189355,0.0,0.0,1.2042534828186036,13.832400131225587,1.1310952425003051,181.55010986328128,24.05393444739123,-122.74999928,49.19256052,0.7687636514504751,-0.6220739285151163,0.03028542959752183,0.10553224602093296,-0.7520996530850729,1.2744815548261006,-2.2822661797205606,-27.48415927886963,42.46819953918457,-8.755939865112305,-0.5562945852677027,4.435161689917247,-3.8092284401257834,-283.1107513427734,137.3231964111328,-141.88233642578126,-4.640407105286916,2.1292243798573813,-0.6603739460309347,-3.6273197730382285,-8.755637129147848,1.8704894284407299,-0.8429634854197504,4.920794486999512,-4.059841012954712,2.045221616824468,-9.307301044464111,2.139230489730835
16.8,1.7206616148804175,-7.922952984318589,4.421999624281218,0.0,0.0,1.2136958360671997,13.748600196838378,1.1480513095855713,181.7997283935547,24.630901861821712,-122.75000092,49.19256048,0.6823864579200745,-0.7080095052719116,-0.032810801640152876,0.17495895028114314,-1.6207674741744995,1.3550484418869018,-1.2241450667381286,-16.174759578704833,47.92647933959961,-6.102439880371094,0.39436442653338116,0.05426518867413196,-2.2429953614870706,-271.8013580322266,142.78147583007814,-139.2288360595703,1.4333279132843018,-0.5526057879130046,-3.775885264078776,2.6428725957870483,-9.384172058105468,-1.9293328642845153,0.29629508514578146,0.06869689623514812,-2.2621866861979165,-0.271781704078118,-9.496459166208902,2.323434352874756
16.9,-3.7945180932680764,-8.020342667897543,4.9391846259435015,0.0,0.0,1.223138189315796,13.664800262451172,1.1650073766708373,182.04934692382812,25.20786927625219,-122.75000256,49.19256044,0.6188306709130605,-0.7524107495943705,-0.10127052292227741,0.19956123332182563,-2.2801495790481567,1.3344968756039937,-0.4294390579064687,-6.503819942474365,50.495798873901364,-3.3586599588394166,-0.1250492042551438,1.1720213294029236,-1.2401328086853027,-262.130419921875,145.35079803466797,-136.48505554199218,0.8985556165377299,0.8417177200317383,-0.28235121568044025,-0.5705885291099548,-8.176474412282309,1.8236299951871235,-0.05388340555752317,1.3236177110423646,-1.2446634074052174,-1.7603405117988586,-9.409326712290445,2.1194332242012024
17.0,-3.6500515540440888,-8.740083833535513,1.8058831592400868,0.0,0.0,1.232580542564392,13.581000328063965,1.1819634437561035,182.29896545410156,25.78483669068267,-122.7500042,49.1925604,0.5785283545653025,-0.7791209022204081,-0.09998788436253862,0.2194249977668126,-2.3736112117767334,1.238987108071645,-0.3058563967545827,-2.1642799496650698,50.46529922485352,-5.78767991065979,-0.3410155301292737,-0.31309387832880026,-0.013668103143572807,-257.79087219238284,145.32029724121094,-138.91407775878906,2.428103824456533,-7.424968719482422,-5.229015668233235,-0.23080769181251534,-16.118552049001057,-2.1792632738749185,-0.39329540481170017,-0.2989676247040431,-0.13500122229258218,-2.4423309167226157,-9.140151341756185,2.5884286959966025
17.1,2.6201407670974732,-9.368618583679199,-1.9939391493797303,0.0,0.0,1.232580542564392,13.5302001953125,1.1865713119506835,182.42254028320312,25.78483669068267,-122.75000510000001,49.19255958,0.65333358446757,-0.723756343126297,-0.0839158495267232,0.198106641570727,-1.8017006913820903,1.3582919041315715,-0.9358309706052145,-11.042219662666321,49.13793869018555,-4.265119934082032,0.8289441347122193,-0.4901888040010817,3.4012977123260497,-266.66881103515624,143.99293823242186,-137.39151763916016,1.6877754926681519,-2.959091567993164,-1.2027621030807496,0.425922433535258,-13.117254416147867,0.9679964606960615,0.8197048107782999,-0.47214793297462165,3.3036864598592124,-0.8178147703409195,-9.507681465148925,2.089793848991394
17.2,-0.4234299386541049,-12.131959438323975,-0.24242285887400308,0.0,0.0,1.232580542564392,13.479400062561036,1.1911791801452636,182.54611511230468,25.78483669068267,-122.750006,49.19255876,0.7794741690158844,-0.5985739131768545,-0.0352321551181376,0.1709309543172518,-0.5291074216365814,1.2471466461817424,-2.316020051638285,-27.935559272766113,42.95863914489746,-3.5721599221229554,0.1543198342745503,-1.5772795329491298,3.428837458292643,-283.56215515136716,137.81363525390626,-136.69855804443358,-3.799566467603048,-4.124988714853923,5.426801701386769,-1.1672986547152202,-13.077473799387613,6.885945310195287,0.045753805059939645,-1.8619172632694245,3.4505945205688477,2.251839051644007,-9.335842609405518,1.7922369837760925
17.3,-0.01011966541409498,-12.616830190022785,0.33048370915154623,0.0,0.0,1.232580542564392,13.42859992980957,1.1957870483398438,182.66968994140623,25.78483669068267,-122.7500069,49.19255794,0.8695411443710327,-0.4789069056510925,0.04402160532772536,0.09966476559638973,-0.31642794609069824,0.9722983837127686,-2.7434961795806885,-40.53449935913086,31.791979789733887,-7.677459812164306,0.6132577980558077,-2.043751468261083,3.3860769669214883,-296.1610961914063,126.64697799682617,-140.8038589477539,-8.776726086934408,6.132203737894694,-3.7535108725229898,-4.519084811210632,-1.8119649410247802,-1.6969898462295532,0.6566801518201828,-1.9677242264151573,3.429728388786316,4.960702538490295,-8.168104410171509,2.057191471258799
17.4,0.4031906078259149,-13.101700941721598,0.9033902771770954,0.0,0.0,1.232580542564392,13.377799797058106,1.2003949165344239,182.7932647705078,25.78483669068267,-122.75000779999999,49.19255712,0.8968155384063721,-0.4131646354993184,0.14934600144624707,0.046462144702672924,-0.46319716175397235,0.8147499362627665,-2.835131367047628,-43.299019241333006,24.539079475402833,-16.346779537200927,0.44114652027686435,-1.0741301539043586,-0.7256570061047872,-298.9256134033203,119.39407730102539,-149.47317657470703,-1.981955647468567,5.32886020342509,0.7502915064493815,2.283450717727343,-1.2173485259215038,3.6608192324638367,0.32846733555197716,-1.1995611414313316,-0.4794019398589929,5.649285554885864,-7.313913663228353,3.2592740853627524
17.5,-1.1900304754575093,-13.061920483907064,6.82133911550045,0.0,0.0,1.232580542564392,13.32699966430664,1.205002784729004,182.91683959960935,25.78483669068267,-122.7500087,49.1925563,0.2871033052603404,-0.1670512855052948,0.03557281196117402,0.014694379720215934,-0.5653497080008189,0.9662421544392904,-2.8233917156855264,-36.541439819335935,31.1075590133667,-18.514719772338868,0.18292359709739686,-1.6341255843639373,-0.17418823242187503,-292.16802978515625,125.96255798339844,-151.64111938476563,8.50104866027832,-10.981500434875489,2.7014068603515624,12.47916841506958,-16.55554123719533,5.6897333065668745,0.2663627117872238,-1.458517109354337,-0.2810998012622197,4.326923274993897,-8.216042709350585,3.145228385925293
17.6,-4.541816639900207,-1.7964116096496583,-1.7615960359573364,0.0,0.0,1.2364845752716065,13.2391996383667,1.2084136962890626,183.13300781249998,25.78483669068267,-122.75001034,49.19255586,0.5556723773479462,-0.3517261395851771,0.1079227452476819,0.013534961355010899,-0.6337719360987345,1.0243821144104004,-2.7566805283228555,-33.61587905883789,33.36577949523926,-18.60743980407715,0.34124459077914554,1.6312392229835193,-1.5394822383920352,-289.2424743652344,128.22077713012695,-151.73383636474608,-5.208505670229594,2.9704204400380454,1.1285880009333293,-2.3773689369360604,-5.500102361043294,4.314458638429642,0.3101362966001034,1.8055649667978286,-1.7340020775794982,3.8613765637079873,-8.381995836893717,3.2916458447774253
17.7,7.358577782909076,-8.870891516407331,4.610670159260432,0.0,0.0,1.240388607978821,13.151399612426758,1.211824607849121,183.34917602539062,25.78483669068267,-122.75001198,49.19255542,0.7508976956208547,-0.6429419815540314,0.035705560818314504,0.1232617894808451,-0.9627227783203125,1.2816123167673747,-2.0538298885027566,-24.6110595703125,42.93667869567871,-9.235399770736695,-0.7694356789191564,3.599268992741903,-3.833917568127314,-280.23765563964844,137.7916748046875,-142.3617965698242,-6.650670131047566,-0.11688454945882132,-0.4806342124938965,-6.036593248446782,-10.600902160008749,1.4439687828222911,-0.700713345160087,3.7025307019551597,-3.9386046330134072,1.6006480356057484,-9.326098442077637,2.3822227716445923
17.8,2.4792385300000506,-7.177720221380393,4.430261264244716,0.0,0.0,1.2442926406860353,13.063599586486816,1.2152355194091797,183.56534423828123,25.78483669068267,-122.75001362,49.192554980000004,0.6738239169120789,-0.7199390053749084,-0.01597076619509604,0.16067288219928738,-1.7686361074447632,1.3433344841003418,-1.1208226561546326,-14.116619682312011,47.42993927001953,-7.036959886550903,0.7990117271741232,0.38685588352382183,-2.1421007911364236,-269.743212890625,142.2849365234375,-140.16335754394532,2.5290671388308206,0.26277828216552734,-4.168097496032715,3.256631588935852,-8.599565410614014,-1.9629520416259765,0.7349981466929117,0.3294854859511058,-2.119218791524569,-0.5676203221082687,-9.474455197652182,2.3541311422983804
17.9,-2.4001007229089737,-5.484548926353455,4.249852369228999,0.0,0.0,1.2481966733932497,12.975799560546875,1.2186464309692382,183.78151245117186,25.78483669068267,-122.75001526,49.19255454,0.6136915584405264,-0.7620893915494283,-0.08823270474870996,0.18525605400403336,-2.3575867811838784,1.3184694051742554,-0.3914999117453893,-5.659579849243164,49.529558944702146,-3.6892799139022827,-0.15230906506379446,0.6206899881362915,-1.14845210313797,-261.2861755371094,144.38455657958986,-136.8156768798828,1.4214232961336772,0.2439268430074056,0.43398648500442505,-0.5828517278035482,-8.750053882598877,2.544368048508962,-0.07567092838386695,0.7781914273897806,-1.1491138935089111,-1.979020635286967,-9.382921695709229,2.0434746543566384
18.0,-6.059325034419696,-10.585348844528198,1.379362588127454,0.0,0.0,1.252100706100464,12.887999534606934,1.2220573425292969,183.9976806640625,25.78483669068267,-122.7500169,49.1925541,0.5827683508396149,-0.7838539083798727,-0.07952587927381194,0.19892196108897522,-2.404998024304708,1.23848295211792,-0.3345994700988133,-1.7738799691200255,49.65521926879883,-5.899919891357422,-0.3014619827270507,0.015363267064094544,-0.14685200303792956,-257.4004730224609,144.51021728515624,-139.026318359375,2.89487829208374,-6.608600616455078,-5.579838371276855,0.3791626989841461,-15.226128737131754,-2.3387847493092218,-0.27679830789566034,-0.2687043473124504,-0.01860593724995857,-2.530760383605957,-9.148781776428223,2.474086618423462
18.1,3.2338997542858126,-8.584011936187744,-2.0275582492351534,0.0,0.0,1.2542169491449995,12.838833014170328,1.2226014733314514,184.0813471476237,25.81822467985432,-122.75001766666668,49.19255341666667,0.6630997061729431,-0.7163146336873373,-0.07017588367064788,0.19709722449382142,-1.682787040869395,1.3473353783289592,-1.0760610699653625,-11.752259826660156,48.18145942687988,-4.822659945487976,0.544382743537426,0.21013764416178068,3.310380518436432,-267.378857421875,143.0364562988281,-137.94905700683594,1.0921142896016438,-4.222098350524902,-1.7411867777506511,-0.23609185218811035,-13.809577782948812,0.6707879503568014,0.5717087961733341,0.5307502686977387,3.6344649314880373,-0.8370491166909536,-9.45558245976766,2.200102667013804
18.2,-0.1245763252178828,-11.972537795702616,0.038185453663269676,0.0,0.0,1.2563331921895347,12.789666493733725,1.223145604133606,184.1650136311849,25.85161266902597,-122.75001843333334,49.192552733333336,0.7741766095161438,-0.6063817381858826,-0.02595099303871392,0.17157562673091883,-0.5915385484695435,1.254021406173706,-2.2662652492523194,-28.183218955993652,41.88991928100586,-5.224039912223816,0.12828169638911882,-1.884290188550949,3.3465234438578286,-283.809814453125,136.7449188232422,-138.3504379272461,-3.130406379699707,-3.089392105738322,4.530990620454152,-0.522233533859253,-12.558609962463379,7.464051389694214,0.1500437824676434,-1.90500874320666,3.3179909388224282,2.362041393915812,-9.281109809875488,1.9550466537475586
18.3,-0.19169997920592624,-12.88328105211258,0.3221835972120365,0.0,0.0,1.2584494352340698,12.74049997329712,1.2236897349357605,184.2486801147461,25.885000658197622,-122.7500192,49.192552049999996,0.8599284489949545,-0.4947173496087392,0.04716631645957625,0.10530580207705494,-0.35988547404607135,1.0020207365353901,-2.6965723832448325,-39.40599899291992,31.767580032348633,-8.505839776992797,0.5649485420435667,-1.734220949312051,2.815096100171407,-295.0325897216797,126.62257919311523,-141.63223876953126,-8.465992371241251,6.1973137855529785,-2.984318256378174,-3.599104334910711,-2.748057186603546,-0.7228318452835083,0.6185010659197966,-1.6414203668634098,2.8928032716115317,4.87469482421875,-8.22085173924764,2.1158157785733542
18.4,-0.2588236331939697,-13.794024308522543,0.6061817407608032,0.0,0.0,1.2605656782786052,12.691333452860514,1.2242338657379148,184.33234659830728,25.918388647369273,-122.75001996666667,49.19255136666666,0.8809345364570618,-0.44982534150282544,0.13802059367299077,0.042700955954690756,-0.4688302626212438,0.8968208928902944,-2.8156068325042725,-41.02005958557129,27.241379737854004,-15.736779689788818,0.6305351257324219,-1.2168130218982696,-0.796079579461366,-296.6466522216797,122.09637756347657,-148.86317749023436,-1.5535937309265138,5.417965507507324,0.8893075466156006,3.9130626569191613,-2.314058870077133,3.564308742682139,0.690506786108017,-1.210505818327268,-0.9678141425053278,5.243137073516846,-7.7209851264953615,2.999998760223389
18.5,-0.5449653625488282,-12.543056678771972,7.399445104598999,0.0,0.0,1.2626819213231406,12.64216693242391,1.2247779965400694,184.4160130818685,25.951776636540924,-122.75002073333334,49.19255068333333,-0.004145383834838867,-0.018077418208122264,-0.0279925341407458,0.0167663528118282,-0.5873141090075175,0.9853505988915762,-2.839124917984009,-36.0583194732666,31.765139198303224,-18.92707939147949,0.1815796991189321,-1.8299741049607594,0.30125833551088976,-291.68491516113284,126.62013702392578,-152.05347900390626,8.02889641125997,-7.844605366388957,1.8301983277002971,12.19452198346456,-15.895121812820435,5.4800624052683515,0.04326963176329931,-1.776065245270729,0.5210171441237131,4.231358528137207,-8.28083340326945,3.095020572344462
18.6,-3.621836155653,-2.7325037717819214,-0.7874380449453989,0.0,0.0,1.2647981643676758,12.593000411987305,1.225322127342224,184.4996795654297,25.985164625712574,-122.7500215,49.19255,-0.5620057284832001,0.3313431243101756,-0.1381764709949493,0.0177353107137605,-0.6194049815336863,1.0644755959510803,-2.8013514280319214,-34.04409980773926,33.64637908935547,-19.50657958984375,0.6769150445858637,1.9710076463719208,-1.9476420084635417,-289.6706909179687,128.50137634277343,-152.63297576904296,-6.444241901238759,2.1908509731292725,1.273024280865987,-3.2424740890661874,-6.66879677772522,4.027619004249573,0.7271434247493744,2.2371107280254363,-1.9923675298690795,3.6877402464548745,-8.5489870707194,3.0293630361557007
18.7,8.031060516834259,-9.089037222166857,4.457579279939334,0.0,0.0,1.2647981643676758,12.48240032196045,1.231145906448364,184.60487060546876,25.985164625712574,-122.75002274,49.192549,0.7455741882324218,-0.6540377140045166,0.04873289605602617,0.09368716329336164,-1.0099705457687378,1.3170353889465332,-2.067655324935913,-24.569579315185546,43.75651931762695,-9.386679744720459,-0.7405213937163353,3.453908383846283,-3.5374697844187417,-280.19617614746096,138.61151733398438,-142.51307983398436,-7.136233747005463,-0.022014538447062176,-0.36604297161102295,-6.090451300144196,-9.127661228179932,1.9527825593948365,-0.7052184715867043,3.5647040605545044,-3.658930112918218,1.180029680331548,-9.443800131479898,2.206016262372335
18.8,2.3829273233811064,-7.871140342205763,4.210296047230562,0.0,0.0,1.2647981643676758,12.371800231933594,1.2369696855545043,184.7100616455078,25.985164625712574,-122.75002398000001,49.192548,0.6727745334307352,-0.7238220274448395,-0.001969358650967501,0.1474717557430267,-1.7984747886657715,1.3390429814656575,-1.1299103299776714,-13.727439498901367,48.42057914733887,-7.269979953765869,0.5346852540969849,0.3568471570809682,-2.1331668396790824,-269.3540374755859,143.27557830810548,-140.39637756347656,3.448665181795756,0.43289534250895184,-3.9960123896598816,1.6415760678549611,-9.844770352045694,-2.0321046859025955,0.49589531123638153,0.27170777320861816,-2.1135174036026,-0.8446457336346308,-9.4777725537618,2.2761635780334473
18.9,-3.2652058700720468,-6.65324346224467,3.9630128145217896,0.0,0.0,1.2647981643676758,12.261200141906738,1.2427934646606444,184.81525268554688,25.985164625712574,-122.75002522,49.192547,0.6043031613032023,-0.7731415828069051,-0.06850444028774892,0.17841718345880506,-2.37990939617157,1.2841408252716064,-0.40687066316604614,-5.166699934005737,50.484819412231445,-4.605499887466431,-0.08744536191225052,0.9499565303325653,-1.2659571290016174,-260.7932952880859,145.33981628417968,-137.73189697265624,0.9824817895889282,0.5971351623535156,-0.4583651065826416,-1.0735797335704167,-8.949555476506552,1.8670995434125264,-0.138411874572436,0.6313546846310297,-1.2300280928611755,-2.1652040481567383,-9.319379997253417,2.149624538421631
19.0,-6.113183188438415,-9.112107944488525,1.8881763696670533,0.0,0.0,1.2647981643676758,12.150600051879882,1.2486172437667846,184.92044372558593,25.985164625712574,-122.75002646,49.192546,0.5783209800720215,-0.7927729984124502,-0.05463498768707112,0.18412130326032636,-2.425126592318217,1.2143919070561726,-0.37164875368277234,-1.5725799769163131,50.65439872741699,-6.81247992515564,-0.30545807878176373,-0.41549017280340195,0.023340148817320956,-257.19917755126954,145.5093978881836,-139.93887786865236,2.2146861950556436,-8.029611269632975,-4.615745683511098,-0.23559334874153137,-17.465711275736492,-2.4980072180430093,-0.2787072598934174,-0.09297370910644523,0.1272432327270508,-2.730907599131266,-9.084162712097168,2.493304491043091
19.1,1.6188442017883062,-9.829216957092285,-2.09671089053154,0.0,0.0,1.2647981643676758,12.039999961853027,1.2544410228729248,185.025634765625,25.985164625712574,-122.7500277,49.192545,0.6579779505729675,-0.73519287109375,-0.03735745474696154,0.1514686197042465,-1.9367562294006349,1.3601881265640259,-0.9353734731674195,-10.837259793281556,49.37583961486816,-5.34847993850708,0.6161339581012726,-0.3399464835723241,3.2745176752408347,-266.46385192871094,144.23084106445313,-138.4748764038086,1.6533468961715698,-2.784010092417399,-0.6551585793495177,0.9322437405586242,-11.881680488586426,1.2888939201831817,0.6095671455065409,-0.4801146239042282,3.1754812200864158,-0.9823295455425978,-9.505335172017416,1.9512633482615154
19.2,-0.6773183349287137,-13.192079822222391,-0.3800600270430247,0.0,0.0,1.2647981643676758,11.9742000579834,1.2595956087112428,185.0864471435547,25.985164625712574,-122.75002866,49.19254384,0.7681560317675272,-0.6237215399742126,-0.0092275693702201,0.13166417429844532,-0.6432078083356222,1.2986948490142822,-2.2970291574796042,-27.09985942840576,43.52105903625488,-4.930019950866699,0.13064880420764288,-1.9301560446619987,3.1255938609441123,-282.72645874023436,138.3760543823242,-138.0564178466797,-4.099190553029378,-1.9300110340118408,5.014910598595938,-1.9411773284276326,-11.767602602640787,7.345666289329529,0.15750141441822052,-1.8616372793912888,3.098588466644287,2.1738956570625305,-9.375784397125244,1.7643473744392395
19.3,0.11609676462830976,-12.529103418191273,0.42211383680502573,0.0,0.0,1.2647981643676758,11.908400154113771,1.2647501945495605,185.1472595214844,25.985164625712574,-122.75002962,49.19254268,0.8585173189640045,-0.5021490106980006,0.07168175652623175,0.05634495305518306,-0.36543957392374676,1.0269502302010853,-2.799278736114502,-38.6081184387207,33.321859741210936,-9.082899856567384,0.5498398065567016,-1.3898406147956848,3.1086932182312013,-294.234716796875,128.17685546875,-142.20929565429688,-7.022933530807495,5.230428409576416,-3.692934513092041,-2.6513471802075705,-3.389034462471803,-1.558624843756358,0.40856703246633214,-1.5233197634418805,2.989090919494629,4.56184573173523,-8.44619026184082,1.9245313167572022
