time,Barometer_relativeAltitude,Barometer_pressure,Location_altitude,Location_speedAccuracy,Location_bearingAccuracy,Location_latitude,Location_altitudeAboveMeanSeaLevel,Location_bearing,Location_horizontalAccuracy,Location_verticalAccuracy,Location_longitude,Location_speed,Orientation_yaw,Orientation_qx,Orientation_qz,Orientation_roll,Orientation_qw,Orientation_qy,Orientation_pitch,Magnetometer_z,Magnetometer_y,Magnetometer_x,GyroscopeUncalibrated_z,GyroscopeUncalibrated_y,GyroscopeUncalibrated_x,MagnetometerUncalibrated_z,MagnetometerUncalibrated_y,MagnetometerUncalibrated_x,Accelerometer_z,Accelerometer_y,Accelerometer_x,AccelerometerUncalibrated_z,AccelerometerUncalibrated_y,AccelerometerUncalibrated_x,Gyroscope_z,Gyroscope_y,Gyroscope_x,Gravity_z,Gravity_y,Gravity_x
3.1,-0.3173370361328125,1005.3933715820311,65.92133903503418,-1.0,-1.0,49.18918236990352,85.33133888244629,-1.0,35.0,24.574003219604492,-122.84794719129856,-1.0,-0.8081922290169701,0.5482556945206557,-0.27944147952070836,-2.065592892305813,-0.572722696355719,0.5352305463385797,-1.2023661820805054,-11.98499608039856,33.4591022491455,-21.442188930511474,-0.5459827628917993,-0.29634481701068577,-0.26643646061420445,15.992057037353515,50.03527498747173,58.348356528031196,-2.174860398266725,-0.10596306339740746,1.7316133357445893,-0.07390251159667971,0.9068428039550782,-0.08976860046386718,-0.5353136979974806,-0.2942298864945769,-0.22341187559068199,1.7906060159218329,9.089924134948403,-2.987529152915254
3.2,-0.3281707763671875,1005.3946685791014,65.92133903503418,-1.0,-1.0,49.18918236990352,85.33133888244629,-1.0,35.0,24.574003219604492,-122.84794719129856,-1.0,-0.7879077736434561,0.5223439775072343,-0.28413906174490056,-2.1517472779344216,-0.5488532036402882,0.5856326057622175,-1.1378414057835031,-2.7833303451538085,30.552944564819335,-19.623823165893555,0.35070117171853776,-0.6498440600931644,0.9497518293559551,25.052702331542967,47.17569427490234,60.366303253173825,-0.5846758308327571,-0.872532571287304,2.385193359505534,0.12059173583984376,0.7630752563476563,-0.03401031494140625,0.3699584377929569,-0.586520005762577,0.9681874573230743,2.285711131414361,8.879715245787203,-3.3964068324739487
3.3,-0.3390045166015625,1005.3959655761718,65.92133903503418,-1.0,-1.0,49.18918236990352,85.33133888244629,-1.0,35.0,24.574003219604492,-122.84794719129856,-1.0,-0.679505910505618,0.5138811246166471,-0.3060479284798563,-2.0417857030516657,-0.5638261028773526,0.5675424051972217,-1.188412242717504,-3.6065858840942386,30.968900299072267,-14.759154319763184,0.014216638635843992,-0.25023377425968646,0.6615565659478306,24.07646018134223,47.57656919691298,65.23481364780002,0.6385088099953347,1.3199446956800671,0.09066542411804202,0.23195266723632812,1.0430557250976562,-0.3705467224121094,0.05370085528120405,-0.2650370335206389,0.6418952643871307,1.7057213650788179,9.075371965661049,-3.1913847348335014
3.4,-0.3498382568359375,1005.3972625732421,65.92133903503418,-1.0,-1.0,49.18918236990352,85.33133888244629,-1.0,35.0,24.574003219604492,-122.84794719129856,-1.0,-0.57110404736778,0.50541827172606,-0.3279567952148121,-1.9318241281689095,-0.5787990021144168,0.5494522046322258,-1.238983079651505,-4.429841423034668,31.384856033325196,-9.894485473632812,-0.32226789444684983,0.1493765115737915,0.37336130253970623,23.100218031141495,47.977444118923614,70.10332404242621,1.8616934508234262,3.512421962647438,-2.20386251126945,0.3433135986328125,1.3230361938476562,-0.7070831298828125,-0.26255672723054885,0.05644593872129916,0.31560307145118716,1.1257315987432748,9.271028685534894,-2.986362637193054
3.5,-0.3606719970703125,1005.3985595703124,65.92133903503418,-1.0,-1.0,49.18918236990352,85.33133888244629,-1.0,35.0,24.574003219604492,-122.84794719129856,-1.0,-0.5035609178769777,0.5207059048449595,-0.3633700583862541,-1.8519573711464958,-0.5754814547293778,0.5125500121783025,-1.3442162100305213,-7.394062519073486,30.296853065490723,-3.6761238098144533,1.1575548015534878,-0.4386127576231956,0.5223121919902042,20.359614322060033,46.91001490542763,75.99920814915707,-4.103757638615146,-0.8506201900433004,1.9759147417696563,-0.31833572387695314,0.9226669311523438,0.023923492431640624,1.1468055490404367,-0.45244666032958775,0.590694735199213,0.6924391947075933,9.520585308674423,-2.069924456733875
3.6,-0.3715057373046875,1005.3998565673827,65.92133903503418,-1.0,-1.0,49.18918236990352,85.33133888244629,-1.0,35.0,24.574003219604492,-122.84794719129856,-1.0,0.20495797742469424,0.49977397025878856,-0.4131901591836003,-1.1524478275862042,-0.5933634488669179,0.4685008271035441,-1.3585998041838585,-10.80353422164917,29.848476505279542,-0.93642635345459,0.5611968676559627,0.17764198394725106,0.7278097909060307,16.896062730488026,46.469085592972604,78.78887752733732,-0.9999781749707184,-0.35612905060693617,0.5043535087663029,-0.12821121215820314,0.9545764923095703,-0.08745880126953126,0.559070102777332,0.21657020974671465,0.7432565361261367,-0.5284727001175086,9.561198284122124,-1.394229556906661
3.7,-0.3823394775390625,1005.401153564453,65.92133903503418,-1.0,-1.0,49.18918236990352,85.33133888244629,-1.0,35.0,24.574003219604492,-122.84794719129856,-1.0,0.9134768727263662,0.4788420356726177,-0.4630102599809465,-0.45293828402591274,-0.611245443004458,0.42445164202878577,-1.372983398337196,-14.213005924224854,29.40009994506836,1.8032711029052735,-0.035161066241562386,0.7938967255176976,0.9333073898218572,13.432511138916016,46.02815628051758,81.57854690551758,2.10380128867371,0.13836208882942802,-0.9672077242370507,0.06191329956054688,0.9864860534667969,-0.19884109497070312,-0.02866534348577261,0.8855870798230171,0.8958183370530606,-1.7493845949426106,9.601811259569825,-0.7185346570794471
3.8,-0.3931732177734375,1005.4024505615233,65.92133903503418,-1.0,-1.0,49.18918236990352,85.33133888244629,-1.0,35.0,24.574003219604492,-122.84794719129856,-1.0,1.0768229827496993,0.4822519559597358,-0.46655164484762685,-0.23944700606397576,-0.6273742655261034,0.39145799042981094,-1.3343940084460404,-14.924193286895752,29.5041862487793,4.119555854797364,0.33927431395277374,0.4243573083193041,1.0823637656401843,12.716650602552626,46.10027080112033,83.90867093404134,1.1575922996078338,0.7411432879190892,-0.9057225518758373,-0.12807273864746094,1.036708450317383,-0.11960182189941407,0.3345656347461045,0.4069716718047857,1.079733334109187,-2.202137665718114,9.516885051303953,-0.38422830701747285
3.9,-0.4040069580078125,1005.4037475585936,65.92133903503418,-1.0,-1.0,49.18918236990352,85.33133888244629,-1.0,35.0,24.574003219604492,-122.84794719129856,-1.0,1.2401690927730327,0.485661876246854,-0.47009302971430716,-0.025955728102038767,-0.6435030880477488,0.3584643388308361,-1.2958046185548846,-15.63538064956665,29.608272552490234,6.435840606689453,0.7137096941471099,0.054817891120910664,1.2314201414585113,12.000790066189236,46.17238532172309,86.23879496256511,0.21138331054195766,1.3439244870087503,-0.8442373795146239,-0.31805877685546874,1.0869308471679688,-0.040362548828125,0.6977966129779816,-0.07164373621344569,1.2636483311653137,-2.654890736493617,9.431958843038082,-0.04992195695549862
4.0,-0.4148406982421875,1005.405044555664,65.92133903503418,-1.0,-1.0,49.18918236990352,85.33133888244629,-1.0,35.0,24.574003219604492,-122.84794719129856,-1.0,0.8433311812620078,0.4938407065357147,-0.45262103598530434,-0.44462065310337573,-0.6275791792369264,0.3893298922772618,-1.3268250063841356,-15.964294862747192,31.381329154968263,7.963158035278321,-0.8884411230683327,0.08007164113223554,-1.9305201053619385,11.632799650493421,47.92795281661184,87.80117958470395,2.4440164604925547,3.7797000035341086,-2.2949146769892796,0.07220611572265626,1.3410385131835938,-0.2949005126953125,-0.9346634380985052,0.13651533611118793,-2.023936478793621,-1.9834916506038607,9.480630577939747,-0.40476468180626685
4.1,-0.4267311096191406,1005.4064559936523,65.92133903503418,-1.0,-1.0,49.18918236990352,85.33133888244629,-1.0,35.0,24.574003219604492,-122.84794719129856,-1.0,-0.01773872057824899,0.5271608451004501,-0.35898435951950186,-1.2686578522798606,-0.603357384842501,0.4574600461154046,-1.2627186417108491,-11.296462655067444,33.87188472747803,3.3623559951782225,-1.195837391167879,-0.20898347888141872,-1.4374546567909419,16.395418608816044,50.46654331809596,83.05100597582364,-0.6306551154333171,1.500766381511092,-0.46241975313656036,-0.06459083557128906,1.1093170166015625,-0.23480529785156248,-1.2151520874584094,-0.2449931215494871,-1.4501542342361065,-0.08069205682119818,9.284124576986283,-1.7204299878719078
4.2,-0.4386215209960937,1005.4078674316406,65.92133903503418,-1.0,-1.0,49.18918236990352,85.33133888244629,-1.0,35.0,24.574003219604492,-122.84794719129856,-1.0,-0.8788086224185057,0.5604809836651856,-0.2653476830536994,-2.092695051456346,-0.5791355904480756,0.5255901999535474,-1.1986122770375627,-6.628630447387695,36.362440299987796,-1.238446044921875,-1.5032336592674256,-0.49803859889507296,-0.9443892082199454,21.15803756713867,53.00513381958008,78.30083236694335,-3.7053266913591885,-0.778167240511924,1.370075170716159,-0.20138778686523437,0.8775955200195312,-0.1747100830078125,-1.4956407368183136,-0.6265015792101621,-0.8763719896785915,1.822107536961464,9.087618576032817,-3.0360952939375485
4.3,-0.4386215209960937,1005.4078674316406,65.92133903503418,-1.0,-1.0,49.18918236990352,85.33133888244629,-1.0,35.0,24.574003219604492,-122.84794719129856,-1.0,-0.7822560549227868,0.5224324338709352,-0.2772004755060145,-2.121705844646609,-0.5572328075268479,0.5768835224017919,-1.1393448705848075,-6.476518058776856,37.19016408920288,-4.381628799438476,-0.6991417147219181,-0.6013940253295005,0.20735131995752454,21.373652436998157,53.8191104888916,75.15481071472168,-4.304211703167585,-2.1161807352981716,4.560579655769672,-0.2347675323486328,0.7019287109375,0.10867156982421872,-0.6350923402234911,-0.5629458060488105,0.27259311475791037,2.180637073752186,8.86655780418083,-3.44429053688351
4.4,-0.4386215209960937,1005.4078674316406,65.92133903503418,-1.0,-1.0,49.18918236990352,85.33133888244629,-1.0,35.0,24.574003219604492,-122.84794719129856,-1.0,-0.685703487427068,0.48438388407668465,-0.28905326795832964,-2.1507166378368727,-0.5353300246056202,0.6281768448500362,-1.0800774641320523,-6.324405670166016,38.017887878417966,-7.524811553955078,0.1049502298235893,-0.7047494517639279,1.3590918481349945,21.58926730685764,54.633087158203125,72.0087890625,-4.903096714975982,-3.4541942300844193,7.751084140823186,-0.26814727783203124,0.5262619018554687,0.39205322265625,0.2254560563713312,-0.4993900328874588,1.4215582191944123,2.539166610542908,8.645497032328844,-3.852485779829472
4.5,-0.4386215209960937,1005.4078674316406,65.92133903503418,-1.0,-1.0,49.18918236990352,85.33133888244629,-1.0,35.0,24.574003219604492,-122.84794719129856,-1.0,-0.42482481123697025,0.47569927898220216,-0.3352653371387443,-1.8326363243722603,-0.584536854128465,0.564863897743846,-1.2083636374687559,-12.917021131515503,38.92772388458252,-3.0096504211425783,0.19843432607012804,0.17997780377045275,0.44235497042536737,14.729472351074218,55.557742309570315,76.68072509765625,3.8271148775489996,4.71721980619505,-2.540096643321589,0.5101799011230469,1.40545654296875,-0.5896232604980469,0.16682764529250566,0.14002257545944302,0.3964276624843478,0.8939889249926525,9.167646110923886,-3.3445965511247513
4.6,-0.4386215209960937,1005.4078674316406,65.92133903503418,-1.0,-1.0,49.18918236990352,85.33133888244629,-1.0,35.0,24.574003219604492,-122.84794719129856,-1.0,-0.3043387931004713,0.4840557337534724,-0.35582974574279125,-1.6940634494142075,-0.5884666703012356,0.5381320487832665,-1.2675098443076234,-15.008634614944459,38.55293731689453,-1.9659130096435549,0.6740813203243305,0.1206854682881385,0.6476838485337794,12.633879531057257,55.15101213957134,77.79738777562191,0.24496982324560168,1.462851091488674,-0.45302829473389306,0.07264404296875004,1.093558120727539,-0.31888427734375,0.658651500637643,0.09646305831847712,0.641795099247247,0.4972327616960168,9.32774110355109,-2.8261487674265355
4.7,-0.4386215209960937,1005.4078674316406,65.92133903503418,-1.0,-1.0,49.18918236990352,85.33133888244629,-1.0,35.0,24.574003219604492,-122.84794719129856,-1.0,-0.1838527749639724,0.4924121885247426,-0.3763941543468382,-1.5554905744561545,-0.5923964864740061,0.5114001998226869,-1.3266560511464907,-17.100248098373413,38.178150749206544,-0.9221755981445312,1.149728314578533,0.06139313280582427,0.8530127266421914,10.538286711040296,54.74428196957237,78.91405045358758,-3.3371752310577962,-1.7915176232177017,1.6340400538538025,-0.36489181518554686,0.7816596984863281,-0.048145294189453125,1.1504753559827805,0.05290354117751121,0.8871625360101462,0.10047659839938113,9.487836096178293,-2.3077009837283193
4.8,-0.4386215209960937,1005.4078674316406,65.92133903503418,-1.0,-1.0,49.18918236990352,85.33133888244629,-1.0,35.0,24.574003219604492,-122.84794719129856,-1.0,0.2551007075487817,0.47853360467683514,-0.41743971859546275,-1.1415819215039484,-0.5970801549651367,0.48558169073202284,-1.351375144462252,-19.428303811285232,37.1954791492886,0.4626407199435765,0.4852917164564132,0.5470844788476825,0.8498130370862782,8.222112376787509,53.77852577075623,80.24855117351689,-0.689770436976342,-1.03123442418466,-0.47454914454395736,-0.15112800598144532,0.8702632904052734,-0.22045249938964845,0.47210454075700703,0.5551225681271817,0.8605961880543166,-0.6611100123651117,9.553557016180521,-1.776146195356287
4.9,-0.4386215209960937,1005.4078674316406,65.92133903503418,-1.0,-1.0,49.18918236990352,85.33133888244629,-1.0,35.0,24.574003219604492,-122.84794719129856,-1.0,0.6940541900615358,0.4646550208289276,-0.4584852828440873,-0.7276732685517425,-0.6017638234562672,0.45976318164135876,-1.3760942377780132,-21.756359524197048,36.21280754937066,1.847457038031684,-0.1791448816657066,1.0327758248895407,0.846613347530365,5.905938042534722,52.8127695719401,81.58305189344618,1.9576343571051125,-0.2709512251516183,-2.5831383429417176,0.06263580322265624,0.9588668823242188,-0.39275970458984377,-0.20626627446876633,1.0573415950768523,0.834029840098487,-1.4226966231296045,9.61927793618275,-1.2445914069842547
5.0,-0.4386215209960937,1005.4078674316406,65.92133903503418,-1.0,-1.0,49.18918236990352,85.33133888244629,-1.0,35.0,24.574003219604492,-122.84794719129856,-1.0,1.0231036890147036,0.4599314502639055,-0.46535773435703565,-0.2880162186336832,-0.6486764248389443,0.3871987158984566,-1.2758180683189444,-23.695566844940185,35.43147792816162,4.463584899902344,0.5210037620738148,0.32630069558508695,0.7249016277492046,3.9656822204589846,51.96328887939453,84.43591537475587,1.8420263642881811,0.33732030524060125,-0.6101176100456156,-0.08839874267578125,0.9899200439453125,-0.14356918334960939,0.5167013571597636,0.3310327880084515,0.741052919253707,-2.702397665399611,9.37580595860079,-0.726939226076561
5.1,-0.4386215209960937,1005.4078674316406,65.92133903503418,-1.0,-1.0,49.18918236990352,85.33133888244629,-1.0,35.0,24.574003219604492,-122.84794719129856,-1.0,0.805248146537102,0.4724481840713213,-0.44698687710367596,-0.4960871884251372,-0.6414530019954534,0.40098219040030303,-1.2929234682905788,-20.75811779499054,36.93243522644043,5.71742992401123,-0.34458025163039563,0.3674385994439945,-0.7116704892367125,7.368718217548571,53.71365071346885,85.54597186038369,1.6285248194832356,2.2206438863005484,-0.7529601048252638,-0.06048851013183594,1.1866748809814454,-0.16858291625976562,-0.33104715677909546,0.3490603333339095,-0.678176963701844,-2.227524093790459,9.416305872901976,-0.909984938696057
5.2,-0.4386215209960937,1005.4078674316406,65.92133903503418,-1.0,-1.0,49.18918236990352,85.33133888244629,-1.0,35.0,24.574003219604492,-122.84794719129856,-1.0,0.5873926040595004,0.4849649178787371,-0.4286160198503163,-0.7041581582165912,-0.6342295791519627,0.4147656649021494,-1.3100288682622132,-17.820668745040894,38.43339252471924,6.971274948120117,-1.210164265334606,0.40857650330290196,-2.1482426062226296,10.771754214638158,55.46401254754318,86.65602834601151,1.41502327467829,4.103967467360496,-0.8958025996049119,-0.03257827758789063,1.383429718017578,-0.19359664916992186,-1.1787956707179545,0.36708787865936754,-2.097406846657395,-1.7526505221813067,9.456805787203162,-1.093030651315553
5.3,-0.4386215209960937,1005.4078674316406,65.92133903503418,-1.0,-1.0,49.18918236990352,85.33133888244629,-1.0,35.0,24.574003219604492,-122.84794719129856,-1.0,-0.10935973188228598,0.524439273895648,-0.34031861518739026,-1.322192060202353,-0.6220756211791441,0.45515336048129107,-1.263715184332694,-13.760847353935242,40.177712535858156,5.809077644348145,-1.2896020255982874,0.3403038341086358,-1.8102906711399556,14.438719989263523,56.99851797895822,85.34698339094194,-0.5169374083613603,1.9888452573654054,-0.05832808401169243,-0.08140068054199218,1.1490276336669922,-0.22325401306152343,-1.2742793437093496,0.395724737457931,-1.8193725379183887,-0.25036681009369377,9.322680064608381,-2.117178089472181
5.4,-0.4386215209960937,1005.4078674316406,65.92133903503418,-1.0,-1.0,49.18918236990352,85.33133888244629,-1.0,35.0,24.574003219604492,-122.84794719129856,-1.0,-0.8061120678240725,0.5639136299125591,-0.2520212105244642,-1.9402259621881146,-0.6099216632063253,0.4955410560604327,-1.2174015004031749,-9.70102596282959,41.92203254699707,4.646880340576172,-1.369039785861969,0.2720311649143696,-1.4723387360572815,18.10568576388889,58.53302341037326,84.03793843587239,-2.4488980914010106,-0.12627695262968536,0.779146431581527,-0.13022308349609374,0.9146255493164063,-0.252911376953125,-1.3697630167007446,0.4243615962564945,-1.5413382291793822,1.2519169019939191,9.188554342013598,-3.1413255276288092
5.5,-0.43835754394531246,1005.4078369140625,65.92133903503418,-1.0,-1.0,49.18918236990352,85.33133888244629,-1.0,35.0,24.574003219604492,-122.84794719129856,-1.0,-0.7823797615394613,0.5224929444706811,-0.2447577943644247,-2.0824398309985384,-0.568413370000217,0.5846017227298677,-1.079748614949221,-12.691028451919555,40.20621395111084,-4.804656600952148,-0.059749505762010824,-0.861101233586669,0.7562540149316191,14.750595855712891,56.65551605224609,74.93578796386718,-3.6985552208096157,-2.6629591551718113,4.958572138543128,-0.12999649047851564,0.6163703918457031,0.097381591796875,-0.14179618917405606,-0.8977918982505798,0.7079722385853529,2.2751051643890885,8.641684575981646,-4.014643024135679
5.6,-0.4380935668945312,1005.4078063964844,65.92133903503418,-1.0,-1.0,49.18918236990352,85.33133888244629,-1.0,35.0,24.574003219604492,-122.84794719129856,-1.0,-0.6526923749430272,0.5101896947943082,-0.2737620001439889,-1.963211367134299,-0.5835898300601976,0.5669145387605427,-1.1355560473837822,-15.20520975589752,38.117552757263184,-4.698164176940917,0.0012425872962921816,-0.3434720741584897,0.473521860409528,12.337903855976306,54.55778748361688,74.98678837826378,-0.5962424778500388,0.5397001812765749,1.4978212533568587,0.1039875030517578,0.9576045989990234,-0.2254344940185547,-0.028748099319636844,-0.3819759098347276,0.4587711417116225,1.6241181884153324,8.875015397533177,-3.7532863653481003
5.7,-0.4378295898437499,1005.4077758789062,65.92133903503418,-1.0,-1.0,49.18918236990352,85.33133888244629,-1.0,35.0,24.574003219604492,-122.84794719129856,-1.0,-0.5230049883465931,0.49788644511793534,-0.3027662059235531,-1.8439829032700596,-0.5987662901201782,0.5492273547912176,-1.1913634798183435,-17.719391059875488,36.02889156341553,-4.591671752929687,0.06223468035459519,0.17415708526968957,0.19078970588743685,9.92521185623972,52.46005891498766,75.03778879266036,2.5060702651095386,3.742359517724961,-1.962929631829411,0.33797149658203124,1.2988388061523437,-0.5482505798339844,0.08429999053478239,0.13384007858112454,0.20957004483789204,0.9731312124415765,9.108346219084709,-3.491929706560522
5.8,-0.4375656127929687,1005.4077453613281,65.92133903503418,-1.0,-1.0,49.18918236990352,85.33133888244629,-1.0,35.0,24.574003219604492,-122.84794719129856,-1.0,-0.5059660066976888,0.5110050036403316,-0.30568750650079957,-1.7804463330591203,-0.6085370832938188,0.5228772161167163,-1.2317579597889723,-17.925210094451906,34.8475682258606,-4.076509857177735,0.8002359144389629,0.5434913258999586,0.20938968034461142,9.790842317280017,51.304893654271176,76.04079457333214,-0.5717655762270093,1.4904642562706023,0.8444313745666294,0.003794860839843761,1.096247100830078,-0.2402530670166016,0.7868139669299127,0.6455073120538146,0.20795633746311065,0.705253535207794,9.235637770197465,-3.167704781314656
5.9,-0.43730163574218744,1005.40771484375,65.92133903503418,-1.0,-1.0,49.18918236990352,85.33133888244629,-1.0,35.0,24.574003219604492,-122.84794719129856,-1.0,-0.4889270250487844,0.5241235621627279,-0.30860880707804605,-1.7169097628481809,-0.6183078764674595,0.49652707744221514,-1.2721524397596014,-18.13102912902832,33.66624488830566,-3.5613479614257812,1.5382371485233306,0.9128255665302276,0.22798965480178596,9.656472778320312,50.14972839355469,77.0438003540039,-3.649601417563557,-0.7614310051837565,3.6517923809626693,-0.33038177490234377,0.8936553955078125,0.06774444580078125,1.4893279433250428,1.1571745455265046,0.20634263008832926,0.4373758579740114,9.362929321310222,-2.84347985606879
6.0,-0.4370376586914062,1005.4076843261719,65.92133903503418,-1.0,-1.0,49.18918236990352,85.33133888244629,-1.0,35.0,24.574003219604492,-122.84794719129856,-1.0,0.27779069388154465,0.5076573118119543,-0.40674838896555243,-1.0183071306810687,-0.6149162033223866,0.44324681666345267,-1.3932546374672727,-20.698592948913575,30.789283752441406,0.9960258483886719,0.3738536072196439,0.2678815619263332,1.3367270618677138,6.741137052837171,47.15417078921669,80.90140894839638,-0.11341861818078906,-0.7427099381008744,-1.9935633244360793,-0.09472198486328125,0.90794677734375,-0.33089599609375,0.4115810938179493,0.170588453207165,1.3169697612524032,-0.8761123347217812,9.648309479050784,-1.288438154801838
6.1,-0.43677368164062497,1005.4076538085938,65.92133903503418,-1.0,-1.0,49.18918236990352,85.33133888244629,-1.0,35.0,24.574003219604492,-122.84794719129856,-1.0,0.6648628138023708,0.49047813802374224,-0.4273523743259512,-0.5932229014432667,-0.643167833328328,0.3977010713872726,-1.3247034032524176,-22.618677282333373,28.54736919403076,2.8887113571166996,0.39476993546122685,0.13044725773797836,0.8976630973746068,4.927793402420847,44.93303359182258,82.73398951480263,1.1401897805640286,0.06177078277125947,-1.999657070167339,-0.07752876281738282,0.9755470275878906,-0.2953605651855469,0.42047203932888805,0.0849916897714138,0.9054661855567246,-1.926176198592905,9.485422459165303,-0.8847423289239009
6.2,-0.4365097045898437,1005.4076232910156,65.92133903503418,-1.0,-1.0,49.18918236990352,85.33133888244629,-1.0,35.0,24.574003219604492,-122.84794719129856,-1.0,1.051934933723197,0.4732989642355302,-0.4479563596863499,-0.16813867220546477,-0.6714194633342695,0.3521553261110925,-1.2561521690375623,-24.538761615753174,26.305454635620116,4.781396865844727,0.4156862637028098,-0.006987046450376513,0.45859913288149984,3.114449752004523,42.71189639442846,84.56657008120888,2.3937981793088463,0.8662515036433934,-2.005750815898599,-0.060335540771484376,1.0431472778320312,-0.25982513427734377,0.4293629848398268,-0.0006050736643374112,0.49396260986104606,-2.9762400624640284,9.322535439279823,-0.48104650304596397
6.3,-0.43624572753906243,1005.4075927734375,65.92133903503418,-1.0,-1.0,49.18918236990352,85.33133888244629,-1.0,35.0,24.574003219604492,-122.84794719129856,-1.0,0.974149869274205,0.48441451095066146,-0.43845730582956977,-0.2410444311999289,-0.6645758937698005,0.3604731667531781,-1.287432213955364,-23.07383437156677,26.357440185546874,3.9442087173461915,-0.3815091957338155,-0.23055224046111106,-1.0188624136964792,5.119689780787418,43.07160447773181,83.3099863955849,4.327266088573672,2.1347973337063193,-2.2700627433818807,0.1674724578857422,1.1824676513671875,-0.2837562561035156,-0.34559115502052007,-0.1934899550396949,-0.9237486442085354,-2.63915568121789,9.40026058628656,-0.5352007632952345
6.4,-0.4359817504882812,1005.4075622558594,65.92133903503418,-1.0,-1.0,49.18918236990352,85.33133888244629,-1.0,35.0,24.574003219604492,-122.84794719129856,-1.0,0.8963648048252131,0.4955300576657928,-0.4289582519727896,-0.3139501901943931,-0.6577323242053315,0.3687910073952637,-1.3187122588731655,-21.60890712738037,26.409425735473633,3.1070205688476564,-1.1787046551704408,-0.4541174344718456,-2.496323960274458,7.124929809570313,43.431312561035156,82.05340270996093,6.260733997838497,3.4033431637692453,-2.534374670865163,0.39528045654296873,1.3217880249023437,-0.3076873779296875,-1.120545294880867,-0.38637483641505244,-2.341459898278117,-2.3020712999717516,9.477985733293295,-0.5893550235445051
6.5,-0.43478046764026984,1005.4074166037819,65.92133903503418,-1.0,-1.0,49.18918236990352,85.33133888244629,-1.0,35.0,24.574003219604492,-122.84794719129856,-1.0,-0.7636215419216704,0.5755730496929058,-0.26330821990145203,-1.874222236093905,-0.6089364785885497,0.4720242996520788,-1.261502003978857,-7.3122406005859375,28.214766883850096,-6.203359985351563,-1.364312893152237,0.5812343709170819,-1.7146537974476814,21.24885318153783,44.78900066174959,73.04933568050987,-3.5943407254191113,1.483330385802686,1.455471042320393,-0.2533538818359375,1.086969757080078,-0.12754135131835936,-1.3715011596679687,0.5839591726660729,-1.7863278076052667,1.0817084011201885,9.28930522372067,-2.694245923126042
6.6,-0.4335791847922585,1005.4072709517045,65.92133903503418,-1.0,-1.0,49.18918236990352,85.33133888244629,-1.0,35.0,24.574003219604492,-122.84794719129856,-1.0,-0.8113806112627122,0.5591113280415356,-0.2547485818147951,-2.000708421812787,-0.5868748631736201,0.5202390897539143,-1.1850095040390323,-1.829025077819824,28.08462734222412,-6.453560066223145,-0.5633040092885495,-0.26714655682444566,-0.38929294478148213,26.431157162314967,44.73761749267578,73.22255506013569,-2.2199871905705333,0.27881567004539054,2.191342947441507,-0.04320755004882812,0.9519973754882812,-0.11275482177734375,-0.583525528293103,-0.30030529070645573,-0.4323412960162387,1.702169932004695,9.024576691960245,-3.1927102551227433
6.7,-0.4323779019442471,1005.4071252996272,65.92133903503418,-1.0,-1.0,49.18918236990352,85.33133888244629,-1.0,35.0,24.574003219604492,-122.84794719129856,-1.0,-0.8591396806037539,0.5426496063901654,-0.2461889437281382,-2.1271946075316683,-0.5648132477586906,0.5684538798557498,-1.1085170040992076,3.654190444946289,27.954487800598145,-6.703760147094727,0.2377048745751381,-1.1155274845659733,0.9360679078847169,31.613461143092106,44.68623432360197,73.39577443976151,-0.845633655721955,-0.9256990457119049,2.927214852562621,0.16693878173828125,0.8170249938964844,-0.09796829223632812,0.20445010308176276,-1.1845697540789843,0.9216452155727893,2.3226314628892015,8.75984816019982,-3.691174587119445
6.8,-0.4311766190962357,1005.4069796475497,65.92133903503418,-1.0,-1.0,49.18918236990352,85.33133888244629,-1.0,35.0,24.574003219604492,-122.84794719129856,-1.0,-0.7596246031464302,0.5289025220748484,-0.27594751251411204,-2.0604976635325203,-0.5711845654647698,0.5614360003220429,-1.1570272570883455,4.164109611511231,29.248437023162843,-2.1291280746459957,-0.12849018983542917,-0.3553291449323297,0.6467636205255984,31.987548747815588,45.979616948177934,77.87563456485145,-0.06426467098644006,0.7264343790870159,-0.05327086272757464,0.18983001708984376,0.9907901763916016,-0.34705543518066406,-0.1457471183501184,-0.3539850691333414,0.6667594081023708,1.8753285162256468,8.959229891946165,-3.44086437644016
6.9,-0.42997533624822437,1005.4068339954723,65.92133903503418,-1.0,-1.0,49.18918236990352,85.33133888244629,-1.0,35.0,24.574003219604492,-122.84794719129856,-1.0,-0.6601095256891065,0.5151554377595317,-0.30570608130008586,-1.9938007195333722,-0.5775558831708492,0.5544181207883361,-1.2055375100774834,4.674028778076172,30.54238624572754,2.445503997802734,-0.49468525424599646,0.404869194701314,0.35745933316648004,32.361636352539065,47.2729995727539,82.35549468994141,0.717104313749075,2.378567803885937,-3.033756578017771,0.21272125244140624,1.1645553588867188,-0.596142578125,-0.4959443397819996,0.47659961581230165,0.4118736006319523,1.4280255695620923,9.158611623692511,-3.190554165760875
7.0,-0.428774053400213,1005.4066883433949,65.92133903503418,-1.0,-1.0,49.18918236990352,85.33133888244629,-1.0,35.0,24.574003219604492,-122.84794719129856,-1.0,-0.6733206631673372,0.5228296944909999,-0.3264461548466421,-2.0020881967752002,-0.5763529308479456,0.5343954584733305,-1.2647289410887192,2.197518825531006,31.752882957458496,9.383516693115235,1.0712268817679662,-0.7613372653722763,0.21918580808529728,29.762095401161595,48.35925614206415,89.60094893606086,-3.581485920021124,0.4836222471585869,1.872977521692924,-0.25986520867598684,0.9972108539782072,-0.0638323332134046,1.034780546836555,-0.8330457217991352,0.2601582832634449,1.1741012052399478,9.326364612953068,-2.6893852363675457
7.1,-0.42757277055220166,1005.4065426913174,65.92133903503418,-1.0,-1.0,49.18918236990352,85.33133888244629,-1.0,35.0,24.574003219604492,-122.84794719129856,-1.0,-0.05002921381401104,0.4914229404522136,-0.40389659612924644,-1.4756129050747486,-0.5683920324969323,0.5126455424045124,-1.3387197537307447,-4.178795170783997,31.863046741485597,13.093814849853516,0.6749130745173284,-0.44732728488743306,0.8812446675116294,23.324966029116982,48.505006087453744,93.1019455759149,-1.516425533879497,-0.182827911086902,0.9671472810203954,-0.15210438778525903,0.9475331155877365,-0.09102032310084293,0.6588525325292721,-0.4602841950836591,0.8782320823520423,0.13091223952767894,9.50299098059915,-1.869282395328665
7.2,-0.4263714877041903,1005.40639703924,65.92133903503418,-1.0,-1.0,49.18918236990352,85.33133888244629,-1.0,35.0,24.574003219604492,-122.84794719129856,-1.0,0.5732622355393152,0.46001618641342723,-0.4813470374118508,-0.9491376133742971,-0.560431134145919,0.4908956263356945,-1.41271056637277,-10.555109167099,31.973210525512695,16.8041130065918,0.2785992672666907,-0.1333173044025898,1.5433035269379616,16.88783665707237,48.65075603284334,96.60294221576892,0.5486348522621299,-0.849278069332391,0.06131704034786674,-0.04434356689453125,0.8978553771972656,-0.11820831298828124,0.2829245182219893,-0.08752266836818304,1.4963058814406396,-0.9122767261845898,9.679617348245234,-1.0491795542897842
7.3,-0.4251702048561789,1005.4062513871627,65.92133903503418,-1.0,-1.0,49.18918236990352,85.33133888244629,-1.0,35.0,24.574003219604492,-122.84794719129856,-1.0,1.0056552707574349,0.4447259367832141,-0.5141585140354907,-0.5252084537068316,-0.5686349776885442,0.459504469750876,-1.3567982193490136,-14.792160964012147,31.57583293914795,18.18335418701172,0.5514384876005352,-0.18782458379864692,1.2881888337433338,12.684021477950248,48.187273768374794,97.97338501779657,1.4338603794027445,0.11647552883990098,-1.2697648614236525,-0.04071731567382812,0.9773471832275391,-0.19164505004882815,0.5387279660673812,-0.14749575987225397,1.2447637803852558,-1.7517917245829993,9.563723184876814,-0.6436137239559432
7.4,-0.42396892200816755,1005.4061057350852,65.92133903503418,-1.0,-1.0,49.18918236990352,85.33133888244629,-1.0,35.0,24.574003219604492,-122.84794719129856,-1.0,1.4380483059755547,0.42943568715300096,-0.5469699906591308,-0.10127929403936613,-0.5768388212311695,0.42811331316605755,-1.300885872325257,-19.029212760925294,31.178455352783203,19.56259536743164,0.8242777079343796,-0.24233186319470407,1.033074140548706,8.480206298828126,47.72379150390625,99.34382781982421,2.319085906543359,1.082229127012193,-2.6008467631951717,-0.037091064453125,1.0568389892578125,-0.265081787109375,0.7945314139127732,-0.2074688513763249,0.9932216793298722,-2.5913067229814084,9.447829021508396,-0.2380478936221022
7.5,-0.4227676391601562,1005.4059600830078,65.92133903503418,-1.0,-1.0,49.18918236990352,85.33133888244629,-1.0,35.0,24.574003219604492,-122.84794719129856,-1.0,1.3198191171158027,0.4256718531175684,-0.5517990782800791,-0.27663566240362336,-0.5531698541839065,0.4526268946779021,-1.3260820271439342,-22.534782505035402,35.4177885055542,17.116808319091795,-0.5990148795768618,-0.5220560451969505,-1.4941258286591619,5.330330296566612,52.55530347322163,96.43607611405223,2.759345853973273,2.6808802748225626,-3.0798965257662347,0.08747177124023438,1.2238945007324218,-0.36452407836914064,-0.6460600724443794,-0.48732275580987333,-1.571663845796138,-2.1889647301717448,9.489228047380298,-0.28941106570830427
7.6,-0.42065353393554683,1005.4057083129883,65.92133903503418,-1.0,-1.0,49.18918236990352,85.33133888244629,-1.0,35.0,24.574003219604492,-122.84794719129856,-1.0,0.4458942434699664,0.4402896469232669,-0.46488598320560637,-1.1342523861289981,-0.5428459536182584,0.5275455282380896,-1.2788004010968206,-16.352393317222596,42.35336856842041,9.25287742614746,-1.1028503901325166,-0.32923323987051845,-1.3118784900056197,11.5237623515882,59.27203850997122,88.61624707673727,-0.48917208339839213,1.6041076596505939,-1.1170584172783327,-0.08318176269531248,1.1230003356933593,-0.2857330322265625,-1.127877929341048,-0.36306745032779875,-1.3165255014318973,-0.39146016227685476,9.341284329604655,-1.6004913694382357
7.7,-0.41853942871093747,1005.4054565429688,65.92133903503418,-1.0,-1.0,49.18918236990352,85.33133888244629,-1.0,35.0,24.574003219604492,-122.84794719129856,-1.0,-0.42803063017586973,0.45490744072896544,-0.3779728881311336,-1.9918691098543726,-0.5325220530526102,0.6024641617982771,-1.2315187750497067,-10.17000412940979,49.28894863128662,1.388946533203125,-1.6066859006881713,-0.13641043454408647,-1.1296311513520778,17.717194406609785,65.98877354672081,80.79641803942229,-3.737690020770058,0.527335044478625,0.8457796912095695,-0.25383529663085935,1.0221061706542969,-0.20694198608398437,-1.6096957862377166,-0.2388121448457241,-1.0613871570676565,1.4060444056180352,9.193340611829012,-2.9115716731681673
7.8,-0.4164253234863281,1005.4052047729492,65.92133903503418,-1.0,-1.0,49.18918236990352,85.33133888244629,-1.0,35.0,24.574003219604492,-122.84794719129856,-1.0,-0.3823503778523741,0.4093554354140939,-0.36710931438606964,-2.0606846185334016,-0.5100217599723358,0.6555714282493108,-1.1337768405790398,-8.638519787788391,50.05690450668335,-5.481249618530273,-1.1109516055694257,-0.9204730518162252,-0.21028391313739125,19.151571293881062,66.70792437101665,73.95390436272872,-4.177200249464474,-0.8305598810198157,3.690260066090412,-0.22974662780761718,0.8413509368896485,0.0054798126220703125,-1.0673920311033727,-0.9118721079081297,-0.1346628637984395,2.0279216567392018,8.815263684886322,-3.574141285572834
7.9,-0.41431121826171874,1005.4049530029297,65.92133903503418,-1.0,-1.0,49.18918236990352,85.33133888244629,-1.0,35.0,24.574003219604492,-122.84794719129856,-1.0,-0.33667012552887843,0.36380343009922234,-0.3562457406410056,-2.12950012721243,-0.4875214668920612,0.7086786947003445,-1.036034906108373,-7.107035446166992,50.824860382080075,-12.351445770263672,-0.6152173104506801,-1.7045356690883637,0.7090633250772953,20.585948181152343,67.4270751953125,67.11139068603515,-4.616710478158891,-2.1884548065182563,6.534740440971255,-0.205657958984375,0.660595703125,0.217901611328125,-0.5250882759690285,-1.5849320709705352,0.7920614294707775,2.649798907860368,8.43718675794363,-4.236710897977501
8.0,-0.4121971130371093,1005.4047012329102,65.92133903503418,-1.0,-1.0,49.18918236990352,85.33133888244629,-1.0,35.0,24.574003219604492,-122.84794719129856,-1.0,-0.04000019040907529,0.34983796869833717,-0.4267563642486241,-1.8333331639902568,-0.514675152785282,0.6550770607286006,-1.1666460350536814,-16.006873512268065,50.432728958129886,-9.671136474609375,0.35089104175567626,0.6645187081769108,0.992334297299385,11.506071391858553,67.01936019094367,70.00847906815379,2.3705479370572045,2.408382716495842,-1.8315610113099965,0.3088340759277344,1.10859375,-0.5638504028320312,0.3518299624323845,0.5863889172207564,0.9317761190235615,1.0258291377726663,9.006969022172838,-3.6727908768451956
8.1,-0.41008300781249996,1005.4044494628905,65.92133903503418,-1.0,-1.0,49.18918236990352,85.33133888244629,-1.0,35.0,24.574003219604492,-122.84794719129856,-1.0,0.03352502756951399,0.3623297001047977,-0.43961566143016895,-1.7256206150752273,-0.5236534780779853,0.6308622202789507,-1.2114429081381073,-17.662185955047605,50.409195327758795,-8.061129188537597,0.7176244262489491,0.27929051825776696,0.5921504098922015,9.9723707500257,67.0028943513569,71.58529622931229,-0.3918911757035648,1.2167595287242534,0.8146973670927806,0.02124900817871095,1.0521533966064454,-0.24356002807617189,0.7242405066266655,0.249098315811716,0.5964329426409677,0.6164187045639546,9.153119178369119,-3.3365211693295462
8.2,-0.4079689025878906,1005.404197692871,65.92133903503418,-1.0,-1.0,49.18918236990352,85.33133888244629,-1.0,35.0,24.574003219604492,-122.84794719129856,-1.0,0.10705024554810327,0.37482143151125824,-0.4524749586117137,-1.6179080661601977,-0.5326318033706887,0.6066473798293007,-1.256239781222533,-19.317498397827148,50.3856616973877,-6.45112190246582,1.0843578107422218,-0.10593767166137695,0.19196652248501775,8.438670108192845,66.98642851177014,73.16211339047081,-3.154330288464334,0.025136340952664815,3.460955745495558,-0.2663360595703125,0.9957130432128907,0.0767303466796875,1.0966510508209466,-0.08819228559732437,0.2610897662583739,0.2070082713552431,9.2992693345654,-3.000251461813897
8.3,-0.40585479736328123,1005.4039459228514,65.92133903503418,-1.0,-1.0,49.18918236990352,85.33133888244629,-1.0,35.0,24.574003219604492,-122.84794719129856,-1.0,0.5013021510042807,0.37273294220150366,-0.5011366573218784,-1.2553818808092525,-0.5214598154989943,0.5769317919798076,-1.3128013316142644,-22.402914142608644,49.30993995666504,-3.088557243347168,0.6825774304452352,0.2016148176044225,0.8316156450659037,5.204141877826891,65.85644744069953,76.61458178068463,-0.6410075150362124,-0.506046421156153,0.35808284424930825,-0.10164566040039061,0.9301509857177734,-0.1813423156738281,0.6576088979840278,0.3130410231649876,0.8261108757229522,-0.5131846493589105,9.45300198177993,-2.2387357521018014
8.4,-0.40374069213867186,1005.4036941528319,65.92133903503418,-1.0,-1.0,49.18918236990352,85.33133888244629,-1.0,35.0,24.574003219604492,-122.84794719129856,-1.0,0.895554056460458,0.370644452891749,-0.5497983560320431,-0.8928556954583075,-0.5102878276273,0.5472162041303146,-1.3693628820059958,-25.488329887390137,48.234218215942384,0.27400741577148435,0.2807970501482487,0.509167306870222,1.4712647676467896,1.9696136474609376,64.72646636962891,80.06705017089844,1.8723152583919092,-1.0372291832649707,-2.7447900569969415,0.06304473876953125,0.8645889282226562,-0.43941497802734375,0.21856674514710903,0.7142743319272995,1.3911319851875306,-1.2333775700730643,9.606734628994463,-1.4772200423897057
8.5,-0.4016265869140625,1005.4034423828124,65.92133903503418,-1.0,-1.0,49.18918236990352,85.33133888244629,-1.0,35.0,24.574003219604492,-122.84794719129856,-1.0,1.2771871314819787,0.38719292931638283,-0.5556451899660791,-0.33568261433498586,-0.5790073476296659,0.45217873101412076,-1.2571149423330907,-31.600731754302977,44.412499809265135,5.721335220336914,0.37834871634840966,0.7746969252824784,0.8499261069111526,-3.911311099403783,60.982446770919,85.46149886281867,2.182825604992248,0.7563629081392288,-0.6515517072308994,-0.07008819580078125,1.0225997924804688,-0.14575119018554689,0.38918522763997315,0.7087692983448506,0.8312535621225834,-2.834931274577789,9.318467751449495,-0.9081957295214849
8.6,-0.3997772216796875,1005.4032287597655,65.92133903503418,-1.0,-1.0,49.18918236990352,85.33133888244629,-1.0,35.0,24.574003219604492,-122.84794719129856,-1.0,1.1488667054223183,0.4011026324898236,-0.5387602824034039,-0.42869706847882183,-0.583209271175525,0.4521610481991343,-1.2669508299160095,-30.390096044540407,45.07081117630005,5.734164619445801,-0.32410297617316247,0.5924642749130726,-0.5169849122408776,-2.805986103258635,61.595491108141445,85.52832794189453,2.2420546235523,2.3030738646104187,-0.9577030731704458,-0.028585433959960944,1.1748222351074218,-0.20404548645019532,-0.3381143038161099,0.5863821178674697,-0.5545181864872575,-2.6011885646534547,9.339756798550336,-0.9488519888151157
8.7,-0.3979278564453125,1005.4030151367186,65.92133903503418,-1.0,-1.0,49.18918236990352,85.33133888244629,-1.0,35.0,24.574003219604492,-122.84794719129856,-1.0,1.020546279362658,0.41501233566326434,-0.5218753748407288,-0.5217115226226579,-0.587411194721384,0.4521433653841478,-1.2767867174989282,-29.179460334777833,45.72912254333496,5.7469940185546875,-1.0265546686947347,0.41023162454366685,-1.883895931392908,-1.700661107113487,62.2085354453639,85.59515702097039,2.3012836421123515,3.8497848210816086,-1.2638544391099922,0.012917327880859369,1.327044677734375,-0.26233978271484376,-1.065413835272193,0.463994937390089,-1.9402899350970984,-2.3674458547291204,9.36104584565118,-0.9895082481087464
8.8,-0.3960784912109375,1005.4028015136718,65.92133903503418,-1.0,-1.0,49.18918236990352,85.33133888244629,-1.0,35.0,24.574003219604492,-122.84794719129856,-1.0,0.24030826671823258,0.46813611888836,-0.41728213699132644,-1.1673869339618734,-0.5939868893853647,0.4844994217150314,-1.2667204319855103,-20.882517290115356,49.80128841400146,2.077350616455078,-1.179312789812684,1.0613317839801313,-1.934724308922887,6.825358380769429,66.36863005788703,81.80308845921567,0.3444157507007939,2.578823936540112,0.6389688488154579,-0.043732833862304685,1.237232971191406,-0.13335723876953126,-1.195053513161838,1.0070579703897238,-1.9293878329917789,-0.7981282324164849,9.337536682121979,-1.9499737050578232
8.9,-0.3942291259765625,1005.4025878906249,65.92133903503418,-1.0,-1.0,49.18918236990352,85.33133888244629,-1.0,35.0,24.574003219604492,-122.84794719129856,-1.0,-0.5399297459261928,0.5212599021134556,-0.3126888991419241,-1.813062345301089,-0.6005625840493454,0.516855478045915,-1.2566541464720922,-12.58557424545288,53.87345428466797,-1.5922927856445312,-1.3320709109306335,1.7124319434165955,-1.9855526864528656,15.351377868652344,70.52872467041016,78.01101989746094,-1.6124521407107637,1.3078630519986152,2.541792136740908,-0.10038299560546875,1.1474212646484374,-0.00437469482421875,-1.3246931910514832,1.5501210033893584,-1.9184857308864594,0.7711893898961506,9.314027518592775,-2.9104391620068997
9.0,-0.3923797607421875,1005.402374267578,65.92133903503418,-1.0,-1.0,49.18918236990352,85.33133888244629,-1.0,35.0,24.574003219604492,-122.84794719129856,-1.0,-0.812713017260933,0.5340064940450694,-0.23506624250186103,-2.066692273594691,-0.5773018484986763,0.5699966270835826,-1.0881636740439216,-6.097795867919922,54.56911964416504,-9.36204719543457,-0.4185215048491955,-1.0846255097538233,0.2647890187334269,21.846248425935443,71.18912626567639,70.214380364669,-4.42618296709314,-3.385393782485127,4.025314099592938,-0.24267730712890626,0.5399337768554687,-0.00608367919921875,-0.3597440145909786,-1.0507277568802238,0.33886526338756084,2.173905106835887,8.680447437357156,-3.9867449926108116
9.1,-0.3905303955078125,1005.4021606445312,65.92133903503418,-1.0,-1.0,49.18918236990352,85.33133888244629,-1.0,35.0,24.574003219604492,-122.84794719129856,-1.0,-0.7237534413270252,0.5298104031130648,-0.25873283529546676,-1.9718929142693247,-0.5911862463713056,0.548379046385673,-1.1465851919594319,-9.959872662393671,54.37110787441856,-8.350759154871891,-0.11514145778492091,-0.46542518530040977,0.34545772566925737,17.825036701403164,70.9866156327097,71.31610990825453,-0.16310177976516638,0.7823310560434429,0.9570784138546315,0.12430152893066407,0.970975112915039,-0.26690177917480473,-0.09730445827896655,-0.46960783945396545,0.3667669535957669,1.6157307805194354,8.918549425755224,-3.6620960282673956
9.2,-0.3886810302734375,1005.4019470214844,65.92133903503418,-1.0,-1.0,49.18918236990352,85.33133888244629,-1.0,35.0,24.574003219604492,-122.84794719129856,-1.0,-0.6347938653931176,0.5256143121810601,-0.28239942808907254,-1.8770935549439585,-0.6050706442439348,0.5267614656877635,-1.2050067098749422,-13.821949456867419,54.173096104672084,-7.339471114309211,0.1882385892793536,0.1537751391530037,0.42612643260508776,13.803824976870889,70.78410499974301,72.41783945184005,4.099979407562806,4.950055894572013,-2.1111572718836755,0.49128036499023436,1.4020164489746094,-0.5277198791503906,0.16513509803304546,0.1115120779722929,0.39466864380397293,1.0575564542029838,9.156651414153293,-3.33744706392398
9.3,-0.3868316650390625,1005.4017333984375,65.92133903503418,-1.0,-1.0,49.18918236990352,85.33133888244629,-1.0,35.0,24.574003219604492,-122.84794719129856,-1.0,-0.6279684728764212,0.5382700824835752,-0.26930133306229753,-1.796067809302328,-0.6224386016080032,0.49771799947638456,-1.223979492084561,-14.902976643411737,54.0070638757003,-6.21257842214484,0.696898654755205,1.023419826477766,0.3483526795171201,12.779056348298726,70.63322300158049,73.78998967220909,-0.10442938678761582,1.0079795063988235,1.5321315530784232,0.05466499328613278,1.0327327728271485,-0.15805854797363283,0.6374998583311313,1.0369712790474295,0.35120089942295296,0.7705369494350194,9.217384678261435,-3.2202306366685307
9.4,-0.3849822998046875,1005.4015197753906,65.92133903503418,-1.0,-1.0,49.18918236990352,85.33133888244629,-1.0,35.0,24.574003219604492,-122.84794719129856,-1.0,-0.6211430803597249,0.5509258527860903,-0.2562032380355225,-1.7150420636606973,-0.6398065589720716,0.46867453326500563,-1.24295227429418,-15.984003829956055,53.84103164672852,-5.085685729980469,1.2055587202310563,1.8930645138025284,0.2705789264291525,11.754287719726562,70.48234100341797,75.16213989257812,-4.308838181138038,-2.934096881774366,5.175420378040522,-0.38195037841796875,0.6634490966796875,0.211602783203125,1.1098646186292171,1.9624304801225663,0.30773315504193305,0.4835174446670548,9.27811794236958,-3.1030142094130815
9.5,-0.3831329345703125,1005.4013061523438,65.92133903503418,-1.0,-1.0,49.18918236990352,85.33133888244629,-1.0,35.0,24.574003219604492,-122.84794719129856,-1.0,-0.02652524607035121,0.5510126790590812,-0.3291197351986457,-1.105401771468473,-0.6560174930194285,0.3935681292178832,-1.3787262993531262,-21.70842366218567,52.048505020141604,3.1562084197998046,0.44597499070223423,-0.05350864306092262,1.2905231028795243,5.5420082493832235,68.46977956671464,83.16815426475124,-0.580141776732849,-0.351261795283705,-2.039031020865738,-0.13426284790039061,0.939947509765625,-0.36340484619140623,0.49367281757295134,-0.11350349374115468,1.2416175730526446,-0.7903516232769714,9.62190218292728,-1.5041853231091051
9.6,-0.3831329345703125,1005.4013061523438,65.92133903503418,-1.0,-1.0,49.18918236990352,85.33133888244629,-1.0,35.0,24.574003219604492,-122.84794719129856,-1.0,0.33038860013443744,0.5336861826105215,-0.3305486155479113,-0.658772327006987,-0.6978128885579631,0.3339458649481783,-1.3093772906609273,-26.67034809589386,49.24247436523437,6.273665428161621,0.4441282582352869,0.08762552496045828,0.962633869284764,0.6841087542082134,65.65577639529579,86.26383024516858,1.0539345183914293,0.2180948201054334,-1.6523592621375247,-0.08838233947753905,0.983606719970703,-0.2797401428222656,0.4724387903232128,0.060585262556560354,0.9559821594506501,-1.9396656616473644,9.445647308168187,-1.0597137543567619
9.7,-0.3831329345703125,1005.4013061523438,65.92133903503418,-1.0,-1.0,49.18918236990352,85.33133888244629,-1.0,35.0,24.574003219604492,-122.84794719129856,-1.0,0.6873024463392261,0.5163596861619618,-0.33197749589717696,-0.212142882545501,-0.7396082840964978,0.2743236006784734,-1.2400282819687287,-31.63227252960205,46.43644371032715,9.391122436523437,0.4422815257683396,0.22875969298183918,0.6347446356900036,-4.173790740966797,62.841773223876956,89.35950622558593,2.6880108135157075,0.7874514354945719,-1.2656875034093111,-0.0425018310546875,1.0272659301757812,-0.196075439453125,0.4512047630734742,0.23467401885427536,0.6703467458486557,-3.0889797000177572,9.269392433409093,-0.6152421856044186
9.8,-0.3831329345703125,1005.4013061523438,65.92133903503418,-1.0,-1.0,49.18918236990352,85.33133888244629,-1.0,35.0,24.574003219604492,-122.84794719129856,-1.0,0.6321499705552927,0.5296504257469494,-0.3154496684666013,-0.22620430135405933,-0.739999171591347,0.2655028154143161,-1.259992293683625,-30.611914443969727,47.21695404052734,9.725476837158203,-0.34739024369046095,0.22438483033329248,-0.9365625319536776,-2.5386021508110894,64.052851401435,89.41119672987196,4.544473166059143,1.9131433744276312,-1.8293877589241414,0.16413574218750002,1.1523666381835938,-0.24569931030273437,-0.3144031533505767,0.28546065755654126,-0.8460313856601714,-2.9022153883702115,9.32229876636669,-0.5847305945972702
9.9,-0.3831329345703125,1005.4013061523438,65.92133903503418,-1.0,-1.0,49.18918236990352,85.33133888244629,-1.0,35.0,24.574003219604492,-122.84794719129856,-1.0,0.5769974947713591,0.5429411653319369,-0.2989218410360256,-0.24026572016261763,-0.7403900590861963,0.25668203015015884,-1.2799563053985215,-29.591556358337403,47.99746437072754,10.059831237792968,-1.1370620131492615,0.2200099676847458,-2.5078696995973586,-0.9034135606553819,65.26392957899306,89.46288723415799,6.40093551860258,3.0388353133606905,-2.393088014438972,0.3707733154296875,1.2774673461914063,-0.29532318115234374,-1.0800110697746277,0.33624729625880717,-2.3624095171689987,-2.7154510767226663,9.375205099324285,-0.5542190035901218
10.0,-0.3831329345703125,1005.4013061523438,65.92133903503418,-1.0,-1.0,49.18918236990352,85.33133888244629,-1.0,35.0,24.574003219604492,-122.84794719129856,-1.0,-1.1041650392529545,0.6575972056748884,-0.13033741567784704,-1.7705182067610301,-0.6614193643503657,0.32657787023693635,-1.2783896148946812,-10.16369857788086,56.734382247924806,-0.15901107788085939,-1.4022997558116912,0.590151259675622,-1.7680117830634117,18.417618600945723,73.55976225200452,79.01511021664268,-3.549222817848027,1.9782737113729119,0.9794694919920712,-0.2799507141113281,1.144158935546875,-0.16354598999023437,-1.4110262036323546,0.592687270604074,-1.8410634696483612,0.7889701631012419,9.346202526010572,-2.5935878488820046
10.1,-0.3831329345703125,1005.4013061523438,65.92133903503418,-1.0,-1.0,49.18918236990352,85.33133888244629,-1.0,35.0,24.574003219604492,-122.84794719129856,-1.0,-1.1961606904727184,0.6554885786115998,-0.11723929047060139,-1.9274197254727456,-0.6372165090458097,0.37758892355585283,-1.1904867149529599,-6.813827085494996,57.09658966064453,-5.756550979614258,-0.6476773323491215,-0.2646106754429638,-0.41335987469647084,21.083717366268758,73.8363889995374,73.79028749967875,-2.7161327351906337,0.09140190708599993,2.6447918641272192,-0.11163253784179686,0.9338302612304688,-0.0651458740234375,-0.6754465302452445,-0.2919686487875879,-0.45734066693112263,1.4897703232996098,9.043135714962258,-3.2120418041737375
10.2,-0.3831329345703125,1005.4013061523438,65.92133903503418,-1.0,-1.0,49.18918236990352,85.33133888244629,-1.0,35.0,24.574003219604492,-122.84794719129856,-1.0,-1.2881563416924822,0.6533799515483113,-0.10414116526335573,-2.084321244184461,-0.6130136537412537,0.42859997687476925,-1.1025838150112386,-3.463955593109131,57.45879707336426,-11.354090881347656,0.10694509111344815,-1.1193726105615496,0.9412920336704701,23.749816131591796,74.1130157470703,68.56546478271484,-1.8830426525332407,-1.7954698972009122,4.310114236262367,0.05668563842773437,0.7235015869140625,0.033254241943359374,0.060133143141865755,-1.1766245681792498,0.9263821357861162,2.1905704834979773,8.740068903913944,-3.830495759465471
10.3,-0.3831329345703125,1005.4013061523438,65.92133903503418,-1.0,-1.0,49.18918236990352,85.33133888244629,-1.0,35.0,24.574003219604492,-122.84794719129856,-1.0,-1.170608445842416,0.6375013593118963,-0.1296928946919994,-1.9899287820311158,-0.6300063603110253,0.4208902091684729,-1.1521806005940523,-7.0094697952270515,57.565514183044435,-10.262152099609374,-0.13928090091794726,-0.32273720940575,0.7344748398056253,20.38357844882541,74.17589263916015,69.4428318447537,0.23345125498037755,0.8089834245058147,-0.6917824820812415,0.17906837463378905,0.9976867675781249,-0.4210124969482422,-0.17267599310725923,-0.3578054588288069,0.7045497029088438,1.6560116069793516,8.942723592916353,-3.5900974764392153
10.4,-0.3831329345703125,1005.4013061523438,65.92133903503418,-1.0,-1.0,49.18918236990352,85.33133888244629,-1.0,35.0,24.574003219604492,-122.84794719129856,-1.0,-1.0530605499923495,0.6216227670754815,-0.15524462412064305,-1.8955363198777704,-0.6469990668807969,0.4131804414621766,-1.2017773861768657,-10.554983997344971,57.67223129272461,-9.170213317871093,-0.3855068929493427,0.4738981917500496,0.5276576459407807,17.01734076605903,74.23876953125,70.32019890679254,2.349945162493996,3.413436746212542,-5.6936792004248495,0.30145111083984377,1.2718719482421874,-0.8752792358398438,-0.40548512935638426,0.461013650521636,0.4827172700315714,1.1214527304607258,9.145378281918763,-3.3496991934129596
10.5,-0.3831329345703125,1005.4013061523438,65.92133903503418,-1.0,-1.0,49.18918236990352,85.33133888244629,-1.0,35.0,24.574003219604492,-122.84794719129856,-1.0,-1.0310097106518843,0.6282371290722193,-0.15919293496806064,-1.8197849047529577,-0.6599522879662948,0.37674815693985064,-1.2580151044633436,-11.080905294418335,57.74822731018067,-6.909593200683593,0.9983763521537184,-0.10873863287270069,0.12475693370215594,16.620655260587995,74.39243035567434,73.1769585860403,-2.8094516219997407,1.0283575146059691,3.087710432653874,-0.209173583984375,1.0444343566894532,0.0082305908203125,0.9954674437642097,-0.01897037643939259,0.09607817493379113,0.7563639136995421,9.311720644502937,-2.9049055809555204
10.6,-0.3831329345703125,1005.4013061523438,65.92133903503418,-1.0,-1.0,49.18918236990352,85.33133888244629,-1.0,35.0,24.574003219604492,-122.84794719129856,-1.0,-0.5587151597348272,0.6059826294897995,-0.20495815088250532,-1.3609021104959491,-0.6831916114110023,0.3417666559591276,-1.3126874248228868,-15.900312876701356,56.663415145874026,-2.444701766967773,0.6281551983673126,0.4786798969842494,0.780582808679901,11.606416039717825,73.20023319846706,77.59761968913831,-1.197729366466105,0.05700722163125871,1.3474983999727665,-0.14518585205078124,0.965896224975586,-0.08025741577148438,0.6221552563365549,0.47197945257648827,0.778554886393249,-0.24187034181159806,9.454561077016294,-2.129822420410793
10.7,-0.3831329345703125,1005.4013061523438,65.92133903503418,-1.0,-1.0,49.18918236990352,85.33133888244629,-1.0,35.0,24.574003219604492,-122.84794719129856,-1.0,-0.08642060881777022,0.5837281299073798,-0.25072336679695,-0.9020193162389407,-0.7064309348557097,0.30678515497840453,-1.36735974518243,-20.719720458984376,55.578602981567386,2.020189666748047,0.25793404458090663,1.0660984268411995,1.4364086836576462,6.592176818847657,72.00803604125977,82.01828079223633,0.4139928890675306,-0.9143430713434517,-0.39271363270834087,-0.0811981201171875,0.8873580932617188,-0.16874542236328124,0.2488430689089,0.9629292815923691,1.4610315978527069,-1.2401045973227383,9.59740150952965,-1.3547392598660664
10.8,-0.3831329345703125,1005.4012985229492,65.92133903503418,-1.0,-1.0,49.18918236990352,85.33133888244629,-1.0,35.0,24.574003219604492,-122.84794719129856,-1.0,0.24435294087503487,0.5618793429266303,-0.25923298866979505,-0.5169113776056455,-0.7372292780649536,0.2608000239846971,-1.3023236854349567,-25.112764549255374,53.36305484771729,5.1689823150634755,0.5167312299367041,0.1758839218877256,1.1789842039346694,2.1255943298339846,69.72022065056694,85.13080635070801,2.1735082749249783,0.4442406547497957,-1.7318058315892797,-0.00029220581054686945,1.008904266357422,-0.27248611450195315,0.5364658755715936,0.10489271730184557,1.2284419408068061,-2.2088862698170275,9.429899484742432,-0.8802980395765976
10.9,-0.3831329345703125,1005.4012908935547,65.92133903503418,-1.0,-1.0,49.18918236990352,85.33133888244629,-1.0,35.0,24.574003219604492,-122.84794719129856,-1.0,0.5751264905678399,0.5400305559458809,-0.26774261054264004,-0.1318034389723504,-0.7680276212741974,0.21481489299098966,-1.2372876256874834,-29.505808639526368,51.14750671386719,8.317774963378906,0.7755284152925015,-0.7143305830657483,0.9215597242116929,-2.3409881591796875,67.43240525987413,88.24333190917969,3.933023660782426,1.802824380843043,-3.0708980304702185,0.08061370849609376,1.130450439453125,-0.376226806640625,0.8240886822342872,-0.753143846988678,0.9958522837609053,-3.1776679423113166,9.262397459955215,-0.4058568192871287
11.0,-0.3831329345703125,1005.4012832641602,65.92133903503418,-1.0,-1.0,49.18918236990352,85.33133888244629,-1.0,35.0,24.574003219604492,-122.84794719129856,-1.0,0.1955724629946415,0.5745613201104606,-0.2474985694578764,-0.5214338695726024,-0.7372573665684272,0.24404091038687645,-1.3077921695746102,-24.08903589248657,54.017076110839845,6.310604095458984,-0.9447158473543823,0.06658598072826863,-2.1238083481788634,4.7552635192871096,71.01765670776368,85.4777114868164,1.8533038519798963,3.2431920862667263,-2.1337130163748563,-0.03523559570312499,1.2986595153808593,-0.28512115478515626,-0.9105781370773911,0.039480995014309864,-2.082519167661667,-2.10195656544598,9.440165997986792,-0.739111961101312
11.1,-0.3831329345703125,1005.4012756347656,65.92133903503418,-1.0,-1.0,49.18918236990352,85.33133888244629,-1.0,35.0,24.574003219604492,-122.84794719129856,-1.0,-0.5768225260652189,0.6236344981052726,-0.1633107260401082,-1.2517218601649829,-0.6903783588701982,0.29783173721568806,-1.243801711431488,-12.996339511871337,56.53952007293701,-1.6831774711608887,-1.192871076753363,-0.20602985601872206,-1.4114006030664314,15.603704773752312,73.31624516938862,77.36222666690225,-0.738896347415885,1.2954721670114249,-0.3712650147848764,-0.10730552673339844,1.0703102111816407,-0.24303207397460938,-1.1846909102983774,-0.1672723924741149,-1.4233794786036014,-0.2853729939224814,9.23148072358325,-2.061561802522829
11.2,-0.3831329345703125,1005.4012680053711,65.92133903503418,-1.0,-1.0,49.18918236990352,85.33133888244629,-1.0,35.0,24.574003219604492,-122.84794719129856,-1.0,-1.3492175151250791,0.6727076761000845,-0.07912288262234003,-1.9820098507573634,-0.6434993511719692,0.35162256404449965,-1.179811253288366,-1.9036431312561035,59.06196403503418,-9.676959037780762,-1.4410263061523438,-0.4786456927657127,-0.6989928579539992,26.452146028217516,75.61483363101357,69.24674184698807,-3.3310965468116662,-0.6522477522438764,1.3911829868051035,-0.17937545776367186,0.8419609069824219,-0.2009429931640625,-1.4588036835193634,-0.37402577996253966,-0.7642397895455361,1.5312105776010174,9.022795449179707,-3.3840116439443455
11.3,-0.3831329345703125,1005.4012603759766,65.92133903503418,-1.0,-1.0,49.18918236990352,85.33133888244629,-1.0,35.0,24.574003219604492,-122.84794719129856,-1.0,-1.278771982055309,0.6532401242054682,-0.0968360983507319,-2.0323469396078866,-0.6251359873944813,0.4084451122533864,-1.1236929733460852,-0.4199331760406495,58.3719388961792,-13.881812381744385,-0.5307608557865025,-0.5794300585985184,0.26588997362996447,27.47126395242256,74.97213035717346,65.43262758310775,-3.447532753768069,-1.6135327828608452,4.433810608774106,-0.14478721618652343,0.7305538177490234,0.0685600280761719,-0.5915714774280787,-0.6112579368054867,0.2131576023995877,1.9258753361572931,8.805415148632228,-3.7503034588134847
11.4,-0.3831329345703125,1005.401252746582,65.92133903503418,-1.0,-1.0,49.18918236990352,85.33133888244629,-1.0,35.0,24.574003219604492,-122.84794719129856,-1.0,-1.208326448985539,0.6337725723108519,-0.11454931407912376,-2.08268402845841,-0.6067726236169932,0.4652676604622732,-1.0675746934038046,1.0637767791748047,57.68191375732422,-18.08666572570801,0.37950459457933905,-0.680214424431324,1.2307728052139282,28.490381876627605,74.32942708333333,61.61851331922743,-3.5639689607244724,-2.574817813477814,7.476438230743109,-0.110198974609375,0.619146728515625,0.33806304931640624,0.2756607286632061,-0.8484900936484336,1.1905549943447113,2.320540094713569,8.588034848084748,-4.116595273682624
11.5,-0.3831329345703125,1005.4012451171875,65.92133903503418,-1.0,-1.0,49.18918236990352,85.33133888244629,-1.0,35.0,24.574003219604492,-122.84794719129856,-1.0,-1.0207622560380307,0.6146390009037163,-0.14788879312186523,-1.8677154225209667,-0.6495160652498683,0.4219306470212326,-1.1765210278407607,-6.191263008117676,58.620917892456056,-14.615179634094238,0.1886686325612429,0.15633180031650945,0.3309610956593564,21.517449188232423,75.23203201293946,65.13203964233398,3.2573292925048056,3.6122526899957657,-2.3015632262387125,0.48244034616570725,1.2980884752775494,-0.6342299611944902,0.21429150649346412,0.1532578656449914,0.3572755452245474,1.097858283361187,9.052826839471459,-3.589377338164598
11.6,-0.3831329345703125,1005.401237487793,65.92133903503418,-1.0,-1.0,49.18918236990352,85.33133888244629,-1.0,35.0,24.574003219604492,-122.84794719129856,-1.0,-0.9657052531465296,0.6189642646523643,-0.16472007016461798,-1.7891768964324517,-0.6576392117115226,0.39270783912219576,-1.2397045025590971,-7.27411503791809,58.703243827819826,-11.63336114883423,0.6212480228663864,0.05440141233664594,0.5285743899067472,20.339700176841333,75.33680185016833,68.37304030970523,-0.2033600215202247,1.1977612667482345,-0.3429960127894578,0.06540878697445518,1.0748319726241262,-0.35648990430329974,0.6370767046930268,0.0625118807889521,0.5630462686065585,0.7627877275254646,9.241107419167161,-3.059826637890283
11.7,-0.3831329345703125,1005.4012298583984,65.92133903503418,-1.0,-1.0,49.18918236990352,85.33133888244629,-1.0,35.0,24.574003219604492,-122.84794719129856,-1.0,-0.9106482502550284,0.6232895284010123,-0.1815513472073707,-1.710638370343937,-0.6657623581731769,0.36348503122315884,-1.3028879772774336,-8.356967067718506,58.785569763183595,-8.651542663574219,1.0538274131715297,-0.04752897564321756,0.7261876841541379,19.161951165450247,75.4415716873972,71.61404097707648,-3.664049335545255,-1.2167301564992963,1.6155712006597966,-0.3516227722167969,0.8515754699707031,-0.07874984741210937,1.0598619028925895,-0.028234104067087172,0.7688169919885695,0.4277171716897422,9.429387998862861,-2.530275937615968
11.8,-0.38260421752929685,1005.4011688232422,65.92133903503418,-1.0,-1.0,49.18918236990352,85.33133888244629,-1.0,35.0,24.574003219604492,-122.84794719129856,-1.0,-0.4513721174416631,0.601106008456133,-0.2184508510404321,-1.2642829567975373,-0.6874808101018716,0.3362571567825786,-1.336053445316686,-13.094589853286742,58.179203414917,-5.270784378051758,0.55639459323138,0.9107890519313514,0.9610315958736464,14.434219940364013,74.79104578564738,74.78415264999657,-1.4640858857607983,-1.0886543523671477,0.2853577303663084,-0.19471092224121095,0.8628368377685547,-0.17162055969238282,0.5547853144817054,0.9587980221956969,0.9632384162861853,-0.4595279402285325,9.517744386160075,-1.95994465754861
11.9,-0.38207550048828126,1005.4011077880859,65.92133903503418,-1.0,-1.0,49.18918236990352,85.33133888244629,-1.0,35.0,24.574003219604492,-122.84794719129856,-1.0,0.007904015371702109,0.5789224885112537,-0.2553503548734935,-0.8179275432511378,-0.7091992620305663,0.30902928234199845,-1.369218913355938,-17.83221263885498,57.57283706665039,-1.8900260925292969,0.05896177329123018,1.8691070795059204,1.1958755075931549,9.706488715277779,74.14051988389757,77.95426432291667,0.7358775640236586,-0.9605785482349992,-1.04485573992718,-0.037799072265625,0.8740982055664063,-0.26449127197265626,0.04970872607082127,1.9458301484584808,1.1576598405838012,-1.3467730521468073,9.606100773457289,-1.3896133774812518
12.0,-0.3815467834472656,1005.4010467529297,65.92133903503418,-1.0,-1.0,49.18918236990352,85.33133888244629,-1.0,35.0,24.574003219604492,-122.84794719129856,-1.0,0.5090631212902152,0.5450486223938277,-0.2596463425571075,-0.19601529289301461,-0.7650834821074394,0.22233589468998752,-1.2512077388698644,-25.930582141876222,54.23158988952637,3.3464664459228515,0.476321928948164,0.15196915976703168,0.574426669254899,1.69306640625,70.78340148925781,83.15097198486328,2.836340980632193,1.1832256248173116,-2.4913071345656737,-0.018691253662109376,1.0640960693359376,-0.29621429443359376,0.45972592909820376,0.07817807330284268,0.5378236632794142,-3.004346432203427,9.305666780517548,-0.5639410977130057
12.1,-0.38101806640624997,1005.4009857177734,65.92133903503418,-1.0,-1.0,49.18918236990352,85.33133888244629,-1.0,35.0,24.574003219604492,-122.84794719129856,-1.0,0.06769336411688692,0.5781245823547179,-0.22972965564291953,-0.6353731159390474,-0.7355920034354749,0.2521283419493179,-1.288315195491716,-20.05623326301575,55.41060047149658,0.3980581283569333,-0.42682674787938596,0.3011065207014326,-0.9055999355390668,8.191868510999177,72.09980894389906,79.82982470863743,2.045319108252218,2.5540629609319563,-1.3620530132922717,0.0035552978515625,1.2142288208007814,-0.24661026000976563,-0.45082501282449805,0.29163829289609566,-0.9490406556054951,-1.9270042721452214,9.401906614540964,-1.0451633231087145
12.2,-0.3804893493652344,1005.4009246826173,65.92133903503418,-1.0,-1.0,49.18918236990352,85.33133888244629,-1.0,35.0,24.574003219604492,-122.84794719129856,-1.0,-0.3736763930564414,0.611200542315608,-0.19981296872873158,-1.0747309389850803,-0.7061005247635105,0.2819207892086482,-1.3254226521135677,-14.181884384155273,56.5896110534668,-2.5503501892089844,-1.329975424706936,0.4502438816358335,-2.385626540333033,14.690670615748354,73.4162163985403,76.5086774324116,1.2542972358722424,3.9249002970466016,-0.23279889201886955,0.025801849365234376,1.364361572265625,-0.1970062255859375,-1.3613759547472,0.5050985124893487,-2.435904974490404,-0.8496621120870159,9.49814644856438,-1.5263855485044233
12.3,-0.37996063232421873,1005.400863647461,65.92133903503418,-1.0,-1.0,49.18918236990352,85.33133888244629,-1.0,35.0,24.574003219604492,-122.84794719129856,-1.0,-0.9011376697741648,0.6477787083233086,-0.12451228432198683,-1.5407230422665479,-0.6731549597337518,0.3132722176262986,-1.2352209111688568,-6.320370197296143,56.307609939575194,-8.483868217468261,-1.348484044522047,-0.03742373571149077,-1.5878026481717826,22.08196937159488,72.97679258647719,70.76396167152807,-1.375926116100913,1.259569999603182,0.2731783875042572,-0.08899879455566408,1.0877250671386718,-0.24137420654296876,-1.3611787155270576,-0.11686142547987399,-1.564520223811269,0.4337180053833477,9.210431082035377,-2.594573825885421
12.4,-0.3794319152832031,1005.4008026123048,65.92133903503418,-1.0,-1.0,49.18918236990352,85.33133888244629,-1.0,35.0,24.574003219604492,-122.84794719129856,-1.0,-1.428598946491888,0.6843568743310093,-0.049211599915242085,-2.0067151455480157,-0.6402093947039932,0.34462364604394896,-1.1450191702241461,1.5411439895629884,56.02560882568359,-14.417386245727538,-1.3669926643371582,-0.525091353058815,-0.7899787560105324,29.473268127441408,72.53736877441406,65.01924591064453,-4.006149468074068,-1.4057602978402375,0.779155667027384,-0.2037994384765625,0.8110885620117188,-0.2857421875,-1.3609814763069152,-0.7388213634490967,-0.6931354731321335,1.7170981228537112,8.922715715506374,-3.662762103266418
12.5,-0.37890319824218743,1005.4007415771486,65.92133903503418,-1.0,-1.0,49.18918236990352,85.33133888244629,-1.0,35.0,24.574003219604492,-122.84794719129856,-1.0,-1.2529721563567693,0.6473675090136946,-0.10446405663529208,-2.058195984275778,-0.6161049662559772,0.43377774416985676,-1.0969938317383445,1.893730640411377,54.65224075317383,-18.00271530151367,0.203563329577446,-0.7784279562532902,0.9057143007405102,29.42009855571546,71.30438232421875,61.76793148643092,-0.22925832602865973,-0.7918240099425613,2.4156196527859572,0.14806747436523438,0.7626754760742187,-0.082904052734375,0.22776791071519256,-0.6920301271602511,0.9206393492408097,2.1177148568367956,8.71061583957985,-3.9220436362803723
12.6,-0.37837448120117184,1005.4006805419923,65.92133903503418,-1.0,-1.0,49.18918236990352,85.33133888244629,-1.0,35.0,24.574003219604492,-122.84794719129856,-1.0,-1.1619084437910976,0.6374512391769169,-0.12014359578173187,-1.9572359674539612,-0.6361136795373861,0.4148278637836779,-1.1475836123321688,-1.4459768772125243,55.155076599121095,-16.415488052368165,0.25290396586060526,-0.03311647400259965,0.45922562829218805,26.215057373046875,71.80591864334909,63.39485650313527,-0.7488833148931338,0.10950795484960074,2.1659493109127883,0.0886383056640625,0.9184215545654296,-0.15970306396484374,0.2893459094222635,0.02073846394196155,0.46725100399926306,1.5581608543741607,8.920709767898394,-3.671771076117307
12.7,-0.3778457641601562,1005.400619506836,65.92133903503418,-1.0,-1.0,49.18918236990352,85.33133888244629,-1.0,35.0,24.574003219604492,-122.84794719129856,-1.0,-1.070844731225426,0.6275349693401392,-0.13582313492817163,-1.8562759506321445,-0.656122392818795,0.3958779833974991,-1.198173392925993,-4.785684394836426,55.65791244506836,-14.828260803222657,0.3022446021437645,0.7121950082480908,0.012736955843865874,23.01001619037829,72.30745496247944,65.02178151983964,-1.268508303757608,1.0108399196417628,1.916278969039619,0.029209136962890625,1.0741676330566405,-0.2365020751953125,0.35092390812933444,0.7335070550441742,0.013862658757716407,0.9986068519115261,9.13080369621694,-3.421498515954241
12.8,-0.37740580240885413,1005.4005686442058,65.92133903503418,-1.0,-1.0,49.18918236990352,85.33133888244629,-1.0,35.0,24.574003219604492,-122.84794719129856,-1.0,-1.071750168149527,0.637583523624309,-0.15120132609795778,-1.8219805592016907,-0.6619298764290067,0.36038884386805203,-1.2708189731437431,-5.380670547485352,56.36105613708496,-10.814034271240235,0.7808356426656247,-0.23637142963707447,0.5117251158691943,22.312439125462582,73.00994162308542,69.10169352481239,-2.7882418652932346,0.9994923185493796,1.037485233078748,-0.1974567413330078,1.0809597015380858,-0.203656005859375,0.7754647122696041,-0.31214725971221924,0.553535524988547,0.7457634176621597,9.338378408256172,-2.7835015608179194
12.9,-0.376965840657552,1005.4005177815757,65.92133903503418,-1.0,-1.0,49.18918236990352,85.33133888244629,-1.0,35.0,24.574003219604492,-122.84794719129856,-1.0,-1.0726556050736278,0.6476320779084789,-0.1665795172677439,-1.787685167771237,-0.6677373600392185,0.32489970433860493,-1.343464553361493,-5.9756567001342775,57.06419982910156,-6.799807739257813,1.2594266831874847,-1.1849378675222397,1.0107132758945228,21.614862060546876,73.71242828369141,73.18160552978516,-4.307975426828861,0.9881447174569964,0.15869149711787692,-0.42412261962890624,1.0877517700195312,-0.1708099365234375,1.200005516409874,-1.3578015744686127,1.0932083912193775,0.49291998341279336,9.545953120295405,-2.145504605681598
13.0,-0.37652587890624994,1005.4004669189454,65.92133903503418,-1.0,-1.0,49.18918236990352,85.33133888244629,-1.0,35.0,24.574003219604492,-122.84794719129856,-1.0,0.010650788949139697,0.5878459747114396,-0.21406615305041257,-0.6693284123500067,-0.7352918034541523,0.2541053185931739,-1.3438870722528646,-17.248318910598755,55.83036842346191,-0.6951671600341797,0.3950492762029171,1.1153190009295941,1.3899204939603806,10.072517796566611,72.36204127261513,79.25885250693874,1.7818474711712402,-0.2994582797753811,-1.1252500075051002,0.00219879150390625,0.9293312072753906,-0.23803634643554689,0.404309605807066,1.1269175674766303,1.3527812331914901,-1.7181617006178758,9.545049595584421,-1.1671531378410849
13.1,-0.3760859171549479,1005.4004160563152,65.92133903503418,-1.0,-1.0,49.18918236990352,85.33133888244629,-1.0,35.0,24.574003219604492,-122.84794719129856,-1.0,0.24218485198547504,0.5744947359207735,-0.21895905649373965,-0.39344765480251104,-0.7552639053798764,0.21863887228892476,-1.3021114000154275,-20.369201397895814,54.9788703918457,1.7793697357177733,0.1483231222257018,0.5234042721567675,0.4103808358078823,7.239373458059211,71.58009900544819,81.58085712633635,3.0158173322518893,0.7859459555285424,-2.478498767605191,0.0585357666015625,1.0301822662353515,-0.3285736083984375,0.12544422862119975,0.5105754371266813,0.3371043399354676,-2.3424967443575615,9.438623240137249,-0.7441863586524897
13.2,-0.37564595540364576,1005.4003651936849,65.92133903503418,-1.0,-1.0,49.18918236990352,85.33133888244629,-1.0,35.0,24.574003219604492,-122.84794719129856,-1.0,0.47371891502181035,0.5611434971301074,-0.22385195993706675,-0.11756689725501537,-0.7752360073056004,0.1831724259846756,-1.2603357277779905,-23.49008388519287,54.127372360229494,4.253906631469727,-0.09840303175151348,-0.06851045661605894,-0.569158822344616,4.406229119551809,70.79815673828125,83.90286174573396,4.249787193332538,1.871350190832466,-3.8317475277052813,0.11487274169921875,1.1310333251953124,-0.4191108703613281,-0.15342114856466652,-0.10576669322326779,-0.678572553320555,-2.9668317880972475,9.332196884690076,-0.32121957946389446
13.3,-0.3752059936523437,1005.4003143310547,65.92133903503418,-1.0,-1.0,49.18918236990352,85.33133888244629,-1.0,35.0,24.574003219604492,-122.84794719129856,-1.0,-0.14588994638205294,0.6032321027406506,-0.19188884814185045,-0.7506233855121696,-0.735410582273458,0.22573195354936912,-1.3213137963866226,-15.614372158050536,55.73871669769287,-0.08341922760009801,-0.7653389489278197,0.08439063492696734,-1.67241217198316,12.535903408652857,72.397265625,79.41000249762284,0.16518859674569253,3.2364294456509497,-1.028511828384846,-0.13286209106445312,1.30196533203125,-0.2115459442138672,-0.7969869836699217,0.14567317063920202,-1.6935016005852956,-1.5887621978041553,9.480537448989674,-0.9816597918675073
13.4,-0.37476603190104163,1005.4002634684246,65.92133903503418,-1.0,-1.0,49.18918236990352,85.33133888244629,-1.0,35.0,24.574003219604492,-122.84794719129856,-1.0,-0.7654988077859162,0.6453207083511939,-0.15992573634663415,-1.3836798737693239,-0.6955851572413156,0.26829148111406265,-1.3822918649952547,-7.738660430908203,57.35006103515625,-4.420745086669922,-1.432274866104126,0.23729172646999364,-2.775665521621704,20.665577697753907,73.99637451171876,74.91714324951172,-3.919409999841153,4.6015087004694335,1.774723870935589,-0.380596923828125,1.4728973388671875,-0.00398101806640625,-1.440552818775177,0.3971130345016718,-2.7084306478500366,-0.2106926075110631,9.628878013289272,-1.64210000427112
13.5,-0.3743260701497395,1005.4002126057943,65.92133903503418,-1.0,-1.0,49.18918236990352,85.33133888244629,-1.0,35.0,24.574003219604492,-122.84794719129856,-1.0,-1.499708751043143,0.6950464075067415,-0.039954194329611996,-2.042419649550621,-0.6352607357493798,0.3297867059621624,-1.1486168826466268,4.461692810058594,53.34231719970703,-15.262120628356934,-1.2836247473955154,-0.6704040309414268,-0.5726773160742595,32.34996193333676,69.83809702019943,64.25553894042969,-3.412957368851024,-1.2783364255847036,2.1384581285427133,-0.15329666137695314,0.7967231750488282,-0.15564193725585937,-1.2589007303118707,-0.7817329294979573,-0.49861912373453376,1.847239459293969,8.91600455665603,-3.549780196002461
13.6,-0.37388610839843744,1005.4001617431641,65.92133903503418,-1.0,-1.0,49.18918236990352,85.33133888244629,-1.0,35.0,24.574003219604492,-122.84794719129856,-1.0,-1.3631718914808513,0.6712350645305541,-0.07676208728608558,-2.022203366941671,-0.6337010478287455,0.3693647939243707,-1.1483694682074943,3.474564753080669,52.12609136481034,-16.12638951853702,-0.5160124393180012,-0.3923826667480171,0.14330542277311908,31.21380534924959,68.68600022165398,63.520129153603,-0.34711412591958846,-0.2626403773015229,0.7069721845867529,0.1319698333740234,0.883333969116211,-0.28507499694824223,-0.4855255361450346,-0.422209822374249,0.18149217471578405,1.7745758663398585,8.922924416739763,-3.588013556110752
13.7,-0.3734461466471354,1005.4001108805339,65.92133903503418,-1.0,-1.0,49.18918236990352,85.33133888244629,-1.0,35.0,24.574003219604492,-122.84794719129856,-1.0,-1.2266350319185595,0.6474237215543668,-0.11356998024255918,-2.001987084332721,-0.6321413599081112,0.40894288188657907,-1.1481220537683616,2.4874366961027445,50.90986552991365,-16.990658408717106,0.2515998687595129,-0.11436130255460737,0.8592881616204977,30.07764876516242,67.53390342310855,62.784719366776315,2.718729117011847,0.753055670981658,-0.7245137593692073,0.417236328125,0.9699447631835938,-0.414508056640625,0.2878496580218014,-0.06268671525054072,0.8616034731661019,1.7019122733857481,8.929844276823495,-3.6262469162190425
13.8,-0.37300618489583326,1005.4000600179037,65.92133903503418,-1.0,-1.0,49.18918236990352,85.33133888244629,-1.0,35.0,24.574003219604492,-122.84794719129856,-1.0,-1.1567040080334379,0.6385195537310376,-0.11878999261874085,-1.9283506235679109,-0.6445208993001521,0.4023588213111517,-1.1650441501600604,0.5712437730086477,50.36923482794511,-16.450673785962557,0.24582893578335643,0.06127024744637312,0.4996408192440867,28.138864818372227,66.89747310437654,63.37400488602488,0.22983188697925305,1.9346280402390421,1.626091227200576,0.14521865844726561,1.1007453918457033,-0.1799552917480469,0.23438290266418144,0.017070818332170987,0.5042805671887962,1.3713964166890829,9.002137405764508,-3.596894471175396
13.9,-0.3725662231445312,1005.4000091552734,65.92133903503418,-1.0,-1.0,49.18918236990352,85.33133888244629,-1.0,35.0,24.574003219604492,-122.84794719129856,-1.0,-1.086772984148316,0.6296153859077085,-0.1240100049949225,-1.8547141628031008,-0.656900438692193,0.3957747607357243,-1.181966246551759,-1.3449491500854491,49.82860412597656,-15.910689163208009,0.24005800280719997,0.2369017974473536,0.13999347686767574,26.20008087158203,66.26104278564453,63.96329040527344,-2.259065343053341,3.116200409496426,3.976696213770359,-0.12679901123046874,1.2315460205078126,0.05459747314453125,0.18091614730656144,0.09682835191488268,0.14695766121149062,1.0408805599924176,9.074430534705519,-3.567542026131749
14.0,-0.37230148315429684,1005.3999938964844,65.92133903503418,-1.0,-1.0,49.18918236990352,85.33133888244629,-1.0,35.0,24.574003219604492,-122.84794719129856,-1.0,-0.9202345474400456,0.6373821234431731,-0.1570139210711687,-1.618753311021321,-0.6794962542527662,0.3227015490209262,-1.3225701201466455,-4.4741795539855955,49.67144927978516,-8.659367752075195,1.0958764255046844,-0.09465311318635941,0.887663877569139,22.85900798596834,66.30449475740132,71.66303935803865,-2.399534486707959,-0.97843338310346,0.8324745482281968,-0.21670303344726563,0.87091064453125,-0.16266860961914062,1.1028628140687942,-0.05681684650480747,0.8766576681286097,0.21913497109990915,9.478260663164109,-2.3461635104503853
14.1,-0.37203674316406243,1005.3999786376953,65.92133903503418,-1.0,-1.0,49.18918236990352,85.33133888244629,-1.0,35.0,24.574003219604492,-122.84794719129856,-1.0,-0.37898400459460346,0.6085824506508329,-0.18433686904264074,-1.0464960224881437,-0.7152747626472842,0.27479072916306246,-1.32079868882004,-9.79019467830658,48.514498233795166,-4.6807661056518555,0.788411352224648,0.3318415984511375,1.0750361270271243,17.478912353515625,65.03162946199116,75.46581067537007,-0.2878777665745691,-0.37965138049170377,-0.08276016741883008,-0.12487297058105469,0.9313053131103516,-0.17955894470214845,0.788740190025419,0.3483812721446157,1.0800111981108784,-0.970768990636159,9.47716122132875,-1.6324832236397637
14.2,-0.3717720031738281,1005.3999633789062,65.92133903503418,-1.0,-1.0,49.18918236990352,85.33133888244629,-1.0,35.0,24.574003219604492,-122.84794719129856,-1.0,0.1622665382508387,0.5797827778584927,-0.21165981701411277,-0.47423873395496646,-0.7510532710418023,0.2268799093051988,-1.3190272574934345,-15.106209802627564,47.357547187805174,-0.7021644592285157,0.48094627894461156,0.7583363100886344,1.2624083764851093,12.098816721062912,63.758764166581,79.26858199270148,1.823778953558821,0.2191306221200525,-0.9979948830658569,-0.03304290771484375,0.9916999816894532,-0.19644927978515625,0.47461756598204374,0.7535793907940388,1.2833647280931473,-2.160672952372227,9.47606177949339,-0.9188029368291423
14.3,-0.37150726318359373,1005.3999481201172,65.92133903503418,-1.0,-1.0,49.18918236990352,85.33133888244629,-1.0,35.0,24.574003219604492,-122.84794719129856,-1.0,0.3557029589011411,0.5617823881783982,-0.2272561058676944,-0.2752014023291795,-0.7662967020886127,0.2062182933503191,-1.2710787021153975,-17.95222818851471,45.58181409835815,0.9428981781005861,0.19833698906004432,0.43771986765787,0.3817079272121191,9.612715550472862,62.05781225907175,80.75412589625309,2.0536083483405503,1.0688537318062037,-2.790901282801051,-0.0737091064453125,1.0669025421142577,-0.3449432373046875,0.22393057676963507,0.45556404888629914,0.4071512686088681,-2.7455549933945105,9.347431044892222,-0.5867186745583918
14.4,-0.3712425231933594,1005.3999328613281,65.92133903503418,-1.0,-1.0,49.18918236990352,85.33133888244629,-1.0,35.0,24.574003219604492,-122.84794719129856,-1.0,0.5491393795514435,0.5437819984983037,-0.24285239472127604,-0.07616407070339251,-0.781540133135423,0.18555667739543938,-1.2231301467373608,-20.798246574401855,43.806081008911136,2.5879608154296876,-0.08427230082452297,0.11710342522710562,-0.49899252206087114,7.126614379882812,60.3568603515625,82.23966979980469,2.2834377431222794,1.9185768414923547,-4.583807682536245,-0.11437530517578125,1.1421051025390625,-0.49343719482421877,-0.026756412442773596,0.1575487069785595,-0.469062190875411,-3.330437034416794,9.218800310291051,-0.2546344122876413
14.5,-0.37097778320312497,1005.3999176025391,65.92133903503418,-1.0,-1.0,49.18918236990352,85.33133888244629,-1.0,35.0,24.574003219604492,-122.84794719129856,-1.0,-0.58030685632136,0.6315728009776361,-0.1596180986741879,-1.183735943956171,-0.7079558477295376,0.25736598403807703,-1.3302644914955581,-9.298845863342285,45.723104286193845,-2.874912643432617,-1.302575471997261,0.6203399170190096,-2.5753648042678834,19.422278153268916,62.51624017012747,76.35734236867805,0.6995589028494431,3.337201472437381,0.6214394592954963,0.00511474609375,1.3069587707519532,-0.098651123046875,-1.2921667754650117,0.5929554240778089,-2.5545772284269335,-0.6200938421847054,9.509194409123063,-1.6230611490764932
14.6,-0.3707130432128906,1005.39990234375,65.92133903503418,-1.0,-1.0,49.18918236990352,85.33133888244629,-1.0,35.0,24.574003219604492,-122.84794719129856,-1.0,-1.0435962198657889,0.6631901912121714,-0.10008134843124691,-1.6369826431447436,-0.6649794633967914,0.3059405142084541,-1.2205219191006653,-3.4451120376586912,45.24484920501709,-7.551470947265624,-0.9868108535185456,-0.3717545827850699,-1.1913809014135042,24.843691374126234,61.907663445723685,71.7874117399517,-1.8902025963306983,0.3860050603673608,2.0666237639141456,-0.11373138427734376,0.9668174743652345,-0.059400177001953124,-1.0074350777082146,-0.3830967207439243,-1.2165799183771016,0.7750769263676115,9.14300367635496,-2.693459398691118
14.7,-0.37044830322265626,1005.3998870849609,65.92133903503418,-1.0,-1.0,49.18918236990352,85.33133888244629,-1.0,35.0,24.574003219604492,-122.84794719129856,-1.0,-1.5068855834102177,0.6948075814467066,-0.0405445981883059,-2.0902293423333163,-0.6220030790640451,0.35451504437883113,-1.1107793467057725,2.4086217880249023,44.766594123840335,-12.228029251098633,-0.6710462350398302,-1.3638490825891494,0.19260300144087522,30.26510459498355,61.2990867213199,67.21748111122533,-4.47996409551084,-2.56519135170266,3.511808068532795,-0.2325775146484375,0.6266761779785156,-0.02014923095703125,-0.7227033799514174,-1.3591488655656576,0.12141739167273044,2.1702476949199285,8.776812943586856,-3.7638576483057435
14.8,-0.37018356323242185,1005.3998718261719,65.92133903503418,-1.0,-1.0,49.18918236990352,85.33133888244629,-1.0,35.0,24.574003219604492,-122.84794719129856,-1.0,-1.4163566452673189,0.6790264936167216,-0.07979164867501344,-2.0841220511454446,-0.6245073920409902,0.3724906185890733,-1.1458567083454338,0.9907515525817872,44.78217248916626,-11.619341087341308,0.006981037370860643,-0.5354888964444399,0.4541781956679188,28.713346059698807,61.370647791812296,68.03222840961658,0.6514558566007764,0.2719582930443436,0.21887251186661416,0.2820747375488281,0.9415676116943359,-0.34984130859375,0.018235521484166406,-0.5519810071215033,0.44916294831782577,1.992161622678302,8.921012930176481,-3.5080342344694584
14.9,-0.3699188232421875,1005.3998565673828,65.92133903503418,-1.0,-1.0,49.18918236990352,85.33133888244629,-1.0,35.0,24.574003219604492,-122.84794719129856,-1.0,-1.32582770712442,0.6632454057867365,-0.11903869916172098,-2.078014759957573,-0.6270117050179352,0.39046619279931544,-1.1809340699850952,-0.42711868286132815,44.797750854492186,-11.010652923583985,0.6850083097815514,0.2928712897002697,0.7157533898949623,27.161587524414063,61.44220886230469,68.84697570800782,5.782875808712393,3.1091079377913475,-3.074063044799566,0.7967269897460938,1.2564590454101563,-0.6795333862304688,0.7591744229197502,0.2551868513226509,0.7769085049629212,1.8140755504366755,9.065212916766106,-3.252210820633173
15.0,-0.3699188232421875,1005.3998496315696,65.92133903503418,-1.0,-1.0,49.18918236990352,85.33133888244629,-1.0,35.0,24.574003219604492,-122.84794719129856,-1.0,-1.2059707761451388,0.6491802207903652,-0.11142569841292956,-1.925946761717515,-0.6501932598823256,0.37759746408930794,-1.191547275770896,-3.0796417236328124,44.08985500335693,-11.18152313232422,0.14647209420800214,0.9647648187354207,0.16848162058740854,24.523888838918584,60.63346300627056,68.45422764828331,-1.6360901036383584,0.36843808791652316,2.7189788124573973,-0.051540374755859375,0.9643051147460937,-0.05224761962890625,0.07832462731748821,0.9079114809632302,0.17959513335954397,1.2657819475336374,9.10835060299888,-3.3917943117902425
15.1,-0.3699188232421875,1005.3998426957564,65.92133903503418,-1.0,-1.0,49.18918236990352,85.33133888244629,-1.0,35.0,24.574003219604492,-122.84794719129856,-1.0,-1.0253097112000686,0.6458894574667207,-0.137790107774079,-1.7155619042166736,-0.6683288963778016,0.33461441634522054,-1.2764419467598116,-5.132572460174561,44.110571193695066,-7.640915489196778,0.4198077264707536,0.10906732575967903,0.611207849252969,22.393870303505345,60.66825906853927,72.09896770276521,-1.2317559346477687,0.2036379571121931,0.5200800172360243,-0.06697845458984375,0.9714927673339844,-0.21032600402832033,0.4107648833654821,0.10526139028370374,0.6094080942100846,0.6226785458077543,9.345384531465097,-2.6363110616025884
15.2,-0.3699188232421875,1005.3998357599432,65.92133903503418,-1.0,-1.0,49.18918236990352,85.33133888244629,-1.0,35.0,24.574003219604492,-122.84794719129856,-1.0,-0.8446486462549985,0.6425986941430761,-0.16415451713522844,-1.505177046715832,-0.6864645328732777,0.29163136860113315,-1.361336617748727,-7.185503196716309,44.1312873840332,-4.100307846069336,0.693143358733505,-0.7466301672160626,1.0539340779185296,20.263851768092106,60.703055130807975,75.74370775724712,-0.827421765657179,0.03883782630786301,-1.6788187779853492,-0.08241653442382812,0.978680419921875,-0.3684043884277344,0.743205139413476,-0.6973887003958226,1.0392210550606251,-0.02042485591812874,9.582418459931313,-1.8808278114149346
15.3,-0.3699188232421875,1005.39982882413,65.92133903503418,-1.0,-1.0,49.18918236990352,85.33133888244629,-1.0,35.0,24.574003219604492,-122.84794719129856,-1.0,-0.4512162556416252,0.6206761052158338,-0.18224043262925577,-1.1098727359691616,-0.7094672386706755,0.27245532376838927,-1.3628838497508757,-10.276660299301147,43.67545471191406,-2.7445997238159183,0.6199984137434512,0.24663322381675246,0.967920806631446,17.260298839368318,60.25540558664422,77.09349541915091,-0.9651440587457268,-0.2905058740303665,-0.12532730183508245,-0.1750415802001953,0.9489395141601562,-0.17414588928222657,0.6189159922301769,0.28105677925050254,0.9393340316601098,-0.7634545737292563,9.590104688971937,-1.5807470925455354
15.4,-0.3699188232421875,1005.3998218883169,65.92133903503418,-1.0,-1.0,49.18918236990352,85.33133888244629,-1.0,35.0,24.574003219604492,-122.84794719129856,-1.0,-0.057783865028251946,0.5987535162885916,-0.2003263481232831,-0.7145684252224911,-0.7324699444680735,0.2532792789356454,-1.3644310817530245,-13.367817401885986,43.21962203979492,-1.3888916015625,0.5468534687533975,1.2398966148495674,0.8819075353443623,14.256745910644531,59.80775604248047,78.44328308105469,-1.1028663518342747,-0.619849574368596,1.4281641743151843,-0.2676666259765625,0.9191986083984375,0.02011260986328125,0.49462684504687787,1.2595022588968277,0.8394470082595944,-1.506484291540384,9.59779091801256,-1.280666373676136
15.5,-0.3699188232421875,1005.3998149525036,65.92133903503418,-1.0,-1.0,49.18918236990352,85.33133888244629,-1.0,35.0,24.574003219604492,-122.84794719129856,-1.0,0.47404967645798346,0.5561374690102315,-0.2400839029830117,-0.17703592893995296,-0.7679950345013187,0.20685011929073038,-1.2654009687383765,-18.86554718017578,41.154828262329104,1.7624584197998048,0.013593680039048183,-0.3526909574866295,0.2687699984759092,8.782709222090872,57.72729974043997,81.48406741493626,2.9059337111203374,1.8148381469200552,-3.7631163064995774,0.009413909912109376,1.1425819396972656,-0.43931121826171876,0.0666988268494606,-0.34054976170882584,0.349563851300627,-2.8972172768621887,9.34881545576185,-0.5003507403116626
15.6,-0.3699188232421875,1005.3998080166904,65.92133903503418,-1.0,-1.0,49.18918236990352,85.33133888244629,-1.0,35.0,24.574003219604492,-122.84794719129856,-1.0,-0.19081846355792476,0.60118312079941,-0.1826878043184288,-0.805400408054286,-0.7312778473563557,0.24027204605912572,-1.2830008242565087,-12.70493769645691,42.37684240341187,-1.581278800964355,-0.6171812383458019,0.26938418978825207,-1.1603435093536976,15.106696279425371,58.9789521066766,78.06005497982628,1.2827319644364343,2.364699525209516,-0.6228475999272147,-0.02313957214355469,1.1974609375,-0.20366363525390627,-0.5919487528502941,0.2643447070382536,-1.1324886071961375,-1.4953819508096782,9.391245914347245,-1.352376199979556
15.7,-0.3699188232421875,1005.3998010808772,65.92133903503418,-1.0,-1.0,49.18918236990352,85.33133888244629,-1.0,35.0,24.574003219604492,-122.84794719129856,-1.0,-0.8556866035738329,0.6462287725885887,-0.1252917056538459,-1.433764887168619,-0.6945606602113928,0.27369397282752106,-1.3006006797746412,-6.544328212738037,43.59885654449463,-4.925016021728515,-1.2479561567306519,0.8914593370631337,-2.589457017183304,21.43068333675987,60.23060447291324,74.63604254471629,-0.3404697822474686,2.9145609034989772,2.517421106645148,-0.05569305419921875,1.2523399353027345,0.03198394775390625,-1.2505963325500489,0.8692391757853329,-2.614541065692902,-0.09354662475716786,9.433676372932641,-2.2044016596474494
15.8,-0.3699188232421875,1005.399794145064,65.92133903503418,-1.0,-1.0,49.18918236990352,85.33133888244629,-1.0,35.0,24.574003219604492,-122.84794719129856,-1.0,-1.2392650383243589,0.6808324913850697,-0.06343077857566778,-1.766222147496089,-0.65701299681605,0.2978679571247977,-1.1968157551841772,-1.3959389209747313,42.954809474945066,-8.188068008422851,-1.251287235154046,-0.0756615940791866,-1.6184372166792553,26.535670953047905,59.54468456067537,71.35671527260229,-2.1541757760259133,0.7880713063455373,2.2944018010435903,-0.11208775838216145,1.0061019473605686,-0.08377761840820314,-1.2413266986608504,-0.07244480284862209,-1.6358043298125269,1.0918122880450798,9.067424294592215,-3.04486801034715
15.9,-0.3699188232421875,1005.3997872092508,65.92133903503418,-1.0,-1.0,49.18918236990352,85.33133888244629,-1.0,35.0,24.574003219604492,-122.84794719129856,-1.0,-1.622843473074885,0.7154362101815508,-0.0015698514974896798,-2.098679407823559,-0.6194653334207071,0.3220419414220743,-1.093030830593713,3.752450370788574,42.31076240539551,-11.451119995117187,-1.25461831357744,-1.0427825252215068,-0.6474174161752065,31.640658569335937,58.8587646484375,68.07738800048828,-3.9678817698043582,-1.3384182908079025,2.0713824954420326,-0.16848246256510416,0.7598639594184028,-0.1995391845703125,-1.2320570647716522,-1.0141287814825772,-0.6570675939321518,2.2771712008473277,8.70117221625179,-3.8853343610468505
16.0,-0.3699188232421875,1005.3997802734376,65.92133903503418,-1.0,-1.0,49.18918236990352,85.33133888244629,-1.0,35.0,24.574003219604492,-122.84794719129856,-1.0,-1.4476187672895402,0.6884909093940649,-0.022073245428581724,-1.998124770069244,-0.63261446690384,0.3508520218682687,-1.0906766793820413,1.9938552856445313,41.542459106445314,-12.596161651611329,0.3253688897937536,0.531363382935524,0.9699962440878153,29.533750835217926,58.17900246068051,67.20743922183388,0.6666856621148438,-0.08667603299483644,0.14976241379626112,0.23208389282226563,0.8493751525878906,-0.33849029541015624,0.329874442727305,0.5933075968176127,0.980042788037099,1.9263620337421632,8.681254428278057,-4.039958564886674
16.1,-0.36780548095703125,1005.3995361328126,65.92133903503418,-1.0,-1.0,49.18918236990352,85.33133888244629,-1.0,35.0,24.574003219604492,-122.84794719129856,-1.0,-1.3340563062176605,0.6737176867488857,-0.018033460050747213,-1.8274848359051874,-0.6638018397231432,0.31848032024083567,-1.1352968686233196,-1.2294685840606687,41.41833848953247,-11.173808097839355,0.3427566966041923,0.6414502865634859,0.5104993680026382,26.40938525952791,58.04654468737151,68.65638417695698,0.16133577916201203,0.07454261528700591,1.6986693970874325,0.1360401153564453,0.9095920562744141,-0.22072067260742187,0.37305969177978116,0.6794515760615468,0.5155138102476485,1.126871938445027,8.871975459928436,-3.8789902600236608
16.2,-0.365692138671875,1005.3992919921876,65.92133903503418,-1.0,-1.0,49.18918236990352,85.33133888244629,-1.0,35.0,24.574003219604492,-122.84794719129856,-1.0,-1.2204938451457807,0.6589444641037064,-0.0139936746729127,-1.656844901741131,-0.6949892125424464,0.28610861861340264,-1.1799170578645979,-4.452792453765869,41.294217872619626,-9.751454544067382,0.3601445034146309,0.7515371901914477,0.051002491917461146,23.28501968383789,57.9140869140625,70.10532913208007,-0.34401410379081965,0.23576126356884827,3.2475763803786037,0.039996337890625,0.9698089599609375,-0.1029510498046875,0.41624494083225727,0.765595555305481,0.05098483245819807,0.3273818431478907,9.062696491578816,-3.7180219551606477
16.3,-0.36357879638671875,1005.3990478515626,65.92133903503418,-1.0,-1.0,49.18918236990352,85.33133888244629,-1.0,35.0,24.574003219604492,-122.84794719129856,-1.0,-1.1726144527821165,0.6624060131689433,-0.021163900047407116,-1.5599761012123161,-0.7052980584793193,0.24689334363067691,-1.2426328891624734,-4.609621572494507,41.459107112884524,-6.893495750427245,0.6075815044343471,0.0938596106134355,0.4753511253278702,23.03850169711643,58.081088935004345,73.08037367926704,-2.1346743429942054,0.9106481477352232,1.5654663861346616,-0.20815582275390626,1.04954833984375,-0.17860641479492187,0.5951779996976256,0.05186322182416914,0.506970318313688,0.03238949116076373,9.262003784462511,-3.133339131984785
16.4,-0.3614654541015625,1005.3988037109376,65.92133903503418,-1.0,-1.0,49.18918236990352,85.33133888244629,-1.0,35.0,24.574003219604492,-122.84794719129856,-1.0,-1.1247350604184523,0.6658675622341801,-0.02833412542190153,-1.4631073006835014,-0.7156069044161921,0.2076780686479512,-1.305348720460349,-4.766450691223144,41.623996353149415,-4.0355369567871096,0.8550185054540634,-0.5638179689645767,0.8996997587382793,22.791983710394966,58.24809095594618,76.055418226454,-3.9253345821975913,1.585535031901598,-0.11664360810928047,-0.4563079833984375,1.1292877197265625,-0.25426177978515624,0.774111058562994,-0.6618691116571427,0.962955804169178,-0.26260286082636325,9.461311077346206,-2.5486563088089227
16.5,-0.35935211181640625,1005.3985595703126,65.92133903503418,-1.0,-1.0,49.18918236990352,85.33133888244629,-1.0,35.0,24.574003219604492,-122.84794719129856,-1.0,-0.6013328461286033,0.617528998754657,0.01707352049536657,-0.7212311278443894,-0.7751481959317326,0.10079887191458099,-1.28572363084291,-9.609330749511718,40.68339080810547,0.6551849365234375,0.2607938693836331,2.215961004421115,0.9259347690269351,18.05172488563939,57.278676886307565,80.3850820440995,1.1274500857924297,-0.271710850315392,-0.6011475261666999,-0.09516067504882812,0.9193367004394531,-0.24279708862304689,0.27654711622744793,2.1967804711312056,0.9181116556283087,-2.0352041633604836,9.40639068653941,-1.699403341038432
16.6,-0.35723876953125,1005.3983154296876,65.92133903503418,-1.0,-1.0,49.18918236990352,85.33133888244629,-1.0,35.0,24.574003219604492,-122.84794719129856,-1.0,-0.4351920943478793,0.5915706059847041,0.03576623379609435,-0.45993833506784604,-0.7988362726846274,0.05317160686401147,-1.2400275930025126,-11.647553157806396,39.56469879150391,3.0590675354003904,0.03165100086480377,1.2623024955391884,0.3101263866759836,16.08828424152575,56.16973967301218,82.7793379733437,2.905819645326827,0.8546704006691277,-2.0764728974765445,-0.0006519317626953042,1.021499252319336,-0.33634643554687504,0.010577224753797021,1.2430335247889162,0.2432967294706032,-2.7807936499128303,9.261953807840943,-1.1978446871550474
16.7,-0.35512542724609375,1005.3980712890626,65.92133903503418,-1.0,-1.0,49.18918236990352,85.33133888244629,-1.0,35.0,24.574003219604492,-122.84794719129856,-1.0,-0.26905134256715535,0.5656122132147511,0.05445894709682214,-0.19864554229130268,-0.8225243494375224,0.00554434181344194,-1.1943315551621152,-13.685775566101075,38.446006774902344,5.462950134277344,-0.19749186765402554,0.30864398665726184,-0.3056819956749678,14.12484359741211,55.0608024597168,85.1735939025879,4.684189204861224,1.9810516516536474,-3.5517982687863894,0.0938568115234375,1.1236618041992188,-0.42989578247070315,-0.2553926667198539,0.28928657844662664,-0.43151819668710234,-3.5263831364651765,9.117516929142473,-0.6962860332716628
16.8,-0.3530120849609375,1005.3978271484376,65.92133903503418,-1.0,-1.0,49.18918236990352,85.33133888244629,-1.0,35.0,24.574003219604492,-122.84794719129856,-1.0,-0.7930883808594155,0.6202716069350797,0.08755557443666473,-0.6890450263192833,-0.773900753733129,0.014830267677632389,-1.2621842926560078,-8.419659614562988,39.243919372558594,3.3824153900146485,-0.761169425304979,0.6308273692615329,-1.9160124203190207,19.783205456203884,55.87686983744304,82.95822554694283,1.5166882317164543,3.961822645121962,0.038604958266904355,-0.042964935302734375,1.3521804809570312,-0.13594932556152345,-0.7928987662307918,0.7247574243694543,-1.9560112116858366,-2.180824726570442,9.319655733738093,-1.3278787510421313
16.9,-0.35089874267578125,1005.3975830078126,65.92133903503418,-1.0,-1.0,49.18918236990352,85.33133888244629,-1.0,35.0,24.574003219604492,-122.84794719129856,-1.0,-1.3171254191516755,0.6749310006554082,0.12065220177650733,-1.179444510347264,-0.7252771580287358,0.024116193541822838,-1.3300370301499005,-3.1535436630249025,40.041831970214844,1.3018806457519532,-1.3248469829559326,0.9530107518658042,-3.526342844963074,25.44156731499566,56.69293721516927,80.74285719129774,-1.6508127414283156,5.942593638590276,3.629008185320198,-0.17978668212890625,1.5806991577148437,0.15799713134765625,-1.3304048657417298,1.1602282702922821,-3.4805042266845705,-0.8352663166757074,9.521794538333713,-1.9594714688125996
17.0,-0.348785400390625,1005.3973388671876,65.92133903503418,-1.0,-1.0,49.18918236990352,85.33133888244629,-1.0,35.0,24.574003219604492,-122.84794719129856,-1.0,-2.399374090525411,0.7705016508177589,0.25463164749799533,-2.0124474204962,-0.5817751585766155,-0.01027208139217256,-1.1275010311786002,9.486361408233643,37.699348831176756,-4.823500442504883,-1.0901685506105423,0.22088490705937147,-1.4182455625385046,37.25949739155016,54.32860926577919,74.83521873072574,-2.7758135489855333,-1.1251619675487279,2.303880504818186,-0.09539031982421875,0.8148681640625,-0.14743194580078126,-1.0613317325711251,0.07028566617518664,-1.3489527439698576,1.8582883423012586,8.82591006429374,-3.7295976951465755
17.1,-0.3464073181152344,1005.3970336914064,65.92133903503418,-1.0,-1.0,49.18918236990352,85.33133888244629,-1.0,35.0,24.574003219604492,-122.84794719129856,-1.0,-2.351162838080619,0.7729147109935834,0.2381647296426758,-2.026104237210208,-0.5849318746098039,0.015445514603510492,-1.1168636339229159,9.313415861129762,37.356685161590576,-4.63568115234375,-0.38138057524338365,0.179895643889904,-0.17449093395844106,37.00000893442254,53.99597844575581,75.07899204053376,-0.15850201338754966,-0.20726900709092622,1.1171493414849043,0.1683940887451172,0.8783451080322265,-0.26308441162109375,-0.36915318290703003,0.12679840624332428,-0.1403558288235216,1.946091593794315,8.786288613327518,-3.7839906937718766
17.2,-0.34402923583984374,1005.3967285156251,65.92133903503418,-1.0,-1.0,49.18918236990352,85.33133888244629,-1.0,35.0,24.574003219604492,-122.84794719129856,-1.0,-2.302951585635827,0.7753277711694079,0.22169781178735626,-2.0397610539242157,-0.5880885906429922,0.041163110599193545,-1.1062262366672317,9.14047031402588,37.014021492004396,-4.447861862182617,0.327407400123775,0.13890638072043654,1.0692636946216225,36.74052047729492,53.66334762573242,75.3227653503418,2.458809522210434,0.7106239533668756,-0.06958182184837743,0.4321784973144531,0.9418220520019531,-0.37873687744140627,0.32302536675706506,0.18331114631146192,1.0682410863228142,2.0338948452873713,8.746667162361295,-3.8383836923971772
17.3,-0.3416511535644531,1005.3964233398439,65.92133903503418,-1.0,-1.0,49.18918236990352,85.33133888244629,-1.0,35.0,24.574003219604492,-122.84794719129856,-1.0,-2.2268822268904227,0.7581464448205206,0.228541224305974,-1.9361473004752494,-0.6083469713575982,0.028364030210403908,-1.1428227751024727,7.100581455230714,37.14855012893677,-3.7823102951049803,0.24360787672922013,0.4589227934367955,0.5503938083536922,34.76891644795735,53.77173813713921,75.95140647888184,-0.06633586585035545,1.6408131793309746,2.1747980882332847,0.16801948547363282,1.0842281341552735,-0.17115936279296876,0.2624056984204799,0.5447429524734616,0.5487429428379983,1.5012783076087106,8.905772778624968,-3.7254476189558954
17.4,-0.3392730712890625,1005.3961181640626,65.92133903503418,-1.0,-1.0,49.18918236990352,85.33133888244629,-1.0,35.0,24.574003219604492,-122.84794719129856,-1.0,-2.1508128681450183,0.7409651184716335,0.23538463682459176,-1.8325335470262831,-0.628605352072204,0.015564949821614271,-1.1794193135377138,5.060692596435547,37.28307876586914,-3.1167587280273437,0.15980835333466528,0.7789392061531544,0.031523922085762025,32.79731241861979,53.880128648546005,76.58004760742188,-2.591481253911145,2.571002405295074,4.419177998314947,-0.0961395263671875,1.2266342163085937,0.03641815185546875,0.20178603008389473,0.9061747586354614,0.029244799353182284,0.9686617699300497,9.06487839488864,-3.612511545514613
17.5,-0.3368949890136719,1005.3958129882814,65.92133903503418,-1.0,-1.0,49.18918236990352,85.33133888244629,-1.0,35.0,24.574003219604492,-122.84794719129856,-1.0,-1.983237543009518,0.7019269596414799,0.2474924751369428,-1.5190223090403219,-0.6617827839762523,-0.07482488833284336,-1.3122479892214787,4.113678073883056,36.991689682006836,0.7196327209472656,1.0148894309997558,0.39854482710361483,0.835543405637145,31.963184557462995,53.60808683696546,80.39754847476357,-2.1535296478123427,-0.9153910898655653,0.2886916934413462,-0.2492828369140625,0.8547027587890625,-0.20050430297851562,1.0100495784543455,0.3455637313425541,0.8423391362652183,-0.014659451244822652,9.458104331807196,-2.4376372771961985
17.6,-0.3345169067382812,1005.3955078125,65.92133903503418,-1.0,-1.0,49.18918236990352,85.33133888244629,-1.0,35.0,24.574003219604492,-122.84794719129856,-1.0,-1.611716952471112,0.6598830021169636,0.2598968995565687,-1.0868223053582953,-0.692923418458711,-0.1034642007823649,-1.314526952873778,1.6754549503326412,37.00486946105957,2.4599901199340817,0.6372964442241937,0.8155045059509576,0.7887027340009809,29.438893227828178,53.6125749889173,82.16908101533588,-0.5434089445821859,-0.5527292472629248,0.2317698284456599,-0.16431312561035155,0.8978160858154297,-0.16523513793945313,0.6445849878713489,0.7766787720844148,0.7953091039322318,-0.9808894821140426,9.472147718628719,-1.9212456515362857
17.7,-0.33213882446289056,1005.3952026367188,65.92133903503418,-1.0,-1.0,49.18918236990352,85.33133888244629,-1.0,35.0,24.574003219604492,-122.84794719129856,-1.0,-1.2401963619327059,0.6178390445924473,0.27230132397619455,-0.6546223016762687,-0.7240640529411697,-0.13210351323188646,-1.3168059165260775,-0.7627681732177735,37.018049240112305,4.200347518920898,0.25970345744863155,1.2324641847983002,0.7418620623648167,26.91460189819336,53.61706314086914,83.9406135559082,1.0667117586479709,-0.1900674046602845,0.1748479634499736,-0.07934341430664063,0.9409294128417969,-0.12996597290039064,0.27912039728835225,1.2077938128262757,0.7482790715992451,-1.9471195129832624,9.486191105450242,-1.4048540258763729
17.8,-0.32976074218749996,1005.3948974609375,65.92133903503418,-1.0,-1.0,49.18918236990352,85.33133888244629,-1.0,35.0,24.574003219604492,-122.84794719129856,-1.0,-1.0387639765588834,0.5873313195802252,0.27713036300630567,-0.41836260763046207,-0.7436740325172373,-0.14940056971246463,-1.2757699334640313,-2.4903573989868164,36.38885097503662,5.385499763488769,0.2332874104846269,0.6546458733268082,0.5304305296391248,25.18693470425076,52.984061050415036,85.13535177442762,2.1735959203290753,0.5662644945926963,-2.5709416497245337,-0.03468132019042969,1.0080036163330077,-0.35624809265136714,0.20428768643178047,0.6741214694455265,0.5048141628503799,-2.5635963229831304,9.371972970922215,-0.9944809237814135
17.9,-0.32738265991210935,1005.3945922851562,65.92133903503418,-1.0,-1.0,49.18918236990352,85.33133888244629,-1.0,35.0,24.574003219604492,-122.84794719129856,-1.0,-0.8373315911850607,0.556823594568003,0.2819594020364168,-0.18210291358465552,-0.7632840120933049,-0.1666976261930428,-1.234733950401985,-4.217946624755859,35.75965270996094,6.570652008056641,0.20687136352062224,0.07682756185531617,0.3189989969134331,23.45926751030816,52.35105895996094,86.33008999294705,3.28048008201018,1.3225963938456773,-5.316731262899041,0.00998077392578125,1.0750778198242188,-0.5825302124023437,0.12945497557520866,0.14044912606477739,0.2613492541015148,-3.180073132982999,9.25775483639419,-0.5841078216864541
18.0,-0.3250045776367187,1005.394287109375,65.92133903503418,-1.0,-1.0,49.18918236990352,85.33133888244629,-1.0,35.0,24.574003219604492,-122.84794719129856,-1.0,-1.819173154919768,0.6392768982904284,0.32048822057291737,-1.0638936873831875,-0.6644228281638211,-0.1966500045904324,-1.3253741946169721,4.293293802361739,34.80850279958624,2.936844273617393,-1.239712005853653,1.0385842310264706,-2.5502824440598486,32.76046981811523,51.22232894897461,82.16938247680665,1.4066093727989806,4.187689036002128,0.0348739064951084,0.04857025146484375,1.3850433349609375,-0.16121063232421876,-1.246489942073822,0.9730629697442055,-2.610846643385134,-0.9637058041807656,9.497638503656889,-1.4899341756729703
18.1,-0.3230228424072265,1005.3940455118815,65.92133903503418,-1.0,-1.0,49.18918236990352,85.33133888244629,-1.0,35.0,24.574003219604492,-122.84794719129856,-1.0,-2.3992332151102045,0.6952750685452148,0.35756014371317446,-1.5685839985529486,-0.5744097376970141,-0.2019159836778922,-1.2151454425367065,9.581177445461876,32.498016086377596,-1.4070325751053656,-1.109089789853897,0.04925990914925926,-1.4094131093472242,37.74062502007735,48.93690669411107,77.98866647419177,-1.3671249251112374,1.0395389807333641,1.3213531015578206,-0.08304672241210936,1.0252307891845702,-0.1398143768310547,-1.135217723995447,0.07424062164500356,-1.4894141571841348,0.5877068846661588,9.120164099570765,-2.6625956886932958
18.2,-0.3210411071777343,1005.3938039143881,65.92133903503418,-1.0,-1.0,49.18918236990352,85.33133888244629,-1.0,35.0,24.574003219604492,-122.84794719129856,-1.0,-2.979293275300641,0.7512732388000012,0.3946320668534315,-2.0732743097227098,-0.4843966472302069,-0.207181962765352,-1.1049166904564411,14.869061088562011,30.187529373168946,-5.750909423828125,-0.978467573854141,-0.940064412727952,-0.26854377463459966,42.72078022203947,46.65148443924753,73.80795047157689,-4.140859223021455,-2.1086110745353994,2.6078322966205327,-0.2146636962890625,0.6654182434082031,-0.11841812133789062,-1.0239455059170723,-0.8245817264541984,-0.3679816709831357,2.1391195735130832,8.74268969548464,-3.8352572017136213
18.3,-0.31905937194824213,1005.3935623168945,65.92133903503418,-1.0,-1.0,49.18918236990352,85.33133888244629,-1.0,35.0,24.574003219604492,-122.84794719129856,-1.0,-2.8675803421261206,0.759414348195903,0.36587650440906994,-2.0712253118601405,-0.5069689127773633,-0.16686170101632958,-1.1108823593627775,13.655443668365479,30.37105598449707,-4.966042709350585,0.013582291139755287,-0.6542710090056062,0.5134244492277503,41.22916113424022,46.98846025076526,74.81926352517647,-1.6400060532393868,-1.44203512717925,3.0540677565297853,0.06880569458007812,0.7617305755615233,-0.09613075256347656,-0.01829105913639073,-0.662316355202347,0.4996230895631014,2.102479750439841,8.772676632886679,-3.7985335180155184
18.4,-0.31707763671874994,1005.3933207194011,65.92133903503418,-1.0,-1.0,49.18918236990352,85.33133888244629,-1.0,35.0,24.574003219604492,-122.84794719129856,-1.0,-2.7558674089516004,0.767555457591805,0.3371209419647083,-2.0691763139975707,-0.5295411783245199,-0.12654143926730715,-1.1168480282691138,12.441826248168946,30.554582595825195,-4.181175994873047,1.0056321561336516,-0.36847760528326035,1.2953926730901002,39.73754204644097,47.32543606228299,75.83057657877605,0.8608471165426821,-0.7754591798231006,3.5003032164390375,0.35227508544921876,0.8580429077148437,-0.0738433837890625,0.9873633876442909,-0.5000509839504957,1.3672278501093387,2.065839927366599,8.802663570288718,-3.761809834317416
18.5,-0.31509590148925776,1005.3930791219076,65.92133903503418,-1.0,-1.0,49.18918236990352,85.33133888244629,-1.0,35.0,24.574003219604492,-122.84794719129856,-1.0,-2.6255576583160636,0.7419835435098278,0.3319459559997533,-1.9462424714617341,-0.5673734524673674,-0.1307130160933346,-1.1913616418673647,8.826981735229491,31.11042537689209,-3.059611511230469,0.0933845059480518,0.25152485370635985,0.24972721338272094,36.518855285644534,47.76897201538086,76.68799362182617,0.4819519758588077,2.496653003718704,-0.8216488009724019,0.15739669799804687,1.16246337890625,-0.40395355224609375,0.07258579628542064,0.183704936504364,0.2389916844666004,1.328558312537819,9.108491648130864,-3.375558734073638
18.6,-0.3131141662597656,1005.3928375244142,65.92133903503418,-1.0,-1.0,49.18918236990352,85.33133888244629,-1.0,35.0,24.574003219604492,-122.84794719129856,-1.0,-2.4573385717531355,0.7196156552560901,0.30302203932708965,-1.7972899773120816,-0.6017471476408428,-0.1493955489631813,-1.2858631873227755,7.263883924484253,31.809541511535645,-0.47973995208740217,0.5422769690165296,-0.28560863602906467,0.7091326804831624,34.78573058278937,48.50000307183517,79.43954172636333,-0.8899639820379732,1.037901909507811,-0.6224348160486108,-0.019305801391601568,1.0537490844726562,-0.31301727294921877,0.5487410862464458,-0.3139258928596974,0.6950345048215241,0.8158672233233313,9.355144293457194,-2.5301750509644387
18.7,-0.31113243103027344,1005.3925959269206,65.92133903503418,-1.0,-1.0,49.18918236990352,85.33133888244629,-1.0,35.0,24.574003219604492,-122.84794719129856,-1.0,-2.2891194851902075,0.6972477670023524,0.274098122654426,-1.6483374831624293,-0.6361208428143182,-0.16807808183302803,-1.3803647327781863,5.700786113739014,32.5086576461792,2.100131607055664,0.9911694320850074,-0.8227421257644891,1.1685381475836039,33.05260587993421,49.23103412828947,82.1910898309005,-2.2618799399347544,-0.42084918470308175,-0.4232208311248198,-0.19600830078125,0.9450347900390625,-0.22208099365234374,1.024896376207471,-0.8115567222237587,1.1510773251764477,0.30317613410884336,9.601796938783526,-1.6847913678552395
18.8,-0.30915069580078125,1005.3923543294271,65.92133903503418,-1.0,-1.0,49.18918236990352,85.33133888244629,-1.0,35.0,24.574003219604492,-122.84794719129856,-1.0,-1.7145168845885759,0.6614387746965465,0.2664372233694893,-1.093973760638149,-0.6774007102097555,-0.16267634718171325,-1.3776265712429168,2.3322206020355223,33.010020160675055,3.3922735214233395,0.5759255980607122,-0.06993543822318316,0.9930048296228051,29.727710478487072,49.677314312137355,83.29839356182612,0.0231215635250539,-0.17899677926532923,-0.25620416774196547,-0.06454849243164062,0.9648910522460938,-0.160797119140625,0.5710514841601253,-0.005385765433311485,1.0094905292149634,-0.6685571061556886,9.60925207709506,-1.3200446032574307
18.9,-0.30716896057128906,1005.3921127319337,65.92133903503418,-1.0,-1.0,49.18918236990352,85.33133888244629,-1.0,35.0,24.574003219604492,-122.84794719129856,-1.0,-1.1399142839869443,0.6256297823907407,0.2587763240845526,-0.5396100381138687,-0.7186805776051927,-0.15727461253039846,-1.374888409707647,-1.0363449096679687,33.5113826751709,4.684415435791015,0.16068176403641699,0.6828712493181228,0.8174715116620064,26.402815077039932,50.123594495985245,84.40569729275174,2.308123066984862,0.06285562617242331,-0.08918750435911113,0.06691131591796876,0.984747314453125,-0.09951324462890625,0.11720659211277962,0.8007851913571358,0.867903733253479,-1.6402903464202208,9.616707215406596,-0.9552978386596218
19.0,-0.3051872253417969,1005.3918711344402,65.86118392944336,-1.0,-1.0,49.189185464664725,85.27118377685547,-1.0,35.0,24.578503799438476,-122.84794291897134,-1.0,-0.7016314934303243,0.5911858986749994,0.23416090734032968,-0.12441266425173733,-0.753526623728662,-0.16511704209540098,-1.3189566130515835,-4.810152626037597,33.00373802185059,6.7052967071533205,0.34286569245159626,-0.24660135470330716,0.2736068043857813,22.83948745727539,49.652487182617186,86.43518905639648,1.3590876351078225,1.050511157259941,-2.3439548944902047,-0.10222549438476562,1.0806190490722656,-0.2738250732421875,0.3753579262876883,-0.2659823136404157,0.31140294801443813,-2.413479045947641,9.494338522261828,-0.27916974098346425
19.1,-0.3032054901123047,1005.3916295369468,65.80102882385253,-1.0,-1.0,49.18918855942593,85.21102867126464,-1.0,35.0,24.583004379272463,-122.84793864664411,-1.0,-1.3575237433186533,0.6429621164780837,0.2341325110533302,-0.7957247830740989,-0.7063368718537834,-0.15516575734896837,-1.3447000539368288,-2.112567663192749,34.42556877136231,5.320534706115723,-0.4898993602022529,-0.08198592636326793,-1.0545215068385003,25.918643891183955,51.17706684313322,84.87034625003213,0.2988911620249599,1.8619407035827633,-1.9724930857981182,-0.08558731079101561,1.1637298583984375,-0.2846061706542969,-0.46041763852117584,-0.08844792144373059,-1.0420901798643172,-1.137782009091206,9.538656548159494,-0.7943622215849869
19.2,-0.3012237548828125,1005.3913879394532,65.74087371826172,-1.0,-1.0,49.18919165418713,85.15087356567383,-1.0,35.0,24.587504959106447,-122.84793437431689,-1.0,-2.013415993206982,0.694738334281168,0.2341041147663307,-1.4670369018964604,-0.6591471199789047,-0.14521447260253578,-1.3704434948220743,0.5850172996520996,35.84739952087402,3.935772705078125,-1.322664412856102,0.0826295019767713,-2.382649818062782,28.997800325092516,52.70164650364926,83.30550344366776,-0.7613053110579028,2.673370249905586,-1.6010312771060318,-0.06894912719726562,1.2468406677246093,-0.29538726806640625,-1.29619320333004,0.0890864707529545,-2.3955833077430726,0.13791502776522888,9.582974574057161,-1.3095547021865097
19.3,-0.29910964965820314,1005.3911361694337,65.6807186126709,-1.0,-1.0,49.18919474894833,85.09071846008301,-1.0,35.0,24.592005538940434,-122.84793010198966,-1.0,-2.355477127166079,0.739897286576287,0.25502370582018796,-1.8249971749666258,-0.6037390139956942,-0.11015040668890005,-1.2491799180297627,4.4675452709198,37.29674072265625,-0.03699493408203125,-1.451285992562771,-0.8555839806009317,-1.2800917002372443,32.706923996774776,54.14298938951994,79.15218790957802,-2.8468907349179866,0.6832672767901418,-0.339732546707578,-0.1654376983642578,1.0044895172119142,-0.27140274047851565,-1.4553695186972617,-0.792932465299964,-1.3197352111339569,1.275636063916817,9.217546013994067,-2.3724863577738775
19.4,-0.2969955444335937,1005.3908843994142,65.62056350708008,-1.0,-1.0,49.189197843709536,85.03056335449219,-1.0,35.0,24.596506118774418,-122.84792582966244,-1.0,-2.697538261125176,0.7850562388714057,0.2759432968740453,-2.1829574480367913,-0.5483309080124836,-0.07508634077526433,-1.1279163412374509,8.3500732421875,38.74608192443848,-4.009762573242187,-1.5799075722694398,-1.7937974631786346,-0.17753358241170644,36.41604766845703,55.58433227539062,74.99887237548828,-4.932476158778071,-1.306835696325302,0.9215661836908756,-0.26192626953125,0.7621383666992188,-0.247418212890625,-1.6145458340644836,-1.6749514013528823,-0.2438871145248413,2.413357100068405,8.852117453930974,-3.4354180133612453
19.5,-0.29488143920898435,1005.3906326293946,65.9183586968316,-0.8266666664017571,5.812706032890309,49.18920175021944,85.32835854424371,24.57986111111111,31.590212353913945,23.196894327799484,-122.84792887562168,-0.8377777768505944,-2.4371388829269547,0.7909001193533107,0.18905842377883478,-2.2103404456634177,-0.5789389518733014,0.03325103598386504,-1.1318352399112062,6.432704830169678,41.68950157165527,-5.967470169067383,0.4670210724696517,-0.8641474813222885,1.0258545592427253,33.85879034745066,58.514185052169,73.84549351742393,-0.34264333420079207,-0.18167767429932943,2.5361876970234514,0.2312286376953125,0.8977592468261719,-0.10400924682617188,0.4545600038021803,-0.9726907551288605,1.025197686254978,2.4963173785561694,8.85039352352172,-3.3175503652692955
19.6,-0.292767333984375,1005.3903808593751,66.21615388658311,-0.6533333328035142,12.625412065780617,49.18920565672935,85.62615373399522,50.15972222222222,28.180424707827886,21.797282536824547,-122.84793192158091,-0.6755555537011888,-2.3236557780457003,0.7744137309459389,0.1741984321417897,-2.1288923139087528,-0.6045893698157208,0.03970621340507707,-1.179111316054723,4.4475297927856445,43.921655273437494,-6.1292627334594725,0.22569077620282768,-0.5174751016311347,0.653923474252224,32.06015898052015,60.73536682128906,73.50985798082854,-0.8075161174724437,0.43277826817132536,1.2566884674305467,0.12040023803710936,0.9655036926269531,-0.1887989044189453,0.19235389081295579,-0.5774323180317879,0.6541146385483443,2.0026940422368047,9.039551178312898,-3.128886770298853
19.7,-0.2906532287597656,1005.3901290893556,66.51394907633464,-0.47999999920527137,19.438118098670927,49.18920956323925,85.92394892374675,75.73958333333333,24.77063706174183,20.397670745849613,-122.84793496754014,-0.5133333305517832,-2.2101726731644455,0.757927342538567,0.15933844050474463,-2.0474441821540883,-0.6302397877581403,0.0461613908262891,-1.2263873921982398,2.4623547554016114,46.153808975219725,-6.291055297851562,-0.015639520063996305,-0.17080272193998103,0.28199238926172254,30.26152761358964,62.95654859040913,73.17422244423314,-1.2723889007440954,1.0472342106419803,-0.022810762162357712,0.009571838378906244,1.0332481384277343,-0.27358856201171877,-0.06985222217626871,-0.18217388093471526,0.2830315908417106,1.5090707059174402,9.228708833104074,-2.940223175328411
19.8,-0.2885391235351562,1005.3898773193359,66.81174426608615,-0.3066666656070285,26.250824131561235,49.189213469749156,86.22174411349826,101.31944444444444,21.36084941565577,18.998058954874676,-122.84793801349937,-0.3511111074023776,-2.251249231335251,0.7532743625022806,0.13294673305599788,-2.107973352338953,-0.6417848622811437,0.032928464999028795,-1.2861291638705792,2.9432162761688234,47.640639305114746,-4.368893051147461,0.6228473452851176,-0.7223173963837326,0.5009835395961999,30.62548273990029,64.4073247407612,75.49096788105211,-3.2193543849029016,0.7466278129708768,0.024048721072524665,-0.19449539184570314,1.0279186248779295,-0.23633346557617188,0.6147602135082707,-0.6427566811442376,0.43349261498078706,1.3522213478012195,9.390466702829151,-2.378985400936976
19.9,-0.28642501831054684,1005.3896255493164,67.10953945583768,-0.1333333320087856,33.06353016445154,49.189217376259066,86.51953930324979,126.89930555555556,17.951061769569716,17.598447163899742,-122.84794105945859,-0.188888884252972,-2.292325789506056,0.7486213824659943,0.10655502560725112,-2.168502522523818,-0.6533299368041473,0.01969553917176848,-1.3458709355429186,3.424077796936035,49.12746963500977,-2.4467308044433596,1.2613342106342316,-1.2738320708274842,0.7199746899306774,30.989437866210938,65.85810089111328,77.80771331787109,-5.166319869061708,0.4460214152997731,0.07090820430740705,-0.3985626220703125,1.022589111328125,-0.199078369140625,1.2993726491928101,-1.1033394813537598,0.5839536391198635,1.195371989684999,9.55222457255423,-1.817747626545541
