seconds_elapsed_rounded,accelerometer_time,accelerometer_seconds_elapsed,accelerometer_z,accelerometer_y,accelerometer_x,accelerometeruncalibrated_time,accelerometeruncalibrated_seconds_elapsed,accelerometeruncalibrated_z,accelerometeruncalibrated_y,accelerometeruncalibrated_x,gravity_time,gravity_seconds_elapsed,gravity_z,gravity_y,gravity_x,gyroscope_time,gyroscope_seconds_elapsed,gyroscope_z,gyroscope_y,gyroscope_x,gyroscopeuncalibrated_time,gyroscopeuncalibrated_seconds_elapsed,gyroscopeuncalibrated_z,gyroscopeuncalibrated_y,gyroscopeuncalibrated_x,location_time,location_seconds_elapsed,location_bearingAccuracy,location_speedAccuracy,location_verticalAccuracy,location_horizontalAccuracy,location_speed,location_bearing,location_altitude,location_longitude,location_latitude,magnetometer_time,magnetometer_seconds_elapsed,magnetometer_z,magnetometer_y,magnetometer_x,magnetometeruncalibrated_time,magnetometeruncalibrated_seconds_elapsed,magnetometeruncalibrated_z,magnetometeruncalibrated_y,magnetometeruncalibrated_x,orientation_time,orientation_seconds_elapsed,orientation_qz,orientation_qy,orientation_qx,orientation_qw,orientation_roll,orientation_pitch,orientation_yaw,totalacceleration_time,totalacceleration_seconds_elapsed,totalacceleration_z,totalacceleration_y,totalacceleration_x
0.1,1.6893057726124462e+18,0.1254462890625,-0.15423425038655594,-0.038304328918457,-0.012819290161132799,1.6893057725951416e+18,0.10814154052734375,2.255683958530426,9.461519718170166,-0.32437702268362045,1.68930577261244e+18,0.1254400634765625,2.322848320007324,9.523390769958496,-0.38145701587200165,1.6893057725908165e+18,0.1038165283203125,0.04225151333957905,-0.03909537477496389,-0.011962777624527599,1.6893057725951442e+18,0.108144140625,0.044318273663520744,-0.027091873995959758,-0.00855211336165666,,,,,,,,,,,,1.689305772592555e+18,0.10555499267578125,-16.50202488899231,-45.294023513793945,-13.662474751472473,1.689305772592555e+18,0.10555499267578125,-284.7922172546387,47.596773624420166,-156.463472366333,1.689305772621097e+18,0.13409704589843752,-0.46728961169719696,-0.3477087765932083,0.5114682018756866,0.6317747235298157,0.16305248439311976,-1.3303289413452148,1.4016925692558289,1.6893057725951442e+18,0.108144140625,2.2402801513671875,9.46923656463623,-0.38129628300666807
0.2,1.689305772690299e+18,0.20329886881510417,-0.057015458742777525,-0.006069978078206366,-0.051550313830375616,1.689305772681647e+18,0.19464725748697917,2.262513518333435,9.503593603769938,-0.36281172931194305,1.689305772681647e+18,0.19464725748697917,2.3304882446924844,9.521928151448568,-0.3711052536964416,1.6893057726859735e+18,0.1989736328125,0.006597344801411919,-0.006322455307235899,-0.03078760853968558,1.689305772690299e+18,0.20329886881510417,0.007610362782240016,0.0012980887937980498,-0.023365595067540768,,,,,,,,,,,,1.689305772683005e+18,0.196005029296875,-16.477319717407227,-45.32055931091308,-13.811619758605957,1.689305772683005e+18,0.196005029296875,-284.76751708984375,47.5702392578125,-156.61261901855468,1.689305772690299e+18,0.20329886881510417,-0.4673029234011968,-0.3477734128634135,0.510881503423055,0.6322036484877268,0.15853071957826612,-1.3293518821398418,1.3973917563756306,1.689305772690299e+18,0.20329886881510417,2.2750757932662964,9.515358289082846,-0.4214358925819397
0.30000000000000004,1.689305772785453e+18,0.298453076171875,-0.00789308547973632,0.0030431747436523403,-0.04229651093482966,1.6893057727854523e+18,0.29845235188802083,2.3675983349482217,9.509476025899252,-0.3396811137596765,1.6893057727854523e+18,0.29845235188802083,2.3539443413416543,9.516502221425375,-0.36211598416169477,1.6893057727811305e+18,0.2941302490234375,0.012522737650821533,-0.006872233624259633,-0.027183503378182598,1.689305772785453e+18,0.298453076171875,0.01078177168965332,-0.0036957345495466005,-0.02626720545813438,,,,,,,,,,,,1.689305772783505e+18,0.2965050537109375,-16.733519554138184,-45.1985595703125,-14.028779697418212,1.689305772783505e+18,0.2965050537109375,-285.0237121582031,47.69223861694336,-156.82977905273438,1.689305772785453e+18,0.298453076171875,-0.46730112433433535,-0.34740884304046626,0.5101278066635132,0.6330135107040405,0.1538798421621322,-1.3273991107940675,1.3922693252563476,1.689305772785453e+18,0.298453076171875,2.344248342514038,9.519844818115235,-0.40426738262176515
0.4,1.6893057728806072e+18,0.3936070963541667,-0.1336696545282999,0.0368792215983073,-0.031780391931533765,1.6893057728892593e+18,0.4022593180338541,2.3109681606292725,9.516554832458496,-0.31535408397515613,1.6893057728892593e+18,0.4022593180338541,2.4586044947306314,9.490344365437826,-0.346842959523201,1.6893057728849354e+18,0.39793538411458335,-0.013948090141639084,-0.1162425652146339,-0.1930334158241748,1.6893057728806072e+18,0.3936070963541667,-0.0133372246539996,-0.10417797726889445,-0.17610736191272733,,,,,,,,,,,,1.6893057728840049e+18,0.39700485839843747,-17.35205955505371,-44.99115905761719,-14.343539619445801,1.6893057728840049e+18,0.39700485839843747,-285.6422546386719,47.89963874816895,-157.14453735351563,1.6893057728806072e+18,0.3936070963541667,-0.47028084099292755,-0.34707724551359814,0.5059204598267873,0.6343554457028707,0.14275862773259473,-1.3184324304262798,1.3865945140520732,1.6893057728806072e+18,0.3936070963541667,2.3066810369491577,9.531809012095133,-0.3795614888270696
0.5,1.6893057729844132e+18,0.4974131673177083,-0.4030534823735555,-0.006621837615966798,0.01680099715789157,1.689305772993068e+18,0.5060679524739583,2.714158773422241,9.28056255976359,-0.23599213610092795,1.689305772993068e+18,0.5060679524739583,3.1033830642700195,9.294818242390951,-0.31817215681076044,1.6893057729887347e+18,0.5017347412109375,-0.10061459615826603,-0.43857579429944354,-1.0141635636488597,1.6893057729844132e+18,0.4974131673177083,-0.09977465681731697,-0.43513967593510944,-0.9815586308638254,,,,,,,,,,,,1.6893057729845048e+18,0.4975048828125,-19.563919448852538,-44.048099517822266,-14.697339630126953,1.6893057729845048e+18,0.4975048828125,-287.85411376953124,48.84269981384277,-157.4983367919922,1.6893057729844132e+18,0.4974131673177083,-0.49044211208820343,-0.3409857600927353,0.48013536135355633,0.6421453456083933,0.10820992166797312,-1.2577518423398335,1.3834702968597412,1.6893057729844132e+18,0.4974131673177083,2.614358146985372,9.316654364267984,-0.3039881810545921
0.6000000000000001,1.689305773088216e+18,0.6012161458333334,-0.48480157057444256,-0.005221684773763017,-0.1832400908072789,1.6893057730882196e+18,0.601219775390625,3.7683366775512694,8.788478660583497,-0.4609772801399231,1.6893057730882196e+18,0.601219775390625,4.2783520221710205,8.813393020629883,-0.2948442280292511,1.6893057730925468e+18,0.6055469563802084,0.028405233286321135,-0.09570222184993325,-1.5791120926539104,1.689305773088216e+18,0.6012161458333334,0.02247475087642667,-0.09050986574341852,-1.566360314687093,,,,,,,,,,,,1.689305773085005e+18,0.5980049072265625,-25.024639701843263,-41.05421905517578,-14.79371976852417,1.689305773085005e+18,0.5980049072265625,-293.31483154296876,51.83657875061035,-157.59471588134767,1.689305773088216e+18,0.6012161458333334,-0.5204355219999949,-0.31243733565012616,0.42962832748889923,0.6680862506230673,0.06943933852016922,-1.1193119486172993,1.3675800959269206,1.689305773088216e+18,0.6012161458333334,3.7944184939066568,8.804091612497965,-0.4732803826530774
0.7000000000000001,1.6893057731920228e+18,0.7050226643880207,0.3373739719390869,-0.047098159790039056,0.0050544242064158,1.689305773183373e+18,0.6963728027343751,5.678567012151082,8.14915649096171,-0.16669997697075203,1.689305773183373e+18,0.6963728027343751,5.360475937525432,8.209431012471518,-0.22330215821663538,1.6893057731877015e+18,0.70070146484375,0.2145358756184578,0.3696651130914688,-0.7871609434485436,1.6893057731920228e+18,0.7050226643880207,0.2030363343656063,0.3707442929347356,-0.6853144466876984,,,,,,,,,,,,1.6893057731855048e+18,0.698504931640625,-30.757419204711915,-37.20267906188965,-15.065779781341552,1.6893057731855048e+18,0.698504931640625,-299.0476104736328,55.68811874389648,-157.8667770385742,1.6893057731920228e+18,0.7050226643880207,-0.53452996412913,-0.2775006095568339,0.3846401671568553,0.6993974049886068,0.042091263458132695,-0.9878442386786143,1.327873210112254,1.6893057731920228e+18,0.7050226643880207,5.745266914367676,8.132107416788736,-0.22113669166962302
0.8,1.6893057732871816e+18,0.8001815917968751,1.2690980911254883,-0.3158620834350586,-0.1317734837532043,1.6893057732871775e+18,0.800177490234375,6.448357899983724,8.01286522547404,-0.36171502619981766,1.6893057732871775e+18,0.800177490234375,5.203447500864665,8.30217186609904,-0.3151575773954391,1.6893057732828547e+18,0.7958544514973959,0.0769181167706847,0.2722422716518243,1.0613528837760289,1.6893057732871816e+18,0.8001815917968751,0.0595899041742086,0.23762658238410944,1.1065518796443938,1.689305773311e+18,0.824,0.0,0.0,0.9506596922874452,21.415000915527344,0.0,0.0,40.900001525878906,-122.7531546,49.1904195,1.689305773286005e+18,0.79900498046875,-31.469900131225586,-37.08189926147461,-14.555819702148437,1.689305773286005e+18,0.79900498046875,-299.7600952148438,55.80889892578125,-157.35681762695313,1.6893057732871816e+18,0.8001815917968751,-0.5205268740653992,-0.272293347120285,0.39922039508819573,0.7037853598594666,0.06077575460076327,-1.0076629161834716,1.307235884666443,1.6893057732871816e+18,0.8001815917968751,6.507879447937012,7.96714220046997,-0.44781675934791565
0.9,1.6893057733823316e+18,0.895331787109375,0.8236067891120911,-0.5514987309773763,-0.11117523411909735,1.689305773390985e+18,0.9039849039713541,3.429712434609731,8.795517444610596,-0.5572285801172256,1.689305773390985e+18,0.9039849039713541,2.7485223412513733,9.348384539286295,-0.5282420565684637,1.6893057733866596e+18,0.8996596272786458,-0.303370952916642,0.238364706436793,3.3529884417851767,1.6893057733823316e+18,0.895331787109375,-0.28361963853240013,0.24650958180427548,3.3552791674931846,,,,,,,,,,,,1.689305773386505e+18,0.8995050048828125,-20.750979709625245,-43.57473945617676,-13.53589973449707,1.689305773386505e+18,0.8995050048828125,-289.0411743164062,49.31605949401855,-156.33690032958984,1.6893057733823316e+18,0.895331787109375,-0.48057978351910907,-0.3239753892024358,0.4901486833890279,0.6489606698354086,0.19567499558130896,-1.252181887626648,1.425585389137268,1.6893057733823316e+18,0.895331787109375,3.8415770133336387,8.713962237040201,-0.6067799379428228
1.0,1.6893057734861386e+18,0.9991385498046874,-0.4354649931192398,-0.10289255777994788,0.17283683021863303,1.689305773486139e+18,0.9991389648437499,-0.039601221680641174,9.631111145019531,-0.7404589772224426,1.689305773486139e+18,0.9991389648437499,0.3847390800714493,9.747199630737304,-0.9567420005798339,1.6893057734904655e+18,1.0034653727213543,-0.45858163634936017,0.10117455571889873,1.68438454469045,1.6893057734861386e+18,0.9991385498046874,-0.46334128578503925,0.10244719373683131,1.759215533733368,,,,,,,,,,,,1.689305773487005e+18,1.000005029296875,-7.78847975730896,-48.49987945556641,-11.503379726409912,1.689305773487005e+18,1.000005029296875,-276.07867736816405,44.390919876098636,-154.30437774658202,1.6893057734861386e+18,0.9991385498046874,-0.44185952842235565,-0.36938198904196423,0.5860879023869833,0.5693643490473429,1.2085805932680767,-1.454620401064555,2.432846466700236,1.6893057734861386e+18,0.9991385498046874,-0.03220340050756929,9.639386336008707,-0.7818547884623209
1.1,1.689305773589946e+18,1.102946044921875,-1.2784317632516224,0.0982365608215332,0.1180659929911295,1.6893057735812956e+18,1.0942955322265624,-1.7030915021896362,9.776275952657064,-1.0038887858390808,1.6893057735812956e+18,1.0942955322265624,-0.4716851661602656,9.723820527394613,-1.2054187059402466,1.6893057735856223e+18,1.098622119140625,-0.028099802695214737,0.2713463455438614,0.07883216738700867,1.689305773589946e+18,1.102946044921875,-0.003894267603754988,0.22311853244900703,-0.0002036119500796,,,,,,,,,,,,1.689305773587505e+18,1.1005050537109375,-3.4184399366378786,-49.44903831481933,-10.025959682464599,1.689305773587505e+18,1.1005050537109375,-271.70863037109376,43.44175910949707,-152.82695922851562,1.689305773589946e+18,1.102946044921875,-0.4255480070908864,-0.3739420870939891,0.620575338602066,0.5421516795953115,1.9551878372828166,-1.4377434849739075,-1.0288938283920288,1.689305773589946e+18,1.102946044921875,-1.7522440751393635,9.821938832600912,-1.0858429670333862
1.2000000000000002,1.689305773685097e+18,1.198096826171875,-1.1934465885162353,0.0668525695800781,-0.28586543798446656,1.6893057736850962e+18,1.1980961914062498,-0.7931210094441971,9.811570008595785,-1.1187442739804585,1.6893057736850962e+18,1.1980961914062498,0.3830816646416982,9.745093504587809,-0.9290839831034342,1.689305773680774e+18,1.1937736409505209,0.48884491125742596,0.11975504209597904,-1.5726980169614155,1.689305773685097e+18,1.198096826171875,0.5109887838363647,0.17599027566611763,-1.6269785165786743,,,,,,,,,,,,1.689305773688005e+18,1.2010048583984374,-8.00197982788086,-48.673119354248044,-11.094679737091065,1.689305773688005e+18,1.2010048583984374,-276.29216918945315,44.21767959594727,-153.8956771850586,1.689305773685097e+18,1.198096826171875,-0.43003278970718384,-0.36043784618377683,0.5935594081878662,0.5765148401260376,1.2273571848869325,-1.4610380411148072,2.415643095970154,1.689305773685097e+18,1.198096826171875,-0.833180844783783,9.816674423217773,-1.2189038753509522
1.3,1.6893057737802537e+18,1.2932537841796876,-1.2945252259572346,-0.5736516316731771,-0.16192794591188428,1.6893057737889065e+18,1.3019064534505207,1.8529420346021652,8.613064606984457,-0.3234298638999462,1.6893057737889065e+18,1.3019064534505207,3.0909079909324646,9.242360273996988,-0.25685932611425716,1.6893057737845821e+18,1.2975822347005208,0.6203845540682474,-0.29845857868591946,-3.5497888724009194,1.6893057737802537e+18,1.2932537841796876,0.6392959256966909,-0.2623411677777767,-3.4866915941238403,,,,,,,,,,,,1.6893057737885048e+18,1.3015048828125,-20.621659564971925,-43.37099914550781,-14.231299686431885,1.6893057737885048e+18,1.3015048828125,-288.91185607910154,49.519799041748044,-157.03229675292968,1.6893057737802537e+18,1.2932537841796876,-0.45456639925638836,-0.3221120585997899,0.5023370136817297,0.6590313414732615,0.15888825904888407,-1.2769406239191692,1.3378201723098755,1.6893057737802537e+18,1.2932537841796876,1.5065809513131778,8.762217362721762,-0.47766722304125625
1.4000000000000001,1.689305773884061e+18,1.3970609130859375,0.9164369901021322,-0.5237455368041992,0.5003197739521662,1.6893057738927135e+18,1.4057135823567706,6.966204643249512,7.2888368765513105,0.6982057094573975,1.6893057738927135e+18,1.4057135823567706,5.8917849858601885,7.827507734298706,0.11639175494201477,1.689305773888388e+18,1.4013881429036459,-0.15215635175506273,-0.19932023792838058,-1.902488887310028,1.689305773884061e+18,1.3970609130859375,-0.13362677146991092,-0.24936027328173319,-2.095904136697451,,,,,,,,,,,,1.689305773889005e+18,1.4020049072265626,-33.792779731750485,-34.16975898742676,-16.670079898834228,1.689305773889005e+18,1.4020049072265626,-302.0829742431641,58.721038818359375,-159.47107391357423,1.689305773884061e+18,1.3970609130859375,-0.508255253235499,-0.26435387382904685,0.3684320896863937,0.7314935723940531,-0.0213400821667164,-0.9416154225667318,1.2034507195154827,1.689305773884061e+18,1.3970609130859375,6.689933220545451,7.383552710215251,0.6232306013504664
1.5,1.6893057739878653e+18,1.5008651936848958,1.630583683649699,-0.20891340573628736,-0.16780909647544226,1.6893057739878633e+18,1.50086337890625,7.30803918838501,7.847979640960693,-0.3369094282388687,1.6893057739878633e+18,1.50086337890625,5.645380592346191,8.01304359436035,-0.2024579212069511,1.6893057739921938e+18,1.5051937255859376,-0.39876773953437805,-0.08381580437223117,1.3649783929189045,1.6893057739878653e+18,1.5008651936848958,-0.3940589850147565,-0.03558289756377537,1.3358095685640972,,,,,,,,,,,,1.689305773989505e+18,1.502504931640625,-33.657358741760255,-34.699239349365236,-15.278059673309325,1.689305773989505e+18,1.502504931640625,-301.9475524902344,58.19155921936035,-158.0790588378906,1.6893057739878653e+18,1.5008651936848958,-0.515019436677297,-0.2585537135601043,0.3817590922117233,0.722286065419515,0.035697987147917304,-0.9581205248832703,1.2580094734827676,1.6893057739878653e+18,1.5008651936848958,7.275776068369548,7.801200071970622,-0.36311083287000656
1.6,1.6893057740916705e+18,1.604670613606771,0.8411065737406412,-0.5007925033569336,-0.2697243690490722,1.6893057740830188e+18,1.5960187988281251,5.221238732337952,8.33180856704712,-0.6098706821600596,1.6893057740830188e+18,1.5960187988281251,4.234419306119283,8.81100050608317,-0.3855326175689697,1.6893057740873434e+18,1.600343359375,-0.3278208374977112,0.05934556275606155,2.451432776451111,1.6893057740916705e+18,1.604670613606771,-0.3269656250874201,0.15314901123444244,2.503427584966024,,,,,,,,,,,,1.689305774090005e+18,1.60300498046875,-25.821299362182618,-41.02249946594238,-14.45455961227417,1.689305774090005e+18,1.60300498046875,-294.1114898681641,51.868299102783205,-157.25555725097655,1.6893057740916705e+18,1.604670613606771,-0.5062180111805598,-0.30643299718697864,0.4470277428627014,0.6696573893229166,0.11067937500774855,-1.143785874048869,1.3688989480336506,1.6893057740916705e+18,1.604670613606771,4.88066033522288,8.395716826121012,-0.6823532581329346
1.7000000000000002,1.689305774186825e+18,1.699824951171875,-0.4176300287246704,-0.3310821533203125,0.003910720348358121,1.6893057741868237e+18,1.6998236490885417,1.0310074612498283,9.279067039489746,-0.8099704682826996,1.6893057741868237e+18,1.6998236490885417,1.4477232992649078,9.629814465840658,-0.8660437564055125,1.6893057741825024e+18,1.6955024007161459,-0.35493815938631695,0.8541932304700216,2.7734554608662925,1.689305774186825e+18,1.699824951171875,-0.36004397273063654,0.8485834479331971,2.750726270675659,,,,,,,,,,,,1.689305774190505e+18,1.7035050048828126,-13.291899490356446,-47.093218612670896,-11.85961980819702,1.689305774190505e+18,1.7035050048828126,-281.58209228515625,45.79757881164551,-154.6606185913086,1.689305774186825e+18,1.699824951171875,-0.4538464367389679,-0.3437314689159393,0.5558739900588989,0.6046983480453492,0.6281487822532654,-1.3940533638000487,1.8323920249938965,1.689305774186825e+18,1.699824951171875,1.012762168701738,9.31166934967041,-0.8628518581390381
1.8,1.689305774281983e+18,1.794982950846354,-1.1352199216683705,0.027139504750569646,0.2086151838302612,1.6893057742906307e+18,1.8036306966145832,-1.566301832596461,9.754441261291504,-0.900199810663859,1.6893057742906307e+18,1.8036306966145832,-0.4008403392508626,9.728747367858887,-1.1722006797790527,1.689305774286308e+18,1.799307820638021,-0.09506590664386749,0.46962810556093854,0.8912269398570061,1.689305774281983e+18,1.794982950846354,-0.12224940730569266,0.4897103061278661,0.9908488793298602,,,,,,,,,,,,1.689305774291005e+18,1.804005029296875,-4.865359878540039,-49.36363906860352,-9.93933982849121,1.689305774291005e+18,1.804005029296875,-273.1555541992187,43.52715950012207,-152.7403366088867,1.689305774281983e+18,1.794982950846354,-0.41359754900137585,-0.35649556914965314,0.6248194177945455,0.5578580101331075,1.8433095216751099,-1.443242351214091,0.9032686154047648,1.689305774281983e+18,1.794982950846354,-1.4655041595300038,9.757332642873129,-0.9591230849424998
1.9000000000000001,1.6893057743857859e+18,1.8987857666015626,-1.487359881401062,-0.028194586435953805,0.08069514234860738,1.6893057743857856e+18,1.898785693359375,-1.5907484769821167,9.747402381896972,-0.7959724545478821,1.6893057743857856e+18,1.898785693359375,-0.11281073838472366,9.754670333862304,-0.9690659999847412,1.6893057743901123e+18,1.9031122639973959,0.40530909101168316,0.31273755182822544,-1.4747814387083054,1.6893057743857859e+18,1.8987857666015626,0.38871391862630844,0.32589660833279294,-1.3706798056761424,,,,,,,,,,,,1.689305774391505e+18,1.9045050537109376,-6.993039846420288,-48.841478729248045,-10.54445972442627,1.689305774391505e+18,1.9045050537109376,-275.2832397460937,44.04931907653808,-153.34545440673827,1.6893057743857859e+18,1.8987857666015626,-0.40100768705209094,-0.345811386903127,0.6205027997493744,0.5779499709606171,1.6227780679861705,-1.4629878004391987,1.6901237964630127,1.6893057743857859e+18,1.8987857666015626,-1.5673985282580059,9.723733266194662,-0.8841479619344076
2.0,1.6893057744896182e+18,2.0026180013020833,-1.1648478507995605,-0.6026067733764648,-0.055063833793004335,1.6893057744809556e+18,1.9939556070963542,1.01435740540425,8.88614559173584,-0.5409773141145706,1.6893057744809556e+18,1.9939556070963542,2.2653281589349112,9.474518775939941,-0.5084870407978693,1.689305774488663e+18,2.001663126627604,0.41085778176784515,-0.2980767854799827,-3.5460981925328574,1.689305774487221e+18,2.000220947265625,0.40971241022149724,-0.2834923807531595,-3.5107443730036416,,,,,,,,,,,,1.6893057744869796e+18,1.9999794379340277,-18.987266328599716,-44.931243896484375,-12.464333110385471,1.6893057744869796e+18,1.9999794379340277,-287.27746242947046,47.95955446031358,-155.2653283013238,1.6893057744896182e+18,2.0026180013020833,-0.42800642053286236,-0.30220076938470203,0.5267380128304163,0.6671340962251028,0.24016463259855905,-1.3004132310549419,1.3380685647328694,1.6893057744896182e+18,2.0026180013020833,1.387039529470106,8.797810713450113,-0.5221338334182898
2.1,1.6893057745933955e+18,2.1063953450520834,0.964983860651652,-0.5081090927124023,0.2067340326805909,1.6893057745847488e+18,2.097748494466146,6.144369721412659,7.678069273630778,0.036091740825213485,1.6893057745847488e+18,2.097748494466146,5.324830929438273,8.206791400909424,-0.23358097175757084,1.6893057745890755e+18,2.10207568359375,-0.10812315096457793,-0.22586742571244642,-2.301409363746643,1.6893057745890755e+18,2.10207568359375,-0.10903944633901114,-0.221235031572481,-2.2990422348181405,,,,,,,,,,,,1.689305774582175e+18,2.0951748779296873,-32.023779487609865,-36.35965919494629,-14.194699573516846,1.689305774582175e+18,2.0951748779296873,-300.31397705078126,56.53113861083985,-156.99569854736328,1.6893057745933955e+18,2.1063953450520834,-0.48145030935605365,-0.2448617095748583,0.40076667070388794,0.7393702665964762,0.04270029813051218,-0.9776959419250488,1.1771503289540608,1.6893057745933955e+18,2.1063953450520834,6.444968064626058,7.602396329243978,-0.026919254955525187
2.2,1.6893057746885542e+18,2.201554150390625,2.009965991973877,-0.11140956878662109,-0.3426396906375885,1.6893057746885517e+18,2.2015515543619792,7.963712612787883,7.68415109316508,-0.4942175780888647,1.6893057746885517e+18,2.2015515543619792,5.909216245015462,7.822687307993571,-0.29098255932331085,1.6893057746928806e+18,2.2058806559244792,0.045967608806677156,-0.003537930237750212,0.6678538794318835,1.6893057746928806e+18,2.2058806559244792,0.04505131246211628,0.0011708270758390427,0.6701955373088518,,,,,,,,,,,,1.6893057746821727e+18,2.1951726318359377,-36.17177886962891,-32.91071968078613,-14.134919738769531,1.6893057746821727e+18,2.1951726318359377,-304.46197814941405,59.980078887939456,-156.9359161376953,1.6893057746885542e+18,2.201554150390625,-0.48822069764137266,-0.22858767509460445,0.3823797047138214,0.7504062414169311,0.050173921883106175,-0.9225330591201782,1.1785309791564942,1.6893057746885542e+18,2.201554150390625,7.936753463745117,7.698548030853272,-0.6410371899604798
2.3000000000000003,1.6893057747837074e+18,2.296707316080729,1.55208154519399,-0.7895944913228353,-0.34556518495082855,1.689305774792356e+18,2.305356241861979,5.568198005358378,7.9555370807647705,-0.5500500996907552,1.689305774792356e+18,2.305356241861979,4.134236812591553,8.8393767674764,-0.2527503371238708,1.6893057747880356e+18,2.301035595703125,-0.5674327254295349,-0.9100059628486633,3.221733808517456,1.6893057747880356e+18,2.301035595703125,-0.56837956905365,-0.9053022980690002,3.2240856647491456,,,,,,,,,,,,1.6893057747821742e+18,2.295174169921875,-28.628520011901855,-38.5666389465332,-14.654639720916748,1.6893057747821742e+18,2.295174169921875,-296.91871643066406,54.3241584777832,-157.45563659667968,1.6893057747837074e+18,2.296707316080729,-0.47989335159460705,-0.285460186501344,0.44073911011219025,0.7009940644105276,0.0589349046349525,-1.1063920259475708,1.2396618326505024,1.6893057747837074e+18,2.296707316080729,5.931807319323222,7.935198148091634,-0.5854439387718836
2.4000000000000004,1.6893057748875128e+18,2.4005128580729167,-0.4377652108669281,-0.7223784128824869,-0.0014632344245911026,1.6893057748875146e+18,2.40051474609375,0.5509474277496338,8.97188835144043,-0.6131608068943024,1.6893057748875146e+18,2.40051474609375,1.0600146263837815,9.69785041809082,-0.70372154712677,1.6893057748831875e+18,2.396187337239583,-0.7501934369405111,-0.23701571758526063,3.1868584950764975,1.6893057748831875e+18,2.396187337239583,-0.7511606415112814,-0.23233241009681174,3.1891747315724692,,,,,,,,,,,,1.6893057748821732e+18,2.39517314453125,-11.902319812774659,-46.76259880065918,-13.11621971130371,1.6893057748821732e+18,2.39517314453125,-280.19251403808596,46.12819900512695,-155.9172164916992,1.6893057748875128e+18,2.4005128580729167,-0.45797329644362134,-0.3711400479078293,0.5535819927851359,0.5864104827245077,0.7762263889114062,-1.420349379380544,2.033835013707479,1.6893057748875128e+18,2.4005128580729167,0.6487540602684022,8.95882781346639,-0.7085746030012766
2.5,1.689305774991321e+18,2.504321004231771,-1.717428743839264,-0.08440144856770833,0.31159069140752155,1.689305774982668e+18,2.495668050130208,-2.553640286127726,9.544570922851562,-0.9737791021664938,1.689305774982668e+18,2.495668050130208,-0.9225793033838272,9.662202994028727,-1.359218716621399,1.689305774986996e+18,2.4999959716796876,-0.5544620181123415,0.2548835203051567,1.2687416474024455,1.689305774986996e+18,2.4999959716796876,-0.5553783203164736,0.2594904725750287,1.2710578441619873,,,,,,,,,,,,1.6893057749821722e+18,2.495172216796875,-0.13420001938939094,-49.53809928894043,-9.802699851989747,1.6893057749821722e+18,2.495172216796875,-268.4243957519531,43.352699279785156,-152.60369720458985,1.689305774991321e+18,2.504321004231771,-0.4361458569765091,-0.39918598035971325,0.6272911330064138,0.5065035223960876,2.187676727771759,-1.3906257549921672,-2.825579206148783,1.689305774991321e+18,2.504321004231771,-2.7439693212509155,9.563613573710123,-1.0869396825631459
2.6,1.6893057750864732e+18,2.59947314453125,-1.720988130569458,0.12864704132080076,-0.06605086326599122,1.6893057750864745e+18,2.599474568684896,-2.867199738820394,9.70419184366862,-1.4944174488385518,1.6893057750864745e+18,2.599474568684896,-1.133360594511032,9.629101753234863,-1.4649824698766072,1.6893057750907986e+18,2.6037987060546874,0.21685716261466345,0.2789872512221336,-1.0144435626765091,1.6893057750907986e+18,2.6037987060546874,0.21594086103141308,0.2836960057417552,-1.0121273286640644,,,,,,,,,,,,1.689305775082174e+18,2.595174169921875,1.0345599800348282,-50.00657920837402,-8.779119873046875,1.689305775082174e+18,2.595174169921875,-267.25563659667966,42.884219360351565,-151.58011627197266,1.6893057750864732e+18,2.59947314453125,-0.4252075433731079,-0.3874534249305725,0.640225887298584,0.5089393436908722,2.238049602508545,-1.3767369508743286,-2.8140775203704833,1.6893057750864732e+18,2.59947314453125,-2.8855048179626466,9.75410213470459,-1.5393028020858766
2.7,1.6893057751816287e+18,2.694628702799479,-1.2836122314135234,-0.4354103406270345,-0.24893044432004294,1.6893057751902843e+18,2.703284220377604,-0.11774681508541111,9.145567576090494,-1.1987044314543407,1.6893057751902843e+18,2.703284220377604,1.0825177530447643,9.646417299906412,-1.0305227140585582,1.6893057751859574e+18,2.698957275390625,0.5464189529418946,0.08353582192212342,-3.1982460975646974,1.6893057751859574e+18,2.698957275390625,0.5455026686191559,0.08823948428034782,-3.1959553718566895,,,,,,,,,,,,1.6893057751821747e+18,2.69517490234375,-8.810839819908143,-48.37543907165527,-10.399279594421387,1.6893057751821747e+18,2.69517490234375,-277.1010375976563,44.515359497070314,-153.20027770996094,1.6893057751816287e+18,2.694628702799479,-0.44705402354399365,-0.35066519180933636,0.5789647797743479,0.5828001399834951,1.0646234055360158,-1.4093955755233765,2.268018881479899,1.6893057751816287e+18,2.694628702799479,-0.47268217802047724,9.23689349492391,-1.3221341967582703
2.8000000000000003,1.6893057752854344e+18,2.798434407552083,-0.25204235315322876,-0.8821702798207601,0.11478443940480554,1.689305775285436e+18,2.798435986328125,4.119842433929444,7.715536975860596,-0.5236692361533641,1.689305775285436e+18,2.798435986328125,4.44538140296936,8.668249893188477,-0.6720474243164063,1.689305775281112e+18,2.7941121012369794,0.2032399562497933,-0.07345654442906377,-3.8479674657185874,1.689305775281112e+18,2.7941121012369794,0.20232365978881714,-0.06879869972666101,-3.8456512689590454,,,,,,,,,,,,1.6893057752821747e+18,2.7951746826171875,-27.696439361572267,-40.172158813476564,-12.600159835815429,1.6893057752821747e+18,2.7951746826171875,-295.98663330078125,52.71863899230957,-155.40115509033203,1.6893057752854344e+18,2.798434407552083,-0.4955092519521713,-0.2705954263607661,0.44713562230269116,0.6914111177126566,0.16440698256095249,-1.0954094330469768,1.3489473859469097,1.6893057752854344e+18,2.798434407552083,4.164707700411479,7.779166142145793,-0.5641079439471165
2.9000000000000004,1.6893057753892365e+18,2.902236694335938,1.776120901107788,-0.39691392580668133,-0.16577226420243582,1.6893057753805896e+18,2.893589558919271,7.95992374420166,7.129315296808879,-0.8009973888595899,1.6893057753805896e+18,2.893589558919271,6.239473263422648,7.5286242961883545,-0.7575897971789042,1.6893057753849178e+18,2.897917683919271,0.09829839536299308,0.39354992906252534,-0.8212319916735092,1.6893057753849178e+18,2.897917683919271,0.09733119669059913,0.3982841471831004,-0.8188903033733368,,,,,,,,,,,,1.689305775382173e+18,2.895172998046875,-37.423499298095706,-32.38001899719238,-12.226839828491212,1.689305775382173e+18,2.895172998046875,-305.71369018554685,60.51077880859375,-155.02783813476563,1.6893057753892365e+18,2.902236694335938,-0.5173113147417704,-0.20575594902038566,0.3712824285030365,0.743025024731954,0.12198872243364646,-0.8706097602844238,1.273147185643514,1.6893057753892365e+18,2.902236694335938,8.059724648793539,7.095117886861165,-0.9360921531915665
3.0,1.6893057754930445e+18,3.006044555664063,2.5816067854563394,-0.5800392627716064,-0.39224739869435626,1.6893057754843983e+18,2.9973983968098956,8.617551326751709,7.216354211171468,-0.9762716492017111,1.6893057754843983e+18,2.9973983968098956,5.948957363764445,7.754372199376424,-0.6700534125169119,1.6893057754887196e+18,3.0017196858723962,0.04848742772204182,-0.4322635270655155,1.686064451932907,1.6893057754887196e+18,3.0017196858723962,0.047545678137491144,-0.4275802181412776,1.6883806337912877,,,,,,,,,,,,1.6893057754821775e+18,2.9951775390625004,-36.548759078979494,-33.177899551391604,-12.384219741821289,1.6893057754821775e+18,2.9951775390625004,-304.8389556884766,59.712898635864256,-155.18521728515626,1.6893057754930445e+18,3.006044555664063,-0.506051371494929,-0.224459707736969,0.3903937339782715,0.7349441250165304,0.1097862186531225,-0.9303209185600281,1.261163870493571,1.6893057754930445e+18,3.006044555664063,8.408578157424927,7.263213634490967,-1.0367901126543682
3.1,1.6893057755882022e+18,3.101202294921875,0.811779522895813,-0.9586874961853027,-0.4025591492652893,1.6893057755882025e+18,3.10120263671875,4.080161313215892,8.211369514465332,-0.7843473354975382,1.6893057755882025e+18,3.10120263671875,3.2807074586550393,9.162576039632162,-0.43881649772326153,1.6893057755925266e+18,3.1055264892578123,-0.1370883388444781,-0.3513493270923694,3.877874414126078,1.6893057755925266e+18,3.1055264892578123,-0.138030090679725,-0.34671693481504917,3.88019061088562,,,,,,,,,,,,1.6893057755821716e+18,3.0951716064453123,-24.226759338378905,-41.54953880310059,-14.040979766845703,1.6893057755821716e+18,3.0951716064453123,-292.51695861816404,51.34125862121582,-156.84197692871095,1.6893057755882022e+18,3.101202294921875,-0.4777888238430023,-0.31510046124458313,0.4814626336097717,0.6619074463844299,0.14132166653871533,-1.224702286720276,1.353870153427124,1.6893057755882022e+18,3.101202294921875,4.105844259262085,8.220661830902099,-0.8297112584114075
3.2,1.689305775683355e+18,3.1963550211588543,-0.8716362516085306,-0.9272928237915039,0.20574804147084555,1.6893057756920077e+18,3.2050078125,-1.2057832175244887,8.835697015126547,-0.4598207473754883,1.6893057756920077e+18,3.2050078125,-0.27745987971623737,9.732072671254477,-0.8012879292170206,1.6893057756876838e+18,3.200683935546875,-0.6344141006469727,-0.07816020436584951,3.130195713043213,1.6893057756876838e+18,3.200683935546875,-0.6353609323501587,-0.07345654517412184,3.1325780391693114,1.689305775637155e+18,3.150155029296875,0.0,0.554973304271698,0.9738572239875792,15.201000213623049,0.6968829035758972,189.61477661132807,40.900001525878906,-122.7531712,49.1903554,1.6893057756821737e+18,3.195173681640625,-6.567259985208511,-48.23025894165039,-13.022279644012452,1.6893057756821737e+18,3.195173681640625,-274.8574523925781,44.66053810119629,-155.82327575683593,1.689305775683355e+18,3.1963550211588543,-0.43033147354920703,-0.38787082334359485,0.5917708873748779,0.5585015217463175,1.5121724903583527,-1.4540386199951172,-0.3928654591242473,1.689305775683355e+18,3.1963550211588543,-0.8921240543325742,8.809974352518717,-0.542971337834994
3.3000000000000003,1.6893057757871598e+18,3.3001597086588546,-1.8918551405270894,-0.022632439931233733,0.5115158061186472,1.6893057757871642e+18,3.3001641601562497,-4.113022756576538,9.45272617340088,-0.7161718308925629,1.6893057757871642e+18,3.3001641601562497,-2.2064857006073,9.464981651306152,-1.3135266542434691,1.689305775782839e+18,3.295838826497396,-0.44196100284655887,0.41515930493672687,1.0828859116882086,1.689305775782839e+18,3.295838826497396,-0.4428773025671641,0.4198425884048144,1.085202091683944,,,,,,,,,,,,1.6893057757821711e+18,3.2951712402343754,5.3899598836898805,-49.56249885559082,-9.788059902191161,1.6893057757821711e+18,3.2951712402343754,-262.9002349853516,43.32829895019531,-152.58905944824218,1.6893057757871598e+18,3.3001597086588546,-0.39522418876489,-0.4087688028812408,0.6664375066757202,0.48197903235753375,2.6014633973439536,-1.3083839615186055,-2.460173964500427,1.6893057757871598e+18,3.3001597086588546,-4.0641095240910845,9.450153827667236,-0.7892326762278875
3.4000000000000004,1.6893057758909658e+18,3.4039657389322913,-1.818010409673055,0.048160076141357394,-0.17634692788124082,1.6893057758823186e+18,3.3953184407552084,-3.8327036698659263,9.597611586252848,-1.2782658139864604,1.6893057758823186e+18,3.3953184407552084,-2.009273946285248,9.517837206522623,-1.2116543650627136,1.6893057758866435e+18,3.399643636067708,0.3071379580845435,0.46102509399255115,-1.291140044728915,1.6893057758866435e+18,3.399643636067708,0.3062216565012932,0.4657338559627533,-1.2888238628705342,,,,,,,,,,,,1.6893057758821724e+18,3.3951723876953124,4.321239942312241,-49.57835922241211,-9.774639797210693,1.6893057758821724e+18,3.3951723876953124,-263.9689544677734,43.3124397277832,-152.5756362915039,1.6893057758909658e+18,3.4039657389322913,-0.38539329667886096,-0.39137756327788037,0.6664375066757202,0.5035851846138636,2.5810166597366333,-1.3394018014272053,-2.5299706856409707,1.6893057758909658e+18,3.4039657389322913,-3.7183467547098794,9.590134143829346,-1.3524432977040608
3.5,1.6893057759861256e+18,3.49912568359375,-1.279742217063904,-0.6918464660644531,-0.4817499279975891,1.6893057759861207e+18,3.4991208089192707,-0.7664011592666308,9.008877595265707,-1.0309077501296997,1.6893057759861207e+18,3.4991208089192707,0.4709126489857833,9.71716578801473,-0.6244644820690155,1.689305775990446e+18,3.503446044921875,0.6722317437330881,0.09117163966099423,-3.6832120418548584,1.689305775990446e+18,3.503446044921875,0.6712900002797445,0.09588038560468702,-3.6809213161468506,,,,,,,,,,,,1.6893057759821722e+18,3.495172265625,-8.937719643115997,-47.948439025878905,-12.304919528961182,1.6893057759821722e+18,3.495172265625,-277.22791748046876,44.942359161376956,-155.10591735839844,1.6893057759861256e+18,3.49912568359375,-0.4055355489253998,-0.3509943962097168,0.5947245836257935,0.5970343708992004,1.1821356177330018,-1.4561190128326416,1.0567257165908814,1.6893057759861256e+18,3.49912568359375,-0.8358129501342774,9.045228385925293,-1.1065608263015747
3.6,1.689305776081279e+18,3.594279012044271,0.5618650913238527,-0.9424622058868408,0.23383348435163498,1.6893057760899274e+18,3.602927449544271,4.8677988449732466,7.9810605843861895,0.20827526723345116,1.6893057760899274e+18,3.602927449544271,4.105445623397827,8.87039057413737,-0.13759551569819448,1.6893057760856056e+18,3.5986055175781253,0.17373007610440253,-0.10781771689653397,-3.0852970838546754,1.6893057760856056e+18,3.5986055175781253,0.17278323695063585,-0.1031751349568367,-3.0829758405685426,,,,,,,,,,,,1.6893057760821724e+18,3.595172265625,-25.906699180603027,-40.247799682617185,-14.700999641418457,1.6893057760821724e+18,3.595172265625,-294.1968933105469,52.642999267578126,-157.5019973754883,1.689305776081279e+18,3.594279012044271,-0.4524795015652974,-0.2898535629113515,0.4661944856246312,0.7012340128421783,0.04522797713677084,-1.1632133722305298,1.1780033111572266,1.689305776081279e+18,3.594279012044271,4.441078782081604,8.02004361152649,0.08235298089372615
3.7,1.6893057761850785e+18,3.6980783284505208,1.576885461807251,-0.1381982167561849,0.003694444894790687,1.689305776193735e+18,3.706734944661458,6.7488564650217695,8.213064670562744,-0.1381855038926005,1.689305776193735e+18,3.706734944661458,5.130136171976726,8.358912309010824,-0.20239236454168952,1.6893057761807588e+18,3.693758748372396,0.06363179689894115,0.2931644134223461,-0.2110539451241493,1.6893057761807588e+18,3.693758748372396,0.06271549748877682,0.297873160491387,-0.20873775581518808,,,,,,,,,,,,1.689305776182173e+18,3.6951728759765627,-32.78993911743164,-35.941199111938474,-14.326459503173828,1.689305776182173e+18,3.6951728759765627,-301.08013610839845,56.94959907531738,-157.12745666503906,1.6893057761850785e+18,3.6980783284505208,-0.4651872565348943,-0.2509503290057182,0.4193873753150304,0.7380436062812805,0.03780995123088355,-1.0208622813224792,1.1459622184435527,1.6893057761850785e+18,3.6980783284505208,6.710471709569295,8.21874745686849,-0.19172491187540194
3.8000000000000003,1.689305776288888e+18,3.8018883463541666,1.6376922130584717,-0.548950990041097,-0.3108590915799141,1.689305776288891e+18,3.8018910156250003,5.74708137512207,8.337311935424804,-0.4890929415822029,1.689305776288891e+18,3.8018910156250003,4.099960041046143,8.889805221557618,-0.21966651082038874,1.6893057762845642e+18,3.7975641276041667,-0.05151630208517111,-0.22551108151674268,2.220698813597361,1.6893057762845642e+18,3.7975641276041667,-0.0524326016505559,-0.2208786935855945,2.223015010356903,,,,,,,,,,,,1.6893057762821711e+18,3.7951712646484372,-29.175079154968262,-38.62641906738281,-14.226419925689697,1.6893057762821711e+18,3.7951712646484372,-297.46527099609375,54.26437873840332,-157.0274169921875,1.689305776288888e+18,3.8018883463541666,-0.4495916813611984,-0.2781425416469574,0.4632354627052943,0.7103413939476013,0.05327043744424975,-1.141878366470337,1.1633355220158894,1.689305776288888e+18,3.8018883463541666,5.712365627288818,8.34387238820394,-0.5251248702406883
3.9000000000000004,1.689305776392696e+18,3.905696248372396,0.2886041800181071,-0.6418013572692871,-0.12693512936433152,1.689305776384045e+18,3.897044921875,1.6823537397819261,9.005188624064127,-0.314955286681652,1.689305776384045e+18,3.897044921875,1.2153301512201626,9.671919027964273,-0.21998385836680726,1.6893057763883704e+18,3.901370402018229,-0.29247718925277394,-0.21459186946352318,3.5826228857040405,1.6893057763883704e+18,3.901370402018229,-0.29339348648985225,-0.20988311680654684,3.5849645137786865,,,,,,,,,,,,1.689305776382175e+18,3.895175024414063,-15.03405957221985,-45.338859176635744,-14.755899715423585,1.689305776382175e+18,3.895175024414063,-283.3242553710937,47.55193862915039,-157.55689544677733,1.689305776392696e+18,3.905696248372396,-0.4075533350308736,-0.3574106693267822,0.5696713427702585,0.6153863767782847,0.8145552203059196,-1.449068546295166,0.9137616157531738,1.689305776392696e+18,3.905696248372396,1.2057832380135853,9.064510663350424,-0.3707878142595291
4.0,1.6893057764878508e+18,4.000850830078125,-1.4001893162727357,-0.2566383361816406,0.36591489911079406,1.689305776487848e+18,4.0008477783203125,-2.9498518109321594,9.361918608347574,-0.3823531170686086,1.689305776487848e+18,4.0008477783203125,-1.5754249195257823,9.635540326436361,-0.7946743418773016,1.6893057764921774e+18,4.005177571614584,-0.6283258100350698,-0.13472124189138412,1.6297375708818436,1.6893057764921774e+18,4.005177571614584,-0.6292675534884135,-0.1300633947054545,1.632053792476654,,,,,,,,,,,,1.6893057764821722e+18,3.9951722167968753,0.27084002494812015,-49.01837921142578,-12.36591968536377,1.6893057764821722e+18,3.9951722167968753,-268.01935424804685,43.872419357299805,-155.1669174194336,1.6893057764878508e+18,4.000850830078125,-0.3799683153629303,-0.39640429019927975,0.6521666646003723,0.5221625328063965,2.6779887199401857,-1.3851288318634034,-2.4368807315826415,1.6893057764878508e+18,4.000850830078125,-3.0100512742996215,9.376754188537598,-0.43645085096359254
4.1000000000000005,1.6893057765830062e+18,4.096006266276041,-1.8500556548436482,0.022379398345947255,0.24651946624120072,1.6893057765916562e+18,4.104656168619791,-3.7707893451054892,9.58165947596232,-0.8211369713147482,1.6893057765916562e+18,4.104656168619791,-1.958531419436137,9.54950221379598,-1.07664293050766,1.6893057765873308e+18,4.100330712890625,-0.07476990371942523,0.4896084785461426,-0.641072528064251,1.6893057765873308e+18,4.100330712890625,-0.07568620219826698,0.49428161382675173,-0.6387206956744194,1.6893057766186621e+18,4.131662109375,0.0,0.6375502347946167,0.9834197163581848,11.70300006866455,1.105487585067749,196.15359497070312,40.900001525878906,-122.7531783,49.1903416,1.6893057765821722e+18,4.095172045898438,3.7636999249458314,-49.58689918518066,-10.2540997505188,1.6893057765821722e+18,4.095172045898438,-264.52649841308596,43.3038990020752,-153.0550979614258,1.6893057765830062e+18,4.096006266276041,-0.3738298366467158,-0.38768434524536133,0.6728913386662801,0.5069717317819595,2.6491058667500815,-1.3346059521039326,-2.4877593914667764,1.6893057765830062e+18,4.096006266276041,-3.8624146382013955,9.560722351074219,-0.8350951075553894
4.2,1.68930577668681e+18,4.199810180664063,-1.5792813102404277,-0.37207571665445965,-0.3997240165869395,1.6893057766868124e+18,4.1998123046875,-1.9743179261684418,9.357372093200684,-1.1724830985069274,1.6893057766868124e+18,4.1998123046875,-0.36889610737562173,9.74401626586914,-0.7904088616371154,1.689305776682486e+18,4.195486206054688,0.37720928837855655,0.5830199675013622,-2.7847564816474915,1.689305776682486e+18,4.195486206054688,0.37629298865795135,0.5877287282298008,-2.7824657559394836,,,,,,,,,,,,1.689305776682176e+18,4.195176147460938,-5.508299911022187,-48.79267921447754,-10.912899780273438,1.689305776682176e+18,4.195176147460938,-273.7984954833984,44.09811973571777,-153.71389465332032,1.68930577668681e+18,4.199810180664063,-0.3765735477209091,-0.3408314834038417,0.6327895919481913,0.5826632479826609,1.7796998023986816,-1.4507800539334614,-0.2954541643460592,1.68930577668681e+18,4.199810180664063,-1.9124634849528472,9.361121018727621,-1.1878370543320973
4.3,1.6893057767906158e+18,4.3036158040364585,-0.07879360516866052,-0.9113872845967611,0.01668975502252578,1.6893057767819666e+18,4.294966756184896,2.7344977458318076,8.353941917419434,-0.31415767470995587,1.6893057767819666e+18,4.294966756184896,2.940790275732676,9.291511376698812,-0.3751891329884529,1.6893057767862904e+18,4.299290242513021,0.3511966069539388,-0.10191268598039943,-3.5604281028111777,1.6893057767862904e+18,4.299290242513021,0.3502294098337491,-0.0972039320816596,-3.5581119457880654,,,,,,,,,,,,1.6893057767821724e+18,4.2951724609375,-22.82497959136963,-43.008658981323244,-12.857579803466797,1.6893057767821724e+18,4.2951724609375,-291.11517639160155,49.88213882446289,-155.65857543945313,1.6893057767906158e+18,4.3036158040364585,-0.41711017986138654,-0.2777618865172068,0.5073483685652415,0.6991374790668488,0.12931900347272549,-1.2326647440592449,1.1744192043940227,1.6893057767906158e+18,4.3036158040364585,3.143072267373403,8.292426745096842,-0.3277170062065124
4.4,1.6893057768857728e+18,4.398772607421875,1.5951838493347168,-0.347305965423584,-0.03081742227077482,1.6893057768857702e+18,4.398770385742187,6.849753936131795,7.87358291943868,-0.09830512851476668,1.6893057768857702e+18,4.398770385742187,5.249618609746297,8.27659797668457,-0.16226915766795472,1.689305776890099e+18,4.403099202473958,0.14851661150654152,0.07455101076629941,-1.286914885044098,1.689305776890099e+18,4.403099202473958,0.14757486432790753,0.07925976696424183,-1.2845732346177101,,,,,,,,,,,,1.6893057768821724e+18,4.3951724609375,-33.787899017333984,-35.11769905090332,-13.950699710845948,1.6893057768821724e+18,4.3951724609375,-302.0780944824219,57.77309913635254,-156.75169830322267,1.6893057768857728e+18,4.398772607421875,-0.43946295976638794,-0.2330922454595566,0.42066784501075744,0.7584933757781982,0.03037429638206956,-1.003281044960022,1.0670464277267455,1.6893057768857728e+18,4.398772607421875,6.872425937652588,7.914619636535645,-0.19202401824295517
4.5,1.6893057769809277e+18,4.4939278157552085,2.5655043919881186,-0.5310346285502116,-0.07656164218982059,1.6893057769895764e+18,4.502576538085937,7.730212926864624,7.7830544312795,-0.16919249730805552,1.6893057769895764e+18,4.502576538085937,5.17276660601298,8.321909586588541,-0.13777405023574824,1.6893057769852524e+18,4.498252246093751,-0.2927571654319763,-0.38713585436344145,1.3153761386871339,1.6893057769852524e+18,4.498252246093751,-0.29373455122113223,-0.38243218660354616,1.3176974177360534,,,,,,,,,,,,1.6893057769821745e+18,4.495174487304688,-35.040839767456056,-34.517459106445315,-14.275219631195068,1.6893057769821745e+18,4.495174487304688,-303.33103332519534,58.373338317871095,-157.0762161254883,1.6893057769809277e+18,4.4939278157552085,-0.4436900466680527,-0.2369971374670664,0.418406864007314,0.7559544344743093,0.02498108303795255,-1.0033193031946819,1.0755033294359844,1.6893057769809277e+18,4.4939278157552085,7.841977755228679,7.729116280873616,-0.20857437668989098
4.6000000000000005,1.6893057770847311e+18,4.5977309163411455,1.1226691404978435,-0.7254228591918945,-0.4288211017847061,1.6893057770933832e+18,4.606383260091146,3.7749768098195395,8.624231338500977,-0.5842475245396296,1.6893057770933832e+18,4.606383260091146,2.78694216410319,9.358347256978353,-0.23607432842254636,1.6893057770804111e+18,4.593411214192709,-0.4323144207398097,-1.0213157832622528,3.117678085962931,1.6893057770804111e+18,4.593411214192709,-0.4332816203435262,-1.0166324724753697,3.1199942429860434,,,,,,,,,,,,1.689305777082174e+18,4.5951740234375,-23.58381938934326,-41.991179656982425,-14.382579708099366,1.689305777082174e+18,4.5951740234375,-291.8740173339844,50.89961891174316,-157.1835739135742,1.6893057770847311e+18,4.5977309163411455,-0.4407607913017273,-0.3087446987628936,0.49869074920813244,0.677669495344162,0.08178235031664367,-1.2543357014656067,1.2160802483558655,1.6893057770847311e+18,4.5977309163411455,4.163710792859395,8.554640134175619,-0.6538387835025787
4.7,1.6893057771885373e+18,4.701537312825521,-0.9579015175501505,-0.8651577631632487,0.15898552288611725,1.6893057771885391e+18,4.701539208984375,-1.1466405987739563,8.832027816772461,-0.3964907109737396,1.6893057771885391e+18,4.701539208984375,-0.15947036445140844,9.761070060729981,-0.6026724994182586,1.6893057771842102e+18,4.697210123697917,-0.6415357788403829,0.14833844701449073,3.0978248914082847,1.6893057771842102e+18,4.697210123697917,-0.6424775322278341,0.1529962917168935,3.100115656852722,,,,,,,,,,,,1.6893057771821775e+18,4.6951774414062495,-6.636799930036068,-47.90939903259277,-13.5127197265625,1.6893057771821775e+18,4.6951774414062495,-274.92699279785154,44.98139915466309,-156.3137191772461,1.6893057771885373e+18,4.701537312825521,-0.4109041939179103,-0.38099178671836853,0.6015579303105673,0.5674360891183218,1.5983402381340663,-1.4649981657663982,-0.3524407347043355,1.6893057771885373e+18,4.701537312825521,-1.1061819940805435,8.882656256357828,-0.4465605169534683
4.800000000000001,1.6893057772923446e+18,4.805344807942709,-2.052704910437266,-0.15446599324544266,0.3190208971500396,1.6893057772836925e+18,4.796692545572917,-4.214558243751526,9.271390279134115,-0.7762715419133505,1.6893057772836925e+18,4.796692545572917,-2.205390373865763,9.478514035542807,-1.177782674630483,1.6893057772880212e+18,4.801021240234375,-0.5470043768485388,0.48831040412187576,1.1192323714494705,1.6893057772880212e+18,4.801021240234375,-0.5479461203018824,0.49296825875838596,1.12154858186841,,,,,,,,,,,,1.6893057772821745e+18,4.795174267578124,4.696999895572662,-49.42829895019531,-10.228479671478272,1.6893057772821745e+18,4.795174267578124,-263.59319458007815,43.46249923706055,-153.02947540283202,1.6893057772923446e+18,4.805344807942709,-0.3746154507001241,-0.39277424414952594,0.6804914176464081,0.49192137519518536,2.656835675239563,-1.3020306428273518,-2.467265804608663,1.6893057772923446e+18,4.805344807942709,-4.348456700642903,9.300602595011393,-0.8900303145249685
4.9,1.6893057773875e+18,4.9005,-1.7177468061447143,0.0260894775390625,0.05175027847290038,1.6893057773874982e+18,4.900498168945313,-3.945465366045634,9.472387154897055,-1.1176475683848064,1.6893057773874982e+18,4.900498168945313,-2.2018807927767434,9.476047197977701,-1.2113342483838399,1.6893057773918267e+18,4.904826619466146,0.1774054504930973,0.29639691114425654,-1.2264137864112854,1.6893057773918267e+18,4.904826619466146,0.1764891482889652,0.3011311093966166,-1.2240466525157292,,,,,,,,,,,,1.6893057773821722e+18,4.895172314453125,4.710419833660126,-49.69059829711914,-9.41473970413208,1.6893057773821722e+18,4.895172314453125,-263.57977600097655,43.20019874572754,-152.21573638916016,1.6893057773875e+18,4.9005,-0.3651993751525878,-0.37651119828224183,0.6872802972793579,0.5022700548171997,2.6414229393005373,-1.3077366828918457,-2.5266759395599365,1.6893057773875e+18,4.9005,-3.948396635055542,9.496634674072265,-1.164945697784424
5.0,1.6893057774826547e+18,4.995654825846354,-1.1392285823822021,-0.5720163981119791,-0.13000972072283426,1.6893057774913052e+18,5.0043052978515625,-0.9074779550234476,9.085547606150309,-0.8636095623175303,1.6893057774913052e+18,5.0043052978515625,0.10738539944092433,9.728319644927979,-0.8083121677239736,1.6893057774869837e+18,4.9999834960937495,0.5222897887229919,-0.11285735405981538,-3.1740863800048826,1.6893057774869837e+18,4.9999834960937495,0.5213734865188598,-0.10818423479795454,-3.171795654296875,,,,,,,,,,,,1.6893057774821737e+18,4.995173681640625,-5.909679877758026,-48.70727958679199,-10.98121976852417,1.6893057774821737e+18,4.995173681640625,-274.1998748779297,44.18351936340332,-153.78221893310547,1.6893057774826547e+18,4.995654825846354,-0.3901057988405227,-0.3441509852806727,0.6238265037536621,0.5813237826029459,1.6270890732606251,-1.4448830286661785,-0.42009532451629633,1.6893057774826547e+18,4.995654825846354,-1.3003993804256122,9.154640356699625,-0.9810572961966196
5.1000000000000005,1.6893057775864614e+18,5.099461181640625,0.12428424755732219,-0.7098762194315592,-0.0026187077164649825,1.6893057775864591e+18,5.0994592285156255,3.3013774156570435,8.546324920654296,-0.32901312112808223,1.6893057775864591e+18,5.0994592285156255,3.164349985122681,9.247526168823242,-0.3893017351627349,1.6893057775821325e+18,5.095132731119792,0.2875393604238828,-0.17570011814435318,-3.1417053937911987,1.6893057775821325e+18,5.095132731119792,0.28662306070327753,-0.1709913598994414,-3.139363725980123,,,,,,,,,,,,1.6893057775821732e+18,5.0951732177734375,-21.989279556274415,-43.15017890930176,-13.224799633026123,1.6893057775821732e+18,5.0951732177734375,-290.27947387695315,49.7406192779541,-156.02579498291016,1.6893057775864614e+18,5.099461181640625,-0.4343501130739848,-0.2903926074504852,0.5045394798119863,0.6858317951361338,0.14306700726350144,-1.2409128546714783,1.236884335676829,1.6893057775864614e+18,5.099461181640625,3.2673992911974588,8.531310160954794,-0.39511483659346897
5.2,1.6893057776902666e+18,5.203266560872396,1.789102554321289,-0.43787328402201336,0.031618148088455166,1.689305777681617e+18,5.1946166992187495,6.6923262278238935,7.96829891204834,-0.14735799391443527,1.689305777681617e+18,5.1946166992187495,4.967615524927775,8.449567794799805,-0.267292708158493,1.6893057776859405e+18,5.198940633138021,0.08834638524179654,0.20601430659492803,-0.9820676868160566,1.6893057776859405e+18,5.198940633138021,0.08740463325132923,0.21067214788248143,-0.9797769325474898,1.6893057776806853e+18,5.193685302734375,0.0,0.4836753308773041,0.9946020841598512,9.689000129699709,1.511180400848389,113.66437530517578,40.900001525878906,-122.7531362,49.1903396,1.6893057776821745e+18,5.195174560546875,-32.26289958953858,-36.842779541015624,-14.027559852600097,1.6893057776821745e+18,5.195174560546875,-300.5530944824219,56.04801864624024,-156.82855682373048,1.6893057776902666e+18,5.203266560872396,-0.45768045882383984,-0.24642428755760193,0.42788998285929364,0.739291379849116,0.053432641550898496,-1.0321001013120015,1.1390215754508972,1.6893057776902666e+18,5.203266560872396,6.821339130401611,7.975377559661865,-0.2387837593754132
5.300000000000001,1.6893057777854182e+18,5.298418359375001,1.7173825263977052,-0.24378681182861328,-0.2277065515518188,1.6893057777854198e+18,5.298419962565104,6.634499549865723,8.22343365351359,-0.45762733121713,1.6893057777854198e+18,5.298419962565104,4.919750531514485,8.477819442749023,-0.3025493770837783,1.6893057777897485e+18,5.302748413085937,0.017867808230221268,-0.05775221623480318,0.9354892323414484,1.6893057777897485e+18,5.302748413085937,0.016926058257619534,-0.053094371454790214,0.9377799679835638,,,,,,,,,,,,1.6893057777821752e+18,5.295175146484375,-32.09819927215576,-36.590239715576175,-13.330939865112304,1.6893057777821752e+18,5.295175146484375,-300.3883972167969,56.30055923461914,-156.1319381713867,1.6893057777854182e+18,5.298418359375001,-0.4536354899406433,-0.2454278737306595,0.43376910090446474,0.7387255668640137,0.061395898461341816,-1.0424392223358154,1.1366617202758789,1.6893057777854182e+18,5.298418359375001,6.660541534423828,8.221738529205322,-0.5327619671821594
5.4,1.6893057778805737e+18,5.393573567708334,1.0301742951075237,-0.5656574567159017,-0.3611598163843155,1.6893057778892275e+18,5.402227498372397,4.082255085309346,8.659026940663656,-0.655633399883906,1.6893057778892275e+18,5.402227498372397,3.1302257776260376,9.25354528427124,-0.340406874815623,1.689305777893554e+18,5.406553833007813,-0.2525673266500234,-0.3744349454840024,2.8391743898391724,1.689305777893554e+18,5.406553833007813,-0.25348362295577914,-0.3697516421477,2.8414905865987143,,,,,,,,,,,,1.6893057778821727e+18,5.3951726806640625,-24.469539451599122,-41.61175880432129,-13.627399921417236,1.6893057778821727e+18,5.3951726806640625,-292.7597320556641,51.279039001464845,-156.42839965820312,1.6893057778805737e+18,5.393573567708334,-0.43906668821970624,-0.29037755727767944,0.4941553920507431,0.6906263629595438,0.10712122855087114,-1.2199044823646545,1.2107454935709636,1.6893057778805737e+18,5.393573567708334,4.381657044092814,8.613264083862305,-0.6912266512711843
5.5,1.689305777984379e+18,5.497378702799479,-0.37076300382614136,-0.4814925193786621,0.013494049509366316,1.6893057779930304e+18,5.506030395507813,-0.30598217745622,9.252048015594482,-0.43748774627844494,1.6893057779930304e+18,5.506030395507813,0.18614446620146433,9.760663668314615,-0.5612021336952845,1.6893057779887089e+18,5.50170869140625,-0.3714976996183395,0.21572705842554568,2.7639514446258544,1.6893057779887089e+18,5.50170869140625,-0.37241400182247164,0.22046126499772067,2.7662422180175783,,,,,,,,,,,,1.6893057779821742e+18,5.495174194335937,-10.26141996383667,-47.27743911743164,-13.066199779510498,1.6893057779821742e+18,5.495174194335937,-278.55161437988284,45.613359451293945,-155.86719512939453,1.689305777984379e+18,5.497378702799479,-0.4012078096469243,-0.3530936191479365,0.5947896043459574,0.5990398128827413,1.1707104295492172,-1.4700309038162231,0.20331339041392008,1.689305777984379e+18,5.497378702799479,0.04336988925933838,9.271091143290201,-0.5178467035293579
5.6000000000000005,1.689305778088189e+18,5.601188761393229,-1.2815339962641399,-0.357144832611084,0.4252399057149887,1.6893057780881876e+18,5.601187646484375,-2.9973692893981934,9.285587501525878,-0.3531806230545044,1.6893057780881876e+18,5.601187646484375,-1.7105878829956054,9.614435958862305,-0.8654483675956726,1.6893057780838592e+18,5.596859171549479,-0.3490840345621109,0.32625294166306656,1.4817300140857697,1.6893057780838592e+18,5.596859171549479,-0.350000336766243,0.33091079692045844,1.4840971132119496,,,,,,,,,,,,1.6893057780821714e+18,5.5951713378906245,0.3293999969959259,-49.225779342651364,-11.280119800567627,1.6893057780821714e+18,5.5951713378906245,-267.96079406738284,43.66501922607422,-154.08111724853515,1.689305778088189e+18,5.601188761393229,-0.36187442640463513,-0.37266474465529126,0.6691075364748637,0.5310150782267252,2.656826456387838,-1.3741868138313293,-2.5279074907302856,1.689305778088189e+18,5.601188761393229,-2.975774049758911,9.256833871205647,-0.44197427729765576
5.7,1.689305778191994e+18,5.704994099934896,-1.2317415873209636,0.09893004099527991,0.17532946666081742,1.6893057781833377e+18,5.69633768717448,-3.5983067750930786,9.516554832458496,-0.8223333954811096,1.6893057781833377e+18,5.69633768717448,-2.358454426129659,9.460652669270834,-1.0788883169492085,1.6893057781876705e+18,5.700670491536459,-0.056352319583917676,-0.10443250408085682,-0.05505422502756119,1.6893057781876705e+18,5.700670491536459,-0.05726861604489386,-0.09974920594443874,-0.05273803820212684,,,,,,,,,,,,1.6893057781821742e+18,5.695174243164063,4.687239956855774,-49.47099914550781,-9.801479721069336,1.6893057781821742e+18,5.695174243164063,-263.6029510498047,43.41979904174805,-152.60247650146485,1.689305778191994e+18,5.704994099934896,-0.3532361437877019,-0.37508097290992737,0.6923916041851044,0.5050806204477946,2.710900863011678,-1.3032841483751934,-2.479414145151774,1.689305778191994e+18,5.704994099934896,-3.579563021659851,9.561320622762045,-0.9076773921648661
5.800000000000001,1.6893057782871475e+18,5.800147314453125,-1.2276048898696899,0.03717231750488281,-0.07236125469207762,1.689305778287148e+18,5.800147989908854,-2.545664211114248,9.657232761383057,-0.8853443761666616,1.689305778287148e+18,5.800147989908854,-1.358281061053276,9.656144460042318,-0.8836039503415426,1.6893057782914775e+18,5.8044774576822915,0.43529238800207776,0.01987857420075063,-2.06228107213974,1.6893057782914775e+18,5.8044774576822915,0.4343506395816803,0.02451096622583765,-2.059990326563517,1.689305778337e+18,5.85,0.0,0.4836753308773041,0.9465794563293456,11.659000396728516,1.511959195137024,113.13184356689452,40.5,-122.7531235,49.1903363,1.6893057782821745e+18,5.79517451171875,0.3318400144577027,-49.42219886779785,-10.801879787445069,1.6893057782821745e+18,5.79517451171875,-267.95835571289064,43.46859931945801,-153.6028793334961,1.6893057782871475e+18,5.800147314453125,-0.36673596501350403,-0.36454893946647643,0.6619782447814941,0.5419779300689698,2.5429049491882325,-1.3997633457183838,-2.6485852241516117,1.6893057782871475e+18,5.800147314453125,-2.619542646408081,9.694042587280274,-0.9611968636512757
5.9,1.689305778382301e+18,5.895300862630208,-0.523987094561259,-0.8286004066467285,0.1108266015847524,1.6893057783909548e+18,5.9039545898437495,1.1584252814451854,8.735198338826498,-0.1785643909436961,1.6893057783909548e+18,5.9039545898437495,1.6199051563938458,9.618573347727457,-0.3558462659517924,1.689305778386629e+18,5.8996290039062504,0.5149593949317932,-0.10012081563472748,-3.3925317764282226,1.689305778386629e+18,5.8996290039062504,0.51404310464859,-0.09544769823551176,-3.390149402618408,,,,,,,,,,,,1.6893057783821737e+18,5.895173608398437,-14.653419542312623,-45.93421897888184,-13.267499637603759,1.6893057783821737e+18,5.895173608398437,-282.94361572265626,46.9565788269043,-156.06849822998046,1.689305778382301e+18,5.895300862630208,-0.403504674633344,-0.32892435292402905,0.5677778422832489,0.6356190343697866,0.5633526258170605,-1.4144356449445088,1.6568411986033122,1.689305778382301e+18,5.895300862630208,0.8177471359570821,8.829415957132975,-0.2835494875907898
6.0,1.6893057784861084e+18,5.999108439127604,0.6184747219085693,-0.38590431213378906,-0.08255904167890549,1.6893057784861084e+18,5.999108447265625,4.831348276138305,8.519286346435546,-0.1456032575108111,1.6893057784861084e+18,5.999108447265625,4.180067777633667,8.856993293762207,-0.13579234927892683,1.6893057784817846e+18,5.994784505208333,0.0989092650512854,0.07371107302606106,-2.3322580655415854,1.6893057784817846e+18,5.994784505208333,0.09796751259515683,0.07836891648670037,-2.3299418687820435,,,,,,,,,,,,1.6893057784821757e+18,5.9951757812499995,-28.0941593170166,-39.38159942626953,-14.348419761657714,1.6893057784821757e+18,5.9951757812499995,-296.3843566894531,53.50919876098633,-157.14941864013673,1.6893057784861084e+18,5.999108439127604,-0.43681516249974567,-0.27084298431873316,0.4632357408603032,0.721207062403361,0.03462533932179206,-1.1332472562789917,1.111742118994395,1.6893057784861084e+18,5.999108439127604,4.77108899752299,8.47667376200358,-0.22113669353226817
6.1000000000000005,1.689305778589916e+18,6.102915852864584,1.7701083819071453,-0.21234369277954102,-0.0274927405019601,1.6893057785812634e+18,6.094263346354167,6.749255498250325,8.243174235026041,-0.10787642122401546,1.6893057785812634e+18,6.094263346354167,4.974601984024048,8.452797253926596,-0.15393278251091636,1.68930577858559e+18,6.098590087890625,-0.16414457683761915,-0.07070765644311905,0.2509637971719106,1.68930577858559e+18,6.098590087890625,-0.16508633084595203,-0.0659988969564438,0.2532800038655599,,,,,,,,,,,,1.6893057785821742e+18,6.095174169921875,-32.84849967956543,-36.030259704589845,-14.341099643707276,1.6893057785821742e+18,6.095174169921875,-301.1386993408203,56.860539245605466,-157.14209899902343,1.689305778589916e+18,6.102915852864584,-0.44919011493523914,-0.24977962176005045,0.4308195561170578,0.7417164146900177,0.033137148246169035,-1.0422637263933818,1.1082408428192139,1.689305778589916e+18,6.102915852864584,6.720541477203369,8.253742535909018,-0.19152551221971706
6.2,1.6893057786937224e+18,6.2067224934895835,1.2318302392959595,-0.6053094863891602,0.03990278641382855,1.689305778685069e+18,6.198069051106771,5.3087761004765825,8.337990125020346,-0.36749767263730365,1.689305778685069e+18,6.198069051106771,3.9561785062154136,8.947119553883871,-0.44539233048756915,1.6893057786893978e+18,6.202397827148438,-0.6873506605625153,-0.32131511842211086,1.965458909670512,1.6893057786893978e+18,6.202397827148438,-0.6883178651332855,-0.3166063676277796,1.9677496353785198,1.689305778688214e+18,6.201214111328125,0.0,0.2319526970386505,0.9497792720794678,10.626999855041504,1.2494885921478271,99.2144012451172,40.5,-122.753122,49.190343,1.6893057786821734e+18,6.19517353515625,-27.969719314575194,-39.795178985595705,-13.528579711914062,1.6893057786821734e+18,6.19517353515625,-296.2599151611328,53.09561882019043,-156.32957916259767,1.6893057786937224e+18,6.2067224934895835,-0.4581565260887146,-0.27940938373406726,0.47749804457028705,0.6949109435081482,0.13697405283649758,-1.1689512332280476,1.2599718570709229,1.6893057786937224e+18,6.2067224934895835,5.031108975410461,8.404091517130533,-0.44915275772412616
6.300000000000001,1.689305778788876e+18,6.301876025390625,-0.23105555176734924,-0.5165266036987305,-0.10524716377258299,1.6893057787888786e+18,6.301878662109375,1.4313067470987637,9.097611427307129,-1.060917725165685,1.6893057787888786e+18,6.301878662109375,1.606566349665324,9.590360005696615,-1.0753655632336936,1.6893057787932017e+18,6.306201578776041,-0.570089985926946,-0.17743090291817978,2.4565182526906333,1.6893057787932017e+18,6.306201578776041,-0.57105719546477,-0.17277305449048677,2.458808978398641,,,,,,,,,,,,1.689305778782175e+18,6.29517509765625,-16.48707981109619,-46.25629920959473,-10.88727970123291,1.689305778782175e+18,6.29517509765625,-284.7772735595703,46.63449935913086,-153.6882781982422,1.689305778788876e+18,6.301876025390625,-0.44867582321166993,-0.3202192783355713,0.5621980547904968,0.6156987309455871,0.6463718950748444,-1.368229866027832,1.8029906749725342,1.689305778788876e+18,6.301876025390625,1.363430345058441,9.083035087585449,-1.189831054210663
6.4,1.6893057788840302e+18,6.3970302734375,-0.8023571111261845,-0.06277990341186522,-0.0032275517781575384,1.6893057788926825e+18,6.405682576497395,-1.369492175988853,9.622735977172852,-1.3262219528357189,1.6893057788926825e+18,6.405682576497395,-0.4846897044529517,9.690584818522135,-1.3520036538441975,1.6893057788883584e+18,6.401358544921875,-0.08515461981296538,0.6265033930540085,1.7402940034866332,1.6893057788883584e+18,6.401358544921875,-0.08610145598649978,0.6311765134334564,1.74261531829834,,,,,,,,,,,,1.689305778882174e+18,6.395173999023437,-5.797439932823181,-49.24285888671875,-9.474519729614258,1.689305778882174e+18,6.395173999023437,-274.08763427734374,43.647938919067386,-152.2755142211914,1.6893057788840302e+18,6.3970302734375,-0.42042993505795795,-0.352430318792661,0.6269331276416779,0.5524376630783081,1.7892967859903972,-1.4187892476717632,0.8550988435745239,1.6893057788840302e+18,6.3970302734375,-1.1406784964104493,9.633105119069418,-1.350947767496109
6.5,1.6893057789878364e+18,6.500836507161458,-1.1485869884490967,-0.09708897272745766,0.048029839992523166,1.6893057789878318e+18,6.500831640625,-2.594657230377197,9.513862800598144,-1.1761919736862183,1.6893057789878318e+18,6.500831640625,-1.4739058017730713,9.61251106262207,-1.284821105003357,1.6893057789835103e+18,6.496510375976563,0.08004880060131349,0.4095342457294464,0.465377502143383,1.6893057789835103e+18,6.496510375976563,0.07908159766035773,0.414217546582222,0.46769370262821514,,,,,,,,,,,,1.6893057789821722e+18,6.495172290039062,0.12322000097483396,-49.82601890563965,-9.225639820098877,1.6893057789821722e+18,6.495172290039062,-268.16697387695314,43.06477928161621,-152.0266357421875,1.6893057789878364e+18,6.500836507161458,-0.3833741794029872,-0.36107974251111347,0.6667439540227255,0.5272740721702576,2.4236927032470703,-1.3704233566919963,-2.7444769938786826,1.6893057789878364e+18,6.500836507161458,-2.611566503842672,9.517152945200602,-1.2320045630137126
6.6000000000000005,1.6893057790916416e+18,6.604641805013021,-1.1527275840441387,0.11329650878906246,0.021119703849156683,1.689305779082993e+18,6.595992960611979,-2.4124637444814048,9.758429050445557,-0.9278169671694437,1.689305779082993e+18,6.595992960611979,-1.3277737895647685,9.66128651301066,-1.0204320053259532,1.689305779087319e+18,6.600319091796876,0.3864486292004585,0.13530665139357248,-0.9583712220191956,1.689305779087319e+18,6.600319091796876,0.38553232699632645,0.14001540342966715,-0.9560550078749657,,,,,,,,,,,,1.6893057790821737e+18,6.595173681640626,-0.8576599910855294,-49.50637931823731,-10.163819599151612,1.6893057790821737e+18,6.595173681640626,-269.1478576660156,43.38441925048828,-152.96481628417968,1.6893057790916416e+18,6.604641805013021,-0.37153294185797375,-0.35743573804696394,0.6601344545682272,0.5459756255149841,2.4577286640803018,-1.4074502388636272,-2.738158901532491,1.6893057790916416e+18,6.604641805013021,-2.3945175409317017,9.787641525268555,-0.9639087120691935
6.7,1.6893057791867986e+18,6.69979853515625,-1.4059741735458373,-0.4014472961425781,-0.06718741059303278,1.6893057791867955e+18,6.699795654296875,-0.5869394640127817,9.295816898345947,-0.5433701400955518,1.6893057791867955e+18,6.699795654296875,0.8194070247312387,9.713764667510986,-0.5424481282631556,1.6893057791911278e+18,6.704127766927083,0.4475605984528859,-0.5634722808996836,-3.1804443995157876,1.6893057791911278e+18,6.704127766927083,0.44664429624875385,-0.5587635288635889,-3.178128202756246,,,,,,,,,,,,1.6893057791821724e+18,6.695172387695313,-10.744539880752564,-47.483618927001956,-12.555019855499268,1.6893057791821724e+18,6.695172387695313,-279.03473205566405,45.40717887878418,-155.35601654052735,1.6893057791867986e+18,6.69979853515625,-0.4018342733383179,-0.33806247711181636,0.5868022322654725,0.6149973273277283,0.8693737477064133,-1.4533408164978028,1.9730979919433593,1.6893057791867986e+18,6.69979853515625,-0.6053841290995478,9.327700996398926,-0.6111269056797027
6.800000000000001,1.6893057792819538e+18,6.79495361328125,-0.030819495519002316,-0.7174327373504639,0.16021232927838958,1.6893057792906025e+18,6.803602416992187,4.296113630135854,8.175876061121622,0.15483556470523274,1.6893057792906025e+18,6.803602416992187,4.1148364543914795,8.860263188680014,-0.08638818243828912,1.6893057792862802e+18,6.799280322265625,0.23041836917400355,-0.381485341489315,-3.1777209758758547,1.6893057792862802e+18,6.799280322265625,0.22947152554988856,-0.37678167670965196,-3.175430250167847,,,,,,,,,,,,1.6893057792821745e+18,6.7951744873046875,-25.618779373168945,-40.25389938354492,-15.12921962738037,1.6893057792821745e+18,6.7951744873046875,-293.9089691162109,52.63689956665039,-157.9302185058594,1.6893057792819538e+18,6.79495361328125,-0.4570132444302241,-0.2945411751667658,0.46298519273598987,0.6983858346939087,0.03711713365434355,-1.1628403663635254,1.1859155297279358,1.6893057792819538e+18,6.79495361328125,3.8465620279312134,8.244470357894897,0.04745765042025594
6.9,1.689305779385758e+18,6.89875809733073,1.7686214447021484,-0.4779260953267415,-0.012853938775757946,1.6893057793857574e+18,6.8987575683593745,7.531887817382812,7.4890563011169435,-0.0013160524889826775,1.6893057793857574e+18,6.8987575683593745,5.697483539581299,7.98350191116333,0.01229453184641892,1.6893057793814377e+18,6.894437906901042,0.3211114952961604,0.42149701714515686,-0.9349292541543642,1.6893057793814377e+18,6.894437906901042,0.32016974190870917,0.42610395948092145,-0.9326384911934534,,,,,,,,,,,,1.6893057793821752e+18,6.895175122070313,-34.440599250793454,-33.64027900695801,-15.790459632873535,1.6893057793821752e+18,6.895175122070313,-302.7307922363281,59.250518798828125,-158.5914566040039,1.689305779385758e+18,6.89875809733073,-0.4745771239201228,-0.24640873819589612,0.3878721445798874,0.7505945066610972,-0.002698820947747,-0.9550230304400126,1.1263284087181091,1.689305779385758e+18,6.89875809733073,7.438886801401774,7.523732264836629,0.001595214630166708
7.0,1.6893057794895657e+18,7.002565592447916,1.9392948945363362,-0.5743434429168701,0.018113106954842802,1.6893057794809162e+18,6.993916463216146,7.36311403910319,7.688936789830525,0.11056834862877923,1.6893057794809162e+18,6.993916463216146,5.350720246632894,8.210047960281372,0.0031689476066579336,1.6893057794852396e+18,6.998239624023437,-0.17697274840126434,-0.21594086661934853,1.5366315146287282,1.6893057794852396e+18,6.998239624023437,-0.177889047190547,-0.2112830181916555,1.5389477213223774,,,,,,,,,,,,1.6893057794821706e+18,6.995170581054687,-34.164879989624026,-34.258818817138675,-15.307339668273926,1.6893057794821706e+18,6.995170581054687,-302.4550750732422,58.63197898864746,-158.10833587646485,1.6893057794895657e+18,7.002565592447916,-0.45944599807262415,-0.25351070115963614,0.41075857480367023,0.745129237572352,0.00027463577862363325,-1.0078244904677074,1.105546494325002,1.6893057794895657e+18,7.002565592447916,7.174081087112427,7.707082351048787,0.017148561465243503
7.1000000000000005,1.6893057795933724e+18,7.106372395833333,1.0551033318042755,-1.0132625897725422,-0.02063352987170218,1.689305779584721e+18,7.097720703125,4.1895333131154375,8.308179457982382,-0.1452642747511466,1.689305779584721e+18,7.097720703125,2.9478072921435037,9.29192304611206,-0.17911825266977147,1.6893057795890476e+18,7.102047485351562,-0.6118069986502329,-0.2174425764630238,3.6417495807011924,1.6893057795890476e+18,7.102047485351562,-0.6127487520376841,-0.2127592700223128,3.6440403064092,,,,,,,,,,,,1.6893057795821734e+18,7.095173413085938,-22.125919342041016,-42.38523902893066,-14.964519691467284,1.6893057795821734e+18,7.095173413085938,-290.41611633300784,50.5055591583252,-157.76551818847656,1.6893057795933724e+18,7.106372395833333,-0.4418282210826874,-0.32287878294785816,0.50893701116244,0.6619602541128794,0.14367063871274388,-1.293070395787557,1.3007047375043232,1.6893057795933724e+18,7.106372395833333,3.7042888402938843,8.362317085266113,-0.24496522080153227
7.2,1.6893057796885217e+18,7.20152158203125,-0.7559278130531311,-0.6154787063598632,0.18151447772979729,1.689305779688525e+18,7.201525065104167,-1.5612170944611232,9.06281582514445,-0.785444031159083,1.689305779688525e+18,7.201525065104167,-0.6910883480062088,9.68650515874227,-1.036172350247701,1.6893057796928522e+18,7.205852132161458,-0.9262244403362274,-0.09432777917633456,2.960660179456075,1.6893057796928522e+18,7.205852132161458,-0.9271661639213562,-0.08961901674047112,2.963001847267151,1.6893057796874276e+18,7.200427490234375,0.0,0.2198190540075302,0.9601650834083556,9.847999572753906,1.0452001094818115,78.18946838378906,40.5,-122.7531136,49.1903522,1.6893057796821757e+18,7.1951758056640625,-3.9369398951530457,-48.90369911193848,-11.382599544525146,1.6893057796821757e+18,7.1951758056640625,-272.2271301269531,43.98709945678711,-154.18359832763673,1.6893057796885217e+18,7.20152158203125,-0.40965994596481325,-0.37677556276321406,0.6281497955322266,0.5422514200210571,1.993850541114807,-1.4282214403152467,-0.592758846282959,1.6893057796885217e+18,7.20152158203125,-1.4790036441758274,9.080761909484863,-0.8621339917182922
7.300000000000001,1.6893057797836818e+18,7.296681681315104,-2.4463707208633423,0.07949352264404291,0.07991147041320802,1.6893057797923346e+18,7.305334431966146,-4.5188454786936445,9.520143985748291,-1.3843475977579753,1.6893057797923346e+18,7.305334431966146,-2.1023455063501992,9.463443279266357,-1.5001659393310547,1.6893057797880074e+18,7.3010073730468745,-0.08762862235307692,0.2620611876249313,-0.002260206639766693,1.6893057797880074e+18,7.3010073730468745,-0.08854492157697678,0.26673431396484376,6.108731031417847e-05,,,,,,,,,,,,1.6893057797821714e+18,7.295171386718749,4.986139869689941,-49.93825836181641,-8.315519762039184,1.6893057797821714e+18,7.295171386718749,-263.30405578613284,42.95253944396973,-151.11651763916015,1.6893057797836818e+18,7.296681681315104,-0.39115458230177563,-0.3852253158887227,0.6775477627913157,0.48937831819057465,2.5227838357289634,-1.3037486672401428,-2.586262822151184,1.6893057797836818e+18,7.296681681315104,-4.548755804697673,9.542476971944174,-1.4215360283851624
7.4,1.689305779887487e+18,7.40048681640625,-2.1494389375050864,-0.3403259913126628,0.017717589934666916,1.689305779887488e+18,7.400488037109374,-3.2539994716644287,9.336075782775879,-1.0979466438293457,1.689305779887488e+18,7.400488037109374,-1.1678404688835144,9.657241821289062,-1.1617740392684937,1.689305779883163e+18,7.396163126627605,0.506687268614769,0.5549965252478918,-1.9701167742411296,1.689305779883163e+18,7.396163126627605,0.5057455152273178,0.5596543848514557,-1.9678260485331218,,,,,,,,,,,,1.689305779882173e+18,7.395172973632812,-0.5246000349521637,-49.7101188659668,-9.383019828796387,1.689305779882173e+18,7.395172973632812,-268.81479797363284,43.18067893981934,-152.18401794433595,1.689305779887487e+18,7.40048681640625,-0.38911767800649005,-0.3628658056259155,0.6526697874069214,0.5383284489313761,2.271606167157491,-1.400294045607249,-1.8379768927892048,1.689305779887487e+18,7.40048681640625,-3.282354474067688,9.314760208129883,-1.1390832861264546
7.5,1.6893057799912937e+18,7.504293579101563,-0.8633472522099813,-0.9652849833170573,-0.1027477383613586,1.6893057799826424e+18,7.495642415364583,0.7734799136718115,8.57069206237793,-0.6450651089350382,1.6893057799826424e+18,7.495642415364583,1.806281638642152,9.550116062164307,-0.634639322757721,1.6893057799869676e+18,7.499967447916667,0.424907681842645,-0.11726067463556926,-3.9722530444463096,1.6893057799869676e+18,7.499967447916667,0.4239404797554016,-0.1125773750245571,-3.9699368874231973,,,,,,,,,,,,1.6893057799821734e+18,7.495173388671875,-15.836819744110107,-45.90249862670898,-12.060919761657715,1.6893057799821734e+18,7.495173388671875,-284.12701110839845,46.98829879760742,-154.8619155883789,1.6893057799912937e+18,7.504293579101563,-0.4223531136910121,-0.3047808657089869,0.5444606492916743,0.6547387937704722,0.40273571759462357,-1.3356483181317647,1.4928942322731018,1.6893057799912937e+18,7.504293579101563,1.2710873236258824,8.518348852793375,-0.7002994318803152
7.6000000000000005,1.6893057800864486e+18,7.599448583984374,1.5874101638793945,-0.8790658950805664,0.19694632291793818,1.6893057800864484e+18,7.599448527018229,6.697510480880737,7.445467074712117,-0.11286146690448125,1.6893057800864484e+18,7.599448527018229,5.122734944025676,8.329173644383749,-0.3330240845680237,1.6893057800907753e+18,7.60377518717448,0.09274970553815363,0.07819075013200442,-2.326658477385839,1.6893057800907753e+18,7.60377518717448,0.09180795370290674,0.08284860104322433,-2.324342260758082,,,,,,,,,,,,1.6893057800821737e+18,7.595173754882812,-31.94569911956787,-36.874498748779295,-13.904339694976807,1.6893057800821737e+18,7.595173754882812,-300.2358917236328,56.01629867553711,-156.70534057617186,1.6893057800864486e+18,7.599448583984374,-0.4655115604400635,-0.24305343925952907,0.42072147130966187,0.7391181588172913,0.06225216314196582,-1.0140706181526185,1.1590698480606079,1.6893057800864486e+18,7.599448583984374,6.756972217559815,7.430910682678222,-0.12191431485116482
7.7,1.6893057801816033e+18,7.694603271484375,2.6483734448750815,-0.47820862134297687,-0.2650058964888255,1.689305780190254e+18,7.703254191080728,8.165307839711508,7.629814068476359,-0.8152546137571335,1.689305780190254e+18,7.703254191080728,5.541342417399089,8.070794661839804,-0.5287452638149261,1.6893057801859323e+18,7.69893212890625,-0.04471533596515656,0.22000311464071273,0.9511477231979371,1.6893057801859323e+18,7.69893212890625,-0.0456316340714693,0.22464569807052612,0.95346904322505,,,,,,,,,,,,1.6893057801821734e+18,7.695173559570312,-35.94485931396484,-33.84523963928223,-12.801459789276123,1.6893057801821734e+18,7.695173559570312,-304.2350555419922,59.04555892944336,-155.6024597167969,1.6893057801816033e+18,7.694603271484375,-0.46490635971228284,-0.21699199577172593,0.40872303148110706,0.7546466688315073,0.09210907792051627,-0.9593521455923716,1.1524539589881897,1.6893057801816033e+18,7.694603271484375,8.25842841466268,7.547461032867432,-0.7811568975448608
7.800000000000001,1.689305780285409e+18,7.798409057617188,1.7665021816889446,-0.6178260644276937,-0.48046842714150745,1.6893057802854077e+18,7.798407861328125,5.837530136108398,8.297949981689452,-0.7993224084377288,1.6893057802854077e+18,7.798407861328125,4.0699066638946535,8.892187690734863,-0.40775916576385496,1.689305780281085e+18,7.794085001627604,0.019649498785535475,-0.4826599086324374,2.6048057277997336,1.689305780281085e+18,7.794085001627604,0.018733197202285123,-0.47797660529613495,2.6071219444274902,,,,,,,,,,,,1.6893057802821742e+18,7.795174169921874,-28.576059532165527,-39.37427940368652,-13.279699993133544,1.6893057802821742e+18,7.795174169921874,-296.8662506103516,53.516519165039064,-156.08069763183593,1.689305780285409e+18,7.798409057617188,-0.44707727432250977,-0.267264316479365,0.47132577498753864,0.7104905744393667,0.1034967961410681,-1.1440145373344421,1.1907089352607727,1.689305780285409e+18,7.798409057617188,5.798008759816487,8.279764652252197,-0.896311471859614
7.9,1.689305780389216e+18,7.902216023763021,0.24199922134478888,-1.4415229161580403,-0.15193470319112143,1.6893057803805635e+18,7.893563313802083,1.0989038149515789,8.26381230354309,-0.6855436911185583,1.6893057803805635e+18,7.893563313802083,0.5919767444332439,9.684664408365885,-0.5308587352434794,1.6893057803848886e+18,7.897888509114583,-0.40920335551102954,-0.19616410260399184,4.571053663889567,1.6893057803848886e+18,7.897888509114583,-0.4101451026896636,-0.19145534808437029,4.573369900385539,,,,,,,,,,,,1.689305780382175e+18,7.895174975585936,-11.093459850549698,-46.919979095458984,-13.1052396774292,1.689305780382175e+18,7.895174975585936,-279.38365783691404,45.9708194732666,-155.90623474121094,1.689305780389216e+18,7.902216023763021,-0.39929263790448505,-0.3571621576944987,0.5997000137964884,0.5903659264246622,1.4050865049163501,-1.4310208757718403,0.4431235392888387,1.689305780389216e+18,7.902216023763021,0.45144591232140857,8.255636850992838,-0.7195417284965515
8.0,1.6893057804930194e+18,8.006019449869791,-2.442945877710978,-0.5283123652140299,0.8176682392756144,1.6893057804843702e+18,7.9973701171875,-5.424728274345398,8.572287400563559,-0.29032914713025093,1.6893057804843702e+18,7.9973701171875,-3.108877420425415,9.208715756734213,-1.156211366256078,1.6893057804886956e+18,8.001695353190104,-0.6800711850325266,-0.31357749551534647,2.1080959339936576,1.6893057804886956e+18,8.001695353190104,-0.6809874872366587,-0.3088687335451444,2.110386704405149,,,,,,,,,,,,1.689305780482173e+18,7.995172851562501,9.365939831733703,-48.719478607177734,-10.551779842376709,1.689305780482173e+18,7.995172851562501,-258.92425842285155,44.1713191986084,-153.35277709960937,1.6893057804930194e+18,8.006019449869791,-0.35526591042677563,-0.41394072274367016,0.7036152382691702,0.4544324030478795,2.7864957253138223,-1.2065670490264893,-2.3240245580673218,1.6893057804930194e+18,8.006019449869791,-5.707579851150513,8.624430497487387,-0.39760736376047134
8.1,1.6893057805881764e+18,8.1011763671875,-2.4276713848114015,-0.1774024963378906,0.0214263677597046,1.6893057805881766e+18,8.101176798502605,-5.987639904022217,8.82931629816691,-1.4387843211491902,1.6893057805881766e+18,8.101176798502605,-3.590906302134196,8.997518221537272,-1.5270079374313354,1.6893057805925005e+18,8.105500366210938,-0.0018325981994469775,0.2536617927253246,-0.8181776491304239,1.6893057805925005e+18,8.105500366210938,-0.00279979594051837,0.2583450923363368,-0.8158359912534555,,,,,,,,,,,,1.6893057805821752e+18,8.095175122070312,13.119879722595215,-48.860998916625974,-8.125199842453004,1.6893057805821752e+18,8.095175122070312,-255.17031555175782,44.02979927062988,-150.92619781494142,1.6893057805881764e+18,8.1011763671875,-0.3552510619163513,-0.4079700708389282,0.7197742223739624,0.4349362552165985,2.7398887634277345,-1.1581485748291016,-2.3751948356628416,1.6893057805881764e+18,8.1011763671875,-6.04319314956665,8.809296226501464,-1.5152549505233766
8.200000000000001,1.6893057806833303e+18,8.196330037434896,-1.6620391408602397,-0.19344345728556314,-0.5159336030483246,1.6893057806919826e+18,8.20498262532552,-3.3470603426297507,9.224231561024984,-1.4867404500643413,1.6893057806919826e+18,8.20498262532552,-1.7898547152678173,9.54419501622518,-1.0335333049297333,1.689305780687658e+18,8.200657958984376,0.665110069513321,0.6758307695388794,-2.960130786895752,1.689305780687658e+18,8.200657958984376,0.664163225889206,0.6804733514785767,-2.957840013504028,,,,,,,,,,,,1.6893057806821706e+18,8.195170532226562,4.683580040931702,-49.425859451293945,-9.738039779663087,1.6893057806821706e+18,8.195170532226562,-263.6066131591797,43.46493911743164,-152.53903503417968,1.6893057806833303e+18,8.196330037434896,-0.3652839908997218,-0.3768859952688217,0.6792216598987579,0.5109484195709229,2.606196324030558,-1.3300641377766926,-2.561715523401896,1.6893057806833303e+18,8.196330037434896,-3.6993037859598794,9.299804846445719,-1.6150555809338887
8.3,1.6893057807871373e+18,8.30013700358073,-0.24922579526901245,-1.541472593943278,-0.13896756370862326,1.6893057807871347e+18,8.300134765625,1.7050057411193849,7.907800197601318,-0.4308277264237404,1.6893057807871347e+18,8.300134765625,2.0001517713069914,9.528222465515137,-0.3499792009592056,1.6893057807828155e+18,8.295815511067708,0.607581838965416,0.25546893725792563,-4.598211765289307,1.6893057807828155e+18,8.295815511067708,0.6066400855779648,0.2601013382275899,-4.595895608266194,1.6893057807953823e+18,8.30838232421875,0.0,0.2276452183723449,0.9713807702064514,9.27299976348877,0.8697601556777954,66.19070434570312,40.5,-122.7531085,49.1903585,1.6893057807821747e+18,8.295174536132812,-16.871379327774047,-45.12535858154297,-13.116219902038575,1.6893057807821747e+18,8.295174536132812,-285.161572265625,47.76543960571289,-155.91721801757814,1.6893057807871373e+18,8.30013700358073,-0.4010947644710541,-0.3063168028990428,0.5499280393123627,0.6617796023686727,0.4292712068806092,-1.3518851200739543,1.486072262128194,1.6893057807871373e+18,8.30013700358073,1.7345970024665196,7.961319764455159,-0.49800621004154283
8.4,1.6893057808909414e+18,8.403941284179687,2.124690214792887,-0.6843693256378174,0.2931691731015841,1.689305780882291e+18,8.395290934244791,6.986144622166951,7.676573912302653,0.19601205488046006,1.689305780882291e+18,8.395290934244791,5.016700824101766,8.40619945526123,-0.1547752705713113,1.6893057808866173e+18,8.399617228190104,-0.03481931984424592,0.037237328787644686,-2.0498092273871102,1.6893057808866173e+18,8.399617228190104,-0.035761068264643335,0.0419460826863845,-2.047467569510142,,,,,,,,,,,,1.6893057808821724e+18,8.395172192382812,-33.41091957092285,-35.665479278564455,-14.026339721679687,1.6893057808821724e+18,8.395172192382812,-301.70111694335935,57.22531929016113,-156.82733764648438,1.6893057808909414e+18,8.403941284179687,-0.43979958693186444,-0.23699251562356946,0.4249302198489507,0.7543756465117136,0.030661467773218886,-1.0164034962654114,1.0726568102836609,1.6893057808909414e+18,8.403941284179687,7.283153931299846,7.640681505203247,0.13320046352843437
8.5,1.6893057809860982e+18,8.499098193359377,2.348741817474365,-0.6055457115173339,-0.374451270699501,1.689305780986097e+18,8.499096923828125,7.741080284118652,7.58295472462972,-0.565005253845205,1.689305780986097e+18,8.499096923828125,5.376876672108968,8.192802747090658,-0.3180916185180346,1.6893057809904228e+18,8.503422648111979,-0.11183924693614243,0.003436116036027633,1.0718903491894405,1.6893057809904228e+18,8.503422648111979,-0.11288280629863344,0.0081703239120543,1.0742319822311401,,,,,,,,,,,,1.6893057809821716e+18,8.495171508789062,-35.44709930419922,-34.10387916564942,-13.422439765930175,1.6893057809821716e+18,8.495171508789062,-303.73729248046874,58.786919021606444,-156.2234375,1.6893057809860982e+18,8.499098193359377,-0.4477623879909515,-0.22490801811218258,0.4175739347934722,0.7578734517097473,0.060347762703895524,-0.987209928035736,1.0999015808105468,1.6893057809860982e+18,8.499098193359377,7.74688310623169,7.574839019775391,-0.6995416969060898
8.6,1.6893057810812536e+18,8.594253621419272,1.2459843556086223,-0.6148411432902018,-0.3092710773150126,1.6893057810899057e+18,8.602905802408854,4.664608438809712,8.427820523579916,-0.5457629611094793,1.6893057810899057e+18,8.602905802408854,3.505244771639506,9.117316246032717,-0.28843361139297485,1.6893057810855828e+18,8.598582763671875,-0.19807305708527562,-0.6465397715568543,2.8841697216033935,1.6893057810855828e+18,8.598582763671875,-0.19911152273416516,-0.6417444705963135,2.886552095413208,,,,,,,,,,,,1.6893057810821737e+18,8.595173657226564,-27.581759643554687,-40.123359298706056,-13.86285982131958,1.6893057810821737e+18,8.595173657226564,-295.8719512939453,52.767439651489255,-156.66385803222656,1.6893057810812536e+18,8.594253621419272,-0.4335299531618754,-0.2751254364848137,0.4826635817686717,0.7081453303496043,0.0812001104156176,-1.178114891052246,1.1546372175216675,1.6893057810812536e+18,8.594253621419272,4.979862729708354,8.414061705271402,-0.601894607146581
8.700000000000001,1.6893057811850575e+18,8.698057535807292,-0.31167205174763996,-1.0171173413594563,0.21937341491381326,1.6893057811937083e+18,8.706708170572917,-0.699900625894467,8.700602372487387,-0.05822534983356795,1.6893057811937083e+18,8.706708170572917,-0.21050518254439032,9.721678256988525,-0.3722790280977885,1.6893057811807342e+18,8.693734008789063,-0.24587326062222317,0.28405233783026534,4.151516596476237,1.6893057811807342e+18,8.693734008789063,-0.24691681874295077,0.2888374465207259,4.153858224550883,,,,,,,,,,,,1.6893057811821747e+18,8.695174536132813,-10.21749981045723,-46.9041187286377,-14.098319721221923,1.6893057811821747e+18,8.695174536132813,-278.5076904296875,45.98667907714844,-156.8993179321289,1.6893057811850575e+18,8.698057535807292,-0.3848663071791331,-0.357846920688947,0.602569450934728,0.5971306761105856,1.4567990601062775,-1.4489871859550476,-0.5761363704999288,1.6893057811850575e+18,8.698057535807292,-0.17457634210586548,8.704291025797525,-0.13140584218005338
8.8,1.689305781288862e+18,8.801861897786459,-2.1465261777242026,-0.2270043690999349,0.4985675513744354,1.6893057812888632e+18,8.801863037109374,-5.074817943572998,9.103613471984863,-0.12143574785441162,1.6893057812888632e+18,8.801863037109374,-2.918007659912109,9.329253005981446,-0.7565804958343506,1.6893057812845407e+18,8.797540649414062,-0.3575343353052934,0.02038763463497163,1.5963181667029858,1.6893057812845407e+18,8.797540649414062,-0.3585778971513112,0.025121835370858502,1.5986089048286278,,,,,,,,,,,,1.6893057812821742e+18,8.79517412109375,5.882839941978455,-48.882958984375,-11.890119743347167,1.6893057812821742e+18,8.79517412109375,-262.4073547363281,44.00783920288086,-154.6911178588867,1.689305781288862e+18,8.801861897786459,-0.3294677436351776,-0.3915899594624837,0.7022825280825297,0.4944184124469757,2.8893085718154907,-1.2626989682515461,-2.309294660886129,1.689305781288862e+18,8.801861897786459,-5.019842783610026,9.11386251449585,-0.243669104995206
8.9,1.6893057813926707e+18,8.905670817057292,-1.663513978322347,-0.10475047429402669,-0.07177825768788652,1.6893057813840202e+18,8.897020426432292,-4.675575494766235,9.187142848968506,-0.7923233956098557,1.6893057813840202e+18,8.897020426432292,-2.955307364463806,9.315467675526937,-0.8134415249029795,1.6893057813883474e+18,8.901347208658855,0.04889467296501001,-0.006363178797376616,-0.9070585370063782,1.6893057813883474e+18,8.901347208658855,0.047825659004350506,-0.0016035208827816026,-0.9046659916639328,,,,,,,,,,,,1.6893057813821732e+18,8.895172973632812,7.396859788894654,-49.05619926452637,-11.109319686889648,1.6893057813821732e+18,8.895172973632812,-260.89333190917966,43.83459892272949,-153.91031799316406,1.6893057813926707e+18,8.905670817057292,-0.32990433275699615,-0.3872615198294322,0.7048622965812683,0.49410114188989,2.866472363471985,-1.2605668902397156,-2.3385918140411377,1.6893057813926707e+18,8.905670817057292,-4.5406800508499146,9.234002272288004,-0.8804590304692587
9.0,1.6893057814878262e+18,9.000826220703125,-1.3415596723556518,-0.4356237411499023,-0.23966369032859797,1.689305781487822e+18,9.000822184244791,-2.3276182214419046,9.249555587768555,-0.7362914681434631,1.689305781487822e+18,9.000822184244791,-0.9814166352152824,9.698618253072103,-0.6078089872996012,1.6893057814921492e+18,9.00514912923177,0.37456220636765164,-0.13159055138627687,-3.1413490772247314,1.6893057814921492e+18,9.00514912923177,0.373493197063605,-0.1268563475459814,-3.1390074094136557,,,,,,,,,,,,1.6893057814821696e+18,8.99516943359375,-2.69619991928339,-48.790239334106445,-12.08043966293335,1.6893057814821696e+18,8.99516943359375,-270.98639526367185,44.100559616088866,-154.88143615722657,1.6893057814878262e+18,9.000826220703125,-0.36160517334938047,-0.361072963476181,0.6484677076339722,0.562899398803711,2.3629921674728394,-1.4411415815353394,-1.5877554416656494,1.6893057814878262e+18,9.000826220703125,-2.3485554695129394,9.273384094238281,-0.8528019905090332
9.1,1.6893057815829814e+18,9.095981404622396,-0.5656349956989288,-1.0502395629882812,0.21502436945835748,1.6893057815916321e+18,9.10463232421875,2.444268356077373,8.262117544809977,0.014755739830434331,1.6893057815916321e+18,9.10463232421875,2.824859301249186,9.315335750579834,-0.27982768168052036,1.689305781587307e+18,9.100307080078124,0.05115996301174166,-0.3545156389474869,-4.126516914367675,1.689305781587307e+18,9.100307080078124,0.05015203431248666,-0.34978143572807313,-4.124134540557861,,,,,,,,,,,,1.689305781582177e+18,9.0951771484375,-20.119019508361816,-43.85411911010742,-13.815279579162597,1.689305781582177e+18,9.0951771484375,-288.4092163085937,49.03667945861817,-156.61627960205078,1.6893057815829814e+18,9.095981404622396,-0.42099718749523163,-0.30763229727745056,0.525376151005427,0.6695827047030131,0.1712452073891957,-1.3090941508611043,1.266434113184611,1.6893057815829814e+18,9.095981404622396,1.9301105340321858,8.356135527292887,-0.079262251034379
9.200000000000001,1.6893057816867853e+18,9.199785115559896,1.7832056681315105,-0.7571258544921875,0.32745547344287235,1.689305781686787e+18,9.199787060546875,7.3368727684021,7.406503963470459,0.2354537546634674,1.689305781686787e+18,9.199787060546875,5.482698726654053,8.120756053924561,-0.2078881651163101,1.6893057816824614e+18,9.19546122233073,-0.23584488903482756,-0.2846632093812029,-2.0543907384077706,1.6893057816824614e+18,9.19546122233073,-0.23686300093928972,-0.2799289984007677,-2.05204909046491,,,,,,,,,,,,1.6893057816821745e+18,9.195174438476561,-33.54267902374268,-35.28361930847168,-14.77663974761963,1.6893057816821745e+18,9.195174438476561,-301.83287353515624,57.607178115844725,-157.57763671875,1.6893057816867853e+18,9.199785115559896,-0.4813748002052307,-0.24654693156480786,0.4016214410463969,0.7385372718175253,0.04000446759164331,-0.9812806149323782,1.176488180955251,1.6893057816867853e+18,9.199785115559896,7.228617350260417,7.382455984751384,0.10897313430905342
9.3,1.6893057817905912e+18,9.303591389973958,2.8945391178131104,-0.4499359130859375,-0.17083928982416788,1.6893057817819405e+18,9.294940592447917,8.643374045689901,7.405786196390788,-0.511964350938797,1.6893057817819405e+18,9.294940592447917,5.748740196228027,7.931784947713216,-0.40762711067994434,1.689305781786269e+18,9.299269124348958,-0.015220724046230297,0.37596210092306137,1.0330494915445645,1.689305781786269e+18,9.299269124348958,-0.01628973769644895,0.3807217627763748,1.0353656932711601,1.6893057818073969e+18,9.32039697265625,0.0,0.2713432312011719,0.9860597252845764,9.18299961090088,0.8077801465988159,56.73856735229492,40.5,-122.7531033,49.1903646,1.6893057817821745e+18,9.295174487304688,-35.659379959106445,-33.63173942565918,-13.948259830474854,1.6893057817821745e+18,9.295174487304688,-303.94957580566404,59.25905914306641,-156.74925689697267,1.6893057817905912e+18,9.303591389973958,-0.48665577669938404,-0.2306707327564557,0.39716727038224536,0.7428189218044281,0.07645984304447967,-0.9525610407193502,1.1998130281766255,1.6893057817905912e+18,9.303591389973958,8.562815507253012,7.535197973251343,-0.5998008797566096
9.4,1.689305781885748e+18,9.398748095703123,1.276324701309204,-0.9254633903503418,-0.3871517419815063,1.6893057818857482e+18,9.398748209635416,4.997410178184509,8.110272884368896,-1.0709875424702961,1.6893057818857482e+18,9.398748209635416,3.6920509735743203,9.003013769785563,-0.7839493453502655,1.6893057818900746e+18,9.40307470703125,-0.33449962735176086,0.11677706614136696,3.2872440814971924,1.6893057818900746e+18,9.40307470703125,-0.335517739256223,0.12151127929488818,3.2895856698354087,,,,,,,,,,,,1.689305781882176e+18,9.395175952148438,-27.84405937194824,-40.3649185180664,-11.921839714050293,1.689305781882176e+18,9.395175952148438,-296.1342529296875,52.525878524780275,-154.72283782958985,1.689305781885748e+18,9.398748095703123,-0.45871574282646177,-0.26612301468849175,0.48883056044578554,0.6914397239685058,0.22272858917713165,-1.1716590642929077,1.3242054224014281,1.689305781885748e+18,9.398748095703123,4.989872741699219,8.083672618865966,-1.1778669357299805
9.5,1.6893057819809037e+18,9.493903727213542,-0.30044489602247876,-0.7153412501017252,-0.05875006318092344,1.689305781989552e+18,9.502552205403646,0.024027928709983788,9.04237699508667,-0.9916255871454874,1.689305781989552e+18,9.502552205403646,0.4485861261685689,9.707712332407633,-1.0364623467127483,1.6893057819852308e+18,9.498230859375,-0.2352136641740799,-0.4613254427909851,3.0837088584899903,1.6893057819852308e+18,9.498230859375,-0.236282679438591,-0.45659122467041013,3.085999584197998,,,,,,,,,,,,1.6893057819821716e+18,9.49517177734375,-11.48873975276947,-47.58609886169434,-10.942179775238037,1.6893057819821716e+18,9.49517177734375,-279.7789367675781,45.30469932556152,-153.74317779541016,1.6893057819809037e+18,9.493903727213542,-0.42621080080668133,-0.3376681903998057,0.5911607245604197,0.5939049025376638,1.1199822127819061,-1.4220957557360332,1.21787828207016,1.6893057819809037e+18,9.493903727213542,0.3986043781042099,8.977073033650717,-1.075773189465205
9.600000000000001,1.689305782084709e+18,9.597708984375,-1.930095414320628,-0.48106924692789715,0.3552666703859965,1.689305782093358e+18,9.60635791015625,-3.714857061704,9.035796642303467,-0.9560323456923167,1.689305782093358e+18,9.60635791015625,-1.7574864029884338,9.551142374674479,-1.3338095744450886,1.6893057820803843e+18,9.593384236653646,-0.3120248826841513,0.06846781199177103,1.573156197865804,1.6893057820803843e+18,9.593384236653646,-0.31304298589626944,0.07320201769471164,1.57549782594045,,,,,,,,,,,,1.6893057820821724e+18,9.595172338867187,1.7909599907696248,-49.625939178466794,-9.675819778442383,1.6893057820821724e+18,9.595172338867187,-266.4992370605469,43.26485900878906,-152.47681579589843,1.689305782084709e+18,9.597708984375,-0.39583489795525867,-0.3827312688032786,0.6612644990285238,0.5089988509813944,2.449939211209615,-1.3531274994214375,-2.6591493686040244,1.689305782084709e+18,9.597708984375,-3.5729827086130777,9.090931415557861,-0.9577272633711497
9.700000000000001,1.6893057821885146e+18,9.701514485677082,-1.7322196960449219,-0.11912314097086586,0.06283404429753618,1.6893057821885133e+18,9.70151337890625,-3.9897923946380613,9.327581596374511,-1.2594621896743774,1.6893057821885133e+18,9.70151337890625,-2.290808582305908,9.435615921020508,-1.3981524229049682,1.689305782184188e+18,9.697187866210937,0.054494271986186525,0.09348783642053603,-0.007864883790413538,1.689305782184188e+18,9.697187866210937,0.05342525445545713,0.09824749082326889,-0.005523238331079483,,,,,,,,,,,,1.689305782182172e+18,9.695171899414062,4.971499872207642,-49.550299072265624,-9.347639751434325,1.689305782182172e+18,9.695171899414062,-263.3186950683594,43.340498733520505,-152.1486389160156,1.6893057821885146e+18,9.701514485677082,-0.383410707116127,-0.39053213099638623,0.6807846128940582,0.4868211845556895,2.5929176410039267,-1.2954270243644714,-2.5195602575937905,1.6893057821885146e+18,9.701514485677082,-4.003790497779846,9.321739196777344,-1.3286147514979045
9.8,1.6893057822923192e+18,9.805319213867188,-1.4785685539245605,-0.00810082753499349,-0.1094108422597249,1.6893057822836703e+18,9.796670084635418,-2.702493727207184,9.68076229095459,-1.1648061275482178,1.6893057822836703e+18,9.796670084635418,-1.2807224839925766,9.635808308919271,-1.1405253609021504,1.6893057822879956e+18,9.800995524088542,0.37321321417888004,0.19379699598842606,-2.299882173538208,1.6893057822879956e+18,9.800995524088542,0.3721696560581525,0.19858210720121852,-2.297515074412028,,,,,,,,,,,,1.689305782282175e+18,9.795174853515624,0.1768999695777893,-49.494178771972656,-10.260199642181396,1.689305782282175e+18,9.795174853515624,-268.11329040527346,43.396619415283205,-153.06119842529296,1.6893057822923192e+18,9.805319213867188,-0.3938190738360087,-0.3694185068209966,0.6467099189758301,0.5373510420322418,2.227502783139547,-1.4034473101298015,-1.8633317947387695,1.6893057822923192e+18,9.805319213867188,-2.559921403725942,9.650951544443766,-1.215653618176778
9.9,1.6893057823874742e+18,9.900474169921875,-0.9997335195541381,-1.252074909210205,-0.17018255591392514,1.6893057823874752e+18,9.900475260416668,1.2932209521532059,8.267401615778605,-0.7138587568576137,1.6893057823874752e+18,9.900475260416668,2.217296580473582,9.448941866556803,-0.6362966150045395,1.6893057823918026e+18,9.90480265299479,0.5732461263736089,-0.3292818206051985,-4.257196307182312,1.6893057823918026e+18,9.90480265299479,0.5722280194362005,-0.3245221624771754,-4.254854599634807,,,,,,,,,,,,1.689305782382175e+18,9.895174975585936,-16.683499670028688,-45.808559036254884,-12.19877986907959,1.689305782382175e+18,9.895174975585936,-284.97369079589845,47.08223915100098,-154.9997756958008,1.6893057823874742e+18,9.900474169921875,-0.44178282618522646,-0.3152220070362091,0.5346181631088257,0.6454832077026367,0.37846771180629724,-1.3264370441436768,1.519206666946411,1.6893057823874742e+18,9.900474169921875,1.2206984639167786,8.221140384674072,-0.8116454660892487
10.0,1.68930578248263e+18,9.995629801432292,1.6584150791168213,-0.7758231163024902,0.4634783814350764,1.6893057824912822e+18,10.004282023111978,7.2846494515736895,7.422436078389485,0.26660032570362086,1.6893057824912822e+18,10.004282023111978,5.356335639953613,8.196488618850708,-0.26510687420765555,1.6893057824869555e+18,9.99995576171875,0.15274685695767398,0.26007587835192675,-2.1100813150405884,1.6893057824869555e+18,9.99995576171875,0.15170838534831999,0.26484062895178795,-2.107698917388916,,,,,,,,,,,,1.6893057824821755e+18,9.995175317382813,-32.355619239807126,-36.08393936157226,-14.690019702911377,1.6893057824821755e+18,9.995175317382813,-300.64581298828125,56.80685920715332,-157.49101867675782,1.68930578248263e+18,9.995629801432292,-0.477037971218427,-0.2506632134318351,0.4131230066219966,0.7333946724732717,0.05097866679231322,-1.0084491868813832,1.1819929679234822,1.68930578248263e+18,9.995629801432292,6.874679247538249,7.504091103871663,0.20029919221997258
10.100000000000001,1.6893057825864328e+18,10.099432861328125,3.599879741668701,-0.8768649895985922,-0.053474913040796934,1.689305782586434e+18,10.0994337890625,9.063533592224122,7.298348236083984,-0.45332026332616804,1.689305782586434e+18,10.0994337890625,5.379415607452392,8.180494022369384,-0.47262718677520754,1.6893057825821133e+18,10.095113362630208,-0.3931681426862876,-0.04558581905439493,1.3781629378596942,1.6893057825821133e+18,10.095113362630208,-0.3942117020487785,-0.040800706599839,1.3804790986080964,,,,,,,,,,,,1.6893057825821716e+18,10.09517158203125,-34.52599906921387,-34.80903968811035,-13.551759815216064,1.6893057825821716e+18,10.09517158203125,-302.8161956787109,58.08175888061523,-156.3527572631836,1.6893057825864328e+18,10.099432861328125,-0.4821535100539525,-0.23813352237145102,0.4127114216486613,0.7347516318162283,0.09022986578444636,-0.9908974667390188,1.2112729946772258,1.6893057825864328e+18,10.099432861328125,8.950153748194376,7.3182486693064375,-0.5278167836368084
10.200000000000001,1.6893057826902433e+18,10.203243245442708,1.5764132142066956,-1.1769821643829346,-0.39076704780260724,1.689305782681592e+18,10.194592203776041,4.907180746396382,8.063612858454386,-1.094915747642517,1.689305782681592e+18,10.194592203776041,3.0397289196650186,9.230562845865885,-0.7340929011503855,1.6893057826859139e+18,10.198913736979167,-0.3985386739174525,-0.12120584398508072,3.8585811853408813,1.6893057826859139e+18,10.198913736979167,-0.39960768322149914,-0.11644618709882097,3.8609482447306314,,,,,,,,,,,,1.689305782682174e+18,10.195173999023437,-21.906319618225098,-43.43565902709961,-12.480599784851075,1.689305782682174e+18,10.195173999023437,-290.19651794433594,49.45513916015625,-155.2815948486328,1.6893057826902433e+18,10.203243245442708,-0.4617037872473398,-0.306051105260849,0.5151302566130956,0.6513071358203888,0.3427583972613017,-1.2724341750144958,1.5069185098012288,1.6893057826902433e+18,10.203243245442708,4.302095711231232,8.14337388674418,-1.1521440744400024
10.3,1.6893057827853983e+18,10.298398242187499,-1.863765263557434,-1.0409276962280274,0.12033131122589114,1.6893057827853955e+18,10.298395263671875,-2.614657251164317,8.61037270228068,-0.9893324573834738,1.6893057827853955e+18,10.298395263671875,-0.8252865808705488,9.658207734425863,-1.1995951334635417,1.689305782789725e+18,10.302724975585937,-0.47777298589547473,-0.19155716399351755,3.0564387440681458,1.689305782789725e+18,10.302724975585937,-0.4788165440162023,-0.1868229458729426,3.0587804714838662,1.6893057828093588e+18,10.32235888671875,0.0,0.2287984192371368,0.991330623626709,9.91100025177002,0.8692995309829712,46.79862594604492,40.5,-122.7530962,49.1903737,1.6893057827821752e+18,10.295175097656251,-2.859679913520813,-49.237979125976565,-10.237019729614257,1.6893057827821752e+18,10.295175097656251,-271.1498718261719,43.65281867980957,-153.03802032470702,1.6893057827853983e+18,10.298398242187499,-0.4084128737449646,-0.3716103196144104,0.6370151400566101,0.5364088594913483,2.076872777938843,-1.4071317911148071,-0.5196729660034181,1.6893057827853983e+18,10.298398242187499,-2.7340391755104063,8.626604270935058,-1.0776076555252074
10.4,1.689305782880552e+18,10.393551879882812,-2.0930435260136924,-0.181880791982015,0.4275148908297221,1.689305782889204e+18,10.402204142252604,-4.580161611239116,9.207382043202719,-1.208475132783254,1.689305782889204e+18,10.402204142252604,-2.5243252515792847,9.337054252624512,-1.6200354894002278,1.6893057828935314e+18,10.40653145345052,-0.25221098338564235,0.20629428078730902,0.6918048957983652,1.6893057828935314e+18,10.40653145345052,-0.2532545501987139,0.21105394512414932,0.6941465325653553,,,,,,,,,,,,1.6893057828821742e+18,10.395174047851564,7.239479923248291,-49.70279884338379,-8.141059923171998,1.6893057828821742e+18,10.395174047851564,-261.05071716308595,43.18799934387207,-150.94205780029296,1.689305782880552e+18,10.393551879882812,-0.39440859854221344,-0.40023574729760486,0.6820533772309622,0.46782147884368896,2.561925013860067,-1.2664213180541992,-2.51185142993927,1.689305782880552e+18,10.393551879882812,-4.551048994064331,9.17467991511027,-1.1762717366218567
10.5,1.689305782984361e+18,10.497360839843749,-2.187965710957845,-0.0087782541910807,-0.34200815359751385,1.68930578299301e+18,10.506009847005208,-4.551447709401448,9.36550776163737,-1.7663019299507141,1.68930578299301e+18,10.506009847005208,-2.4067140420277915,9.387951532999674,-1.4660067359606426,1.689305782988686e+18,10.5016861328125,0.37388007938861845,0.2593122959136963,-1.1090564012527466,1.689305782988686e+18,10.5016861328125,0.3728416100144386,0.26404650211334224,-1.1066740334033967,,,,,,,,,,,,1.6893057829821737e+18,10.495173608398437,7.184579849243164,-49.7820987701416,-8.132519912719726,1.6893057829821737e+18,10.495173608398437,-261.105615234375,43.108699035644534,-150.9335159301758,1.689305782984361e+18,10.497360839843749,-0.3819319208463033,-0.39178964495658875,0.6884948909282684,0.4756908218065898,2.598790685335795,-1.2682597239812214,-2.5112289587656655,1.689305782984361e+18,10.497360839843749,-4.68843690554301,9.350752035776773,-1.8459629615147908
10.600000000000001,1.6893057830881649e+18,10.601164957682292,-1.3617639243602753,-0.7433204650878906,-0.2270500510931015,1.6893057830881654e+18,10.601165234375,-1.5783058166503907,8.934321403503418,-1.0759327173233033,1.6893057830881654e+18,10.601165234375,-0.18611342310905457,9.72968578338623,-0.885013484954834,1.6893057830838377e+18,10.596837727864584,0.6827182670434316,-0.11522445206840833,-3.320027152697245,1.6893057830838377e+18,10.596837727864584,0.681649257739385,-0.11046479704479377,-3.3176091512044272,,,,,,,,,,,,1.689305783082173e+18,10.595173022460937,-4.213879979029298,-48.89881935119629,-10.923879814147949,1.689305783082173e+18,10.595173022460937,-272.5040710449219,43.99197845458984,-153.7248779296875,1.6893057830881649e+18,10.601164957682292,-0.4070931275685628,-0.3603254904349645,0.6144517461458842,0.5692883531252543,1.6011569301287334,-1.4360478123029072,-0.39007429281870526,1.6893057830881649e+18,10.601164957682292,-1.5302100516855717,8.97019370396932,-1.1097712069749832
10.700000000000001,1.689305783191969e+18,10.704969238281251,0.26903494199117023,-1.064056396484375,0.3813086450099945,1.689305783183317e+18,10.696316935221354,3.3172497550646463,8.158029635747274,0.10957133769989014,1.689305783183317e+18,10.696316935221354,3.1409895420074463,9.231350262959799,-0.3330007046461105,1.6893057831876452e+18,10.700644938151042,0.30978504319985706,-0.25302547340591747,-3.432451844215393,1.6893057831876452e+18,10.700644938151042,0.3087923874457677,-0.2482149042189121,-3.430084705352783,,,,,,,,,,,,1.6893057831821745e+18,10.695174438476561,-21.386599636077882,-43.12821960449219,-14.42649974822998,1.6893057831821745e+18,10.695174438476561,-289.6767974853516,49.762579345703124,-157.2274948120117,1.689305783191969e+18,10.704969238281251,-0.4626314143339793,-0.3054828693469365,0.4808282405138016,0.6774183809757233,0.10449393466114994,-1.2120133837064107,1.2756742636362712,1.689305783191969e+18,10.704969238281251,3.6813576221466064,8.0745800336202,0.07726823041836418
10.8,1.6893057832871263e+18,10.800126171874998,2.2343699455261232,-0.7501861572265625,0.2829025149345398,1.6893057832871258e+18,10.800125569661459,7.6513495445251465,7.353343486785889,0.07587241629759467,1.6893057832871258e+18,10.800125569661459,5.433202028274536,8.15470019976298,-0.26418535411357874,1.6893057832914532e+18,10.804453247070313,-0.04925101064145565,0.31350113575657207,-1.182329664627711,1.6893057832914532e+18,10.804453247070313,-0.05032002739608287,0.31826079574724037,-1.1799625555674236,,,,,,,,,,,,1.6893057832821724e+18,10.795172509765624,-33.26085891723633,-35.371459579467775,-14.771759700775146,1.6893057832821724e+18,10.795172509765624,-301.5510589599609,57.51933898925781,-157.5727569580078,1.6893057832871263e+18,10.800126171874998,-0.49037683606147764,-0.24903911054134364,0.39891917705535884,0.7335447907447815,0.046266604214906644,-0.9786300778388977,1.2030742406845092,1.6893057832871263e+18,10.800126171874998,7.703692436218262,7.383413219451905,0.027278177440166463
10.9,1.689305783382281e+18,10.89528104654948,2.839866320292155,-0.7867530981699625,-0.24735521773497263,1.6893057833909302e+18,10.903930338541668,8.147162199020386,7.426324446996053,-0.6856433848539988,1.6893057833909302e+18,10.903930338541668,5.305276870727539,8.229374488194784,-0.45024931927522016,1.6893057833866043e+18,10.899604296875001,-0.15476270765066147,-0.20940460637211794,1.2103378415107726,1.6893057833866043e+18,10.899604296875001,-0.15580118000507354,-0.20463985502719875,1.2126896858215332,1.689305783376e+18,10.889,0.0,0.2287984192371368,0.942374587059021,9.677000045776367,0.8668146133422852,46.51490783691406,41.10000228881836,-122.7530915,49.1903768,1.689305783382173e+18,10.895172900390625,-33.79887924194336,-35.409278869628906,-14.006819820404052,1.689305783382173e+18,10.895172900390625,-302.0890747070313,57.4815185546875,-156.8078170776367,1.689305783382281e+18,10.89528104654948,-0.494589626789093,-0.24434455484151837,0.40605972210566205,0.7283346553643545,0.08339952801664664,-0.98532701532046,1.2380593220392864,1.689305783382281e+18,10.89528104654948,8.241678873697916,7.382655541102092,-0.6976075073083242
11.0,1.689305783486086e+18,10.999085693359376,1.1936497886975606,-0.8175517717997233,-0.5117450803518295,1.6893057834860874e+18,10.999087304687501,4.191746664047241,8.480283164978028,-0.9527023434638977,1.6893057834860874e+18,10.999087304687501,3.04320228099823,9.272359848022461,-0.4954265892505646,1.689305783481763e+18,10.99476326497396,-0.3100141081959009,-0.3534364439547062,3.5467599630355835,1.689305783481763e+18,10.99476326497396,-0.31105767997602624,-0.3486767839640379,3.5491270621617637,,,,,,,,,,,,1.6893057834821747e+18,10.995174731445314,-22.81155948638916,-42.602399063110354,-13.815279674530029,1.6893057834821747e+18,10.995174731445314,-291.10175170898435,50.288399124145506,-156.61627502441405,1.689305783486086e+18,10.999085693359376,-0.46725866695245105,-0.3130735059579213,0.4956800887982051,0.6595363120237986,0.19585962841908133,-1.2492303053538005,1.3838865359624226,1.689305783486086e+18,10.999085693359376,4.226522465546926,8.43928575515747,-1.0143573979536693
11.100000000000001,1.689305783589895e+18,11.10289481608073,-1.5698024928569794,-0.6765608787536621,0.19809442261854807,1.6893057835812431e+18,11.094243123372395,-1.5155540481209755,8.996514638264975,-0.6866403967142105,1.6893057835812431e+18,11.094243123372395,-0.13779280334711072,9.731509367624918,-0.880611409743627,1.6893057835855706e+18,11.098570353190103,-0.528296614686648,-0.3327688388526439,2.8617764115333557,1.6893057835855706e+18,11.098570353190103,-0.5293656289577484,-0.32800917699933047,2.86416894197464,,,,,,,,,,,,1.6893057835821755e+18,11.095175341796875,-5.293579959869385,-48.58283920288086,-12.207319736480713,1.6893057835821755e+18,11.095175341796875,-273.5837799072266,44.307958984375,-155.00831756591796,1.689305783589895e+18,11.10289481608073,-0.4302173803249995,-0.39179818828900653,0.6039193272590637,0.5431380669275919,1.7955151696999867,-1.4451155066490173,-0.1024664839108785,1.689305783589895e+18,11.10289481608073,-1.9390836755434673,9.050153573354086,-0.7283153980970383
11.200000000000001,1.6893057836936973e+18,11.206697509765625,-2.2522394259770713,-0.13201586405436194,0.24184848864873246,1.689305783685047e+18,11.198047037760416,-3.9842490752538047,9.387940565745035,-1.0241280893484752,1.689305783685047e+18,11.198047037760416,-1.7676644325256348,9.55059321721395,-1.363591472307841,1.6893057836893737e+18,11.20237353515625,-0.23510676622390747,0.02433280274271965,0.5668829580148061,1.6893057836893737e+18,11.20237353515625,-0.2360994151482979,0.02906700347860656,0.5692500496904055,1.689305783736982e+18,11.24998193359375,0.0,0.2406256049871444,0.9472332000732422,10.02299976348877,0.8666829466819763,41.81690979003906,41.10000228881836,-122.753091,49.1903804,1.6893057836821732e+18,11.19517314453125,4.111399972438813,-49.57103958129883,-9.994239807128906,1.6893057836821732e+18,11.19517314453125,-264.1787933349609,43.319759368896484,-152.79523773193358,1.6893057836936973e+18,11.206697509765625,-0.4180695613225301,-0.4157882233460744,0.647789478302002,0.4823253005743027,2.490728418032328,-1.3361756006876628,-2.521096428235372,1.6893057836936973e+18,11.206697509765625,-4.0648075342178345,9.40847889582316,-1.1366904576619465
11.3,1.6893057837888517e+18,11.301851660156249,-2.07218017578125,0.025615692138671858,-0.16115086078643795,1.6893057837888512e+18,11.301851318359375,-3.617349624633789,9.568598747253418,-1.342672606309255,1.6893057837888512e+18,11.301851318359375,-1.5476469496885936,9.602433999379477,-1.2273987134297688,1.6893057837931773e+18,11.306177368164063,0.30807970340053237,0.6164393872022629,-1.2664763629436495,1.6893057837931773e+18,11.306177368164063,0.30703614155451453,0.621224507689476,-1.2641601860523224,,,,,,,,,,,,1.6893057837821742e+18,11.295174072265626,3.4123399436473845,-49.53565979003906,-9.895419788360595,1.6893057837821742e+18,11.295174072265626,-264.8778533935547,43.35513916015625,-152.69641723632813,1.6893057837888517e+18,11.301851660156249,-0.40923007726669314,-0.4026279509067535,0.6467558383941651,0.5018172204494477,2.473514747619629,-1.364963960647583,-2.579040861129761,1.6893057837888517e+18,11.301851660156249,-3.648456335067749,9.624889755249024,-1.3923835039138794
11.4,1.6893057838840084e+18,11.397008382161458,-1.7259414394696553,-0.7799029350280762,-0.4024391273657481,1.6893057838926612e+18,11.405661132812499,-0.775872760762771,8.81047256787618,-1.0825528502464294,1.6893057838926612e+18,11.405661132812499,0.838804884503285,9.68852186203003,-0.765341560045878,1.689305783888336e+18,11.401335937499999,0.5027420997619629,0.4644713938236237,-3.4525797843933104,1.689305783888336e+18,11.401335937499999,0.5017036318778991,0.46923612952232363,-3.4502890586853026,,,,,,,,,,,,1.689305783882174e+18,11.395173876953125,-9.126819753646851,-47.88499870300293,-11.903539848327636,1.689305783882174e+18,11.395173876953125,-277.41701354980466,45.005798721313475,-154.70453796386718,1.6893057838840084e+18,11.397008382161458,-0.42263661324977875,-0.3528955827156703,0.5884223878383636,0.589840700229009,1.1733963986237843,-1.435888648033142,1.2904112339019778,1.6893057838840084e+18,11.397008382161458,-1.1761720503369968,8.930911382039389,-1.207577814658483
11.5,1.6893057839878136e+18,11.500813598632812,0.4234402577082316,-1.222973108291626,0.1626763045787811,1.689305783987815e+18,11.500814990234375,4.660979270935059,7.582137203216552,-0.11030912594869732,1.689305783987815e+18,11.500814990234375,4.220086145401001,8.809465026855468,-0.37306026220321653,1.6893057839834929e+18,11.496492879231772,0.5020039677619934,0.2952515333890915,-3.5384368896484375,1.6893057839834929e+18,11.496492879231772,0.5009604096412659,0.30003664642572403,-3.5361206928888955,,,,,,,,,,,,1.6893057839821722e+18,11.49517216796875,-27.82209930419922,-39.85617942810059,-13.742079830169677,1.6893057839821722e+18,11.49517216796875,-296.11229553222654,53.03461875915527,-156.54307708740234,1.6893057839878136e+18,11.500813598632812,-0.4577707399924596,-0.2705249438683192,0.4601588447888692,0.7091281612714132,0.09950217542548971,-1.1254932085673015,1.2134421865145366,1.6893057839878136e+18,11.500813598632812,4.60997227827708,7.58504843711853,-0.21545373508706686
11.600000000000001,1.6893057840916196e+18,11.604619547526042,3.830602486928304,-1.0649091402689617,0.22502959271272024,1.6893057840829696e+18,11.595969604492188,9.36620577176412,6.901498635609944,0.02671985374763608,1.6893057840829696e+18,11.595969604492188,5.747639258702596,7.941150029500325,-0.32465472817420954,1.6893057840872978e+18,11.600297729492189,-0.09229155133167904,0.2929607940216859,-0.14515686780214299,1.6893057840872978e+18,11.600297729492189,-0.0933096595108509,0.29772045339147246,-0.14281520744164777,,,,,,,,,,,,1.689305784082176e+18,11.5951759765625,-36.90133934020996,-32.986359405517575,-13.811619663238526,1.689305784082176e+18,11.5951759765625,-305.19153747558596,59.90443916320801,-156.61261901855468,1.6893057840916196e+18,11.604619547526042,-0.46232926348845166,-0.21907965590556458,0.3988194763660431,0.7609837253888448,0.06058657479782897,-0.943474014600118,1.1229639252026875,1.6893057840916196e+18,11.604619547526042,9.57906730969747,6.87447985013326,-0.1226321595410506
11.700000000000001,1.6893057841867768e+18,11.6997767578125,3.429907703399658,-0.8908621788024902,-0.5994035243988037,1.6893057841867763e+18,11.699776082356772,7.999604940414429,7.699903806050618,-1.1113664011160533,1.6893057841867763e+18,11.699776082356772,4.551674048105876,8.63799794514974,-0.5974713563919067,1.689305784191103e+18,11.70410302734375,-0.40187297264734906,-0.6256787367165089,2.6711101134618125,1.689305784191103e+18,11.70410302734375,-0.4029165307680765,-0.6209445206137995,2.6734771529833474,,,,,,,,,,,,1.6893057841821742e+18,11.695174267578127,-31.995719528198244,-37.55647964477539,-12.618459701538086,1.6893057841821742e+18,11.695174267578127,-300.28591003417966,55.33431892395019,-155.4194580078125,1.6893057841867768e+18,11.6997767578125,-0.46401562690734866,-0.24890320897102355,0.4514573872089386,0.719599723815918,0.1322779029607772,-1.0793488025665283,1.22581307888031,1.6893057841867768e+18,11.6997767578125,8.01332368850708,7.740183162689209,-1.2021540880203248
11.8,1.689305784281931e+18,11.794930908203126,0.46323678890864056,-1.2354905605316162,-0.44619597991307575,1.6893057842905792e+18,11.8035791015625,1.4105689376592636,8.378169218699137,-1.2123634815216064,1.6893057842905792e+18,11.8035791015625,1.2375592291355133,9.62163496017456,-0.8824895521004995,1.6893057842862584e+18,11.799258447265625,-0.6629720449447631,-0.6920797944068908,4.045302391052246,1.6893057842862584e+18,11.799258447265625,-0.6639799833297729,-0.6873455673456192,4.04762372970581,,,,,,,,,,,,1.6893057842821745e+18,11.795174414062501,-15.679439592361451,-45.97203903198242,-12.368359851837159,1.6893057842821745e+18,11.795174414062501,-283.9696350097656,46.91875953674317,-155.1693572998047,1.689305784281931e+18,11.794930908203126,-0.4462793171405792,-0.3344631791114807,0.553821881612142,0.6151925325393677,0.6928249026338259,-1.3700533111890156,1.8703828652699788,1.689305784281931e+18,11.794930908203126,2.02372977634271,8.343772570292154,-1.2740783592065175
