seconds_elapsed_rounded,accelerometer_time,accelerometer_seconds_elapsed,accelerometer_z,accelerometer_y,accelerometer_x,accelerometeruncalibrated_time,accelerometeruncalibrated_seconds_elapsed,accelerometeruncalibrated_z,accelerometeruncalibrated_y,accelerometeruncalibrated_x,gravity_time,gravity_seconds_elapsed,gravity_z,gravity_y,gravity_x,gyroscope_time,gyroscope_seconds_elapsed,gyroscope_z,gyroscope_y,gyroscope_x,gyroscopeuncalibrated_time,gyroscopeuncalibrated_seconds_elapsed,gyroscopeuncalibrated_z,gyroscopeuncalibrated_y,gyroscopeuncalibrated_x,location_time,location_seconds_elapsed,location_bearingAccuracy,location_speedAccuracy,location_verticalAccuracy,location_horizontalAccuracy,location_speed,location_bearing,location_altitude,location_longitude,location_latitude,magnetometer_time,magnetometer_seconds_elapsed,magnetometer_z,magnetometer_y,magnetometer_x,magnetometeruncalibrated_time,magnetometeruncalibrated_seconds_elapsed,magnetometeruncalibrated_z,magnetometeruncalibrated_y,magnetometeruncalibrated_x,orientation_time,orientation_seconds_elapsed,orientation_qz,orientation_qy,orientation_qx,orientation_qw,orientation_roll,orientation_pitch,orientation_yaw
0.0,1.6893057874912653e+18,15.004264973958334,-2.7668623129526773,-0.8139444986979166,0.5966152350107828,1.6893057874826143e+18,14.9956142578125,-3.9748772780100503,8.805188496907553,-0.3282155046860377,1.6893057874826143e+18,14.9956142578125,-1.3366042574246724,9.664948145548502,-0.960175613562266,1.6893057874869404e+18,14.999940511067708,-0.3255911767482757,0.9060149788856506,2.3532565434773765,1.6893057874869404e+18,14.999940511067708,-0.3266601959864298,0.9107491572697958,2.3556491136550903,,,,,,,,,,,,1.6893057874871757e+18,15.000175634765624,-1.4566799521446228,-49.40023956298828,-10.877519798278808,1.6893057874871757e+18,15.000175634765624,-269.746875,43.49055938720703,-153.678515625,1.6893057874912653e+18,15.004264973958334,-0.3650332391262054,-0.3621622224648793,0.6685278415679932,0.5370126962661743,2.565471808115641,-1.3838947614034016,-2.632175842920939
0.05,1.6893057875431675e+18,15.056167643229168,-3.390364090601603,-0.416226069132487,0.3999215165774027,1.689305787534514e+18,15.047513834635415,-5.5473605791727705,9.049455960591636,-0.4893322189648946,1.689305787534514e+18,15.047513834635415,-2.2151469389597573,9.511237780253092,-0.9187681674957277,1.6893057875388403e+18,15.05184041341146,0.0570140893881518,0.535117964570721,0.9091711242993672,1.6893057875388403e+18,15.05184041341146,0.0559450760483741,0.5398521587873498,0.9114618599414824,,,,,,,,,,,,1.6893057875371725e+18,15.050172607421874,2.47903995513916,-49.51979904174805,-10.62619972229004,1.6893057875371725e+18,15.050172607421874,-265.8111572265625,43.37099838256836,-153.4272003173828,1.6893057875431675e+18,15.056167643229168,-0.337216983238856,-0.363276054461797,0.6961444616317749,0.5192957520484924,2.764317750930786,-1.3172578016916912,-2.47320548693339
0.1,1.6893057875864202e+18,15.09942041015625,-2.639808654785156,-0.040381908416748,0.6169555485248566,1.6893057875864166e+18,15.099416748046876,-4.998407204945882,9.425926526387531,-0.2205384870370228,1.6893057875864166e+18,15.099416748046876,-2.290583531061808,9.50287119547526,-0.8210884730021158,1.689305787590747e+18,15.103746907552084,0.3186171154181162,0.221693180501461,-0.6754133303960165,1.689305787590747e+18,15.103746907552084,0.3175990184148152,0.2264273936549822,-0.6730207751194636,,,,,,,,,,,,1.6893057875871736e+18,15.1001736328125,3.1158799648284914,-49.33435974121094,-11.053199577331544,1.6893057875871736e+18,15.1001736328125,-265.17431640625,43.55643920898437,-153.85419311523438,1.6893057875864202e+18,15.09942041015625,-0.3338511288166045,-0.3649934530258178,0.6959278583526611,0.5205734074115753,2.796008586883545,-1.318253993988037,-2.444303035736084
0.15,1.6893057876296727e+18,15.1426728515625,-2.78654138247172,-0.0402787526448567,-0.0632853905359904,1.68930578763832e+18,15.151320231119792,-4.300899267196655,9.62153975168864,-0.6127619942029318,1.68930578763832e+18,15.151320231119792,-1.6078261931737263,9.657686551411947,-0.5287073155244192,1.68930578764265e+18,15.155650065104169,0.6438519755999247,-0.0760527203480402,-2.2246693770090737,1.68930578764265e+18,15.155650065104169,0.642782966295878,-0.0713185121615727,-2.222327709197998,,,,,,,,,,,,1.6893057876371748e+18,15.150174951171874,-0.5978000044822693,-49.10743942260742,-12.28539981842041,1.6893057876371748e+18,15.150174951171874,-268.88800048828125,43.78335952758789,-155.08639831542968,1.6893057876296727e+18,15.1426728515625,-0.3332194685935973,-0.3600769639015198,0.6789446075757345,0.546021044254303,2.825993458429972,-1.3786986668904622,-2.427144924799601
0.2,1.6893057876815729e+18,15.194572998046874,-2.4415855407714844,-0.3659159342447917,-0.4919656415780385,1.6893057876902254e+18,15.203225423177082,-2.360918323198954,9.276574770609535,-0.6253243088722229,1.6893057876902254e+18,15.203225423177082,-0.0380917911728223,9.791789690653482,-0.1450025786956151,1.689305787694549e+18,15.207549072265628,0.9854783614476522,-0.5521712799866995,-4.0400590896606445,1.689305787694549e+18,15.207549072265628,0.9844602147738138,-0.5474370618661245,-4.037615776062012,,,,,,,,,,,,1.6893057876871777e+18,15.200177880859377,-8.05443983078003,-47.75811920166016,-13.876279830932615,1.6893057876871777e+18,15.200177880859377,-276.3446350097656,45.1326789855957,-156.67727661132812,1.6893057876815729e+18,15.194572998046874,-0.3527367909749348,-0.3518000741799672,0.6281358003616333,0.5970849990844727,1.8692671656608584,-1.5091854333877563,-1.2758150498072307
0.25,1.6893057877334753e+18,15.246475260416666,-1.7375038067499795,-0.956596851348877,-0.3888968328634898,1.6893057877421292e+18,15.255129231770832,0.6313063576817513,8.381858189900717,0.1202393372853597,1.6893057877421292e+18,15.255129231770832,2.3161484400431314,9.49701245625814,0.3792466223239898,1.6893057877378043e+18,15.250804199218749,0.7980954349040985,-1.0236574411392212,-5.110193252563477,1.6893057877378043e+18,15.250804199218749,0.7970264256000519,-1.0189232528209686,-5.107826232910156,1.689305787737031e+18,15.250031005859377,0.0,0.2382444441318512,0.987359881401062,9.08199977874756,0.2460275590419769,29.488862991333008,41.10000228881836,-122.7530918,49.1903858,1.6893057877371735e+18,15.2501736328125,-18.148719787597656,-43.79799880981445,-16.743279647827148,1.6893057877371735e+18,15.2501736328125,-286.43890991210935,49.09279937744141,-159.54427795410157,1.6893057877334753e+18,15.246475260416666,-0.387955367565155,-0.335278183221817,0.5387125015258789,0.6674539645512899,-0.1473956704139709,-1.3736144701639812,0.9329293171564738
0.3,1.689305787785381e+18,15.298381103515624,-0.8380381266276041,-2.028796672821045,-0.0392999450365702,1.689305787794033e+18,15.307033040364582,4.373282114664714,6.382056713104248,1.1369895935058594,1.689305787794033e+18,15.307033040364582,4.8446000417073565,8.433682123819986,1.008529543876648,1.6893057877810552e+18,15.294055338541668,0.746019184589386,-1.6236798365910847,-5.618840376536052,1.6893057877810552e+18,15.294055338541668,0.7449501752853394,-1.618945598602295,-5.616498788197835,,,,,,,,,,,,1.6893057877871744e+18,15.300174511718753,-27.91847915649414,-36.482879638671875,-19.744479751586915,1.6893057877871744e+18,15.300174511718753,-296.20867309570315,56.40791931152344,-162.54547729492188,1.689305787785381e+18,15.298381103515624,-0.4388168255488078,-0.3125293850898742,0.417821596066157,0.7303593357404073,-0.1950914164384205,-1.089044491449992,0.964037537574768
0.35,1.689305787837287e+18,15.350286865234375,1.431982199350993,-1.0396091143290205,1.250460942586263,1.6893057878372833e+18,15.350283447265625,7.945666551589966,6.233602285385132,2.937488913536072,1.6893057878372833e+18,15.350283447265625,6.508633375167847,7.172675132751465,1.5187546610832214,1.689305787832957e+18,15.34595703125,0.5871433069308599,-0.6935356656710306,-4.462574243545532,1.689305787832957e+18,15.34595703125,0.5860742926597595,-0.6888014674186707,-4.460232655207316,,,,,,,,,,,,1.689305787837175e+18,15.350175097656251,-35.76063919067383,-27.47195930480957,-22.70663948059082,1.689305787837175e+18,15.350175097656251,-304.05083618164065,65.41883926391601,-165.50763549804688,1.689305787837287e+18,15.350286865234375,-0.4732349912325541,-0.2806901534398396,0.3004752794901529,0.7785397370656332,-0.2274492730696995,-0.8244176308314005,0.9923906922340392
0.4,1.6893057878891848e+18,15.402184733072916,2.8857115109761557,-1.554399490356445,1.0670557419459026,1.689305787880537e+18,15.393537434895832,9.977073351542154,4.933402061462402,2.8181468645731607,1.689305787880537e+18,15.393537434895832,7.303771495819092,6.375721295674642,1.4801042874654131,1.6893057878848584e+18,15.3978583984375,-0.3714569807052612,0.4672101040681203,-1.4700981080532074,1.6893057878848584e+18,15.3978583984375,-0.3725259900093078,0.4719443172216415,-1.4677055676778157,,,,,,,,,,,,1.689305787887172e+18,15.400172167968751,-39.674398803710936,-22.294279861450196,-22.76275978088379,1.689305787887172e+18,15.400172167968751,-307.964599609375,70.59651947021484,-165.56375427246093,1.6893057878891848e+18,15.402184733072916,-0.4927528401215871,-0.2466581612825393,0.2509784152110417,0.7957900365193685,-0.1909009168545404,-0.6978038549423218,1.039069374402364
0.45,1.6893057879410903e+18,15.454090250651042,2.5935705502827964,-1.541530927022298,0.2007499933242797,1.6893057879324385e+18,15.445438232421871,10.229715665181478,4.546163558959961,1.424726486206055,1.6893057879324385e+18,15.445438232421871,7.44800345102946,6.29184627532959,1.07559468348821,1.689305787936767e+18,15.44976700846354,0.0152207240462302,1.0808751185735066,0.5974771082401276,1.689305787936767e+18,15.44976700846354,0.0141517122586568,1.0856093565622966,0.5998696684837341,,,,,,,,,,,,1.68930578793718e+18,15.450179833984375,-41.18231887817383,-22.252799606323244,-21.062079620361327,1.68930578793718e+18,15.450179833984375,-309.47251586914064,70.63799896240235,-163.8630798339844,1.6893057879410903e+18,15.454090250651042,-0.4896490971247355,-0.2266818434000015,0.2648549179236094,0.7991388638814291,-0.1351398453116416,-0.7015120983123779,1.0499874353408811
0.5,1.6893057879929938e+18,15.505993815104167,1.9699689547220869,-0.687324047088623,0.3718061049779256,1.6893057879843433e+18,15.497343261718749,9.177870750427246,5.801398595174153,1.1399805943171184,1.6893057879843433e+18,15.497343261718749,7.287913322448731,6.516249497731526,0.8091150124867758,1.6893057879886697e+18,15.501669921875,-0.0911207298437754,0.2221513216694196,0.6442083120346069,1.6893057879886697e+18,15.501669921875,-0.0921388467152913,0.2269364347060521,0.6466008623441061,,,,,,,,,,,,1.689305787987174e+18,15.50017373046875,-41.13351898193359,-23.619199371337892,-19.617599487304688,1.689305787987174e+18,15.50017373046875,-309.42371826171876,69.27159729003907,-162.41859741210936,1.6893057879929938e+18,15.505993815104167,-0.4813375572363536,-0.2221847871939341,0.2847066322962442,0.7986648082733154,-0.1088943630456924,-0.7324292063713074,1.0429860750834148
0.55,1.689305788036245e+18,15.549244995117188,2.127500295639038,-0.8982641696929932,0.6105067729949951,1.6893057880362465e+18,15.549246500651044,8.949356079101562,6.048457304636638,1.307876984278361,1.6893057880362465e+18,15.549246500651044,6.851282437642415,6.986196358998616,0.6229268312454224,1.689305788040573e+18,15.553572672526045,-0.717003067334493,0.3158173362414042,2.1475985844930015,1.689305788040573e+18,15.553572672526045,-0.7180211941401163,0.3206024418274562,2.149889349937439,,,,,,,,,,,,1.6893057880371784e+18,15.5501783203125,-39.78419876098633,-26.171439361572265,-18.709920120239257,1.6893057880371784e+18,15.5501783203125,-308.07439575195315,66.7193588256836,-161.51091918945312,1.689305788036245e+18,15.549244995117188,-0.4812878966331481,-0.2311282753944396,0.3105370849370956,0.7863897681236267,-0.0918361246585845,-0.7908390164375305,1.0601680278778076
0.6,1.6893057880795e+18,15.592499918619792,1.909348964691162,-1.6047099431355794,0.406780074040095,1.6893057880881492e+18,15.601149332682292,7.747560660044352,6.232904116312663,0.425124816596508,1.6893057880881492e+18,15.601149332682292,5.6671366691589355,7.9858504931132,0.1007591237624486,1.6893057880924762e+18,15.60547607421875,-1.1633419195810957,0.4635958075523376,4.0382773876190186,1.6893057880924762e+18,15.60547607421875,-1.164360086123149,0.4683300157388051,4.040568113327026,,,,,,,,,,,,1.6893057880871754e+18,15.600175439453125,-35.848479461669925,-32.10307922363281,-17.033639907836914,1.6893057880871754e+18,15.600175439453125,-304.1386779785156,60.78771896362305,-159.8346374511719,1.6893057880795e+18,15.592499918619792,-0.4788853824138641,-0.2471549014250437,0.3689932525157928,0.7567631999651591,-0.0322613754154493,-0.9201225837071736,1.1133652130762737
0.65,1.6893057881313997e+18,15.644399658203126,1.465159893035889,-1.536692460378011,-0.6881335576375326,1.6893057881400512e+18,15.653051269531252,4.500899473826091,7.786643664042155,-1.1485548615455627,1.6893057881400512e+18,15.653051269531252,3.5849881172180176,9.09307861328125,-0.4899652202924092,1.689305788144375e+18,15.657375162760417,-0.6138686736424763,0.9177741408348083,4.750546296437581,1.689305788144375e+18,15.657375162760417,-0.6148867805798849,0.9225083390871684,4.752887884775798,,,,,,,,,,,,1.689305788137178e+18,15.650177734375,-26.98883934020996,-40.09163970947266,-14.025119590759278,1.689305788137178e+18,15.650177734375,-295.27903442382814,52.79916000366211,-156.82611694335938,1.6893057881313997e+18,15.644399658203126,-0.459600418806076,-0.2779621879259745,0.468930850426356,0.7002280751864115,0.1107269835968811,-1.1510858138402302,1.2363912264506025
0.7,1.689305788183305e+18,15.696304931640626,-0.7338812748591105,-0.7615321477254232,-0.3902768890062968,1.6893057881919506e+18,15.70495068359375,0.9575278759002686,8.842476526896158,-1.155733346939087,1.6893057881919506e+18,15.70495068359375,1.5859618186950684,9.633153915405272,-0.8249533772468567,1.689305788187631e+18,15.700631225585935,-0.5432119071483612,-0.01458440721035,3.5960110425949097,1.689305788187631e+18,15.700631225585935,-0.5442809164524078,-0.0098502039909362,3.5983017683029175,,,,,,,,,,,,1.6893057881871757e+18,15.70017568359375,-16.533439445495606,-45.937879943847655,-11.81935977935791,1.6893057881871757e+18,15.70017568359375,-284.8236328125,46.95291976928711,-154.62035522460937,1.689305788183305e+18,15.696304931640626,-0.4285341501235962,-0.309014360109965,0.5549877087275187,0.6420215169588724,0.4166965981324513,-1.3594786723454793,1.5211237668991089
0.75,1.689305788235208e+18,15.748207926432292,-0.5439109404881796,-0.7382599512736002,-0.5665052135785421,1.689305788243855e+18,15.75685506184896,-1.0241280943155289,9.159326235453287,-1.4963117440541585,1.689305788243855e+18,15.75685506184896,-0.1607532203197479,9.732177734375,-1.1369744539260864,1.6893057882308795e+18,15.743879475911458,-0.6448191702365875,-0.619977335135142,3.517005761464437,1.6893057882308795e+18,15.743879475911458,-0.6458881894747416,-0.615243117014567,3.519398291905721,,,,,,,,,,,,1.689305788237174e+18,15.750173925781253,-7.151639747619629,-48.78047866821289,-10.428559684753418,1.689305788237174e+18,15.750173925781253,-275.44183959960935,44.11031951904297,-153.22955932617188,1.689305788235208e+18,15.748207926432292,-0.4166746139526367,-0.3453670839468637,0.6120021343231201,0.5761307875315348,1.4596212307612102,-1.4477672576904297,2.60020120938619
0.8,1.6893057882871078e+18,15.80010750325521,-2.1530025800069175,-0.3782288233439128,0.3383866548538208,1.6893057882871127e+18,15.800112548828125,-3.5850465297698975,9.180662155151367,-0.7097710072994232,1.6893057882871127e+18,15.800112548828125,-1.2902488708496094,9.657180309295654,-1.131453812122345,1.689305788282785e+18,15.795785074869793,0.0415897431472937,0.7641415099302927,2.204052686691284,1.689305788282785e+18,15.795785074869793,0.0405716324845949,0.7689266304175059,2.206445296605428,,,,,,,,,,,,1.6893057882871752e+18,15.800174951171874,-0.0829599916934967,-49.675958251953126,-10.29435977935791,1.6893057882871752e+18,15.800174951171874,-268.37315063476564,43.21483917236328,-153.0953582763672,1.6893057882871078e+18,15.80010750325521,-0.3879126111666361,-0.3682539065678914,0.6553885539372762,0.5330449938774109,2.4020937283833823,-1.3941212097803752,-2.747774680455526
0.85,1.6893057883390103e+18,15.85201025390625,-1.5959567228953044,-0.6524184544881185,0.3910415172576904,1.6893057883303578e+18,15.84335782877604,-3.6721851030985513,8.768299420674643,-0.684147854646047,1.6893057883303578e+18,15.84335782877604,-2.1263718207677207,9.50531037648519,-1.1308716138203938,1.6893057883346865e+18,15.8476865234375,-0.2752966036399205,0.9862419565518696,1.9387335379918416,1.6893057883346865e+18,15.8476865234375,-0.276314710577329,0.9909761349360148,1.9411261081695557,,,,,,,,,,,,1.689305788337174e+18,15.850173828125,4.106519937515259,-49.524679565429686,-9.85271987915039,1.689305788337174e+18,15.850173828125,-264.1836791992188,43.366119384765625,-152.65372314453126,1.6893057883390103e+18,15.85201025390625,-0.3546037375926971,-0.3705861568450928,0.6926913062731425,0.5067950785160065,2.6792285442352295,-1.3058979908625286,-2.5164144039154053
0.9,1.689305788390918e+18,15.903917724609377,-2.6921295324961343,-0.0036894480387369,0.5859245856602987,1.6893057883822666e+18,15.895266601562502,-5.556533177693685,9.198807716369627,-0.407178650299708,1.6893057883822666e+18,15.895266601562502,-3.0577335357666016,9.262435913085938,-1.0270827809969585,1.6893057883865894e+18,15.899589518229169,0.1276199296116828,0.9071858127911886,1.1762210329373677,1.6893057883865894e+18,15.899589518229169,0.1265509190658727,0.9119199911753336,1.1786135733127594,1.689305788399e+18,15.912,0.0,0.2382444441318512,0.9383211135864258,9.80500030517578,0.2410356253385543,29.522979736328125,40.900001525878906,-122.7530908,49.1903869,1.689305788387176e+18,15.900175830078126,7.607919788360595,-49.38803939819336,-10.14795970916748,1.689305788387176e+18,15.900175830078126,-260.68226928710936,43.502759552001955,-152.94895629882814,1.689305788390918e+18,15.903917724609377,-0.3206274807453155,-0.3722261587778727,0.7224602699279785,0.4864370127518971,2.835597197214762,-1.2273350556691487,-2.4067450364430747
0.95,1.6893057884428155e+18,15.955815755208333,-2.5930234591166177,0.1198418935139973,0.4376313090324402,1.68930578843417e+18,15.947170166015624,-5.769893169403076,9.369695027669271,-0.3260220885276794,1.68930578843417e+18,15.947170166015624,-3.107222636540731,9.261444409688314,-0.8825540145238241,1.6893057884384924e+18,15.951492513020831,0.162999207774798,0.0359901435052355,-1.1852312684059143,1.6893057884384924e+18,15.951492513020831,0.1619301935036977,0.0407243475007514,-1.1829405426979065,,,,,,,,,,,,1.6893057884371738e+18,15.950173681640626,7.280959701538086,-49.35143890380859,-10.418799591064452,1.6893057884371738e+18,15.950173681640626,-261.009228515625,43.53935928344727,-153.21979370117188,1.6893057884428155e+18,15.955815755208333,-0.3161190946896871,-0.3684100806713104,0.7190495729446411,0.4971746305624644,2.859684626261393,-1.2469708919525146,-2.3982189496358237
1.0,1.6893057884860723e+18,15.999072387695314,-2.588416576385498,-0.3182816505432129,-0.2648906409740447,1.689305788486069e+18,15.999068847656252,-4.545764764149983,9.247262318929035,-0.8879366119702657,1.689305788486069e+18,15.999068847656252,-1.988582690556844,9.567824999491371,-0.7236373027165731,1.6893057884903985e+18,16.003398274739585,0.5634722808996836,-0.5896885941425959,-3.2873204549153647,1.6893057884903985e+18,16.003398274739585,0.562403271595637,-0.5849543809890747,-3.2849278450012207,,,,,,,,,,,,1.6893057884871757e+18,16.000175830078128,2.1959999203681946,-49.36607818603515,-11.219119644165035,1.6893057884871757e+18,16.000175830078128,-266.0941955566406,43.52471923828125,-154.0201171875,1.6893057884860723e+18,15.999072387695314,-0.3339945375919342,-0.3604044467210769,0.6874197721481323,0.5346001386642456,2.792853832244873,-1.3509449362754822,-2.4568618535995483
1.05,1.68930578852932e+18,16.04231982421875,-2.0039945046106973,-0.7054424285888672,-0.3898371756076813,1.689305788537974e+18,16.05097403971354,-1.7882361213366191,8.961320241292318,-0.7006982266902924,1.689305788537974e+18,16.05097403971354,0.0891598065694173,9.77457841237386,-0.4729691247145335,1.6893057885423012e+18,16.05530118815104,0.5927938222885132,-1.5567391713460286,-4.83606751759847,1.6893057885423012e+18,16.05530118815104,0.5917248129844666,-1.5520049730936687,-4.833725929260254,,,,,,,,,,,,1.6893057885371717e+18,16.050171435546876,-7.219960021972656,-48.36811904907226,-12.514759826660155,1.6893057885371717e+18,16.050171435546876,-275.51015014648436,44.52267913818359,-155.3157531738281,1.68930578852932e+18,16.04231982421875,-0.372873455286026,-0.3518719375133514,0.6257721781730652,0.5868537227312723,1.8353135983149211,-1.4851893186569214,-1.2760850588480632
1.1,1.6893057885812252e+18,16.094224934895834,-1.110299587249756,-1.7344722747802734,-0.1428162455558776,1.6893057885898783e+18,16.102878255208335,1.9517455995082855,7.654440244038899,0.0057826588551203,1.6893057885898783e+18,16.102878255208335,2.8025094668070474,9.366618156433104,0.0054558427073061,1.689305788594204e+18,16.10720377604167,0.8586729168891907,-1.5473216772079468,-5.605299631754558,1.689305788594204e+18,16.10720377604167,0.8576548099517822,-1.542587478955587,-5.60300890604655,,,,,,,,,,,,1.6893057885871775e+18,16.100177392578125,-18.91975936889649,-44.07859878540039,-15.525719451904298,1.6893057885871775e+18,16.100177392578125,-287.2099548339844,48.812198638916016,-158.32671508789062,1.6893057885812252e+18,16.094224934895834,-0.4320219159126282,-0.3326528370380401,0.5184841950734457,0.6573289235432943,0.0739534348249435,-1.3277204831441245,1.2272769212722778
1.15,1.689305788633131e+18,16.14613126627604,0.4665056864420573,-1.3508227666219077,0.5380858580271403,1.689305788641779e+18,16.154778889973958,5.783452192942302,6.902894496917725,1.2077772219975789,1.689305788641779e+18,16.154778889973958,5.120526154836019,8.32529322306315,0.5847625136375427,1.6893057886374523e+18,16.150452392578124,0.6027712523937225,-0.8797986805438995,-4.563239812850952,1.6893057886374523e+18,16.150452392578124,0.6017022430896759,-0.8750644624233246,-4.560949087142944,,,,,,,,,,,,1.689305788637174e+18,16.1501740234375,-28.65779914855957,-36.94159927368164,-18.685519790649415,1.689305788637174e+18,16.1501740234375,-296.947998046875,55.94919815063477,-161.48651733398438,1.689305788633131e+18,16.14613126627604,-0.4778633713722229,-0.3040896455446879,0.4026000599066416,0.71832275390625,-0.104806159933408,-1.0551457603772485,1.1135185559590657
1.2,1.6893057886850304e+18,16.198030436197914,1.407121976216634,-1.259139855702718,0.5433982014656067,1.6893057886936845e+18,16.206684488932293,8.230711778004965,6.090930143992106,1.4394822120666504,1.6893057886936845e+18,16.206684488932293,6.485868612925212,7.313951174418132,0.7571384509404501,1.6893057886807094e+18,16.193709309895834,0.4389575819174449,0.2441424746066332,-2.99003267288208,1.6893057886807094e+18,16.193709309895834,0.4378885726133982,0.2488766883810361,-2.987640142440796,,,,,,,,,,,,1.6893057886871757e+18,16.20017568359375,-35.836279296875,-30.643959045410156,-19.93235969543457,1.6893057886871757e+18,16.20017568359375,-304.12647705078126,62.246839141845705,-162.73335876464844,1.6893057886850304e+18,16.198030436197914,-0.4971758226553599,-0.2650833030541737,0.3271691004435221,0.7583802143732706,-0.1184392074743906,-0.8634731769561768,1.1059059699376423
1.25,1.6893057887369372e+18,16.249937255859376,3.2465264002482095,-1.030989646911621,0.7153360843658447,1.6893057887369318e+18,16.249931640625,10.226624965667725,5.887240886688232,1.5335001945495603,1.6893057887369318e+18,16.249931640625,6.922889947891235,6.915290594100952,0.6975680291652679,1.689305788732614e+18,16.245613850911457,0.2015855262676874,0.6003278295199076,-0.6741916090250015,1.689305788732614e+18,16.245613850911457,0.200516511996587,0.6051129202047983,-0.6717990736166636,1.689305788737068e+18,16.250068115234374,0.0,0.2342181205749511,0.9423106908798218,9.64799976348877,0.0837955176830291,0.0,40.900001525878906,-122.7530934,49.1903829,1.689305788737176e+18,16.250175927734375,-39.010719299316406,-26.86439971923828,-19.52975921630859,1.689305788737176e+18,16.250175927734375,-307.30091552734376,66.02639770507812,-162.33075561523438,1.6893057887369372e+18,16.249937255859376,-0.4973563452561696,-0.2385675062735875,0.3020414809385934,0.7774697343508402,-0.0998830248912175,-0.7852354447046915,1.0968104600906372
1.3,1.689305788788838e+18,16.301837972005206,2.8456522623697915,-1.0135095914204917,0.2795183757940928,1.6893057887801894e+18,16.293189290364584,9.859824816385904,6.087141513824463,0.8775676886240641,1.6893057887801894e+18,16.293189290364584,6.792391141255696,7.061716238657634,0.4513403673966725,1.6893057887845148e+18,16.29751472981771,-0.2154318032165367,0.7606799403826395,1.0310387015342712,1.6893057887845148e+18,16.29751472981771,-0.2163481041789054,0.7654650608698527,1.0334312717119851,,,,,,,,,,,,1.689305788787176e+18,16.300175927734376,-39.48895950317383,-27.723279571533205,-18.177999114990236,1.689305788787176e+18,16.300175927734376,-307.779150390625,65.16751861572266,-160.97899780273437,1.689305788788838e+18,16.301837972005206,-0.4890711208184559,-0.2291945517063141,0.3231635590394338,0.777013341585795,-0.0581810399889945,-0.8131330013275146,1.0986186663309734
1.35,1.6893057888407432e+18,16.35374324544271,2.151106039683024,-1.2439934412638347,-0.1113312368591626,1.689305788832089e+18,16.345089518229166,8.463214238484701,6.266204357147217,0.1645065521200497,1.689305788832089e+18,16.345089518229166,6.26702086130778,7.541299661000569,0.1620088095466295,1.6893057888364196e+18,16.349419433593752,-0.2972877571980158,0.1912517224748928,1.8266397714614868,1.6893057888364196e+18,16.349419433593752,-0.2983567665020624,0.1959859331448872,1.8289814790089924,,,,,,,,,,,,1.6893057888371758e+18,16.350175976562504,-37.10263900756836,-31.031919479370117,-16.545639419555663,1.6893057888371758e+18,16.350175976562504,-305.39283447265626,61.85887832641602,-159.3466339111328,1.6893057888407432e+18,16.35374324544271,-0.4832255939642588,-0.2379736602306365,0.3605837325255076,0.7613525390625,-0.0219811120380957,-0.8933748404184977,1.1206400791803997
1.4,1.689305788892646e+18,16.40564599609375,1.5712436040242512,-0.3064030011494954,-0.1775762488444645,1.6893057888839956e+18,16.396995686848957,7.1246293385823565,7.766503969828288,-0.1012961591283479,1.6893057888839956e+18,16.396995686848957,5.370798110961914,8.200976689656576,0.045244782231748,1.6893057888883223e+18,16.40132234700521,-0.245160587131977,0.0609847120940685,2.637512524922689,1.6893057888883223e+18,16.40132234700521,-0.2461786965529123,0.0657189215222994,2.6398541927337646,,,,,,,,,,,,1.689305788887176e+18,16.400176074218752,-32.82043952941895,-34.93835983276367,-16.082039833068848,1.689305788887176e+18,16.400176074218752,-301.1106384277344,57.95243911743164,-158.8830352783203,1.689305788892646e+18,16.40564599609375,-0.4708756605784098,-0.2627398471037547,0.4083800514539082,0.7362646063168844,-0.0037998397213717,-1.0142871141433716,1.1361127297083535
1.45,1.689305788944544e+18,16.45754402669271,1.324085712432861,-1.2433017094930012,-0.074538325270017,1.689305788935899e+18,16.44889884440104,5.285346508026123,8.041080633799234,-0.1395813170820474,1.689305788935899e+18,16.44889884440104,4.004361073176066,8.939863522847494,-0.1746357729037602,1.6893057889402217e+18,16.453221842447917,-0.8481863935788473,-0.3461060672998428,3.591633160909017,1.6893057889402217e+18,16.453221842447917,-0.8492045005162557,-0.3413209617137908,3.5940256913503013,,,,,,,,,,,,1.6893057889371758e+18,16.450175830078127,-26.554519653320312,-39.93059921264648,-15.232919692993164,1.6893057889371758e+18,16.450175830078127,-294.8447204589844,52.960198974609376,-158.0339141845703,1.689305788944544e+18,16.45754402669271,-0.4621501962343852,-0.2981722752253214,0.470191220442454,0.6896911462148031,0.0666645355522632,-1.180415948232015,1.2271069685618083
1.5,1.6893057889878016e+18,16.50080163574219,1.0626596808433533,-1.6913402080535889,-0.0923457741737365,1.6893057889878016e+18,16.5008017578125,3.18026073773702,7.80997371673584,-0.559122900168101,1.6893057889878016e+18,16.5008017578125,2.016532222429911,9.564990361531576,-0.517753521601359,1.6893057889921303e+18,16.50513028971354,-0.4157447069883346,0.8874853750069936,4.558378219604492,1.6893057889921303e+18,16.50513028971354,-0.4167628188927968,0.8922196129957835,4.560719807942708,,,,,,,,,,,,1.6893057889871736e+18,16.500173779296876,-17.482599639892577,-45.24979934692383,-13.678639793395996,1.6893057889871736e+18,16.500173779296876,-285.7727966308594,47.64099960327148,-156.479638671875,1.6893057889878016e+18,16.50080163574219,-0.4417003542184829,-0.3292489498853683,0.5367318391799927,0.6387499272823334,0.2650561109185219,-1.3551562428474426,1.4260358214378357
1.55,1.6893057890311826e+18,16.54418269856771,0.235059214135011,-1.2612673441569011,-0.2013236085573831,1.689305789039705e+18,16.552705322265624,-1.0576276083787282,8.52542781829834,-0.6971089979633688,1.689305789039705e+18,16.552705322265624,-0.3458061019579569,9.756662686665852,-0.7195413510004679,1.6893057890450163e+18,16.55801619466146,-0.3004948000113169,1.7204001347223918,4.426889578501384,1.6893057890450163e+18,16.55801619466146,-0.3015129069487254,1.7251343727111816,4.429180304209392,,,,,,,,,,,,1.689305789037174e+18,16.5501740234375,-7.422479867935181,-48.072879028320315,-12.204879760742188,1.689305789037174e+18,16.5501740234375,-275.7126770019531,44.817918395996095,-155.00587463378906,1.6893057890311826e+18,16.54418269856771,-0.3925284544626872,-0.3478208780288696,0.6135652263959249,0.5892947316169739,1.517390787601471,-1.4749985535939534,0.5264600118001302
1.6,1.689305789082957e+18,16.59595719401042,-2.72537891070048,-0.7887849807739258,0.3876303533713023,1.6893057890916078e+18,16.604608154296873,-4.938985347747803,8.787441889444986,-0.4410769790410995,1.6893057890916078e+18,16.604608154296873,-2.2564266125361123,9.51054032643636,-0.7441013852755228,1.6893057890872837e+18,16.600283935546877,-0.0387135837227105,0.6046802252531052,3.053868055343628,1.6893057890872837e+18,16.600283935546877,-0.0397825990803539,0.6094907894730568,3.056235194206238,,,,,,,,,,,,1.6893057890871762e+18,16.600176074218748,1.3493199571967125,-49.37583999633789,-11.343559837341306,1.6893057890871762e+18,16.600176074218748,-266.940869140625,43.51495895385742,-154.14455871582032,1.689305789082957e+18,16.59595719401042,-0.3366707364718119,-0.36231725414594,0.6864543159802755,0.532598614692688,2.7720324993133545,-1.349113504091899,-2.4699270725250244
1.65,1.6893057891348603e+18,16.647860432942707,-2.493251164754232,-0.0882094701131185,0.5530036489168803,1.689305789143513e+18,16.656513346354163,-5.5160543123881025,9.353144963582356,-0.0963111083644132,1.689305789143513e+18,16.656513346354163,-3.0255072911580405,9.295438130696615,-0.818936308224996,1.6893057891305362e+18,16.643536458333333,-0.0076358156899611,-0.7076873977979025,1.2264646887779236,1.6893057891305362e+18,16.643536458333333,-0.0086539243347942,-0.7029022773106893,1.2288572192192078,,,,,,,,,,,,1.689305789137174e+18,16.650173974609373,7.327319812774658,-48.968359375,-11.270359802246094,1.689305789137174e+18,16.650173974609373,-260.96287841796874,43.92243881225586,-154.07135620117188,1.6893057891348603e+18,16.647860432942707,-0.3231304585933685,-0.3824093441168467,0.7107719580332438,0.4940398335456848,2.8785990873972573,-1.2516697645187378,-2.345043659210205
1.7,1.6893057891867635e+18,16.69976342773438,-2.243499437967936,-0.0858802795410156,0.2569202979405721,1.6893057891867633e+18,16.699763427734375,-5.260321617126465,9.26500940322876,-0.5353940650820732,1.6893057891867633e+18,16.699763427734375,-2.9765658378601074,9.306612968444824,-0.8719697296619415,1.6893057891824394e+18,16.695439615885416,0.0211766622184465,-0.3356704612572987,-0.4394666527708371,1.6893057891824394e+18,16.695439615885416,0.0201585530303418,-0.3309362431367238,-0.4371758823593457,,,,,,,,,,,,1.6893057891871762e+18,16.700176269531248,8.039799976348878,-49.10255889892578,-11.18007984161377,1.6893057891871762e+18,16.700176269531248,-260.25038452148436,43.788239288330075,-153.9810791015625,1.6893057891867635e+18,16.69976342773438,-0.3318971594174703,-0.3896973828474681,0.7069266637166342,0.4880736569563547,2.8563878536224365,-1.2492851813634236,-2.340316216150919
1.75,1.6893057892386662e+18,16.75166634114583,-1.4134167830149331,-0.5058221817016602,-0.2448108394940694,1.6893057892300155e+18,16.743015869140624,-4.234099706013997,8.761519432067871,-1.152343511581421,1.6893057892300155e+18,16.743015869140624,-2.7836176554361978,9.364941914876304,-0.8850855628649393,1.689305789234343e+18,16.747342529296876,0.1442660068472226,-0.4111632108688354,-0.3561853468418121,1.689305789234343e+18,16.747342529296876,0.143196997543176,-0.4063271979490916,-0.3538436988989512,,,,,,,,,,,,1.6893057892371758e+18,16.75017607421875,6.871039772033692,-49.15623931884765,-11.321599769592284,1.6893057892371758e+18,16.75017607421875,-261.4191528320313,43.7345588684082,-154.12259826660156,1.6893057892386662e+18,16.75166634114583,-0.3414334654808044,-0.3921110928058624,0.6976396441459656,0.4929054280122121,2.832056999206543,-1.2714025576909382,-2.3467229207356772
1.8,1.6893057892905697e+18,16.803569580078122,-1.614195982615153,0.3529545466105143,-0.0060318311055501,1.6893057892819151e+18,16.79491512044271,-4.019942045211792,9.7627166112264,-0.6277171572049459,1.6893057892819151e+18,16.79491512044271,-2.5183491706848145,9.450138409932457,-0.7507112820943197,1.689305789286245e+18,16.7992451171875,0.5033529698848724,0.1554652005434036,-1.0350602467854817,1.689305789286245e+18,16.7992451171875,0.502334862947464,0.1601994161804517,-1.032718578974406,,,,,,,,,,,,1.6893057892871736e+18,16.800173486328127,5.780359935760498,-48.9049186706543,-11.97551975250244,1.6893057892871736e+18,16.800173486328127,-262.5098388671875,43.98587875366211,-154.77651672363282,1.6893057892905697e+18,16.803569580078122,-0.3444975415865579,-0.3939640124638875,0.6844054857889811,0.5075461467107137,2.8605058987935386,-1.3103140989939372,-2.3133488496144614
1.85,1.6893057893424722e+18,16.855472330729167,-1.4690056244532268,-0.1618722279866536,-0.3323786358038584,1.6893057893338222e+18,16.84682218424479,-3.1144580841064453,9.62851905822754,-0.6835496624310812,1.6893057893338222e+18,16.84682218424479,-1.5993775129318235,9.660781224568684,-0.439702441294988,1.689305789338145e+18,16.851145263671874,0.727387805779775,0.1510873362421989,-2.757700284322103,1.689305789338145e+18,16.851145263671874,0.7263696988423666,0.1558724492788314,-2.755307674407959,,,,,,,,,,,,1.6893057893371745e+18,16.85017412109375,1.7787599921226502,-48.77071914672852,-13.207719802856444,1.6893057893371745e+18,16.85017412109375,-266.5114318847656,44.120079803466794,-156.00871887207032,1.6893057893424722e+18,16.855472330729167,-0.3546120226383209,-0.3830497860908508,0.6498147249221802,0.552056610584259,2.8741701443990073,-1.4266552925109863,-2.308058977127075
1.9,1.6893057893943726e+18,16.90737255859375,-0.4493485689163208,-0.8374630610148112,0.0619073112805684,1.6893057893857242e+18,16.89872428385417,-0.4424727857112884,8.982257525126139,-0.0087736832598845,1.6893057893857242e+18,16.89872428385417,0.1686101158459981,9.790979067484535,0.0775742356975873,1.689305789390051e+18,16.903050944010417,1.179886261622111,0.6048583984375,-3.968078851699829,1.689305789390051e+18,16.903050944010417,1.178868095080058,0.609592616558075,-3.965737263361613,,,,,,,,,,,,1.6893057893871734e+18,16.90017353515625,-8.620519828796386,-46.97732009887695,-15.691639709472655,1.6893057893871734e+18,16.90017353515625,-276.9107177734375,45.91348037719727,-158.49263610839844,1.6893057893943726e+18,16.90737255859375,-0.3665357331434886,-0.3588286638259887,0.5874107281366984,0.6252578894297282,0.7834461232026418,-1.5040011803309123,-0.2328354120254516
1.95,1.689305789437628e+18,16.950627807617188,-0.517484188079834,-1.124105453491211,0.1853740513324737,1.6893057894376282e+18,16.950628092447918,1.6155540545781453,8.438887278238932,0.7525426944096884,1.6893057894376282e+18,16.950628092447918,2.10934317111969,9.555315335591636,0.4801427721977234,1.689305789441951e+18,16.954951009114584,0.3589342422783375,0.3284418831268946,-3.6344446341196694,1.689305789441951e+18,16.954951009114584,0.3578652113986512,0.3331760962804158,-3.6321029663085938,,,,,,,,,,,,1.6893057894371756e+18,16.950175634765625,-19.368719482421874,-43.08063888549805,-17.23859977722168,1.6893057894371756e+18,16.950175634765625,-287.65891723632814,49.810159301757814,-160.0395965576172,1.689305789437628e+18,16.950627807617188,-0.3757413178682327,-0.3296179622411728,0.5323586463928223,0.6830229461193085,-0.2317025288939475,-1.3474240899086,0.8199995756149292
2.0,1.6893057894808732e+18,16.993873453776043,0.4637975692749023,-1.4718891779581706,-0.1808525423208872,1.689305789489531e+18,17.002531087239586,4.462614297866821,7.659624735514323,0.4823531781633695,1.689305789489531e+18,17.002531087239586,3.833962599436442,8.99888261159261,0.5625110467274984,1.6893057894938583e+18,17.006858235677083,0.3044145132104556,0.1466585596402486,-3.455155611038208,1.6893057894938583e+18,17.006858235677083,0.3033964062730471,0.151443675160408,-3.4528648853302,,,,,,,,,,,,1.689305789487174e+18,17.000174072265626,-27.213319778442383,-38.87895965576172,-17.55091972351074,1.689305789487174e+18,17.000174072265626,-295.503515625,54.01183929443359,-160.35191650390624,1.6893057894808732e+18,16.993873453776043,-0.3980262577533722,-0.301192045211792,0.4770141144593556,0.7229623794555664,-0.1542443732420603,-1.194620927174886,0.900952696800232
2.05,1.689305789532784e+18,17.045783854166668,0.853895346323649,0.1054112116495767,0.2514670093854268,1.6893057895414344e+18,17.054434326171876,6.162515322367351,8.468199094136557,0.8584251205126444,1.6893057895414344e+18,17.054434326171876,5.17954683303833,8.300846099853516,0.6342922449111938,1.6893057895371105e+18,17.050110229492187,0.1526399487629533,0.1940260715782642,-2.52065908908844,1.6893057895371105e+18,17.050110229492187,0.1515709371306002,0.1987602822482585,-2.518368363380432,,,,,,,,,,,,1.689305789537179e+18,17.050178759765625,-33.29379997253418,-34.045319366455075,-17.658279418945312,1.689305789537179e+18,17.050178759765625,-301.58399658203126,58.84547882080078,-160.45927734375,1.689305789532784e+18,17.045783854166668,-0.4122893114884694,-0.2668268879254659,0.4166902601718902,0.7647671699523926,-0.1261965533097584,-1.0306500593821208,0.9171802401542664
2.1,1.689305789584683e+18,17.097683024088543,1.7542980511983235,-0.8845837910970052,-0.2930159469445546,1.6893057895933325e+18,17.10633235677083,8.151748498280844,6.748557408650716,0.4446662167708079,1.6893057895933325e+18,17.10633235677083,6.000616391499837,7.731166044871013,0.6361532211303711,1.6893057895803569e+18,17.09335709635417,-0.1757255680859088,-0.2896010229984919,-1.8754581212997437,1.6893057895803569e+18,17.09335709635417,-0.1767945786317189,-0.2848668297131856,-1.8730655908584597,,,,,,,,,,,,1.689305789587174e+18,17.100173828125,-36.97331924438477,-30.517079162597657,-17.872999572753905,1.689305789587174e+18,17.100173828125,-305.2635192871094,62.37371826171875,-160.6739959716797,1.689305789584683e+18,17.097683024088543,-0.4298369983832041,-0.2456487864255905,0.373415450255076,0.7843991120656332,-0.1070175195733705,-0.9225240349769592,0.9492778182029724
2.15,1.6893057896365898e+18,17.149589925130208,3.211498578389486,-0.4830926259358724,0.5324926575024923,1.6893057896365896e+18,17.14958947753906,9.498010158538818,7.13330340385437,1.2658032178878784,1.6893057896365896e+18,17.14958947753906,6.235242605209351,7.547037124633789,0.629668116569519,1.6893057896322665e+18,17.145266438802082,-0.1269581615924835,0.0644971874232093,0.1078177243471145,1.6893057896322665e+18,17.145266438802082,-0.128027173380057,0.0692313940574725,0.1101593598723412,,,,,,,,,,,,1.6893057896371758e+18,17.150175878906246,-38.27383880615234,-28.96523933410645,-17.75099983215332,1.6893057896371758e+18,17.150175878906246,-306.5640380859375,63.925558471679686,-160.5519989013672,1.6893057896365898e+18,17.149589925130208,-0.436972439289093,-0.2373575766881306,0.3570301135381062,0.7907059987386068,-0.0997706701358159,-0.882091224193573,0.9626313050587972
2.2,1.6893057896884928e+18,17.201492757161457,2.9173269271850586,-1.2406786282857258,0.1735189656416575,1.6893057896798464e+18,17.192846354166665,8.663413683573404,6.949754079182942,0.7668996353944143,1.6893057896798464e+18,17.192846354166665,5.562649567921956,8.059384187062582,0.3998452027638753,1.6893057896841687e+18,17.197168782552083,-0.9383908112843832,0.0009162984788417,2.8719828923543296,1.6893057896841687e+18,17.197168782552083,-0.9394089380900064,0.0056505029400189,2.874375502268473,,,,,,,,,,,,1.6893057896871703e+18,17.200170263671875,-35.13843994140625,-32.986359405517575,-16.98239936828613,1.6893057896871703e+18,17.200170263671875,-303.4286315917969,59.904439544677736,-159.7833984375,1.6893057896884928e+18,17.201492757161457,-0.4371431867281595,-0.2533510625362396,0.4031442205111186,0.762666642665863,-0.0606578290462493,-0.991447945435842,1.008779525756836
2.25,1.6893057897403948e+18,17.253394938151043,1.983595609664917,-1.1820022265116374,-0.3860417405764262,1.6893057897317396e+18,17.244739420572916,6.022136370340983,7.690532207489014,-0.2586242457230885,1.6893057897317396e+18,17.244739420572916,4.104354778925578,8.894890785217285,0.049084260147841,1.689305789736072e+18,17.24907194010417,-0.5989024639129639,-0.399404061337312,3.785684665044149,1.689305789736072e+18,17.24907194010417,-0.5999714732170105,-0.3946189433336258,3.7880262533823648,1.689305789737064e+18,17.25006396484375,0.0,0.2221157550811767,0.9529942870140076,9.39900016784668,0.1024089306592941,123.11548614501952,40.900001525878906,-122.7530911,49.1903794,1.6893057897371738e+18,17.250173779296876,-28.345479583740236,-38.854559326171874,-15.601359748840332,1.6893057897371738e+18,17.250173779296876,-296.63567504882815,54.03623886108399,-158.40235900878906,1.6893057897403948e+18,17.253394938151043,-0.4294728934764862,-0.2862077951431274,0.4729079703489938,0.7135685483614603,-0.0038706536870449,-1.1718785762786863,1.0816070238749187
2.3,1.6893057897922998e+18,17.305299560546874,1.4470503131548564,-1.8710360527038576,-0.0632882118225097,1.6893057897836485e+18,17.296648274739585,3.958127498626709,7.780462265014648,-0.2767698218425115,1.6893057897836485e+18,17.296648274739585,2.04143504301707,9.570631663004557,-0.220173799743255,1.689305789787975e+18,17.300974934895834,-0.9648107290267944,0.0499891339180369,4.581438382466634,1.689305789787975e+18,17.300974934895834,-0.9658288558324178,0.0547742502142985,4.583780129750569,,,,,,,,,,,,1.689305789787175e+18,17.3001748046875,-18.34147968292236,-44.60075988769531,-14.72295970916748,1.689305789787175e+18,17.3001748046875,-286.6316772460938,48.29003982543945,-157.52395629882812,1.6893057897922998e+18,17.305299560546874,-0.4122858842213948,-0.330009122689565,0.5528274575869242,0.6437549392382304,0.2393687106668948,-1.394764502843221,1.3498700857162476
2.35,1.6893057898442012e+18,17.357201090494794,-1.569466193517049,-1.159585952758789,-0.1881917715072631,1.6893057898355515e+18,17.348551432291668,-1.4147563750545185,8.559724807739258,-0.6719843645890554,1.6893057898355515e+18,17.348551432291668,-0.1083906168739,9.774798075358072,-0.6167598565419515,1.6893057898398774e+18,17.352877604166668,-0.403781920671463,0.5804238170385361,3.8525235652923584,1.6893057898398774e+18,17.352877604166668,-0.4048000375429789,0.5851579904556274,3.854814291000366,,,,,,,,,,,,1.689305789837177e+18,17.350177197265626,-8.591239929199219,-48.23391952514648,-12.587959671020508,1.689305789837177e+18,17.350177197265626,-276.8814331054688,44.65687866210938,-155.3889587402344,1.6893057898442012e+18,17.357201090494794,-0.3749944070974986,-0.3507651686668396,0.6314546664555868,0.5804141561190287,1.9863797426223757,-1.4786729017893474,-1.1232248942057292
2.4,1.6893057898874545e+18,17.400454467773436,-1.4042887687683103,-0.3879218101501465,0.1533530652523041,1.6893057898874545e+18,17.40045458984375,-3.2815568447113037,9.122835795084637,-0.6510471552610397,1.6893057898874545e+18,17.40045458984375,-1.769944190979004,9.60374355316162,-0.8646005392074585,1.6893057898917788e+18,17.404778889973958,-0.4580471217632293,-0.9763153592745464,2.528422196706136,1.6893057898917788e+18,17.404778889973958,-0.4590652287006378,-0.9715811808904012,2.5308146874109902,,,,,,,,,,,,1.6893057898871762e+18,17.400176123046876,0.2952400088310242,-49.449038696289065,-11.636359596252442,1.6893057898871762e+18,17.400176123046876,-267.9949584960938,43.441758728027345,-154.4373565673828,1.6893057898874545e+18,17.400454467773436,-0.3635895401239395,-0.3789989948272705,0.6691640019416809,0.525580108165741,2.6898038387298584,-1.3661423325538635,-2.481147050857544
2.45,1.689305789930707e+18,17.443706949869792,-1.743385950724284,-0.3010543187459309,0.4699299335479736,1.6893057899393585e+18,17.452358479817708,-4.366303126017253,8.984051704406738,-0.7174479862054189,1.6893057899393585e+18,17.452358479817708,-2.6251999537150064,9.378368695576986,-1.1627902189890544,1.6893057899436805e+18,17.45668025716146,-0.5084943970044454,-0.4103996356328328,1.2962051630020142,1.6893057899436805e+18,17.45668025716146,-0.5095125039418539,-0.4056654274463653,1.2985977331797285,,,,,,,,,,,,1.689305789937172e+18,17.450172021484374,6.612399959564209,-49.17087936401367,-9.92347984313965,1.689305789937172e+18,17.450172021484374,-261.67779541015625,43.71991958618164,-152.72447509765624,1.689305789930707e+18,17.443706949869792,-0.3623601297537486,-0.3931334614753723,0.6883227825164795,0.4901404182116191,2.725375016530355,-1.2861894766489663,-2.4176390171051025
2.5,1.6893057899826084e+18,17.4956083984375,-1.556305170059204,-0.0917434692382812,0.2137854894002278,1.6893057899912614e+18,17.504261555989583,-4.7587259610493975,9.316255569458008,-1.1044870416323345,1.6893057899912614e+18,17.504261555989583,-3.124325752258301,9.190087954203287,-1.4159606297810872,1.6893057899869368e+18,17.49993701171875,-0.3389538526535034,-0.2910009324550628,0.8817076086997986,1.6893057899869368e+18,17.49993701171875,-0.34002286195755,-0.2861903607845306,0.8840747475624084,,,,,,,,,,,,1.689305789987178e+18,17.500178222656253,10.27971954345703,-49.31971893310547,-9.023119735717774,1.689305789987178e+18,17.500178222656253,-258.0104736328125,43.57107849121094,-151.8241180419922,1.6893057899826084e+18,17.4956083984375,-0.362979531288147,-0.4007829924424489,0.7038603822390238,0.4605963031450907,2.7152137756347656,-1.220848560333252,-2.406949043273926
2.55,1.6893057900345096e+18,17.547509521484375,-2.7419535319010415,0.3846817016601562,-0.0224663019180298,1.6893057900431708e+18,17.5561708984375,-6.013562043507894,9.318449020385744,-1.458624800046285,1.6893057900431708e+18,17.5561708984375,-3.199749310811361,9.174631436665852,-1.3473846515019734,1.6893057900301883e+18,17.543188232421873,0.0821613756318887,0.5414302249749502,-0.1489493002494176,1.6893057900301883e+18,17.543188232421873,0.0810923638443152,0.5461644232273102,-0.1466076572736104,,,,,,,,,,,,1.6893057900371743e+18,17.550174462890624,9.83563995361328,-49.370958709716795,-9.003599929809571,1.6893057900371743e+18,17.550174462890624,-258.4545532226563,43.51983871459961,-151.80459594726562,1.6893057900345096e+18,17.547509521484375,-0.3552167812983195,-0.3993137379487355,0.7108729283014933,0.4571665525436401,2.7401857376098633,-1.204573631286621,-2.395906686782837
2.6,1.6893057900864164e+18,17.599416178385415,-2.504209518432617,-0.2844969431559245,-0.2208805481592814,1.689305790086416e+18,17.599416137695314,-5.195416212081909,8.973982334136963,-1.427617847919464,1.689305790086416e+18,17.599416137695314,-2.762216329574585,9.331355094909668,-1.229498028755188,1.689305790082093e+18,17.59509318033854,0.3561853369077046,-0.0212275677671035,-1.477835734685262,1.689305790082093e+18,17.59509318033854,0.3551672299702962,-0.0164933611328402,-1.475443164507548,,,,,,,,,,,,1.689305790087172e+18,17.60017216796875,7.505439758300781,-49.3685188293457,-9.708759880065918,1.689305790087172e+18,17.60017216796875,-260.7847595214844,43.52227935791016,-152.50975952148437,1.6893057900864164e+18,17.599416178385415,-0.3592002689838409,-0.3920452495416005,0.6974595387776693,0.4802955289681752,2.7230002085367837,-1.2588802973429365,-2.424595594406128
2.65,1.6893057901383155e+18,17.65131559244792,-2.515263557434082,-0.4078648885091145,0.0113424460093179,1.689305790129667e+18,17.642667154947915,-4.43170690536499,9.300901412963867,-0.8085746367772421,1.689305790129667e+18,17.642667154947915,-1.923515558242798,9.566787719726562,-0.943384051322937,1.6893057901339955e+18,17.646995442708334,0.6952664653460184,0.5410229861736298,-2.465910275777181,1.6893057901339955e+18,17.646995442708334,0.694197436173757,0.5457571744918823,-2.463568607966105,,,,,,,,,,,,1.689305790137176e+18,17.650176220703123,1.6103999197483063,-49.46855926513672,-11.182519721984864,1.689305790137176e+18,17.650176220703123,-266.67979736328124,43.42223892211914,-153.98351440429687,1.6893057901383155e+18,17.65131559244792,-0.3664155503114064,-0.3787423372268677,0.666495660940806,0.5269812345504761,2.664837121963501,-1.372238318125407,-2.5020549297332764
2.7,1.6893057901902213e+18,17.703221516927083,-1.3875929911931355,-0.8846527735392252,-0.0634823044141133,1.6893057901815675e+18,17.69456795247396,-2.102892279624939,8.824530283610025,-0.642472892999649,1.6893057901815675e+18,17.69456795247396,-0.5973535304268202,9.765110969543455,-0.6005290448665619,1.689305790185898e+18,17.69889794921875,0.5913684566815695,0.4638503491878509,-2.9166270097096763,1.689305790185898e+18,17.69889794921875,0.5902994473775228,0.468584547440211,-2.9142853418986,,,,,,,,,,,,1.689305790187174e+18,17.700174169921873,-5.721799850463867,-48.673118591308594,-12.453759956359864,1.689305790187174e+18,17.700174169921873,-274.0119934082031,44.21767883300781,-155.2547607421875,1.6893057901902213e+18,17.703221516927083,-0.3758900463581084,-0.3553597529729207,0.6256668965021769,0.5835228363672892,1.9590864578882856,-1.496338129043579,-1.141900618871053
2.75,1.6893057902421258e+18,17.7551259765625,-1.2553865909576416,-1.3784850438435872,-0.2970419923464457,1.6893057902334748e+18,17.746474853515625,-0.254038006067276,8.4646102587382,-0.488135814666748,1.6893057902334748e+18,17.746474853515625,1.069548676411311,9.7320769627889,-0.29275577267011,1.6893057902378015e+18,17.750801513671874,0.5262095034122467,0.3445788979685555,-3.8959967295328775,1.6893057902378015e+18,17.750801513671874,0.5251404941082001,0.3493640074351181,-3.8937060038248696,,,,,,,,,,,,1.6893057902371763e+18,17.750176220703125,-14.032439804077148,-46.2965591430664,-13.624959564208984,1.6893057902371763e+18,17.750176220703125,-282.3226379394531,46.59423904418945,-156.42595520019532,1.6893057902421258e+18,17.7551259765625,-0.3894246518611908,-0.3224099973837534,0.5692487557729086,0.6476906140645345,0.2293664813041686,-1.4235739310582478,1.2879021962483723
2.8,1.6893057902940283e+18,17.80702840169271,-0.0607057412465413,-1.1155673662821453,-0.0887391666571299,1.6893057902853778e+18,17.798377766927086,2.8787649869918823,8.131608804066977,-0.0895314464966455,1.6893057902853778e+18,17.798377766927086,3.1882543563842773,9.256849606831867,-0.0920119856794675,1.6893057902897042e+18,17.802704508463542,0.3273728688557942,-0.3582724630832672,-4.3570982615153,1.6893057902897042e+18,17.802704508463542,0.3263038496176401,-0.3534873525301615,-4.354705810546875,,,,,,,,,,,,1.689305790287173e+18,17.8001732421875,-23.89491958618164,-41.68007888793945,-14.510679817199708,1.689305790287173e+18,17.8001732421875,-292.18511352539065,51.21071929931641,-157.31167907714843,1.6893057902940283e+18,17.80702840169271,-0.4203036228815713,-0.2851884265740712,0.4878713687260945,0.7092743515968323,0.0185666801407933,-1.2016587257385254,1.0836363633473711
2.85,1.689305790337281e+18,17.850281005859372,0.9719972610473632,-1.1437013149261477,-0.2217906564474105,1.689305790337281e+18,17.850281005859376,6.012963930765788,7.266005198160808,0.0133599266409874,1.689305790337281e+18,17.850281005859376,5.028458595275879,8.407204945882162,0.1369989017645517,1.6893057903416044e+18,17.854604248046876,0.4141157269477844,-0.0470366217195987,-3.553454081217448,1.6893057903416044e+18,17.854604248046876,0.4130467176437378,-0.0422515099247296,-3.551112413406372,,,,,,,,,,,,1.6893057903371738e+18,17.850173681640626,-32.08355941772461,-35.97291946411133,-15.772159576416016,1.6893057903371738e+18,17.850173681640626,-300.3737487792969,56.91787872314453,-158.57315979003906,1.689305790337281e+18,17.850281005859372,-0.4395359754562378,-0.2562092393636703,0.4210287779569626,0.750768631696701,-0.0281024845317005,-1.0306326746940613,1.0435059666633606
2.9,1.6893057903805338e+18,17.89353377278646,2.5549392700195312,-0.98226531346639,0.1841613451639811,1.6893057903891804e+18,17.902180257161458,9.371689319610596,6.61216672261556,0.611166775226593,1.6893057903891804e+18,17.902180257161458,6.216766198476155,7.579482078552246,0.2707848697900772,1.68930579039351e+18,17.906509684244792,0.1758782801528771,-0.0800742528711756,-1.739998737970988,1.68930579039351e+18,17.906509684244792,0.1748092683653036,-0.0752891432493925,-1.737606167793274,,,,,,,,,,,,1.689305790387172e+18,17.9001720703125,-38.03471908569336,-30.363359451293945,-16.45779972076416,1.689305790387172e+18,17.9001720703125,-306.3249206542969,62.52743911743164,-159.25879516601563,1.6893057903805338e+18,17.89353377278646,-0.4493607680002848,-0.2298206438620884,0.3700015644232432,0.7798026005427042,-0.041567925363779,-0.9007710814476012,1.0255285501480105
2.95,1.6893057904324375e+18,17.945437581380208,5.161389032999675,-1.4872589111328125,0.7042032678922018,1.6893057904410798e+18,17.95407975260417,11.50628630320231,5.84008264541626,0.9324032266934712,1.6893057904410798e+18,17.95407975260417,6.2785383860270185,7.530936400095622,0.2339964161316553,1.6893057904367631e+18,17.949763061523438,-0.345597006380558,0.0910189226269722,1.0473284423351288,1.6893057904367631e+18,17.949763061523438,-0.3466660156846046,0.0957531183958053,1.0496191680431366,,,,,,,,,,,,1.689305790437176e+18,17.950176171875,-38.90092010498047,-29.028679656982423,-16.521239852905275,1.689305790437176e+18,17.950176171875,-307.19111328125,63.86211929321289,-159.3222412109375,1.6893057904324375e+18,17.945437581380208,-0.4540656308333079,-0.2231634060541788,0.3555156886577606,0.7858564456303915,-0.0429094433784484,-0.8655723730723063,1.0281169811884563
3.0,1.68930579048434e+18,17.99734016927083,4.028347492218018,-1.8281718889872232,-0.0777483781178792,1.6893057904929902e+18,18.005989990234372,9.209176699320476,6.405985037485759,-0.2871387181803584,1.6893057904929902e+18,18.005989990234372,5.406854788462321,8.173070430755615,-0.2128810534874597,1.6893057904800154e+18,17.99301554361979,-0.814385175704956,0.5196936130523682,2.4340944290161133,1.6893057904800154e+18,17.99301554361979,-0.8154541850090027,0.5244278013706207,2.4364869594573975,,,,,,,,,,,,1.6893057904871718e+18,18.00017197265625,-35.79235916137695,-33.049800109863284,-14.669279670715332,1.6893057904871718e+18,18.00017197265625,-304.0825500488281,59.840998840332034,-157.47027893066405,1.68930579048434e+18,17.99734016927083,-0.4520386159420013,-0.2295206536849339,0.402437021334966,0.7620076934496561,0.0259436947914461,-0.9632299145062764,1.0850491523742676
3.05,1.689305790536242e+18,18.04924186197917,2.510396957397461,-1.4820971488952637,-0.3470814923445384,1.689305790536237e+18,18.04923693847656,6.768697023391724,7.39980411529541,-0.7564310729503632,1.689305790536237e+18,18.04923693847656,4.2154189348220825,8.839274406433105,-0.4778533428907394,1.6893057905319148e+18,18.04491471354167,-0.5952881971995035,-0.0694350184251864,3.6395859718322754,1.6893057905319148e+18,18.04491471354167,-0.5962554017702738,-0.0647008068238695,3.641927639643351,,,,,,,,,,,,1.689305790537178e+18,18.050177880859373,-30.21695938110351,-38.53491897583008,-13.341919708251954,1.689305790537178e+18,18.050177880859373,-298.5071533203125,54.35587844848633,-156.14291687011718,1.689305790536242e+18,18.04924186197917,-0.444108913342158,-0.2561779270569482,0.4689380923906962,0.7186758120854696,0.1158729568123817,-1.1247450510660808,1.1814033190409343
3.1,1.6893057905881477e+18,18.101147705078123,0.8552077213923136,-1.848045031229655,-0.6056004762649536,1.689305790579494e+18,18.092494140625,3.6394832928975425,7.600801150004069,-1.210768222808838,1.689305790579494e+18,18.092494140625,2.553240656852722,9.428186734517416,-0.6747383077939352,1.6893057905838203e+18,18.096820475260415,-0.7870998779932658,-1.0601057012875874,4.458705425262451,1.6893057905838203e+18,18.096820475260415,-0.788067082564036,-1.0553715229034424,4.461047013600667,,,,,,,,,,,,1.6893057905871764e+18,18.100176367187498,-20.430119705200195,-44.18595962524414,-12.5806396484375,1.6893057905871764e+18,18.100176367187498,-288.7203063964844,48.70483932495117,-155.3816345214844,1.6893057905881477e+18,18.101147705078123,-0.4343370397885639,-0.3062410255273183,0.5419490138689677,0.650201141834259,0.3432116707166036,-1.3311351140340169,1.4548847675323486
3.15,1.689305790640048e+18,18.153047770182297,-0.3833888967831929,-1.3586079279581706,-0.3619259198506673,1.689305790631399e+18,18.144398600260416,0.2251247167587279,8.363513310750326,-1.1038888295491536,1.689305790631399e+18,18.144398600260416,0.4280858933925629,9.74790859222412,-0.8434743483861288,1.689305790635724e+18,18.148724365234376,-0.1814269771178563,-0.7497352759043375,4.164981047312419,1.689305790635724e+18,18.148724365234376,-0.1824959938724835,-0.7450010776519775,4.167322635650635,,,,,,,,,,,,1.6893057906371763e+18,18.15017626953125,-7.746999740600586,-48.18023910522461,-11.833999824523923,1.6893057906371763e+18,18.15017626953125,-276.0371948242188,44.71055908203125,-154.63500061035157,1.689305790640048e+18,18.153047770182297,-0.4170673390229543,-0.3623213867346446,0.6033539970715841,0.5743428667386373,1.4901150663693743,-1.4665798743565877,0.5649569431940714
3.2,1.6893057906919488e+18,18.20494881184896,-0.9843337138493856,-0.9318691889444988,-0.0928502281506856,1.6893057906832978e+18,18.19629777018229,-2.3734806378682456,8.430113474527994,-1.2406785488128662,1.6893057906832978e+18,18.19629777018229,-1.5572697321573894,9.61777909596761,-1.0197704434394836,1.689305790687628e+18,18.2006279296875,-0.3534364600976307,-1.0181596279144287,3.790317058563232,1.689305790687628e+18,18.2006279296875,-0.3545054694016774,-1.0134254495302837,3.792658726374308,,,,,,,,,,,,1.689305790687174e+18,18.200174169921876,3.286679911613464,-49.24407958984375,-11.214239692687988,1.689305790687174e+18,18.200174169921876,-265.003515625,43.64671859741211,-154.015234375,1.6893057906919488e+18,18.20494881184896,-0.3974445859591166,-0.4125260810057322,0.6514190435409546,0.4967693587144215,2.6031525135040283,-1.3495349486668904,-2.4512659708658853
3.25,1.6893057907438513e+18,18.256851236979166,-2.219568252563477,-0.7248407999674479,0.199476679166158,1.6893057907352044e+18,18.24820426432292,-5.259623686472575,8.60758145650228,-0.8783653378486633,1.6893057907352044e+18,18.24820426432292,-3.120755751927694,9.207990646362305,-1.25703759988149,1.6893057907395305e+18,18.252530436197915,-0.5071199735005697,-0.0687223374843597,2.5592708587646484,1.6893057907395305e+18,18.252530436197915,-0.5081380804379781,-0.0639372306565443,2.561561663945516,1.689305790737079e+18,18.2500791015625,0.0,0.2361740320920944,0.962287962436676,9.633000373840332,0.126930683851242,120.00762939453124,40.900001525878906,-122.7530887,49.1903787,1.689305790737172e+18,18.250172119140625,11.836440086364746,-48.55843887329102,-10.633519744873048,1.689305790737172e+18,18.250172119140625,-256.45375061035156,44.33235855102539,-153.43451538085938,1.6893057907438513e+18,18.256851236979166,-0.3744145135084788,-0.4398233890533447,0.6896636287371317,0.4363872806231181,2.7670565446217856,-1.198627193768819,-2.2640132109324136
3.3,1.6893057907871058e+18,18.30010595703125,-2.2832210063934326,-0.4523873329162597,0.1955431699752806,1.6893057907871076e+18,18.300107421875,-6.429315090179443,8.286145210266113,-1.307478149731954,1.6893057907871076e+18,18.300107421875,-4.139223098754883,8.760035196940104,-1.5151729583740234,1.689305790791434e+18,18.304433919270835,-0.4729115267594655,0.0842994054158528,1.7520633141199748,1.689305790791434e+18,18.304433919270835,-0.4739296336968739,0.0890336036682128,1.7544049819310503,,,,,,,,,,,,1.6893057907871788e+18,18.3001787109375,17.16295967102051,-47.38723907470703,-9.091439628601076,1.6893057907871788e+18,18.3001787109375,-251.12723388671876,45.50355987548828,-151.89243774414064,1.6893057907871058e+18,18.30010595703125,-0.3595103472471237,-0.4489555358886719,0.7141147553920746,0.3989511877298355,2.7897956371307373,-1.1032177209854126,-2.237016201019287
3.35,1.6893057908303598e+18,18.34335986328125,-3.4177284240722656,0.239031155904134,0.2348638772964477,1.6893057908390085e+18,18.352008544921876,-8.172087669372559,8.693124771118164,-1.3714861472447712,1.6893057908390085e+18,18.352008544921876,-4.624598979949951,8.50787607828776,-1.5696574449539185,1.689305790843337e+18,18.3563369140625,-0.2647591729958852,0.6415103077888489,0.0182241314711669,1.689305790843337e+18,18.3563369140625,-0.2658281822999318,0.6462445259094238,0.0205658056462804,,,,,,,,,,,,1.6893057908371763e+18,18.35017626953125,19.52243957519531,-46.889479064941405,-8.605879974365234,1.6893057908371763e+18,18.35017626953125,-248.76775512695312,46.001319122314456,-151.4068817138672,1.6893057908303598e+18,18.34335986328125,-0.3451654811700184,-0.4487572610378265,0.7301032741864523,0.3826127052307128,2.811575969060262,-1.0522029002507527,-2.2321596145629883
3.4,1.6893057908822638e+18,18.395263753255207,-3.424997647603353,-0.2779175440470377,-0.4145194292068481,1.6893057908909135e+18,18.403913574218752,-7.600003560384114,8.429914156595865,-1.8454644680023191,1.6893057908909135e+18,18.403913574218752,-4.267821391423543,8.704946517944336,-1.4787918329238892,1.68930579088659e+18,18.399590087890623,0.0057268626987933,0.5274057686328888,-1.5564846396446228,1.68930579088659e+18,18.399590087890623,0.0046578459441661,0.5321399867534637,-1.5541175603866575,,,,,,,,,,,,1.6893057908871762e+18,18.400176220703123,17.438679695129395,-47.40919876098633,-8.776679801940919,1.6893057908871762e+18,18.400176220703123,-250.851513671875,45.481598663330075,-151.57767639160156,1.6893057908822638e+18,18.395263753255207,-0.341772586107254,-0.4339717924594879,0.7315329909324646,0.3994856675465901,2.8108372688293457,-1.078436811765035,-2.2699502309163413
3.45,1.6893057909341665e+18,18.44716609700521,-3.091305732727051,-0.4253339767456054,-0.4583263794581095,1.6893057909428165e+18,18.455816243489583,-6.119843324025472,8.63848876953125,-1.6388841072718303,1.6893057909428165e+18,18.455816243489583,-3.1075266202290854,9.217623710632326,-1.183722456296285,1.6893057909298422e+18,18.442842041015627,0.4304054776827494,0.7302893797556559,-2.894737720489502,1.6893057909298422e+18,18.442842041015627,0.4293364584445953,0.7350235978762308,-2.8923960526784263,,,,,,,,,,,,1.689305790937173e+18,18.450173095703125,11.64367971420288,-48.75119857788086,-9.681920051574709,1.689305790937173e+18,18.450173095703125,-256.6465148925781,44.13959884643555,-152.48291931152343,1.6893057909341665e+18,18.44716609700521,-0.3517076373100281,-0.4109814167022705,0.7085117697715759,0.4526441196600596,2.785892963409424,-1.19704008102417,-2.3349117437998452
3.5,1.6893057909860728e+18,18.49907267252604,-2.0233074029286704,-1.3822323481241865,-0.7156012852986654,1.689305790986069e+18,18.49906884765625,-3.5078779458999634,8.16700267791748,-1.6450655460357666,1.689305790986069e+18,18.49906884765625,-1.606109619140625,9.627484321594238,-0.9220363795757294,1.6893057909817393e+18,18.494739176432297,0.5231551726659139,0.4668028553326924,-4.004170735677083,1.6893057909817393e+18,18.494739176432297,0.5220861633618673,0.4715370734532674,-4.001829067866008,,,,,,,,,,,,1.6893057909871757e+18,18.50017578125,1.4957199096679688,-49.312398529052736,-10.943399810791016,1.6893057909871757e+18,18.50017578125,-266.7944763183594,43.578399658203125,-153.74439697265626,1.6893057909860728e+18,18.49907267252604,-0.3726760645707448,-0.3783393800258636,0.6618467966715494,0.5282900730768839,2.585498809814453,-1.380005677541097,-2.571815490722656
3.55,1.6893057910379684e+18,18.55096842447917,-1.2410693963368733,-1.6921809514363606,-0.3829007546106973,1.6893057910293184e+18,18.542318196614584,-1.2833505670229597,8.149754524230957,-0.9880363543828328,1.6893057910293184e+18,18.542318196614584,0.1696943889061609,9.76844882965088,-0.634545624256134,1.689305791033648e+18,18.546648193359378,0.7446447412172953,0.3981314301490783,-4.440990289052327,1.689305791033648e+18,18.546648193359378,0.743626614411672,0.4028656333684921,-4.438597838083903,,,,,,,,,,,,1.6893057910371756e+18,18.550175732421877,-9.540399837493895,-47.9728385925293,-12.756319808959962,1.6893057910371756e+18,18.550175732421877,-277.8306030273437,44.91795883178711,-155.55731811523438,1.6893057910379684e+18,18.55096842447917,-0.3953501979509989,-0.339894692103068,0.5969194769859314,0.6089567343393961,1.0016556580861409,-1.472658673922221,2.0967210133870444
3.6,1.689305791089875e+18,18.60287491861979,0.2044250170389811,-1.869714895884196,0.046435460448265,1.6893057910812244e+18,18.594224446614582,2.39122744401296,7.568896770477295,-0.2588236527517437,1.6893057910812244e+18,18.594224446614582,2.364513357480367,9.497639020284018,-0.3098777830600738,1.6893057910855508e+18,18.59855086263021,0.5521712899208069,0.1238020236293474,-4.201480229695638,1.6893057910855508e+18,18.59855086263021,0.5511022706826528,0.1285362268487612,-4.199138641357422,,,,,,,,,,,,1.6893057910871803e+18,18.600180224609375,-20.02263984680176,-43.97855987548828,-14.117839813232422,1.6893057910871803e+18,18.600180224609375,-288.312841796875,48.91223907470703,-156.91883544921876,1.689305791089875e+18,18.60287491861979,-0.4185738066832224,-0.3005864024162292,0.5207762122154236,0.6799802978833517,0.1077780139942963,-1.289217233657837,1.1870173215866089
3.65,1.6893057911417774e+18,18.654777180989583,1.7612690925598145,-1.4503097534179688,0.306078240275383,1.6893057911331277e+18,18.646127766927084,5.7204413414001465,7.318248589833577,0.219541477660338,1.6893057911331277e+18,18.646127766927084,4.233551184336345,8.834858894348145,-0.1144027312596638,1.6893057911374508e+18,18.650450764973957,0.4506149291992187,0.3208569685618082,-3.501632293065389,1.6893057911374508e+18,18.650450764973957,0.4496477246284484,0.3256420840819676,-3.499239762624105,,,,,,,,,,,,1.689305791137174e+18,18.650173974609377,-28.76759910583496,-38.88384017944336,-14.600959587097169,1.689305791137174e+18,18.650173974609377,-297.05780029296875,54.00695953369141,-157.4019561767578,1.6893057911417774e+18,18.654777180989583,-0.4346254666646321,-0.2600486179192861,0.4503509600957234,0.7348953684171041,0.0214190240949392,-1.094016154607137,1.081653356552124
3.7,1.689305791193683e+18,18.706683024088537,4.077576637268066,-1.2168248494466145,0.5082346300284067,1.689305791185031e+18,18.698030680338544,9.044071833292644,6.891727924346924,0.4512464801470439,1.689305791185031e+18,18.698030680338544,5.463002522786458,8.144162654876709,-0.052138162155946,1.6893057911893535e+18,18.70235392252604,0.0539088621735572,0.1117374325791994,-1.6906204223632812,1.6893057911893535e+18,18.70235392252604,0.0528398503859837,0.1164716457327206,-1.688227931658427,,,,,,,,,,,,1.6893057911871736e+18,18.700173681640624,-34.7968391418457,-34.17707901000976,-14.94499969482422,1.6893057911871736e+18,18.700173681640624,-303.0870422363281,58.71371841430664,-157.74599914550782,1.689305791193683e+18,18.706683024088537,-0.4432342052459716,-0.2300190826257069,0.4039091169834137,0.7664216756820679,0.0096174233282605,-0.966862420241038,1.0536885261535645
3.75,1.689305791236934e+18,18.749933959960934,5.520721197128296,-1.3392817974090576,0.4262054711580276,1.6893057912369295e+18,18.749929524739585,11.063414891560871,6.700900554656982,0.2737787862618764,1.6893057912369295e+18,18.749929524739585,5.59241263071696,8.05636199315389,-0.1647443324327468,1.689305791241257e+18,18.7542568359375,-0.6568328638871511,-0.0511599661161502,1.084387630224228,1.689305791241257e+18,18.7542568359375,-0.6579018731911978,-0.0463748549421628,1.0867292682329814,,,,,,,,,,,,1.689305791237171e+18,18.75017099609375,-35.99244003295898,-33.684200286865234,-14.70099983215332,1.689305791237171e+18,18.75017099609375,-304.2826354980469,59.206599426269534,-157.5019958496094,1.689305791236934e+18,18.749933959960934,-0.4506825804710388,-0.2273117154836654,0.4028079360723495,0.7634962499141693,0.0280708521604537,-0.9613874852657318,1.081207036972046
3.8,1.6893057912801823e+18,18.793182210286457,4.608344554901123,-1.553619384765625,-0.4210600654284159,1.689305791288836e+18,18.80183626302083,9.325627644856771,7.108079115549724,-0.7884350617726644,1.689305791288836e+18,18.80183626302083,4.812703450520833,8.530850092569986,-0.4202555914719899,1.6893057912931543e+18,18.80615421549479,-0.2929098817209402,0.0993165063361326,2.6239208380381265,1.6893057912931543e+18,18.80615421549479,-0.2939279911418755,0.1040507157643635,2.6262624263763428,,,,,,,,,,,,1.689305791287174e+18,18.80017416992188,-32.37879943847656,-37.195359802246095,-13.715239524841309,1.689305791287174e+18,18.80017416992188,-300.668994140625,55.695438385009766,-156.5162384033203,1.6893057912801823e+18,18.793182210286457,-0.4522095620632171,-0.2380962520837783,0.4344953397909799,0.7414687474568685,0.07908304904898,-1.0349886417388916,1.1407067775726318
3.85,1.6893057913320863e+18,18.845086344401043,3.0404609044392905,-1.3956268628438313,-0.2852607369422912,1.6893057913407378e+18,18.85373795572917,5.683552026748657,7.688737392425537,-0.8163513342539469,1.6893057913407378e+18,18.85373795572917,3.15051539738973,9.253127733866371,-0.5495381951332092,1.6893057913364165e+18,18.84941613769531,-0.175089243799448,0.3720169365406036,4.311181545257568,1.6893057913364165e+18,18.84941613769531,-0.1760819032788276,0.3767511397600174,4.313624858856201,,,,,,,,,,,,1.6893057913371763e+18,18.850176220703126,-25.178359603881837,-41.84599990844727,-13.049119758605958,1.6893057913371763e+18,18.850176220703126,-293.4685485839844,51.0447998046875,-155.8501190185547,1.6893057913320863e+18,18.845086344401043,-0.4317293365796407,-0.2691288292407989,0.4987332920233409,0.7010921637217203,0.1538056184848149,-1.201198697090149,1.2111653486887617
3.9,1.6893057913839923e+18,18.896992268880208,0.8578861554463705,-2.2580567995707193,-0.6262028614679972,1.6893057913926405e+18,18.905640380859374,1.472383533914884,7.413961569468181,-1.3226327101389568,1.6893057913926405e+18,18.905640380859374,0.8167612534016371,9.724416732788086,-0.7561227877934774,1.6893057913796687e+18,18.892668619791667,-0.440332035223643,-0.3791437000036239,4.851644357045491,1.6893057913796687e+18,18.892668619791667,-0.4412992397944132,-0.3744094967842102,4.853935082753499,,,,,,,,,,,,1.6893057913871836e+18,18.900183642578124,-14.320359992980958,-46.80895919799805,-11.81447982788086,1.6893057913871836e+18,18.900183642578124,-282.6105529785156,46.08183898925781,-154.6154754638672,1.6893057913839923e+18,18.896992268880208,-0.4039883414904276,-0.3144546151161194,0.5818306605021158,0.6310184597969055,0.6472463011741637,-1.4195681810379028,1.7167893648147583
3.95,1.6893057914358948e+18,18.948894775390627,0.0560390055179595,-1.2723112106323242,-0.1766317089398702,1.6893057914445425e+18,18.95754248046875,-1.53519506752491,8.610971132914225,-0.9232307275136312,1.6893057914445425e+18,18.95754248046875,-1.4166702429453533,9.643163681030272,-0.9617419838905334,1.6893057914315676e+18,18.944567789713545,-0.3089960068464279,-1.2938635349273682,4.4450117746988935,1.6893057914315676e+18,18.944567789713545,-0.3100650161504745,-1.2890783548355105,4.447353521982829,,,,,,,,,,,,1.6893057914371763e+18,18.950176269531248,-1.3712799310684205,-49.131838989257815,-11.633919525146483,1.6893057914371763e+18,18.950176269531248,-269.661474609375,43.758959197998045,-154.43491821289064,1.6893057914358948e+18,18.948894775390627,-0.3866325120131175,-0.3724611401557922,0.6446707646052042,0.5433019399642944,2.346360365549723,-1.4208815892537434,-0.7052121957143148
4.0,1.6893057914877993e+18,19.00079923502604,-1.4413152535756428,-1.1498915354410808,0.1619013547897338,1.6893057914877983e+18,19.000798217773436,-4.45304274559021,8.0787672996521,-0.978066235780716,1.6893057914877983e+18,19.000798217773436,-2.916216254234314,9.286175727844238,-1.1916983127593994,1.6893057914834747e+18,18.996474609375,-0.4351396759351094,-0.8051204085350037,3.4600425561269126,1.6893057914834747e+18,18.996474609375,-0.4362086951732635,-0.8003352880477905,3.4623842239379883,,,,,,,,,,,,1.689305791487175e+18,19.000174658203125,8.754719924926757,-48.89515914916992,-10.623759651184082,1.689305791487175e+18,19.000174658203125,-259.5354736328125,43.99563903808594,-153.424755859375,1.6893057914877993e+18,19.00079923502604,-0.3686107695102691,-0.4161168833573659,0.689049243927002,0.4643126726150512,2.748141288757324,-1.2442643642425537,-2.340118646621704
4.05,1.6893057915396923e+18,19.0526923828125,-2.143406709035238,-0.8480936686197916,0.3613034089406331,1.689305791531051e+18,19.044051106770834,-5.9633127848307295,7.7872419357299805,-1.0921241442362468,1.689305791531051e+18,19.044051106770834,-4.106633265813191,8.783220609029135,-1.434770941734314,1.6893057915353764e+18,19.04837646484375,-0.3059416711330413,-0.1580613752206166,2.9096020062764487,1.6893057915353764e+18,19.04837646484375,-0.3070106953382491,-0.1532762845357259,2.9119437535603843,,,,,,,,,,,,1.689305791537174e+18,19.05017392578125,17.03852024078369,-47.51655960083008,-9.203679847717286,1.689305791537174e+18,19.05017392578125,-251.25167541503907,45.37423934936523,-152.00467834472656,1.6893057915396923e+18,19.0526923828125,-0.3467328548431396,-0.4433396557966867,0.7237555384635925,0.3987332681814829,2.815531333287557,-1.0863514343897502,-2.241029103597006
4.1,1.689305791591608e+18,19.104607991536454,-3.729324340820313,-0.8251603444417318,0.1296265522638956,1.6893057915829563e+18,19.09595662434896,-8.767302513122559,7.367301464080811,-1.1643076141675313,1.6893057915829563e+18,19.09595662434896,-5.224565029144287,8.171809196472168,-1.4473227659861247,1.6893057915872822e+18,19.100282389322917,-0.2584978143374124,0.4665483335653941,1.7253888845443726,1.6893057915872822e+18,19.100282389322917,-0.2595159212748208,0.4712825318177541,1.7277305523554485,,,,,,,,,,,,1.6893057915871785e+18,19.100178466796873,22.801799011230468,-45.45475845336914,-8.945039749145508,1.6893057915871785e+18,19.100178466796873,-245.48839416503907,47.436038970947266,-151.74603576660155,1.689305791591608e+18,19.104607991536454,-0.3145667612552643,-0.4543179968992868,0.7523205081621805,0.3585169613361358,2.876975695292155,-0.9708452026049296,-2.1953279177347818
4.15,1.6893057916435077e+18,19.156507893880207,-3.330446402231852,-0.7597096761067709,-0.0779730876286824,1.6893057916348562e+18,19.147856282552084,-9.0556370417277,7.100900650024414,-1.5429718097050984,1.6893057916348562e+18,19.147856282552084,-5.591131210327148,7.917857964833577,-1.510531743367513,1.689305791639176e+18,19.152175944010416,-0.223933013776938,0.0043269625554481,-0.0718784828980763,1.689305791639176e+18,19.152175944010416,-0.2249511207143465,0.0091120737294355,-0.0695877323547998,,,,,,,,,,,,1.6893057916371717e+18,19.150171630859376,24.61471939086914,-44.817919158935545,-8.53755989074707,1.6893057916371717e+18,19.150171630859376,-243.67547607421875,48.072879028320315,-151.33855895996095,1.6893057916435077e+18,19.156507893880207,-0.308150847752889,-0.4522228638331095,0.7615500688552856,0.3472358783086141,2.8751111030578613,-0.9400386412938436,-2.2058483759562173
4.2,1.6893057916867602e+18,19.199760131835937,-3.0803112983703613,-0.4083201885223388,0.0345760583877563,1.6893057916867612e+18,19.199761393229167,-8.397610982259115,7.669395446777344,-1.399801254272461,1.6893057916867612e+18,19.199761393229167,-5.333858489990234,8.096644719441732,-1.4837376674016316,1.6893057916910868e+18,19.204086995442708,0.0378227403853088,0.4760676523049672,-1.3105095624923706,1.6893057916910868e+18,19.204086995442708,0.0368046305763224,0.4808018704255422,-1.3081679145495098,,,,,,,,,,,,1.6893057916871777e+18,19.200177929687506,23.050679397583007,-45.47183990478515,-8.427759742736816,1.6893057916871777e+18,19.200177929687506,-245.23951416015623,47.41895980834961,-151.2287567138672,1.6893057916867602e+18,19.199760131835937,-0.3117617666721344,-0.4448335319757461,0.7580623924732208,0.3608816266059875,2.870296835899353,-0.9693784713745116,-2.2237755060195923
4.25,1.689305791730008e+18,19.24300821940104,-2.963314692179362,-0.2530501683553059,-0.0845309098561604,1.6893057917386598e+18,19.251659830729167,-7.348158995310466,8.327222188313803,-1.3605190515518188,1.6893057917386598e+18,19.251659830729167,-4.492539405822754,8.618101755777994,-1.278656601905823,1.689305791742983e+18,19.25598299153646,0.111228381594022,0.862338105837504,-2.8614964485168457,1.689305791742983e+18,19.25598299153646,0.1102611757814884,0.8671232263247172,-2.8591038386027017,1.689305791737077e+18,19.250076904296876,0.0,0.2421225756406784,0.9731119871139526,10.118000030517578,0.1139748990535736,118.6515884399414,40.900001525878906,-122.7530877,49.1903784,1.6893057917371717e+18,19.25017138671875,18.26095943450928,-47.189598846435544,-9.457439613342284,1.6893057917371717e+18,19.25017138671875,-250.02923278808595,45.70119857788086,-152.25843811035156,1.689305791730008e+18,19.24300821940104,-0.3184947371482849,-0.426825612783432,0.7459667126337687,0.3994330465793609,2.8669305642445884,-1.0514047145843506,-2.2624449729919434
4.3,1.689305791781913e+18,19.294913330078124,-2.500755230585734,-0.7645177841186523,-0.5520684917767843,1.6893057917905674e+18,19.303567464192707,-5.230909665425618,8.294321060180664,-1.5621143579483032,1.6893057917905674e+18,19.303567464192707,-2.873692353566488,9.309292793273926,-0.9790063897768656,1.689305791786242e+18,19.299241943359373,0.3470478206872939,1.021901160478592,-4.132350564002991,1.689305791786242e+18,19.299241943359373,0.3460551649332046,1.0267117619514463,-4.12998354434967,,,,,,,,,,,,1.6893057917871724e+18,19.300172412109376,9.547719764709472,-48.812199401855466,-10.47491970062256,1.6893057917871724e+18,19.300172412109376,-258.7424743652344,44.078599548339845,-153.27591552734376,1.689305791781913e+18,19.294913330078124,-0.3338067730267842,-0.3921167949835459,0.7136504848798116,0.4739603499571482,2.826664129892985,-1.2198450167973836,-2.3591489791870117
4.35,1.6893057918338191e+18,19.346818929036456,-1.3564349214235942,-2.27199920018514,-0.7089171210924784,1.689305791842469e+18,19.355469401041667,-1.4454642583926518,7.325227737426758,-1.286540945370992,1.689305791842469e+18,19.355469401041667,-0.417263388633728,9.745076497395832,-0.7234342296918234,1.689305791829495e+18,19.342495035807293,0.405258188645045,0.4846706688404083,-5.239391167958577,1.689305791829495e+18,19.342495035807293,0.4041891694068908,0.4894048770268758,-5.236998716990153,,,,,,,,,,,,1.6893057918371738e+18,19.350173925781252,-4.187039756774903,-49.234318542480466,-11.341119956970214,1.6893057918371738e+18,19.350173925781252,-272.47723388671875,43.65647811889649,-154.14211730957032,1.6893057918338191e+18,19.346818929036456,-0.3635914921760558,-0.3480961124102275,0.6500085989634196,0.5680362780888876,2.215949813524882,-1.4409275849660237,-0.915255069732666
4.4,1.689305791885722e+18,19.398722086588545,0.3727049628893534,-2.5612109502156577,-0.1595635016759236,1.6893057918943706e+18,19.407370605468753,2.8833512465159097,6.959524631500244,-0.4719842672348022,1.6893057918943706e+18,19.407370605468753,2.316503922144572,9.493852297465006,-0.4594788054625193,1.6893057918813983e+18,19.39439803059896,0.603076716264089,0.1964440842469533,-5.429472128550212,1.6893057918813983e+18,19.39439803059896,0.6020077069600424,0.2012291972835858,-5.427181402842204,,,,,,,,,,,,1.6893057918871726e+18,19.400172607421872,-19.293079376220703,-45.00579833984375,-12.548919677734377,1.6893057918871726e+18,19.400172607421872,-287.5832824707031,47.8849983215332,-155.34991455078125,1.689305791885722e+18,19.398722086588545,-0.3978139062722524,-0.2984926799933115,0.5604827602704366,0.6610932151476542,0.3189190477132797,-1.3680602312088013,1.355043649673462
4.45,1.689305791937624e+18,19.45062410481771,1.685712496439616,-1.801887035369873,0.1109267870585122,1.689305791937625e+18,19.450625122070313,5.9300127029418945,7.103393077850342,-0.111864456674084,1.689305791937625e+18,19.450625122070313,4.210119843482971,8.849581241607666,-0.27333864569664,1.6893057919333015e+18,19.44630126953125,0.5788457194964091,0.4957680503527323,-4.330016533533732,1.6893057919333015e+18,19.44630126953125,0.5778276324272156,0.5005531708399454,-4.327725648880005,,,,,,,,,,,,1.689305791937175e+18,19.45017509765625,-30.15595932006836,-38.58859939575195,-13.40779972076416,1.689305791937175e+18,19.45017509765625,-298.44615478515624,54.302198791503905,-156.20879516601562,1.689305791937624e+18,19.45062410481771,-0.4155158400535583,-0.2485308398803074,0.4735012551148732,0.7351919015248617,0.0684307167927424,-1.1278896729151409,1.0731196800867715
4.5,1.689305791989529e+18,19.50252913411458,3.71536922454834,-1.1193305651346843,0.496134877204895,1.6893057919808768e+18,19.493876790364585,8.711071014404297,6.989235560099284,0.2725823819637298,1.6893057919808768e+18,19.493876790364585,5.369554837544759,8.200613339742025,-0.2481348961591719,1.6893057919852e+18,19.498200195312503,0.2062688282070059,0.533845325311025,-2.1258110205332437,1.6893057919852e+18,19.498200195312503,0.205250719639783,0.538579523563385,-2.1234184900919595,,,,,,,,,,,,1.689305791987174e+18,19.50017421875,-36.49264068603516,-33.17911949157715,-13.144279861450196,1.689305791987174e+18,19.50017421875,-304.7828308105469,59.71167907714844,-155.94527587890624,1.689305791989529e+18,19.50252913411458,-0.4205311437447865,-0.2095910310745239,0.4187750418980915,0.7769762674967448,0.0472842914362748,-0.9740535616874696,1.0172311464945476
4.55,1.689305792041431e+18,19.554430989583334,4.9321262041727705,-1.1489345232645671,0.1666480998198191,1.6893057920327816e+18,19.54578173828125,10.580064455668133,6.991827805836995,-0.0867398157715797,1.6893057920327816e+18,19.54578173828125,5.612974643707275,8.031602700551352,-0.441380222638448,1.689305792037104e+18,19.55010384114583,-0.649247944355011,0.1730275750160217,1.012305500606696,1.689305792037104e+18,19.55010384114583,-0.6503169735272726,0.1778126905361811,1.014698076993227,,,,,,,,,,,,1.6893057920371763e+18,19.550176367187497,-37.5735595703125,-32.95219955444336,-12.31223964691162,1.6893057920371763e+18,19.550176367187497,-305.86375732421874,59.9385986328125,-155.1132385253906,1.689305792041431e+18,19.554430989583334,-0.4246162474155426,-0.1987002988656361,0.4226463933785756,0.7755314906438192,0.0904572010040282,-0.96902330716451,1.0498329401016235
4.6,1.6893057920933307e+18,19.606330729166668,3.953725496927897,-1.6863215764363606,-0.732647697130839,1.68930579208468e+18,19.597679931640627,9.00638484954834,6.830112775166829,-1.3605190714200337,1.68930579208468e+18,19.597679931640627,4.776602586110433,8.525130271911621,-0.7817734678586324,1.6893057920890074e+18,19.60200756835938,-0.7924449443817139,-0.4002185563246409,2.6919304529825845,1.6893057920890074e+18,19.60200756835938,-0.793361226717631,-0.395484338204066,2.6942721207936606,,,,,,,,,,,,1.6893057920871729e+18,19.6001728515625,-33.493879318237305,-37.000159454345706,-10.814079856872558,1.6893057920871729e+18,19.6001728515625,-301.78408203125,55.89063949584961,-153.61507568359374,1.6893057920933307e+18,19.606330729166668,-0.4325753152370453,-0.2175651093324025,0.4680167237917581,0.7389750281969706,0.1788498113552729,-1.0763034025828044,1.1669660806655884
4.65,1.6893057921365868e+18,19.649586914062503,2.4736891984939575,-1.1464521884918213,-0.6720569729804993,1.689305792136582e+18,19.649581949869795,5.846861998240153,7.888936996459961,-1.4624134302139282,1.689305792136582e+18,19.649581949869795,3.382472594579061,9.156251271565756,-0.8508176604906718,1.6893057921409134e+18,19.65391333007813,-0.062155537928144,-0.5639813542366028,3.592905759811402,1.6893057921409134e+18,19.65391333007813,-0.0631227428093552,-0.5591962238152822,3.5952982902526855,,,,,,,,,,,,1.6893057921371766e+18,19.650176611328124,-26.903439712524413,-41.64591903686524,-10.82383975982666,1.6893057921371766e+18,19.650176611328124,-295.1936401367187,51.24487991333008,-153.6248321533203,1.6893057921365868e+18,19.649586914062503,-0.4273561239242553,-0.2512476593255996,0.5134870409965515,0.7002373337745667,0.247789405286312,-1.20565265417099,1.2673924565315249
4.7,1.6893057921798382e+18,19.69283846028646,1.02551531791687,-1.4078264236450195,-0.7730893492698669,1.6893057921884897e+18,19.701489908854168,2.3180469274520874,8.20459016164144,-1.5345968802769978,1.6893057921884897e+18,19.701489908854168,1.486141820748647,9.647563934326172,-0.7939248283704122,1.689305792192816e+18,19.705816080729168,-0.0649553388357162,-0.8778133591016134,4.181728839874268,1.689305792192816e+18,19.705816080729168,-0.0660243531068166,-0.8730791409810384,4.184070587158203,,,,,,,,,,,,1.6893057921871688e+18,19.700168896484374,-17.055599975585938,-45.984239196777345,-11.589999771118164,1.6893057921871688e+18,19.700168896484374,-285.3457946777344,46.90655899047851,-154.39099731445313,1.6893057921798382e+18,19.69283846028646,-0.4133329292138417,-0.2966639697551727,0.5643149813016256,0.6494563023249308,0.443327118953069,-1.3646292686462402,1.5018468697865803
4.75,1.6893057922317391e+18,19.744739013671875,-0.4219749569892883,-1.6574945449829102,-0.6794690291086832,1.6893057922403937e+18,19.753393717447917,-1.120040404299895,8.030512173970541,-1.406580924987793,1.6893057922403937e+18,19.753393717447917,-0.5668661594390869,9.747467041015623,-0.7753560344378153,1.6893057922360745e+18,19.749074462890626,0.104763388633728,-0.8273406326770782,4.087452173233032,1.6893057922360745e+18,19.749074462890626,0.1036943774670361,-0.8226064145565033,4.0898191928863525,,,,,,,,,,,,1.6893057922371784e+18,19.750178515625,-6.129279851913452,-48.32419967651367,-11.970639610290528,1.6893057922371784e+18,19.750178515625,-274.4194702148437,44.56659927368164,-154.77164001464843,1.6893057922317391e+18,19.744739013671875,-0.3917703926563263,-0.3531295458475749,0.6218361258506775,0.5781541466712952,1.7854050000508626,-1.471627910931905,0.8020954926808673
4.8,1.6893057922836452e+18,19.796645426432292,-0.5111169815063477,-1.569935162862142,-0.5625832676887512,1.689305792292295e+18,19.80529500325521,-2.810170809427897,8.035497347513834,-1.2759726643562317,1.689305792292295e+18,19.80529500325521,-2.382870316505432,9.457696596781412,-0.9439009428024292,1.689305792279322e+18,19.792321777343748,-0.0663297871748606,-2.004808863004049,3.6676858266194663,1.689305792279322e+18,19.792321777343748,-0.067347894112269,-2.0000237226486206,3.669976552327474,,,,,,,,,,,,1.689305792287173e+18,19.8001732421875,4.428599870204925,-49.01959915161133,-12.04383964538574,1.689305792287173e+18,19.8001732421875,-263.8615966796875,43.87119979858399,-154.84483642578124,1.6893057922836452e+18,19.796645426432292,-0.3794490496317546,-0.412691593170166,0.6608284513155619,0.4981107215086619,2.7308479944864907,-1.3348751068115234,-2.3531036376953125
4.85,1.6893057923355482e+18,19.848548095703123,-0.947871208190918,-0.7236113548278809,0.128315766652425,1.6893057923441992e+18,19.85719921875,-5.155535697937012,8.14217742284139,-1.0163514216740923,1.6893057923441992e+18,19.85719921875,-3.9771998723347983,8.870606104532877,-1.229329268137614,1.689305792331224e+18,19.844224202473956,-0.0427605705335736,-1.4072807629903157,3.5145622889200845,1.689305792331224e+18,19.844224202473956,-0.0437786740561326,-1.4025466044743855,3.5169548988342285,,,,,,,,,,,,1.6893057923371802e+18,19.850180224609375,14.696119689941408,-47.71907958984375,-11.363079452514649,1.6893057923371802e+18,19.850180224609375,-253.5940734863281,45.17171936035156,-154.16407775878906,1.6893057923355482e+18,19.848548095703123,-0.3703523774941762,-0.4676632980505625,0.6861359675725301,0.415513018767039,2.833385944366455,-1.1609695355097454,-2.1490845680236816
4.9,1.6893057923874516e+18,19.900451578776043,-1.8891361554463704,-0.3400433858235677,0.6336133480072021,1.6893057923874514e+18,19.90045153808594,-6.900900602340698,8.005188226699829,-0.871286541223526,1.6893057923874514e+18,19.90045153808594,-5.065992832183838,8.235910892486572,-1.638331115245819,1.6893057923831242e+18,19.896123942057297,-0.7973318497339884,-0.7992662886778513,2.790483315785726,1.6893057923831242e+18,19.896123942057297,-0.7983499566713969,-0.7945320506890615,2.7928758462270102,,,,,,,,,,,,1.689305792387174e+18,19.900174267578127,22.594400024414064,-45.3888801574707,-9.630679893493651,1.689305792387174e+18,19.900174267578127,-245.69579467773437,47.50191955566406,-152.43168029785156,1.6893057923874516e+18,19.900451578776043,-0.3539405465126037,-0.4970742662747701,0.714546004931132,0.3415520091851552,2.830045541127523,-0.9978772401809692,-2.096543073654175
4.95,1.6893057924393464e+18,19.952346516927083,-2.9215188026428223,-0.2715964317321777,0.3693310419718424,1.689305792430704e+18,19.94370418294271,-8.521040916442871,7.363512833913167,-1.416750391324361,1.689305792430704e+18,19.94370418294271,-5.820993105570476,7.651732444763184,-1.932054917017619,1.6893057924350246e+18,19.948024739583335,-0.8086837927500407,0.3543018301328023,1.683748205502828,1.6893057924350246e+18,19.948024739583335,-0.8097528020540873,0.3590360432863235,1.6861916780471802,,,,,,,,,,,,1.6893057924371738e+18,19.950173974609378,28.486999893188475,-42.96351928710938,-7.283399868011474,1.6893057924371738e+18,19.950173974609378,-239.80319213867188,49.92727890014648,-150.0843963623047,1.6893057924393464e+18,19.952346516927083,-0.3327241043249766,-0.4998699525992076,0.7433024048805237,0.294575830300649,2.822144428888957,-0.8798997004826864,-2.108903249104818
5.0,1.6893057924912556e+18,20.004255533854167,-3.2496984799702964,-0.4605485598246256,0.0249714454015095,1.6893057924826074e+18,19.995607421875,-9.49152978261312,6.793024063110352,-1.8955143690109253,1.6893057924826074e+18,19.995607421875,-6.230992158253987,7.308393478393555,-1.9991170167922976,1.6893057924869348e+18,19.999934733072916,-0.4472042620182037,0.7182757258415222,0.0565050231913725,1.6893057924869348e+18,19.999934733072916,-0.4482732812563578,0.7230099240938822,0.0588466903815666,,,,,,,,,,,,1.6893057924871788e+18,20.00017890625,30.063239288330077,-41.98507843017578,-6.727079772949219,1.6893057924871788e+18,20.00017890625,-238.22695617675785,50.90571899414063,-149.528076171875,1.6893057924912556e+18,20.004255533854167,-0.3166096111138661,-0.4893315732479095,0.7607266306877136,0.2855999370416005,2.8339269955952964,-0.8396667838096619,-2.136575778325399
5.05,1.689305792543161e+18,20.056160970052083,-3.629532178243002,0.0129706064860025,-0.0902800162633259,1.6893057925345068e+18,20.04750667317708,-9.640482902526855,7.484549681345622,-1.6751752297083538,1.6893057925345068e+18,20.04750667317708,-6.104499975840251,7.479259490966797,-1.728960116704305,1.689305792538836e+18,20.05183585611979,0.0499382341901461,1.3924673398335774,-1.3907365202903748,1.689305792538836e+18,20.05183585611979,0.0488692199190457,1.3972524404525757,-1.388445774714152,,,,,,,,,,,,1.6893057925371745e+18,20.05017431640625,28.12343940734863,-42.895199584960935,-7.615240001678467,1.6893057925371745e+18,20.05017431640625,-240.16675415039063,49.995599365234376,-150.4162384033203,1.689305792543161e+18,20.056160970052083,-0.3044307231903076,-0.4711871643861134,0.7649131615956625,0.3161645034948985,2.8751420180002847,-0.8800660173098246,-2.1632673740386963
5.1,1.689305792586413e+18,20.0994130859375,-2.884809970855713,-0.7538778781890869,-0.7028666734695435,1.6893057925864133e+18,20.09941324869792,-8.091728528340658,7.4352976481119795,-1.8370895385742188,1.6893057925864133e+18,20.09941324869792,-5.250954786936442,8.186356544494629,-1.1958599090576172,1.6893057925907364e+18,20.103736490885417,0.3992513418197632,1.4685709476470947,-3.310380538304647,1.6893057925907364e+18,20.103736490885417,0.3981823325157165,1.4733051458994548,-3.3080389499664307,,,,,,,,,,,,1.6893057925871754e+18,20.100175634765627,22.00635948181152,-45.54991912841797,-9.977159881591795,1.6893057925871754e+18,20.100175634765627,-246.28383178710936,47.34087905883789,-152.77815856933594,1.689305792586413e+18,20.0994130859375,-0.3031216114759445,-0.4483431875705718,0.7533438503742218,0.3732669651508331,2.9183261394500732,-0.9870749413967131,-2.188316226005554
5.15,1.6893057926296658e+18,20.142665771484378,-1.862516721089681,-0.9753775596618652,-1.0219951073328657,1.6893057926383114e+18,20.151311360677084,-5.448855876922607,8.03469959894816,-1.5553347269694011,1.6893057926383114e+18,20.151311360677084,-3.648004690806071,9.069343249003092,-0.590979685386022,1.6893057926426432e+18,20.15564314778646,0.6675229867299398,1.5799520413080852,-4.092898925145467,1.6893057926426432e+18,20.15564314778646,0.6665048996607462,1.584686279296875,-4.090557177861531,,,,,,,,,,,,1.6893057926371776e+18,20.150177734375,11.76567964553833,-48.036278533935544,-12.400079727172852,1.6893057926371776e+18,20.150177734375,-256.52451782226564,44.85451889038086,-155.20107421875,1.6893057926296658e+18,20.142665771484378,-0.3083364069461822,-0.4185701409975688,0.7252052227656046,0.4504355092843373,2.9706763426462808,-1.1487965981165569,-2.204829772313436
5.2,1.6893057926815654e+18,20.194565429687497,-1.3183364073435466,-2.178403695424398,-0.9369310537974038,1.689305792690208e+18,20.203208007812503,-2.5692933003107705,7.303493022918701,-0.8973084986209869,1.689305792690208e+18,20.203208007812503,-1.4455853303273518,9.676404317220053,-0.1037272696072856,1.689305792694543e+18,20.20754296875,0.5875505407651266,0.8675813575585684,-5.078377405802409,1.689305792694543e+18,20.20754296875,0.58648153146108,0.8723155657450358,-5.075984795888265,,,,,,,,,,,,1.689305792687174e+18,20.20017421875,-0.4660400509834289,-48.355918884277344,-14.225199699401855,1.689305792687174e+18,20.20017421875,-268.7562255859375,44.53487854003906,-157.0261962890625,1.6893057926815654e+18,20.194565429687497,-0.3196318745613098,-0.3762240608533223,0.6728641390800476,0.5497801303863525,3.063387314478556,-1.3787598609924316,-2.1849098205566406
5.25,1.689305792733471e+18,20.246471028645832,-0.0166557033856709,-2.4571166038513184,-0.1174689332644144,1.6893057927421233e+18,20.255123291015625,1.4913267319401105,7.333203792572021,0.288534523298343,1.6893057927421233e+18,20.255123291015625,1.1547032197316487,9.715513229370115,0.2009015629688898,1.689305792737798e+18,20.25079833984375,0.5690209865570068,-0.0104610696434974,-5.095608711242676,1.689305792737798e+18,20.25079833984375,0.5679519772529602,-0.0057268664240837,-5.093165397644043,1.689305792737082e+18,20.25008203125,0.0,0.2432602643966674,0.982260763645172,10.107999801635742,0.060394249856472,0.0,40.900001525878906,-122.7530885,49.190379,1.6893057927371748e+18,20.250174658203125,-13.529800033569336,-45.7280387878418,-15.61843967437744,1.6893057927371748e+18,20.250174658203125,-281.82000122070315,47.16275787353515,-158.4194366455078,1.689305792733471e+18,20.246471028645832,-0.3497516016165415,-0.3339197933673858,0.5918813347816467,0.6438458959261576,-1.033098116517067,-1.4847797552744548,-0.0224210818608601
5.3,1.689305792785376e+18,20.29837613932292,2.232980728149414,-1.8891757329305012,0.6516852080821991,1.6893057927940252e+18,20.307025472005208,5.80199654897054,7.524629592895508,1.072782138983409,1.6893057927940252e+18,20.307025472005208,3.210750659306844,9.25359344482422,0.3134227593739827,1.689305792781052e+18,20.29405216471354,0.1684460863471031,0.1283835147817929,-3.8650970458984375,1.689305792781052e+18,20.29405216471354,0.167377075801293,0.1331177155176798,-3.862755457560221,,,,,,,,,,,,1.6893057927871713e+18,20.300171240234373,-23.465480041503906,-41.3018798828125,-16.345559692382814,1.6893057927871713e+18,20.300171240234373,-291.75567626953125,51.58891830444336,-159.1465576171875,1.689305792785376e+18,20.29837613932292,-0.3805062671502431,-0.2969774603843688,0.5114578803380331,0.7104770342508951,-0.1115384449561436,-1.2642211119333904,0.9009326497713724
5.35,1.6893057928372826e+18,20.350282389322917,3.8614797592163086,-1.1796196301778157,0.3181557829181353,1.6893057928372782e+18,20.350278198242187,7.901698350906372,7.644769191741943,0.5285147130489349,1.6893057928372782e+18,20.350278198242187,4.06194531917572,8.928105354309082,0.1213175989687442,1.6893057928329554e+18,20.345955403645835,-0.2905682375033696,0.8850419322649637,-1.36233127117157,1.6893057928329554e+18,20.345955403645835,-0.2915354321400323,0.8897761305173238,-1.3598878582318623,,,,,,,,,,,,1.6893057928371763e+18,20.350176416015625,-29.453239059448244,-38.083518981933594,-15.364679527282714,1.6893057928371763e+18,20.350176416015625,-297.7434326171875,54.80727844238281,-158.16567687988282,1.6893057928372826e+18,20.350282389322917,-0.3914272586504618,-0.2591815888881683,0.4764943818251291,0.7432784636815389,-0.0303930511436192,-1.1464325189590454,0.9495847622553508
5.4,1.689305792889175e+18,20.402175130208335,4.4996747970581055,-0.6571846008300781,-0.4929741322994232,1.6893057928805307e+18,20.39353068033854,8.554340680440268,8.2171524365743,-0.4987041056156158,1.6893057928805307e+18,20.39353068033854,3.9929328759511313,8.957595507303873,-0.1416872007151444,1.6893057928848558e+18,20.397855875651043,-0.4911356568336487,0.1311833187937736,1.2156218489011128,1.6893057928848558e+18,20.397855875651043,-0.4921537637710571,0.1360193366805712,1.2179125746091206,,,,,,,,,,,,1.6893057928871757e+18,20.40017587890625,-29.794839477539064,-38.8033203125,-13.461479949951173,1.6893057928871757e+18,20.40017587890625,-298.0850341796875,54.08747940063476,-156.26247863769532,1.689305792889175e+18,20.402175130208335,-0.3917955954869588,-0.2476261109113692,0.4903346697489421,0.7379763523737589,0.0483455099165439,-1.1626134713490803,1.0082733829816182
5.45,1.689305792941084e+18,20.454084228515622,3.831796169281006,-1.0930983225504558,-1.0919766823450725,1.689305792932433e+18,20.445432942708337,7.011967182159424,8.328219413757324,-1.264606773853302,1.689305792932433e+18,20.445432942708337,3.0564448038736978,9.307485580444336,-0.3674113651116689,1.6893057929367575e+18,20.449757486979166,-0.5420919954776764,-0.7307475606600443,2.72074286142985,1.6893057929367575e+18,20.449757486979166,-0.543161004781723,-0.7260133425394694,2.7230845292409263,,,,,,,,,,,,1.6893057929371776e+18,20.450177636718752,-25.10515937805176,-42.09975967407227,-12.65139980316162,1.6893057929371776e+18,20.450177636718752,-293.3953552246094,50.7910400390625,-155.45240173339843,1.689305792941084e+18,20.454084228515622,-0.3951428929964701,-0.2718042532602945,0.5305235385894775,0.6986220876375834,0.1405069654186566,-1.2746264934539795,1.1347733338673909
5.5,1.6893057929929871e+18,20.505987141927083,3.0153427918752036,-1.773334503173828,-1.3276618321736653,1.6893057929843374e+18,20.497337483723957,4.569693009058635,8.035297711690268,-1.6562320788701377,1.6893057929843374e+18,20.497337483723957,1.2748719652493794,9.69669500986735,-0.396748811006546,1.6893057929886638e+18,20.501663899739583,-0.000814485674103,-0.7657704949378967,4.766021569569905,1.6893057929886638e+18,20.501663899739583,-0.0018325963368018,-0.7610362966855367,4.768363157908122,,,,,,,,,,,,1.689305792987179e+18,20.5001791015625,-16.452919578552248,-45.85735931396484,-13.15159969329834,1.689305792987179e+18,20.5001791015625,-284.743115234375,47.03343963623047,-155.95259704589844,1.6893057929929871e+18,20.505987141927083,-0.3788124124209086,-0.3234345217545826,0.5920661687850952,0.6324888865152994,0.7408700237671534,-1.464846173922221,1.7822218736012776
5.55,1.68930579303624e+18,20.549239990234376,1.119871735572815,-2.216596841812134,-0.8320466876029968,1.6893057930362363e+18,20.549236490885416,-0.4592225650946299,7.533203919728597,-0.9934201935927072,1.6893057930362363e+18,20.549236490885416,-1.4664614101250966,9.65981388092041,-0.3423903584480285,1.6893057930405663e+18,20.55356648763021,0.2303980141878128,-0.4458807110786438,5.830046971638997,1.6893057930405663e+18,20.55356648763021,0.2293289999167124,-0.4410956005255381,5.832439581553142,,,,,,,,,,,,1.6893057930371763e+18,20.550176513671875,-2.7693999648094176,-48.4388786315918,-13.929959678649904,1.6893057930371763e+18,20.550176513671875,-271.0595947265625,44.45191879272461,-156.73095703125,1.68930579303624e+18,20.549239990234376,-0.3426515161991119,-0.3754973113536834,0.6585149168968201,0.5543363392353058,2.882979989051819,-1.4155155420303345,-2.3309903144836426
5.6,1.6893057930794924e+18,20.592492268880207,-0.9765721162160238,-1.8413713773091631,0.2799375355243683,1.689305793088143e+18,20.60114298502604,-5.250251770019531,7.004389921824138,0.0141575317053745,1.689305793088143e+18,20.60114298502604,-4.108131965001424,8.877646128336588,-0.3150855104128519,1.689305793092469e+18,20.60546915690104,0.0041742444348832,-0.6007859756549199,4.8236972490946455,1.689305793092469e+18,20.60546915690104,0.0031052335786323,-0.5960517823696136,4.826090017954509,,,,,,,,,,,,1.689305793087174e+18,20.600173828125,12.900279426574707,-47.135919189453126,-14.437479972839355,1.689305793087174e+18,20.600173828125,-255.3899169921875,45.754878997802734,-157.2384765625,1.6893057930794924e+18,20.592492268880207,-0.2976950506369273,-0.421049306790034,0.7156095703442892,0.4697850843270619,3.058586359024048,-1.1790329217910769,-2.134424606959025
5.65,1.689305793131394e+18,20.644394042968752,-1.5369296073913574,-1.4913756052652996,0.4833179612954457,1.6893057931400456e+18,20.65304549153646,-7.557929674784343,6.415356953938802,-0.0271186586469412,1.6893057931400456e+18,20.65304549153646,-5.9243191083272295,7.771153291066487,-0.6885269284248352,1.689305793144371e+18,20.657370930989583,-0.4421137273311615,-1.1083640853563943,3.659999052683512,1.689305793144371e+18,20.657370930989583,-0.4431827366352081,-1.1036298672358196,3.662391662597656,,,,,,,,,,,,1.689305793137175e+18,20.65017490234375,24.729399108886717,-43.36367950439453,-12.817319869995115,1.689305793137175e+18,20.65017490234375,-243.56079711914063,49.52711868286133,-155.61831665039062,1.689305793131394e+18,20.644394042968752,-0.2661711573600769,-0.45974929134051,0.7600176135698954,0.3732790450255076,3.036549727121989,-0.9489601055781046,-2.10709555943807
5.7,1.6893057931832996e+18,20.69629972330729,-2.399263858795166,-0.8028090794881185,1.1288864612579346,1.689305793191946e+18,20.70494588216146,-9.772287686665852,6.001598040262858,0.1663011734684308,1.689305793191946e+18,20.70494588216146,-7.09715477625529,6.666871547698975,-1.129882534344991,1.6893057931876255e+18,20.700625244140625,-0.7786241173744202,-0.3212387636303901,2.815554261207581,1.6893057931876255e+18,20.700625244140625,-0.7796931266784668,-0.3165045529603958,2.8179214000701904,,,,,,,,,,,,1.689305793187174e+18,20.700173730468748,32.288519287109374,-39.36207885742188,-10.62619972229004,1.689305793187174e+18,20.700173730468748,-236.00167236328124,53.52871856689453,-153.427197265625,1.6893057931832996e+18,20.69629972330729,-0.2459248801072438,-0.4778907597064972,0.7907543182373047,0.2922517855962117,2.9883105754852295,-0.7719606161117554,-2.1165366967519126
5.75,1.689305793235198e+18,20.748198079427084,-3.9398422241210938,-0.1051173210144043,1.0800518989562988,1.6893057932438523e+18,20.75685237630208,-11.666804949442543,5.731607755025228,-0.2779662261406581,1.6893057932438523e+18,20.75685237630208,-7.645138263702393,6.021511236826579,-1.234027663866679,1.6893057932308764e+18,20.743876383463544,-0.8473719159762064,0.5608252187569936,1.1939870417118073,1.6893057932308764e+18,20.743876383463544,-0.848440925280253,0.5655593872070312,1.1963795721530914,,,,,,,,,,,,1.689305793237178e+18,20.750177978515627,34.726078796386716,-37.26368026733398,-9.608719825744627,1.689305793237178e+18,20.750177978515627,-233.56412048339843,55.62711944580078,-152.409716796875,1.689305793235198e+18,20.748198079427084,-0.2221488654613494,-0.4706466893355052,0.8161393404006958,0.2509271850188573,2.980046192804972,-0.6671611666679382,-2.15148647626241
5.8,1.6893057932871048e+18,20.800104817708338,-3.6002329190572104,-1.276781400044759,0.1017221212387084,1.6893057932871045e+18,20.800104736328123,-11.14905834197998,4.802394866943359,-1.0429715514183044,1.6893057932871045e+18,20.800104736328123,-7.564210176467896,6.127344846725464,-1.209927260875702,1.6893057932827814e+18,20.79578157552083,-0.4738278190294901,0.3699298202991485,-1.0047206083933513,1.6893057932827814e+18,20.79578157552083,-0.4748459259668986,0.3747149109840393,-1.002429872751236,,,,,,,,,,,,1.6893057932871788e+18,20.800178662109374,33.85011978149414,-38.09084014892578,-9.63799991607666,1.6893057932871788e+18,20.800178662109374,-234.44007568359376,54.79995956420898,-152.43899841308593,1.6893057932871048e+18,20.800104817708338,-0.2178300370772679,-0.4524207810560862,0.8246504068374634,0.2602365513642629,2.981957753499349,-0.6768739620844523,-2.194377342859904
5.85,1.6893057933390057e+18,20.852005615234376,-2.710503419240316,-0.7145897547403971,0.1581705808639526,1.6893057933303562e+18,20.843356282552083,-9.80518881479899,5.840281804402669,-1.0456634759902954,1.6893057933303562e+18,20.843356282552083,-7.006301085154216,6.74999205271403,-1.208298881848653,1.6893057933346803e+18,20.84768025716146,0.1044070521990458,0.2502002293864885,-2.5852835178375244,1.6893057933346803e+18,20.84768025716146,0.1033889378110567,0.2549344183256228,-2.5829927921295166,,,,,,,,,,,,1.6893057933371745e+18,20.850174365234373,30.0119987487793,-41.16279907226563,-9.396439743041991,1.6893057933371745e+18,20.850174365234373,-238.2781951904297,51.72799835205078,-152.1974334716797,1.6893057933390057e+18,20.852005615234376,-0.2384109795093536,-0.4363475541273753,0.8116719325383505,0.3058766921361287,2.971341053644816,-0.7822534044583639,-2.2253936926523843
5.9,1.6893057933909107e+18,20.903910725911455,-2.0805538495381675,-0.8394333521525065,-0.1678147713343302,1.689305793382261e+18,20.89526123046875,-8.064610004425049,7.108079115549724,-0.8358927170435587,1.689305793382261e+18,20.89526123046875,-5.872171243031819,7.796927452087402,-0.8347597519556681,1.689305793386587e+18,20.8995869140625,0.5630141297976176,0.953458825747172,-3.656588395436605,1.689305793386587e+18,20.8995869140625,0.5619451204935709,0.958193023999532,-3.65419594446818,,,,,,,,,,,,1.6893057933871764e+18,20.9001763671875,22.450439834594725,-44.742279052734375,-11.221559715270995,1.6893057933871764e+18,20.9001763671875,-245.8397521972656,48.148519134521486,-154.02255249023438,1.6893057933909107e+18,20.903910725911455,-0.2542196710904439,-0.4179241061210632,0.7821751435597738,0.384855180978775,3.0105634530385337,-0.9530491630236309,-2.22741691271464
5.95,1.689305793442814e+18,20.955814127604167,-0.8634842236836752,-0.8507326443990072,-0.3774684568246205,1.6893057934341583e+18,20.947158365885414,-5.073182900746663,7.997212092081706,-0.5936194260915121,1.6893057934341583e+18,20.947158365885414,-4.039685964584351,8.907530466715494,-0.3172130237023036,1.6893057934384865e+18,20.951486653645834,0.7373652656873068,0.9902634620666504,-4.883052984873454,1.6893057934384865e+18,20.951486653645834,0.7362962365150452,0.9950485626856486,-4.880711396535237,,,,,,,,,,,,1.6893057934371768e+18,20.950176953125,11.0556396484375,-47.74591903686523,-13.317519760131836,1.6893057934371768e+18,20.950176953125,-257.23455200195315,45.14487991333008,-156.11851806640624,1.689305793442814e+18,20.955814127604167,-0.2749078969160716,-0.3894682228565216,0.7308862408002218,0.4870127737522125,3.0862345695495605,-1.1870266596476238,-2.1980748176574707
6.0,1.689305793486061e+18,20.99906103515625,-1.37549090385437,-2.9287757873535156,-1.3423466682434082,1.6893057934860664e+18,20.99906632486979,-2.5483560959498086,6.98704210917155,-0.846062183380127,1.6893057934860664e+18,20.99906632486979,-1.4086771508057911,9.6693967183431,0.2484955663482347,1.689305793490392e+18,21.00339217122396,0.8020660479863485,0.9456193943818412,-5.921931425730388,1.689305793490392e+18,21.00339217122396,0.8009970386823019,0.950353612502416,-5.91964070002238,1.689305793512e+18,21.025,0.0,0.2432602643966674,0.9341548085212708,10.9399995803833,0.0592885836958885,0.0,41.0,-122.753088,49.1903789,1.6893057934871764e+18,21.000176416015627,-2.8133199334144594,-48.08995895385742,-15.647719955444336,1.6893057934871764e+18,21.000176416015627,-271.103515625,44.800839233398435,-158.44871520996094,1.689305793486061e+18,20.99906103515625,-0.2904713004827499,-0.3543458580970764,0.6682241261005402,0.5855323970317841,-2.9167977571487427,-1.4217618107795715,-1.9667273163795471
6.05,1.689305793529318e+18,21.042318196614584,-0.3454270362854004,-2.8143118222554526,-0.4396528402964274,1.6893057935379658e+18,21.050965901692702,1.5962120965123177,7.024130980173747,0.3974079554124425,1.6893057935379658e+18,21.050965901692702,1.609300951162974,9.627398490905762,0.5544629395008087,1.6893057935422968e+18,21.055296956380207,0.3994040588537852,-0.4557563662528991,-5.798994859059651,1.6893057935422968e+18,21.055296956380207,0.3983350495497386,-0.4510221878687541,-5.79655106862386,,,,,,,,,,,,1.6893057935371722e+18,21.050172412109376,-17.524079704284667,-44.65687866210938,-16.89943962097168,1.6893057935371722e+18,21.050172412109376,-285.81427612304685,48.23391952514648,-159.7004364013672,1.689305793529318e+18,21.042318196614584,-0.324402908484141,-0.3202106257279713,0.5825300415356954,0.6716336607933044,-0.671755830446879,-1.4376471837361653,0.2778021891911824
6.1,1.6893057935812216e+18,21.094221598307296,1.7291258176167803,-2.0776027043660483,0.1340182622273762,1.6893057935898726e+18,21.102872558593752,6.061618010203044,6.899504502614339,0.9010971188545228,1.6893057935898726e+18,21.102872558593752,4.08578101793925,8.870137850443522,0.7170918385187784,1.6893057935941988e+18,21.10719864908854,0.2618575741847356,0.5960008551677068,-4.150829315185547,1.6893057935941988e+18,21.10719864908854,0.2607885499795278,0.6007859706878662,-4.148487726847331,,,,,,,,,,,,1.68930579358718e+18,21.100180175781247,-29.097000122070312,-38.17135848999023,-17.836399459838866,1.68930579358718e+18,21.100180175781247,-297.38719482421874,54.71943893432617,-160.63739929199218,1.6893057935812216e+18,21.094221598307296,-0.3628522058327992,-0.2812705139319101,0.4789328475793202,0.7475192348162333,-0.1924054821332295,-1.1708537340164185,0.7747613390286764
6.15,1.6893057936331236e+18,21.146123779296875,3.174715201059977,-1.0075987180074055,0.2630208134651183,1.6893057936417743e+18,21.154774576822916,8.839086850484213,7.285546620686849,0.8482556343078613,1.6893057936417743e+18,21.154774576822916,5.4015793800354,8.167062123616537,0.5564602414766947,1.6893057936374518e+18,21.15045178222656,-0.0099265612661838,0.807716578245163,-1.9562195539474487,1.6893057936374518e+18,21.15045178222656,-0.0109955742955208,0.8124507963657379,-1.9538525342941284,,,,,,,,,,,,1.6893057936371743e+18,21.150174462890625,-35.77283935546875,-32.6691593170166,-16.711559677124022,1.6893057936371743e+18,21.150174462890625,-304.0630310058594,60.22163848876953,-159.51255798339844,1.6893057936331236e+18,21.146123779296875,-0.3735874891281127,-0.235474536816279,0.4188886086146037,0.7932743430137634,-0.1127127036452293,-0.9985905488332112,0.8184703787167867
6.2,1.689305793685028e+18,21.1980283203125,4.027313709259033,-1.0883711179097493,-0.2705356627702713,1.6893057936936778e+18,21.206678059895836,9.507482210795084,6.900102933247884,-0.0522432948152224,1.6893057936936778e+18,21.206678059895836,5.473243236541748,8.135216077168783,0.2667491137981415,1.689305793680701e+18,21.19370068359375,-0.5179628332455953,0.3208060562610626,0.3403537472089131,1.689305793680701e+18,21.19370068359375,-0.5189809401830038,0.3255402743816376,0.3427462975184122,,,,,,,,,,,,1.689305793687173e+18,21.200173242187496,-37.39055862426758,-31.698038864135743,-15.291479301452636,1.689305793687173e+18,21.200173242187496,-305.68076171875,61.19275894165039,-158.09247741699218,1.689305793685028e+18,21.1980283203125,-0.37904953956604,-0.2167702019214629,0.413717637459437,0.7988265554110209,-0.0576863648990789,-0.9707550207773844,0.8557722369829813
6.25,1.68930579373693e+18,21.249930175781248,3.295598347981771,-0.844327449798584,-0.4446745216846466,1.6893057937369324e+18,21.249932250976563,8.267800331115723,7.644769430160523,-0.3317050412297249,1.6893057937369324e+18,21.249932250976563,4.8852691650390625,8.504547119140625,0.0557055482640862,1.6893057937326052e+18,21.245605387369793,-0.3771074811617533,0.1365792853757738,2.126116474469503,1.6893057937326052e+18,21.245605387369793,-0.3781764904657999,0.1413134944935639,2.1284580628077188,1.689305793737114e+18,21.250114013671876,0.0,0.2641882598400116,0.9376674890518188,11.142999649047852,0.1326801925897598,102.03948974609376,41.0,-122.7530841,49.1903786,1.6893057937371722e+18,21.250172314453124,-34.77243881225586,-34.801719665527344,-14.108079719543458,1.6893057937371722e+18,21.250172314453124,-303.0626281738281,58.08907852172852,-156.9090789794922,1.68930579373693e+18,21.249930175781248,-0.3774711787700653,-0.2219479580720265,0.4498378137747447,0.7782177527745565,-0.011205602204427,-1.0510239601135254,0.8969660401344299
6.3,1.6893057937888315e+18,21.301831787109375,2.0026237964630127,-1.2062732378641765,-0.3305606146653493,1.6893057937801792e+18,21.293179199218752,5.9750776290893555,8.112665812174479,-0.3505485107501347,1.6893057937801792e+18,21.293179199218752,3.754042466481527,9.049168268839518,-0.1009531561285256,1.6893057937845064e+18,21.29750634765625,-0.6478225787480673,-0.4742859651645024,3.578041394551595,1.6893057937845064e+18,21.29750634765625,-0.6488916178544363,-0.4695517520109812,3.5804338455200195,,,,,,,,,,,,1.6893057937871764e+18,21.300176513671875,-28.416239547729493,-39.825679779052734,-13.40535945892334,1.6893057937871764e+18,21.300176513671875,-296.70643310546876,53.065119934082034,-156.20635681152345,1.6893057937888315e+18,21.301831787109375,-0.3721032639344533,-0.2495122303565343,0.5105529725551605,0.7333828608194987,0.0441249158854285,-1.2088571389516194,0.9709138671557108
6.35,1.6893057938407373e+18,21.35373722330729,1.013200004895528,-1.7736843427022295,-0.3017504513263703,1.6893057938320817e+18,21.345081787109375,2.9850462277730307,7.763114293416341,-0.6675975124041239,1.6893057938320817e+18,21.345081787109375,1.7554210424423218,9.624247550964355,-0.370902548233668,1.6893057938364132e+18,21.349413330078125,-0.8303185900052389,-0.9871073365211488,4.510883490244548,1.6893057938364132e+18,21.349413330078125,-0.8313875993092855,-0.9823222160339355,4.513225078582764,,,,,,,,,,,,1.6893057938371743e+18,21.350174169921875,-18.129199981689453,-45.425479888916016,-12.746559715270996,1.6893057938371743e+18,21.350174169921875,-286.4193908691406,47.46531982421875,-155.54755249023438,1.6893057938407373e+18,21.35373722330729,-0.3696367641290028,-0.2954895595709483,0.5845133860905966,0.6582561532656351,0.3860536714394887,-1.419176975886027,1.368834932645162
6.4,1.6893057938926395e+18,21.405639485677085,-0.3196274812022845,-1.527293841044108,-0.161174197991689,1.6893057938839857e+18,21.396985595703125,-0.6209374765555064,8.203792572021484,-0.7140581707159678,1.6893057938839857e+18,21.396985595703125,-0.4601049323876698,9.7558962504069,-0.7024703820546468,1.689305793888314e+18,21.40131396484375,-0.5730425119400024,-0.4644103050231933,4.3083815574646,1.689305793888314e+18,21.40131396484375,-0.5741115212440491,-0.4596760968367259,4.3107231458028155,,,,,,,,,,,,1.689305793887179e+18,21.400179003906253,-6.343999719619751,-48.88051986694336,-11.692479705810548,1.689305793887179e+18,21.400179003906253,-274.6341918945312,44.01027984619141,-154.49347534179688,1.6893057938926395e+18,21.405639485677085,-0.35394220550855,-0.3355856637159983,0.6548309326171875,0.5765054623285929,2.2539896965026855,-1.4501746495564778,-0.9138367176055908
6.45,1.6893057939445404e+18,21.457540690104167,-0.5419357617696127,-1.186549186706543,0.1775640646616617,1.6893057939358897e+18,21.44888997395833,-3.0590243339538574,7.990033467610677,-1.04147603114446,1.6893057939358897e+18,21.44888997395833,-2.575438459714254,9.390276590983072,-1.0391534566879272,1.689305793940221e+18,21.453220865885413,-0.5463171402613322,-0.6992880006631216,4.236910343170166,1.689305793940221e+18,21.453220865885413,-0.5473861594994863,-0.694553792476654,4.239201068878174,,,,,,,,,,,,1.6893057939371745e+18,21.450174462890622,4.614040058851242,-49.37827911376953,-10.306559753417968,1.6893057939371745e+18,21.450174462890622,-263.6761535644531,43.51251907348633,-153.10755615234376,1.6893057939445404e+18,21.457540690104167,-0.3342268864313761,-0.3734407226244609,0.7132328748703003,0.4890935917695363,2.7755542596181235,-1.2472039063771565,-2.443617343902588
6.5,1.6893057939877993e+18,21.50079931640625,-0.4498262405395509,-0.8245933055877686,0.6238901913166046,1.6893057939877952e+18,21.500795410156247,-5.2961141268412275,7.746962706247966,-0.5615157186985016,1.6893057939877952e+18,21.500795410156247,-4.485313018163045,8.62792682647705,-1.1803419987360635,1.6893057939921203e+18,21.505120279947917,-0.3473787009716034,1.0118473569552104,3.726125319798787,1.6893057939921203e+18,21.505120279947917,-0.3484477202097575,1.0165815750757854,3.7284669876098633,1.689305793974824e+18,21.487823974609373,0.0,0.0,0.9376674890518188,10.42300033569336,0.0343394055962562,0.0,41.0,-122.7531016,49.19038,1.6893057939871744e+18,21.5001744140625,14.969399642944335,-48.026519775390625,-9.769759941101077,1.6893057939871744e+18,21.5001744140625,-253.3207977294922,44.86427993774414,-152.5707580566406,1.6893057939877993e+18,21.50079931640625,-0.3007610887289047,-0.3939555138349532,0.7575900554656982,0.4244006276130676,2.881903648376465,-1.076356828212738,-2.3385846614837646
6.55,1.6893057940310508e+18,21.54405061848958,-1.8655730883280437,-1.3922282854715984,0.2867371241251628,1.6893057940396992e+18,21.55269905598958,-8.055038611094156,6.535197416941325,-0.6269195179144541,1.6893057940396992e+18,21.55269905598958,-6.008994261423747,7.659352461496989,-1.1238432725270588,1.689305794044025e+18,21.557025227864585,-0.59330286582311,0.5189300378163656,3.061249335606893,1.689305794044025e+18,21.557025227864585,-0.5943718751271566,0.5237151235342026,3.0635910034179688,,,,,,,,,,,,1.6893057940371735e+18,21.5501734375,22.782279205322265,-45.29127807617188,-9.540399932861328,1.6893057940371735e+18,21.5501734375,-245.5079132080078,47.599518585205075,-152.34139709472657,1.6893057940310508e+18,21.54405061848958,-0.2560456941525141,-0.396050214767456,0.7987999121348063,0.3727064430713653,2.9508320490519204,-0.9251718719800314,-2.3165934085845947
6.6,1.689305794082948e+18,21.59594799804687,-2.8388876914978027,0.9375823338826498,0.7072745362917582,1.689305794091602e+18,21.60460213216146,-9.888339360555014,7.925826072692871,-0.4697908361752828,1.689305794091602e+18,21.60460213216146,-6.860824108123779,6.903543472290039,-1.2174169619878132,1.6893057940872786e+18,21.600278442382812,-0.3414736688137054,0.157374158501625,1.494100034236908,1.6893057940872786e+18,21.600278442382812,-0.3425426930189132,0.1621083691716194,1.4963908195495603,,,,,,,,,,,,1.6893057940871767e+18,21.600176611328123,28.10147895812988,-42.71219940185547,-8.813279724121093,1.6893057940871767e+18,21.600176611328123,-240.18871154785157,50.17859954833985,-151.61427612304686,1.689305794082948e+18,21.59594799804687,-0.2281761417786279,-0.3989790976047516,0.8285465041796366,0.3195959031581878,2.965433200200399,-0.7920027772585551,-2.317868709564209
