seconds_elapsed_rounded,accelerometer_time,accelerometer_seconds_elapsed,accelerometer_z,accelerometer_y,accelerometer_x,accelerometeruncalibrated_time,accelerometeruncalibrated_seconds_elapsed,accelerometeruncalibrated_z,accelerometeruncalibrated_y,accelerometeruncalibrated_x,gravity_time,gravity_seconds_elapsed,gravity_z,gravity_y,gravity_x,gyroscope_time,gyroscope_seconds_elapsed,gyroscope_z,gyroscope_y,gyroscope_x,gyroscopeuncalibrated_time,gyroscopeuncalibrated_seconds_elapsed,gyroscopeuncalibrated_z,gyroscopeuncalibrated_y,gyroscopeuncalibrated_x,location_time,location_seconds_elapsed,location_bearingAccuracy,location_speedAccuracy,location_verticalAccuracy,location_horizontalAccuracy,location_speed,location_bearing,location_altitude,location_longitude,location_latitude,magnetometer_time,magnetometer_seconds_elapsed,magnetometer_z,magnetometer_y,magnetometer_x,magnetometeruncalibrated_time,magnetometeruncalibrated_seconds_elapsed,magnetometeruncalibrated_z,magnetometeruncalibrated_y,magnetometeruncalibrated_x,orientation_time,orientation_seconds_elapsed,orientation_qz,orientation_qy,orientation_qx,orientation_qw,orientation_roll,orientation_pitch,orientation_yaw
0.0,1.6893054938377516e+18,29.997751790364585,0.5112596948941549,-0.6105950673421224,-0.4442547957102458,1.6893054938377516e+18,29.997751790364585,-0.4372883439064026,-9.411569595336914,3.8626139163970943,1.6893054938377516e+18,29.997751790364585,-0.96501886844635,-8.790728569030762,4.244953155517578,1.6893054938464044e+18,30.00640445963542,0.1464549452066421,0.7527895967165629,-0.9969320694605508,1.6893054938464044e+18,30.00640445963542,0.1456404576698938,0.7571165760358175,-0.9947431484858196,1.689305493846406e+18,30.00640625,0.0,0.0,1.0111262798309326,7.135000228881836,0.0062763774767518,0.0,41.0,-122.753109,49.1903812,1.6893054938395323e+18,29.999532666015625,-11.631479835510254,38.83259887695313,-27.149879455566406,1.6893054938395323e+18,29.999532666015625,-279.9216674804687,131.72339782714843,-169.95087585449218,1.6893054938377516e+18,29.997751790364585,0.6706910729408264,-0.6819612582524618,0.2898042798042297,0.0322126690298318,-1.7939060131708782,1.1109052101771038,-1.7240477403004963
0.05,1.689305493889656e+18,30.04965625,0.0340425372123718,-0.8105840682983398,-0.0510853131612141,1.689305493889656e+18,30.04965625,-1.097906768321991,-9.60877799987793,4.2165524164835615,1.689305493889656e+18,30.04965625,-1.1483517090479534,-8.787960052490234,4.205721219380696,1.6893054938896507e+18,30.049650634765623,0.2560289055109024,0.9985356032848358,-0.6297257244586945,1.6893054938896507e+18,30.049650634765623,0.2551889568567275,1.002888023853302,-0.6275877058506012,,,,,,,,,,,,1.6893054938895352e+18,30.049535302734377,-10.540800094604492,39.464559173583986,-26.110439682006835,1.6893054938895352e+18,30.049535302734377,-278.83098754882815,132.35535888671876,-168.91143798828125,1.689305493889656e+18,30.04965625,0.6625386277834574,-0.6967142820358276,0.2701714932918548,0.0507413794596989,-1.836991786956787,1.1102880239486694,-1.6247108379999795
0.1,1.689305493941557e+18,30.101556966145832,0.3788667718569438,-0.129648208618164,0.2860986391703288,1.689305493941557e+18,30.101556966145832,-0.9778668681780496,-8.926424980163574,4.48833688100179,1.689305493941557e+18,30.101556966145832,-1.3731108903884888,-8.78655751546224,4.140316327412923,1.6893054939329083e+18,30.09290869140625,0.1306742615997791,0.0764599665999412,-0.6457863648732504,1.6893054939329083e+18,30.09290869140625,0.1298088630040486,0.0808378383517265,-0.6436483462651571,,,,,,,,,,,,1.6893054939395348e+18,30.099534863281253,-9.999119567871094,40.130679321289065,-25.75907974243164,1.6893054939395348e+18,30.099534863281253,-278.28931884765626,133.02147827148437,-168.5600799560547,1.689305493941557e+18,30.101556966145832,0.6532665491104126,-0.7085640629132589,0.2604496280352274,0.0577079194287458,-1.8906132380167644,1.109979788462321,-1.5465574264526367
0.15,1.6893054939934564e+18,30.153456461588544,0.4394583304723103,0.4791882832845052,0.3834490776062011,1.6893054939934564e+18,30.153456461588544,-1.0143574078877766,-8.317052841186523,4.553940296173096,1.6893054939934564e+18,30.153456461588544,-1.470179518063863,-8.786029815673828,4.108560562133789,1.689305493984811e+18,30.144810872395833,0.1090394469598929,0.1469130884700765,-0.1598430747787157,1.689305493984811e+18,30.144810872395833,0.1081740533312161,0.151290956729402,-0.1577050387859344,,,,,,,,,,,,1.6893054939895416e+18,30.149541796875003,-9.55992012023926,40.18191986083984,-25.439439392089845,1.6893054939895416e+18,30.149541796875003,-277.85010986328126,133.07272033691407,-168.24043884277344,1.6893054939934564e+18,30.153456461588544,0.6492352883021036,-0.7135696013768514,0.2562678456306457,0.0603133104741572,-1.9140933752059937,1.109860936800639,-1.5131171544392903
0.2,1.6893054940453645e+18,30.205364664713542,0.7843366463979086,0.2321106592814127,-0.1355735460917154,1.6893054940453645e+18,30.205364664713542,-0.6827520529429117,-8.555537541707357,4.04845650990804,1.6893054940453645e+18,30.205364664713542,-1.4834566116333008,-8.77744166056315,4.122088591257731,1.6893054940367127e+18,30.196712646484375,-0.0750855207443236,-0.0751873292028903,0.0271835029125213,1.6893054940367127e+18,30.196712646484375,-0.0759509118894735,-0.0708603685100873,0.0293215320756038,,,,,,,,,,,,1.6893054940395328e+18,30.199532666015624,-9.306159782409669,40.11847839355469,-25.44431915283203,1.6893054940395328e+18,30.199532666015624,-277.5963562011719,133.00927734375,-168.2453155517578,1.6893054940453645e+18,30.205364664713542,0.6487411657969157,-0.7134584784507751,0.2579016188780467,0.0599797852337359,-1.9159327348073325,1.1078960100809734,-1.514232595761617
0.25,1.6893054940972628e+18,30.257262858072917,0.6719228029251099,-0.2758086522420247,-0.731924295425415,1.6893054940972628e+18,30.257262858072917,-0.718644380569458,-9.059226671854654,3.4877383708953857,1.6893054940972628e+18,30.257262858072917,-1.4069366057713826,-8.773212114969889,4.157710234324138,1.689305494088617e+18,30.24861686197917,-0.0926988000671068,-0.0481056384742259,0.193033422032992,1.689305494088617e+18,30.24861686197917,-0.0935641924540201,-0.0436768646662434,0.195171445608139,,,,,,,,,,,,1.689305494089537e+18,30.24953706054687,-9.508679962158205,40.081878662109375,-25.512639236450195,1.689305494089537e+18,30.24953706054687,-277.7988708496094,132.9726806640625,-168.31363525390626,1.6893054940972628e+18,30.257262858072917,0.6517593065897623,-0.7099253336588541,0.260085662206014,0.0597310774028301,-1.896788199742635,1.106927474339803,-1.5369827349980671
0.3,1.689305494140522e+18,30.300521850585938,0.4570513665676117,-0.5127511024475098,-0.9473546743392944,1.689305494140522e+18,30.300521850585938,-0.8045866191387177,-9.311968326568604,3.2805598974227905,1.689305494140522e+18,30.300521850585938,-1.2780116200447085,-8.789013385772705,4.165952444076538,1.6893054941405192e+18,30.30051896158854,0.0100792781449854,-0.0656680154303709,0.3897320330142975,1.6893054941405192e+18,30.30051896158854,0.0092138840506474,-0.061341052254041,0.3918700516223907,,,,,,,,,,,,1.689305494139534e+18,30.299534130859374,-9.711199760437012,39.823239135742185,-25.734679412841796,1.689305494139534e+18,30.299534130859374,-278.0013916015625,132.7140380859375,-168.53567504882812,1.689305494140522e+18,30.300521850585938,0.6569518446922302,-0.7048716247081757,0.2612014263868332,0.0577989649027585,-1.8681442141532896,1.1105377078056335,-1.5699771642684937
0.35,1.6893054941837704e+18,30.343770426432297,0.5134775241216024,-0.4881728490193684,-0.6225594679514567,1.6893054941837704e+18,30.343770426432297,-0.6261219183603922,-9.335796991984049,3.5377883116404214,1.6893054941837704e+18,30.343770426432297,-1.155990719795227,-8.837429682413736,4.098379453023274,1.6893054941924186e+18,30.352418457031252,0.2171116818984349,-0.1742493112881978,0.3923282027244568,1.6893054941924186e+18,30.352418457031252,0.2162972042957941,-0.1698714420199394,0.3944662312666574,,,,,,,,,,,,1.6893054941895383e+18,30.34953828125,-10.587159729003904,39.85739822387696,-25.27107925415039,1.6893054941895383e+18,30.34953828125,-278.8773559570312,132.74819641113282,-168.07207946777345,1.6893054941837704e+18,30.343770426432297,0.6622632145881653,-0.7001074949900309,0.2621093491713206,0.0504291169345378,-1.8453505833943684,1.1217914422353108,-1.6045284271240234
0.4,1.6893054942356708e+18,30.395670817057297,0.2069593469301859,-0.5082600911458334,-0.0259208679199218,1.6893054942356708e+18,30.395670817057297,-0.7816553910573324,-9.432706197102863,4.0057845910390215,1.6893054942356708e+18,30.395670817057297,-1.0050192475318909,-8.91426944732666,3.969733476638794,1.68930549424432e+18,30.404319986979164,0.2760601838429768,-0.1936442802349726,0.3140865465005238,1.68930549424432e+18,30.404319986979164,0.2751438816388448,-0.1892664196590582,0.3162245750427245,,,,,,,,,,,,1.6893054942395305e+18,30.399530615234376,-11.065399742126464,40.006239318847655,-25.00755920410156,1.6893054942395305e+18,30.399530615234376,-279.3555969238281,132.89703674316405,-167.80855712890624,1.6893054942356708e+18,30.395670817057297,0.6686859329541525,-0.6954431335131327,0.2598426540692647,0.0411006088058153,-1.8183891773223877,1.1401877005894978,-1.6412010590235393
0.45,1.6893054942875697e+18,30.447569580078124,0.1496723294258117,-0.6726725896199545,0.1896421909332275,1.6893054942875697e+18,30.447569580078124,-0.7962117195129395,-9.664411226908364,4.077768643697103,1.6893054942875697e+18,30.447569580078124,-0.9623174468676248,-8.98157787322998,3.826145648956299,1.6893054942962245e+18,30.456224365234377,0.1980221519867578,-0.9836966792742412,0.4544837276140849,1.6893054942962245e+18,30.456224365234377,0.1971567571163176,-0.9793697198232016,0.456621785958608,,,,,,,,,,,,1.6893054942895365e+18,30.449536279296876,-11.233759689331055,40.21119842529297,-25.03684005737305,1.6893054942895365e+18,30.449536279296876,-279.5239562988281,133.10199584960938,-167.83783569335938,1.6893054942875697e+18,30.447569580078124,0.671067476272583,-0.6921142737070719,0.2644789417584737,0.0253258099158604,-1.816914478937785,1.1569184462229412,-1.6720123688379924
0.5,1.6893054943394775e+18,30.4994775390625,1.3124955495198567,-0.2744226455688476,-0.0490420659383137,1.6893054943394775e+18,30.4994775390625,0.5449653345470625,-9.325627644856771,3.736591895421346,1.6893054943394775e+18,30.4994775390625,-0.7840300798416138,-9.04105790456136,3.7236388524373374,1.689305494339476e+18,30.499476074218748,-0.0021380279213189,-1.1039098799228668,1.2353985905647278,1.689305494339476e+18,30.499476074218748,-0.0029779672622681,-1.0995574295520782,1.237536609172821,,,,,,,,,,,,1.6893054943395348e+18,30.499534814453124,-11.438719940185546,40.04527893066406,-25.17347946166992,1.6893054943395348e+18,30.499534814453124,-279.7289123535156,132.93607482910156,-167.97447509765624,1.6893054943394775e+18,30.4994775390625,-0.2294644713401794,0.2210525075594584,-0.0981693665186563,0.0070033248048275,-1.7777609427769978,1.172244906425476,-1.7766820589701335
0.55,1.6893054943913825e+18,30.551382242838542,1.310977339744568,-0.6706676483154297,0.3978720506032308,1.6893054943913825e+18,30.551382242838542,1.1938190857569375,-9.738987604777018,4.218745867411296,1.6893054943913825e+18,30.551382242838542,-0.1337057575583458,-9.058184623718262,3.758862336476644,1.689305494382729e+18,30.542728759765623,-0.1386664112408955,-0.2674571586151917,1.621643582979838,1.689305494382729e+18,30.542728759765623,-0.1395827109615007,-0.2630793017645677,1.623781641324361,,,,,,,,,,,,1.689305494389537e+18,30.54953701171875,-13.790879821777343,38.9497184753418,-25.715159225463868,1.689305494389537e+18,30.54953701171875,-282.0810791015625,131.84051818847655,-168.51615295410156,1.6893054943913825e+18,30.551382242838542,-0.7019598086675009,0.649151881535848,-0.292065809170405,0.0207274810721476,-1.6062089999516804,1.1767346461613972,-1.990384856859843
0.6,1.689305494443276e+18,30.603275960286464,2.0239870150883994,-0.9605846405029298,0.3027569452921549,1.689305494443276e+18,30.603275960286464,2.533600409825643,-10.014959971110024,4.127818425496419,1.689305494443276e+18,30.603275960286464,0.4930574099222819,-9.044253985087076,3.76304300626119,1.6893054944346268e+18,30.59462703450521,0.0289651956409215,0.4089742762347061,1.072781225045522,1.6893054944346268e+18,30.59462703450521,0.0280998021674652,0.4133012518286705,1.0749192436536152,,,,,,,,,,,,1.6893054944395328e+18,30.59953276367187,-16.621279907226562,38.17135925292969,-25.568759536743165,1.6893054944395328e+18,30.59953276367187,-284.911474609375,131.062158203125,-168.36975708007813,1.689305494443276e+18,30.603275960286464,-0.724197785059611,0.6263124744097391,-0.2872394025325775,0.0258319272349277,-1.440353592236837,1.1730430920918782,-2.15682586034139
0.65,1.689305494495184e+18,30.655183919270836,-1.2404276927312214,-0.0716149012247721,0.6555961767832438,1.689305494495184e+18,30.655183919270836,0.1643071671326955,-9.112865765889486,4.278566360473633,1.689305494495184e+18,30.655183919270836,1.3882438739140828,-9.031150817871094,3.5609615643819175,1.689305494486532e+18,30.646531982421873,0.2633338222901026,2.3962716261545816,1.115338146686554,1.689305494486532e+18,30.646531982421873,0.2624684373537699,2.4005986054738364,1.117476165294647,,,,,,,,,,,,1.6893054944895345e+18,30.6495345703125,-20.657039642333984,37.57355880737305,-23.919319534301756,1.6893054944895345e+18,30.6495345703125,-288.9472351074219,130.4643585205078,-166.7203155517578,1.689305494495184e+18,30.655183919270836,-0.2453433076540629,0.2057954668998718,-0.0933129241069157,0.0079931186434502,-1.1990626255671184,1.1695981820424397,-2.309731642405192
0.7,1.6893054945470812e+18,30.70708121744792,-0.8217665751775106,-0.1744972864786783,0.5455010732014974,1.6893054945470812e+18,30.70708121744792,1.1720843066771824,-9.193224589029947,3.947160482406616,1.6893054945470812e+18,30.70708121744792,1.977407972017924,-9.008645375569662,3.339651107788086,1.6893054945384333e+18,30.69843310546875,0.2179261744022369,0.8649851779143015,0.7038185795148214,1.6893054945384333e+18,30.69843310546875,0.2170098771651585,0.8693630496660868,0.7059565981229147,,,,,,,,,,,,1.6893054945395323e+18,30.699532568359377,-24.624479675292967,36.84399871826171,-21.32071914672851,1.6893054945395323e+18,30.699532568359377,-292.9146728515625,129.73479614257812,-164.12171630859376,1.6893054945470812e+18,30.70708121744792,0.7751059532165527,-0.5938332279523214,0.2156397451957067,0.0051996802600721,-1.0362804730733235,1.1637578805287678,-2.410372495651245
0.75,1.6893054945903365e+18,30.75033654785156,-1.1980088353157043,0.2644810676574707,0.3361761569976806,1.6893054945903365e+18,30.75033654785156,1.2819547057151794,-8.670990943908691,3.6373895406723022,1.6893054945903365e+18,30.75033654785156,2.463534474372864,-8.925397396087646,3.239200234413147,1.689305494590336e+18,30.750336100260416,0.0474438661088545,0.7671958406766256,1.0946704943974812,1.689305494590336e+18,30.750336100260416,0.0465275694926579,0.771471897761027,1.0968085527420044,,,,,,,,,,,,1.6893054945895375e+18,30.749537451171875,-27.17672004699707,35.86067886352539,-20.617999649047853,1.6893054945895375e+18,30.749537451171875,-295.4669128417969,128.75147705078126,-163.41899719238282,1.6893054945903365e+18,30.75033654785156,0.7909103035926819,-0.5771709382534027,0.203076422214508,0.0077887291554361,-0.9206774532794952,1.1428316235542295,-2.5044877529144287
0.8,1.689305494633585e+18,30.793584960937505,-1.1216870546340942,0.2381102244059244,0.0688948631286621,1.689305494633585e+18,30.793584960937505,1.8167505661646528,-8.584251403808594,3.2967113653818765,1.689305494633585e+18,30.793584960937505,2.9220165411631265,-8.812292416890463,3.1657960414886475,1.6893054946422362e+18,30.802235921223957,0.0603738476832707,0.2187406619389851,0.9990701079368592,1.6893054946422362e+18,30.802235921223957,0.0594575504461923,0.2230676288406053,1.0012590289115906,,,,,,,,,,,,1.6893054946395428e+18,30.799542724609378,-29.25803909301758,34.5650390625,-19.45655975341797,1.6893054946395428e+18,30.799542724609378,-297.54823608398436,127.45583801269532,-162.25755310058594,1.689305494633585e+18,30.793584960937505,0.8055331110954285,-0.5597754915555319,0.1939956148465474,0.009087873622775,-0.8256930510203043,1.115874965985616,-2.585127035776774
0.85,1.6893054946854904e+18,30.845490478515625,-0.5856246948242188,0.0228223800659179,-0.2086153030395507,1.6893054946854904e+18,30.845490478515625,2.8153552214304605,-8.659425417582193,2.9447670777638755,1.6893054946854904e+18,30.845490478515625,3.3845542271931968,-8.672188758850098,3.0913549264272056,1.689305494694138e+18,30.85413777669271,0.1362229473888873,0.5379177431265513,0.7888306578000387,1.689305494694138e+18,30.85413777669271,0.1353575587272643,0.5422447125116984,0.7910195787747701,,,,,,,,,,,,1.6893054946895368e+18,30.849536962890625,-31.332039260864256,33.32307891845703,-19.06859931945801,1.6893054946895368e+18,30.849536962890625,-299.6222351074219,126.21387634277345,-161.86959838867188,1.6893054946854904e+18,30.845490478515625,0.8200648625691732,-0.5404367645581564,0.1879752129316329,0.0063335308805107,-0.7403325438499451,1.0843418439229329,-2.666707913080851
0.9,1.6893054947373898e+18,30.89738989257812,-0.6273307800292969,-0.4330692291259765,0.3137304782867431,1.6893054947373898e+18,30.89738989257812,3.136790990829468,-9.035697301228842,3.265405257542928,1.6893054947373898e+18,30.89738989257812,3.7477110226949057,-8.592582702636719,2.8896406491597495,1.6893054947460424e+18,30.906042480468752,0.2156354288260141,0.4200207591056824,0.507069061199824,1.6893054947460424e+18,30.906042480468752,0.2148209462563196,0.4243986209233601,0.509257992108663,,,,,,,,,,,,1.6893054947395343e+18,30.8995341796875,-33.04247970581055,32.451999282836915,-18.05111961364746,1.6893054947395343e+18,30.8995341796875,-301.3326721191406,125.3427978515625,-160.85211791992188,1.6893054947373898e+18,30.89738989257812,0.8312729199727377,-0.5283451676368713,0.1725108126799265,0.0073501764175792,-0.6567893028259277,1.0672020117441814,-2.7265686988830566
0.95,1.6893054947892943e+18,30.94929443359375,-1.606959104537964,0.3666332562764485,-0.1816990375518798,1.6893054947892943e+18,30.94929443359375,2.42652161916097,-8.172486146291098,2.5906293392181396,1.6893054947892943e+18,30.94929443359375,4.017082293828328,-8.529084205627441,2.710289160410563,1.6893054947892887e+18,30.94928869628906,0.2614503279328346,0.5513822287321091,0.4286746829748153,1.6893054947892887e+18,30.94928869628906,0.2605340257287025,0.5556583106517792,0.4308890551328659,,,,,,,,,,,,1.6893054947895347e+18,30.94953466796875,-34.50891952514648,31.910319137573243,-16.806719970703124,1.6893054947895347e+18,30.94953466796875,-302.7991088867187,124.80111541748047,-159.60771484375,1.6893054947892943e+18,30.94929443359375,0.839503288269043,-0.5189598997433981,0.1607874284187952,0.0060985656455158,-0.5934473474820455,1.053927739461263,-2.7749083042144775
1.0,1.6893054948411927e+18,31.00119287109375,-1.12359086672465,1.500885009765625,1.402763843536377,1.6893054948411927e+18,31.00119287109375,3.016751209894816,-7.0281187693278,4.044667879740397,1.6893054948411927e+18,31.00119287109375,4.123950481414795,-8.51898161570231,2.579859415690104,1.689305494832545e+18,30.992545247395835,0.1717549444486697,0.0061595644801855,0.1550070544083913,1.689305494832545e+18,30.992545247395835,0.1709404566014806,0.0105374262978633,0.157145082950592,,,,,,,,,,,,1.689305494839537e+18,30.999536962890623,-35.54835968017578,31.622399520874023,-15.901479721069336,1.689305494839537e+18,30.999536962890623,-303.83855590820315,124.51319885253906,-158.70247497558594,1.6893054948411927e+18,31.00119287109375,0.8427601257960001,-0.5158173441886902,0.1538506001234054,0.0035485380794852,-0.5588652292887369,1.051832636197408,-2.803096294403076
1.05,1.689305494893099e+18,31.05309887695313,-0.3854883511861165,-0.2473039627075195,0.0508534908294677,1.689305494893099e+18,31.05309887695313,3.7880376180013022,-8.757730801900228,2.7006991704305015,1.689305494893099e+18,31.05309887695313,4.157131671905518,-8.50040594736735,2.587791681289673,1.6893054948844452e+18,31.0444453125,0.0134390355087817,0.1264491031567256,0.0306450712184111,1.6893054948844452e+18,31.0444453125,0.012573642966648,0.1307251652081807,0.0328340058525403,1.6893054948844372e+18,31.044437255859375,0.0,0.0,1.02153480052948,6.447999954223633,0.0031468437518924,0.0,41.0,-122.753103,49.1903815,1.689305494889537e+18,31.049536962890624,-35.25311965942383,31.54187927246094,-15.842919731140135,1.689305494889537e+18,31.049536962890624,-303.543310546875,124.43267669677736,-158.64391479492187,1.689305494893099e+18,31.05309887695313,0.8437654773394266,-0.5139368971188863,0.1546432425578434,0.0027475839403147,-0.5566420555114746,1.0480285088221233,-2.80777907371521
1.1,1.6893054949450043e+18,31.10500439453125,-1.725988467534383,1.5610936482747395,0.8138940334320068,1.6893054949450043e+18,31.10500439453125,2.372284253438314,-6.999803860982259,3.4167513847351074,1.6893054949450043e+18,31.10500439453125,4.081887880961101,-8.550881385803223,2.540795087814331,1.689305494936353e+18,31.096353190104168,-0.0081957774236798,0.1381064516802628,-0.243124375740687,1.689305494936353e+18,31.096353190104168,-0.009010262787342,0.1424334154774744,-0.2409863322973251,,,,,,,,,,,,1.6893054949395272e+18,31.09952705078125,-35.211639404296875,31.86883888244629,-15.25731964111328,1.6893054949395272e+18,31.09952705078125,-303.5018371582031,124.75963897705078,-158.05831604003907,1.6893054949450043e+18,31.10500439453125,0.8414744337399801,-0.5189923842748007,0.1500864326953887,0.0061756147382159,-0.5566314856211344,1.0584219296773274,-2.795738697052002
1.15,1.6893054949968886e+18,31.15688859049479,-0.1324742635091146,0.4840717315673828,1.1502728462219238,1.6893054949968886e+18,31.15688859049479,3.8370904127756753,-8.115656852722168,3.824328899383545,1.6893054949968886e+18,31.15688859049479,3.953183730443319,-8.58970864613851,2.6119832197825112,1.689305494988249e+18,31.14824894205729,-0.1226311996579169,-0.0313068435837825,-0.3090978115797043,1.689305494988249e+18,31.14824894205729,-0.1235474944114684,-0.0269289761781692,-0.306908885637919,,,,,,,,,,,,1.6893054949895375e+18,31.149537499999997,-35.123799896240236,32.1738395690918,-15.78679962158203,1.6893054949895375e+18,31.149537499999997,-303.41399536132815,125.06463623046876,-158.58779602050782,1.6893054949968886e+18,31.15688859049479,0.8375297586123148,-0.5245202382405599,0.152687778075536,0.0100010192642608,-0.5837692618370056,1.066564718882243,-2.7665802637736
1.2,1.6893054950401567e+18,31.20015673828125,-0.7534645795822144,-0.0333366394042968,0.1841785907745361,1.6893054950401567e+18,31.20015673828125,3.0260233879089355,-8.708977222442627,2.8881369829177856,1.6893054950401567e+18,31.20015673828125,3.763122916221618,-8.66561508178711,2.6418745517730713,1.689305495040157e+18,31.200156901041662,-0.1882992138465245,0.3978259911139806,-0.6997461517651876,1.689305495040157e+18,31.200156901041662,-0.1891646037499109,0.4021529455979665,-0.6976081132888794,,,,,,,,,,,,1.6893054950395343e+18,31.199534228515624,-34.18683853149414,32.764319610595706,-15.689199829101565,1.6893054950395343e+18,31.199534228515624,-302.47703857421874,125.65511779785156,-158.49019775390624,1.6893054950401567e+18,31.20015673828125,0.8315995633602142,-0.5342538058757782,0.1506351754069327,0.017547495663166,-0.6119612753391266,1.0828365683555603,-2.723899602890014
1.25,1.6893054950834066e+18,31.243406738281248,-1.1434144973754885,0.1433862050374349,-0.0858835379282633,1.6893054950834066e+18,31.243406738281248,2.391028086344401,-8.627521832784018,2.640479803085327,1.6893054950834066e+18,31.243406738281248,3.5180958112080893,-8.760880470275879,2.6642701625823975,1.6893054950920507e+18,31.252050699869795,-0.2680171231428782,0.1870774816100796,-0.6825910011927286,1.6893054950920507e+18,31.252050699869795,-0.2688825229803721,0.1914044407506784,-0.6804529825846354,,,,,,,,,,,,1.689305495089533e+18,31.2495330078125,-33.396278381347656,33.789118957519534,-15.230479621887207,1.689305495089533e+18,31.2495330078125,-301.68646850585935,126.67991638183594,-158.03148193359374,1.6893054950834066e+18,31.243406738281248,0.82373974720637,-0.5471329092979431,0.1457414180040359,0.0287413063148657,-0.6481169660886129,1.1039905945460002,-2.6637612183888755
1.3,1.6893054951353083e+18,31.29530851236979,-1.2821593681971233,-0.5017665227254232,-0.349367618560791,1.6893054951353083e+18,31.29530851236979,1.956930120786031,-9.343772888183594,2.5120649337768555,1.6893054951353083e+18,31.29530851236979,3.2227497895558677,-8.831971486409506,2.799328327178955,1.6893054951439572e+18,31.30395719401042,-0.3504330317179362,-0.2397646059592564,-0.5957972208658854,1.6893054951439572e+18,31.30395719401042,-0.3512984216213226,-0.2353358318408329,-0.5935573975245158,,,,,,,,,,,,1.6893054951395366e+18,31.299536767578125,-32.03963928222656,34.528439331054685,-15.964919471740725,1.6893054951395366e+18,31.299536767578125,-300.329833984375,127.41923828125,-158.7659118652344,1.6893054951353083e+18,31.29530851236979,0.8142016530036926,-0.5597383181254069,0.1494494179884592,0.0375048431257406,-0.7150999704996744,1.1203404267628987,-2.589087645212809
1.35,1.6893054951872133e+18,31.347213297526043,-1.0358781814575195,0.4411102930704753,0.4856401284535726,1.6893054951872133e+18,31.347213297526043,1.8418752352396648,-8.439485549926758,3.604388475418091,1.6893054951872133e+18,31.347213297526043,2.861398935317993,-8.870550473531088,3.0566317240397134,1.6893054951958597e+18,31.35585978190104,-0.3916664322217305,-1.0486519932746887,-0.4412483374277751,1.6893054951958597e+18,31.35585978190104,-0.3925318221251169,-1.044325053691864,-0.4391103088855743,,,,,,,,,,,,1.6893054951895327e+18,31.34953276367187,-30.9123592376709,35.14575881958008,-17.350839614868164,1.6893054951895327e+18,31.34953276367187,-299.2025573730469,128.03655700683595,-160.1518341064453,1.6893054951872133e+18,31.347213297526043,0.8027443885803223,-0.5712584257125854,0.1663543532292047,0.0389986646672089,-0.8181045452753702,1.1294487714767456,-2.508338212966919
1.4,1.6893054952391084e+18,31.39910823567708,0.1802659034729004,-0.409585952758789,0.7960454622904459,1.6893054952391084e+18,31.39910823567708,2.6634109814961753,-9.270792007446287,4.2909291585286455,1.6893054952391084e+18,31.39910823567708,2.466751257578532,-8.851147333780924,3.4327518939971924,1.6893054952391137e+18,31.39911389160156,-0.4910592883825301,-1.193936109542847,-0.4696026593446731,1.6893054952391137e+18,31.39911389160156,-0.4919755905866622,-1.1895837187767029,-0.4674646407365799,,,,,,,,,,,,1.6893054952395323e+18,31.399532568359376,-28.852999877929687,35.423919677734375,-19.65907974243164,1.6893054952395323e+18,31.399532568359376,-297.1431945800781,128.3147186279297,-162.46007690429687,1.6893054952391084e+18,31.39910823567708,0.7904007037480673,-0.5788886745770773,0.1974772761265436,0.0326742318769295,-0.9472566843032836,1.1248533328374226,-2.4338995615641275
1.45,1.6893054952910203e+18,31.45102083333333,-0.1584465901056925,-0.0682643254597982,0.0703600247701008,1.6893054952910203e+18,31.45102083333333,1.812164346377055,-8.937192598978678,3.861616849899292,1.6893054952910203e+18,31.45102083333333,1.9541994730631511,-8.858853658040365,3.729110797246298,1.6893054952823642e+18,31.44236417643229,-0.3892229696114858,-0.740368664264679,-0.8899288773536682,1.6893054952823642e+18,31.44236417643229,-0.3901392718156178,-0.7359399199485779,-0.8877907991409302,,,,,,,,,,,,1.6893054952895352e+18,31.449535205078128,-26.083599853515626,35.55567932128906,-21.68427963256836,1.6893054952895352e+18,31.449535205078128,-294.37379150390626,128.44647827148438,-164.4852783203125,1.6893054952910203e+18,31.45102083333333,0.7736855347951254,-0.5929505427678426,0.220595305164655,0.0327691261967022,-1.08794367313385,1.126696785291036,-2.326809883117676
1.5,1.6893054953429169e+18,31.502916992187497,0.6966461340586344,-0.7854185104370117,-0.3350678284962971,1.6893054953429169e+18,31.502916992187497,2.0618154605229697,-9.678568840026855,3.662215073903402,1.6893054953429169e+18,31.502916992187497,1.3487525780995686,-8.883064905802408,3.935124079386393,1.6893054953342566e+18,31.494256510416665,-0.3189225594202677,-0.5791002412637075,-1.043103297551473,1.6893054953342566e+18,31.494256510416665,-0.3198388616243998,-0.5747732917467753,-1.0409652789433796,,,,,,,,,,,,1.689305495339537e+18,31.49953681640625,-23.60943946838379,36.438958740234376,-23.250759887695313,1.689305495339537e+18,31.49953681640625,-291.8996337890625,129.3297576904297,-166.0517547607422,1.6893054953429169e+18,31.502916992187497,0.7533633907636007,-0.6121374368667603,0.2375331421693165,0.0353479323287804,-1.2402726411819458,1.132497231165568,-2.1953174273173013
1.55,1.689305495394818e+18,31.554818196614587,-0.4732441306114197,-1.170014063517253,-0.3716596762339274,1.689305495394818e+18,31.554818196614587,0.3986043855547905,-10.070593198140465,3.7455650170644126,1.689305495394818e+18,31.554818196614587,0.8554386099179586,-8.890488306681315,4.055053234100342,1.6893054953861686e+18,31.546168457031246,-0.2293798973162968,-0.1635082637270291,-0.962621808052063,1.6893054953861686e+18,31.546168457031246,-0.230245292186737,-0.1591813042759894,-0.9604837894439696,1.6893054954034693e+18,31.56346923828125,0.0,0.0,0.9758765697479248,5.684999942779541,0.0111919036135077,0.0,41.0,-122.7531007,49.1903831,1.6893054953895334e+18,31.549533447265627,-21.462239456176757,36.91963882446289,-24.129159927368164,1.6893054953895334e+18,31.549533447265627,-289.7524353027344,129.81043701171876,-166.9301544189453,1.689305495394818e+18,31.554818196614587,0.736121396223704,-0.6296405792236328,0.244611586133639,0.0422913134098052,-1.3624831438064575,1.1343027353286743,-2.0732456048329673
1.6,1.6893054954467213e+18,31.60672119140625,0.2095394531885782,-0.5117597579956055,-0.3723585605621338,1.6893054954467213e+18,31.60672119140625,0.4285146544377009,-9.396614710489908,3.8600218296051025,1.6893054954467213e+18,31.60672119140625,0.2025544742743174,-8.874757766723633,4.170199712117513,1.6893054954380703e+18,31.598070556640625,-0.2292780876159667,-1.0305805802345276,-1.0763954321543376,1.6893054954380703e+18,31.598070556640625,-0.2301434824864069,-1.0262536406517029,-1.0742574135462444,,,,,,,,,,,,1.6893054954395356e+18,31.599535498046873,-18.914879608154298,37.74924011230469,-24.97827911376953,1.6893054954395356e+18,31.599535498046873,-287.2050720214844,130.6400390625,-167.7792755126953,1.6893054954467213e+18,31.60672119140625,0.7132500807444254,-0.6489912867546082,0.2613760928312937,0.0403754413127898,-1.5215903123219807,1.1305524110794067,-1.941670338312785
1.65,1.689305495489973e+18,31.649973022460937,1.077269434928894,-0.6635575294494629,-0.4832875728607178,1.689305495489973e+18,31.649973022460937,0.757029265165329,-9.515956401824951,3.8132619857788086,1.689305495489973e+18,31.649973022460937,-0.3366848826408386,-8.842297554016113,4.234359264373779,1.689305495489969e+18,31.649968994140625,-0.1182024261603752,-1.1320350964864094,-0.6551020741462708,1.689305495489969e+18,31.649968994140625,-0.119118724639217,-1.1277081569035847,-0.6529640356699625,,,,,,,,,,,,1.689305495489532e+18,31.64953193359375,-15.601359939575197,38.14207992553711,-26.09579963684082,1.689305495489532e+18,31.64953193359375,-283.891552734375,131.03287658691406,-168.89679870605468,1.689305495489973e+18,31.649973022460937,0.6942674517631531,-0.6613716185092926,0.2822152525186538,0.0301179718226193,-1.6496886610984802,1.1228616833686829,-1.8596288561820984
1.7,1.689305495533223e+18,31.69322265625,1.459182580312093,-0.5542783737182617,-0.8223052819569906,1.689305495533223e+18,31.69322265625,0.7932207187016805,-9.40100129445394,3.4438699881235757,1.689305495533223e+18,31.69322265625,-0.6824173529942831,-8.83662223815918,4.203976472218831,1.6893054955418714e+18,31.70187109375,0.1308269761502742,-0.2853249708811442,-0.7158831556638082,1.6893054955418714e+18,31.70187109375,0.1299615825215975,-0.2809471189975738,-0.713745137055715,,,,,,,,,,,,1.6893054955395366e+18,31.699536816406248,-12.792919921875,38.45439910888672,-26.876599502563476,1.6893054955395366e+18,31.699536816406248,-281.08311767578124,131.34519958496094,-169.67759704589844,1.689305495533223e+18,31.69322265625,0.6817371845245361,-0.6704243222872416,0.2919182578722635,0.0228012707084416,-1.7313441038131714,1.1215389569600422,-1.803168574968974
1.75,1.689305495585127e+18,31.745126790364584,1.1678767204284668,-0.4923203786214192,-0.727415402730306,1.689305495585127e+18,31.745126790364584,0.1800598974029223,-9.356335322062174,3.4372897148132324,1.689305495585127e+18,31.745126790364584,-1.0042519172032671,-8.853923161824545,4.102505048116048,1.689305495593777e+18,31.753776692708332,0.3436117072900136,0.846659262975057,-0.9027570088704427,1.689305495593777e+18,31.753776692708332,0.3427463074525197,0.8510880072911581,-0.9006189902623495,,,,,,,,,,,,1.6893054955895316e+18,31.749531640625,-11.06783962249756,39.4377197265625,-26.425199508666992,1.6893054955895316e+18,31.749531640625,-279.3580383300781,132.328515625,-169.2261962890625,1.689305495585127e+18,31.745126790364584,0.6693739493687948,-0.6861825784047445,0.2832045157750447,0.0284363416333992,-1.8105580806732176,1.1256403128306072,-1.7025912205378215
1.8,1.6893054956370255e+18,31.797025634765628,0.5494275093078613,-0.4925435384114583,-0.1337211926778157,1.6893054956370255e+18,31.797025634765628,-0.6558328072230021,-9.386046091715496,3.9060835043589273,1.6893054956370255e+18,31.797025634765628,-1.2216529846191406,-8.883426984151205,3.977603832880656,1.6893054956456753e+18,31.805675292968747,0.3915137151877085,0.7844018936157227,-0.9947940508524576,1.6893054956456753e+18,31.805675292968747,0.3906483153502145,0.7887797554334005,-0.9926560123761496,,,,,,,,,,,,1.6893054956395323e+18,31.799532519531247,-10.677439880371091,40.294159698486325,-25.180799102783205,1.6893054956395323e+18,31.799532519531247,-278.96763305664064,133.1849578857422,-167.98179626464844,1.6893054956370255e+18,31.797025634765628,0.6600723067919413,-0.7038172284762064,0.258389542500178,0.0456754863262175,-1.868484298388163,1.1326944430669148,-1.5825410683949788
1.85,1.68930549568893e+18,31.84893009440104,0.6973617076873779,-0.200722058614095,0.3881869316101074,1.68930549568893e+18,31.84893009440104,-0.8201399644215902,-9.100901285807293,4.303092797597249,1.68930549568893e+18,31.84893009440104,-1.5338662068049114,-8.890117645263672,3.8527039686838784,1.6893054956975808e+18,31.857580810546875,0.2602794965108235,0.2825760841369629,-0.6513859728972117,1.6893054956975808e+18,31.857580810546875,0.2593631943066914,0.2869539459546407,-0.6492479344209036,,,,,,,,,,,,1.6893054956895406e+18,31.849540576171876,-9.293959808349609,41.01639862060547,-24.199919509887696,1.6893054956895406e+18,31.849540576171876,-277.5841552734375,133.90719604492188,-167.00091247558595,1.68930549568893e+18,31.84893009440104,0.6472083330154419,-0.7206554810206095,0.2423674166202545,0.0548111821214357,-1.949351191520691,1.1343200206756592,-1.4647744099299114
1.9,1.6893054957408335e+18,31.90083349609375,0.9385457634925842,0.0239528020222981,0.5078856945037842,1.6893054957408335e+18,31.90083349609375,-0.6945167779922485,-8.878369013468424,4.370490550994873,1.6893054957408335e+18,31.90083349609375,-1.6494110822677612,-8.892268816630045,3.800400177637736,1.6893054957408302e+18,31.900830200195312,0.1047633923590183,0.3651446998119354,-0.1966222524642944,1.6893054957408302e+18,31.900830200195312,0.1038470938801765,0.3694207668304443,-0.1944078654050827,,,,,,,,,,,,1.6893054957395323e+18,31.899532568359376,-8.81083984375,41.460478973388675,-23.777799224853517,1.6893054957395323e+18,31.899532568359376,-277.1010314941406,134.35127868652344,-166.57879638671875,1.6893054957408335e+18,31.90083349609375,0.6421429514884949,-0.7277411222457886,0.2332130422194799,0.0603914198776085,-1.979972004890442,1.134844978650411,-1.4126107295354209
1.95,1.6893054957927342e+18,31.95273445638021,0.709808886051178,0.0954885482788085,-0.027201493581136,1.6893054957927342e+18,31.95273445638021,-0.8189435601234436,-8.812566439310709,3.865604956944784,1.6893054957927342e+18,31.95273445638021,-1.5450796683629353,-8.898004213968912,3.830596685409546,1.6893054957840847e+18,31.94408487955729,0.0249945695201555,0.5760968327522278,0.0145080491590003,1.6893054957840847e+18,31.94408487955729,0.0241291771332422,0.5804238021373749,0.0166460778564214,,,,,,,,,,,,1.6893054957895368e+18,31.949536767578127,-9.418399810791016,41.50195846557617,-23.20683937072754,1.6893054957895368e+18,31.949536767578127,-277.70859375,134.39275817871095,-166.0078338623047,1.6893054957927342e+18,31.95273445638021,0.6452590227127075,-0.727191706498464,0.2233268171548842,0.0703272596001624,-1.9539044698079424,1.1362307866414387,-1.4097301959991455
2.0,1.6893054958446346e+18,32.004634765625,0.614144484202067,0.236454963684082,-0.3041573365529377,1.6893054958446346e+18,32.004634765625,-0.7902296781539917,-8.676973342895508,3.623730500539144,1.6893054958446346e+18,32.004634765625,-1.4206902186075847,-8.9033784866333,3.865671634674072,1.689305495835984e+18,31.995983723958332,-0.0098756545533736,0.5245296160380045,0.0857247536381085,1.689305495835984e+18,31.995983723958332,-0.0107410472507278,0.5289075076580048,0.0879136932392914,,,,,,,,,,,,1.6893054958395338e+18,31.999533837890624,-9.950319862365722,41.443399810791014,-22.85303955078125,1.6893054958395338e+18,31.999533837890624,-278.2405151367187,134.33419799804688,-165.65403747558594,1.6893054958446346e+18,32.004634765625,0.6491315762201945,-0.7253029743830363,0.2151241252819696,0.0791306098302205,-1.9227036635080976,1.1375325123469036,-1.4161381324132285
2.05,1.6893054958965391e+18,32.056538899739586,-0.0276147127151489,-0.5029179255167643,-0.4072511196136474,1.6893054958965391e+18,32.056538899739586,-1.184447209040324,-9.4348996480306,3.5609188874562583,1.6893054958965391e+18,32.056538899739586,-1.1731386184692385,-8.921934127807617,3.9059455394744873,1.6893054958878884e+18,32.047888509114586,-0.0180714304588036,0.3584760917001403,0.3587815165519714,1.6893054958878884e+18,32.047888509114586,-0.0189877281081862,0.3628539531491696,0.3609195550282796,,,,,,,,,,,,1.6893054958895375e+18,32.04953754882813,-10.804319953918457,41.458038330078125,-22.582199478149413,1.6893054958895375e+18,32.04953754882813,-279.0945190429687,134.34883728027344,-165.38319702148436,1.6893054958965391e+18,32.056538899739586,0.6578301986058553,-0.7186885476112366,0.2078936696052551,0.0867139448722203,-1.8622719844182332,1.1420566240946453,-1.4549352725346882
2.1,1.6893054959397857e+18,32.099785888671875,0.135627806186676,-0.4114718437194824,-0.516618013381958,1.6893054959397857e+18,32.099785888671875,-0.9050851464271544,-9.363115310668944,3.439981698989868,1.6893054959397857e+18,32.099785888671875,-1.0570289492607117,-8.941597938537598,3.894369244575501,1.6893054959397916e+18,32.09979150390625,0.0025452718837187,-0.3063489149014154,0.4088724652926127,1.6893054959397916e+18,32.09979150390625,0.001628973831733,-0.3019710481166839,0.4110105037689209,,,,,,,,,,,,1.689305495939537e+18,32.09953681640625,-12.065799713134766,41.32627868652344,-22.689559173583984,1.689305495939537e+18,32.09953681640625,-280.3559936523437,134.21707458496093,-165.4905548095703,1.6893054959397857e+18,32.099785888671875,0.6628643274307251,-0.7137326896190643,0.2107173725962638,0.0823966562747955,-1.8355592489242551,1.1468979716300964,-1.4919276237487793
2.15,1.6893054959830428e+18,32.14304296875,0.038959244887034,-0.4424460728963216,-0.4925377368927002,1.6893054959830428e+18,32.14304296875,-0.9070791999499004,-9.420742034912111,3.4271202087402344,1.6893054959830428e+18,32.14304296875,-0.9623743494351704,-8.968251864115397,3.85742195447286,1.6893054959916892e+18,32.15168920898437,0.0500400451322396,-0.8396851817766825,0.4431827366352081,1.6893054959916892e+18,32.15168920898437,0.0491746515035628,-0.8353073199590048,0.4453207651774089,,,,,,,,,,,,1.689305495989536e+18,32.149535986328125,-12.014559745788574,41.094479370117185,-23.165359497070312,1.689305495989536e+18,32.149535986328125,-280.30475463867185,133.9852752685547,-165.9663513183594,1.6893054959830428e+18,32.14304296875,0.6677005290985107,-0.7080464164415995,0.2182864745457967,0.071810816725095,-1.8150072892506917,1.1535520156224568,-1.538723389307658
2.2,1.6893054960349402e+18,32.1949404296875,0.5917180776596069,-0.1869217554728189,-0.3207152684529622,1.6893054960349402e+18,32.1949404296875,-0.3435694575309753,-9.200802167256674,3.517848094304403,1.6893054960349402e+18,32.1949404296875,-0.9516642093658448,-9.003840764363607,3.776325861612955,1.689305496043593e+18,32.203592936197914,0.0073303834845622,-1.2447397708892822,0.6206390957037607,1.689305496043593e+18,32.203592936197914,0.0064140853161613,-1.2404636939366658,0.622777114311854,,,,,,,,,,,,1.6893054960395372e+18,32.199537255859376,-11.624159812927246,41.08715972900391,-23.270279693603516,1.6893054960395372e+18,32.199537255859376,-279.91436157226565,133.97795715332032,-166.07127685546874,1.6893054960349402e+18,32.1949404296875,0.6702122290929159,-0.7016642093658447,0.2368066658576329,0.0480894992748895,-1.81738277276357,1.1625899871190388,-1.5976120630900066
2.25,1.6893054960868462e+18,32.246846191406256,1.8869622151056928,-0.6960792541503906,-0.3614611625671386,1.6893054960868462e+18,32.246846191406256,1.101296603679657,-9.743374188741049,3.4309089183807373,1.6893054960868462e+18,32.246846191406256,-0.8020973006884257,-9.03725814819336,3.730124076207479,1.689305496095497e+18,32.25549690755208,-0.0650062436858812,-1.1252647042274475,1.1616620818773906,1.689305496095497e+18,32.25549690755208,-0.0659225409229596,-1.1209377249081929,1.163800100485484,,,,,,,,,,,,1.6893054960895365e+18,32.249536376953124,-11.580239868164062,40.56500015258789,-24.30483932495117,1.6893054960895365e+18,32.249536376953124,-279.87042846679685,133.45579833984374,-167.1058349609375,1.6893054960868462e+18,32.246846191406256,0.6772666374842325,-0.6877873341242472,0.2602141300837199,0.0201020305976271,-1.7822212775548298,1.1712483962376912,-1.7076021432876587
2.3,1.689305496138744e+18,32.298744222005205,2.1047251224517822,-1.0445518493652344,0.1842048962910969,1.689305496138744e+18,32.298744222005205,1.8949160973231,-10.122437159220375,3.976272900899251,1.689305496138744e+18,32.298744222005205,-0.2262760438024997,-9.067853927612305,3.72981588045756,1.6893054961473994e+18,32.307399088541665,-0.019038633753856,0.4510730778177579,1.4334971110026042,1.6893054961473994e+18,32.307399088541665,-0.0199549309909343,0.455349122484525,1.4356860319773357,,,,,,,,,,,,1.689305496139537e+18,32.299536816406246,-14.103199768066409,39.447479248046875,-24.95143928527832,1.689305496139537e+18,32.299536816406246,-282.3933898925781,132.33827209472656,-167.7524383544922,1.689305496138744e+18,32.298744222005205,0.6988822023073832,-0.6623399257659912,0.2696978449821471,0.002455162621724,-1.631055911382039,1.1793233553568525,-1.89825705687205
2.35,1.6893054961906514e+18,32.350651285807295,0.1422048807144164,-0.3878062566121419,0.5225369930267334,1.6893054961906514e+18,32.350651285807295,0.6474579274654388,-9.476176261901855,4.266402880350749,1.6893054961906514e+18,32.350651285807295,0.4887938201427459,-9.0783478418986,3.6816126505533857,1.6893054961906458e+18,32.35064562988281,0.2089159116148948,1.013578176498413,0.8730791509151459,1.6893054961906458e+18,32.35064562988281,0.2080759704113006,1.0179305672645569,0.8752171695232391,,,,,,,,,,,,1.689305496189534e+18,32.349533984375,-17.885199737548827,38.827719116210936,-24.05839958190918,1.689305496189534e+18,32.349533984375,-286.17539672851564,131.71851806640626,-166.85939331054686,1.6893054961906514e+18,32.350651285807295,0.7244806090990702,-0.6409631768862406,0.2533076951901117,0.006507369223982,-1.438438057899475,1.182129184405009,-2.060790538787842
2.4,1.6893054962425487e+18,32.402548828125,-0.0719814499219258,-0.2665732701619466,0.2194664478302002,1.6893054962425487e+18,32.402548828125,1.0336993932724,-9.365707397460938,3.803192218144735,1.6893054962425487e+18,32.402548828125,1.0892385840415957,-9.08912754058838,3.521470785140991,1.689305496233896e+18,32.393895996093754,0.2673044502735137,0.889521598815918,0.9779952764511108,1.689305496233896e+18,32.393895996093754,0.2664390504360198,0.8939503828684489,0.9801841974258424,,,,,,,,,,,,1.6893054962395323e+18,32.39953271484375,-20.854679107666016,38.27139892578125,-22.81399917602539,1.6893054962395323e+18,32.39953271484375,-289.14487915039064,131.16219787597657,-165.61499633789063,1.6893054962425487e+18,32.402548828125,0.7452449599901835,-0.6250755985577902,0.2316640665133794,0.0109967729076742,-1.270848512649536,1.185030500094096,-2.1900686422983804
2.45,1.6893054962944566e+18,32.45445662434896,-0.6955313682556152,-0.1879056294759114,0.2629377841949462,1.6893054962944566e+18,32.45445662434896,1.069591720898946,-9.22971534729004,3.727618932723999,1.6893054962944566e+18,32.45445662434896,1.748691995938619,-9.031811396280924,3.402421792348226,1.6893054962858048e+18,32.44580493164062,0.1490511149168014,0.4876231849193573,1.1891001065572102,1.6893054962858048e+18,32.44580493164062,0.1482366323471068,0.4920010467370351,1.1913399696350098,,,,,,,,,,,,1.6893054962895347e+18,32.449534716796876,-24.08523941040039,37.134359741210936,-21.65743942260742,1.6893054962895347e+18,32.449534716796876,-292.37543334960935,130.02515563964843,-164.45843505859375,1.6893054962944566e+18,32.45445662434896,0.7674772540728251,-0.6028545697530111,0.2176208893458047,0.0106215154131253,-1.0964048703511555,1.1698038180669148,-2.3450356324513755
2.5,1.689305496346357e+18,32.50635725911459,-0.653019388516744,-0.0911970138549804,-0.1436312198638915,1.689305496346357e+18,32.50635725911459,1.6897315979003906,-9.050652186075846,3.191028356552124,1.689305496346357e+18,32.50635725911459,2.3263203303019204,-8.949468294779459,3.272396961847941,1.6893054963377055e+18,32.49770564778646,0.1996511220932006,0.4012366533279419,1.073290228843689,1.6893054963377055e+18,32.49770564778646,0.1987857321898142,0.4056145250797272,1.0754791498184204,,,,,,,,,,,,1.689305496339536e+18,32.49953588867187,-26.954679107666017,36.1559196472168,-20.791239929199214,1.689305496339536e+18,32.49953588867187,-295.244873046875,129.04671630859374,-163.592236328125,1.689305496346357e+18,32.50635725911459,0.7864727775255839,-0.5817771355311075,0.2071023831764856,0.0067282205757994,-0.9530871709187826,1.1488070090611775,-2.4793283939361572
2.55,1.6893054963895977e+18,32.54959765625,-0.2671493291854858,-0.042367935180664,-0.2493332624435424,1.6893054963895977e+18,32.54959765625,2.48733913898468,-8.928219318389893,2.9673991203308105,1.6893054963895977e+18,32.54959765625,2.7380539178848267,-8.87587594985962,3.1544675827026367,1.6893054963895985e+18,32.54959847005208,0.2391537378231684,0.1875356336434681,0.9823730985323588,1.6893054963895985e+18,32.54959847005208,0.2382374505201974,0.1919135004281996,0.9845111767450968,,,,,,,,,,,,1.689305496389529e+18,32.54952924804687,-28.679759979248047,35.27751922607422,-20.273959350585937,1.689305496389529e+18,32.54952924804687,-296.96995239257814,128.16831970214844,-163.07495727539063,1.6893054963895977e+18,32.54959765625,0.7997402250766754,-0.5660214722156525,0.2000333741307258,0.0014155872959235,-0.8559561669826508,1.1308190822601318,-2.5744651556015015
2.6,1.6893054964328548e+18,32.592854817708336,-1.0507794221242268,0.0807498296101888,0.0176678498586018,1.6893054964328548e+18,32.592854817708336,2.084148526191711,-8.713064829508463,3.136192878087362,1.6893054964328548e+18,32.592854817708336,3.1184908548990884,-8.78384780883789,3.056257724761963,1.6893054964415017e+18,32.601501871744794,0.1813760747512181,0.0791579534610112,0.905505915482839,1.6893054964415017e+18,32.601501871744794,0.1804597775141397,0.0835867250959078,0.9076439340909322,1.6893054964415035e+18,32.60150341796875,0.0,0.0,0.98627507686615,5.565999984741211,0.00983393099159,0.0,41.0,-122.7531005,49.1903837,1.68930549643953e+18,32.59953002929687,-30.4341194152832,33.984320068359374,-19.700559997558592,1.68930549643953e+18,32.59953002929687,-298.72431640625,126.87511749267578,-162.50155639648438,1.6893054964328548e+18,32.592854817708336,-0.8117563724517822,0.5503984888394674,-0.1950643956661224,0.0046837605380763,-0.7755066355069479,1.109307010968526,-2.6572940349578857
2.65,1.6893054964847567e+18,32.64475675455729,-0.8202100594838458,-0.2676569620768228,0.3522866566975911,1.6893054964847567e+18,32.64475675455729,2.6977082093556723,-8.93958568572998,3.4037901560465493,1.6893054964847567e+18,32.64475675455729,3.501474380493164,-8.661970774332682,2.989228884379069,1.6893054964934054e+18,32.653405436197914,0.1773036370674768,-0.2290235633651414,0.8790859778722128,1.6893054964934054e+18,32.653405436197914,0.1764382421970367,-0.2245947917302449,0.8812240362167358,,,,,,,,,,,,1.6893054964895296e+18,32.649529541015625,-31.79807929992676,33.183999633789064,-19.202799987792968,1.6893054964895296e+18,32.649529541015625,-300.08827514648436,126.07479553222656,-162.00379943847656,1.6893054964847567e+18,32.64475675455729,-0.8235977490743002,0.5328941345214844,-0.1936226338148116,0.0133743894596894,-0.706736703713735,1.0821363925933838,-2.7377200921376548
2.7,1.689305496536656e+18,32.69665584309896,-0.638456662495931,-0.1693687438964843,0.1578215758005777,1.689305496536656e+18,32.69665584309896,3.19860569636027,-8.71924622853597,3.170091152191162,1.689305496536656e+18,32.69665584309896,3.820605754852295,-8.539930661519369,2.949987808863322,1.6893054965453066e+18,32.70530680338542,0.1972076644500096,-0.0622573470075925,0.6276131272315979,1.6893054965453066e+18,32.70530680338542,0.1962913622458776,-0.0578794814646244,0.6297511657079061,,,,,,,,,,,,1.6893054965395284e+18,32.69952836914062,-33.08883972167969,31.905439376831055,-19.36140022277832,1.6893054965395284e+18,32.69952836914062,-301.3790283203125,124.7962371826172,-162.1623992919922,1.689305496536656e+18,32.69665584309896,-0.8331739902496338,0.5167139371236166,-0.1954929778973261,0.024247836942474,-0.65751846631368,1.0562234322230022,-2.8068148295084634
2.75,1.68930549658856e+18,32.74855989583333,-1.3475271066029866,0.7133366266886393,0.7869226137797037,1.68930549658856e+18,32.74855989583333,2.707678238550822,-7.765507062276204,3.712663729985555,1.68930549658856e+18,32.74855989583333,4.038744211196899,-8.468907038370768,2.8634554545084634,1.689305496597207e+18,32.75720703125,0.1963422695795694,-0.0232637859880924,0.4134539564450581,1.689305496597207e+18,32.75720703125,0.1954768747091293,-0.0188350118696689,0.4156428972880046,,,,,,,,,,,,1.6893054965895306e+18,32.749530468749995,-33.94283905029297,31.29055976867676,-19.207679748535156,1.6893054965895306e+18,32.749530468749995,-302.2330322265625,124.18135528564451,-162.00867614746093,1.68930549658856e+18,32.74855989583333,-0.839597205320994,0.5069456696510315,-0.1926231632630029,0.0311281289905309,-0.616683840751648,1.04167107741038,-2.8542352517445884
2.8,1.689305496640462e+18,32.80046223958333,-0.8513177235921224,0.8717484474182129,0.4722561836242676,1.689305496640462e+18,32.80046223958333,3.3381869792938232,-7.560521920522054,3.342573881149292,1.689305496640462e+18,32.80046223958333,4.173044522603353,-8.422338803609213,2.808024247487386,1.6893054966404654e+18,32.80046545410156,0.0983493030071258,0.122783914208412,0.213268332183361,1.6893054966404654e+18,32.80046545410156,0.0974330082535743,0.1271363291889429,0.2154827117919921,,,,,,,,,,,,1.6893054966395315e+18,32.79953134765625,-34.589439392089844,30.87819976806641,-18.665999603271484,1.6893054966395315e+18,32.79953134765625,-302.87962646484374,123.76899871826171,-161.4669952392578,1.689305496640462e+18,32.80046223958333,-0.8434945146242777,0.5008678237597147,-0.1907521784305571,0.0354860487083593,-0.5922194123268127,1.0323294003804524,-2.882822116216024
2.85,1.6893054966923635e+18,32.85236376953125,-1.224640528361003,0.7045383453369141,0.1449526945749918,1.6893054966923635e+18,32.85236376953125,2.9824540615081787,-7.735995610555013,2.96390962600708,1.6893054966923635e+18,32.85236376953125,4.190642197926839,-8.430604616800943,2.756659825642904,1.6893054966837133e+18,32.843713297526044,0.0352265629917382,0.1563815052310625,-0.073456545981268,1.6893054966837133e+18,32.843713297526044,0.0343611706048249,0.1607084646821021,-0.0713185168181856,,,,,,,,,,,,1.6893054966895304e+18,32.849530468750004,-34.789519500732425,30.922119140625,-17.953519821166992,1.6893054966895304e+18,32.849530468750004,-303.07972412109376,123.81291809082032,-160.7545135498047,1.6893054966923635e+18,32.85236376953125,-0.8440779646237692,0.5014555255572001,-0.1868138660987218,0.0342604058484235,-0.5817504525184631,1.0339720249176023,-2.885537544886271
2.9,1.689305496744264e+18,32.90426407877604,-1.0589703718821208,0.053261121114095,0.2689291636149088,1.689305496744264e+18,32.90426407877604,3.061616579691569,-8.434300740559896,3.0735806624094644,1.689305496744264e+18,32.90426407877604,4.104139804840088,-8.477632204691568,2.742348829905192,1.6893054967356142e+18,32.895614501953126,0.0114028178407654,0.0514653970797856,-0.2275473028421401,1.6893054967356142e+18,32.895614501953126,0.0105374251919177,0.0558941687146821,-0.2254092792669932,,,,,,,,,,,,1.68930549673953e+18,32.899530029296876,-35.02375946044922,31.112439346313476,-18.38051986694336,1.68930549673953e+18,32.899530029296876,-303.31395263671874,124.00323791503908,-161.1815155029297,1.689305496744264e+18,32.90426407877604,-0.8415267070134481,0.5062180956204733,-0.1857527792453765,0.0326733576754728,-0.5889685750007629,1.0434244871139524,-2.873966614405314
2.95,1.6893054967961672e+18,32.95616723632813,-1.2107771237691245,0.5705471038818359,0.6023398240407308,1.6893054967961672e+18,32.95616723632813,2.746960401535034,-7.987242062886556,3.427319606145223,1.6893054967961672e+18,32.95616723632813,3.941293557484945,-8.547858874003092,2.762671788533529,1.6893054967875164e+18,32.94751652018229,-0.0519744497723877,-0.0578794839481512,-0.3715587854385376,1.6893054967875164e+18,32.94751652018229,-0.052839844332387,-0.0534507098297278,-0.3694207568963368,,,,,,,,,,,,1.68930549678953e+18,32.949529736328124,-33.984320068359374,31.76635971069336,-17.90227928161621,1.68930549678953e+18,32.949529736328124,-302.27451171875,124.65715789794922,-160.70327453613282,1.6893054967961672e+18,32.95616723632813,-0.8366671999295553,0.5139010747273763,-0.1869738350311914,0.0303950030356645,-0.6113221844037374,1.0578287442525227,-2.849425474802653
3.0,1.689305496839427e+18,32.99942724609375,-0.7833682298660278,0.9459307193756104,0.5886518955230713,1.689305496839427e+18,32.99942724609375,2.976073145866394,-7.6692955493927,3.5096726417541504,1.689305496839427e+18,32.99942724609375,3.742997884750366,-8.605290412902832,2.858705163002014,1.689305496839427e+18,32.99942700195313,-0.1811215430498122,-0.2477567593256631,-0.5102761089801788,1.689305496839427e+18,32.99942700195313,-0.1819869329531987,-0.2433279901742935,-0.50808717807134,,,,,,,,,,,,1.6893054968395354e+18,32.999535449218754,-33.21815986633301,32.24215965270996,-18.83679962158203,1.6893054968395354e+18,32.999535449218754,-301.508349609375,125.1329574584961,-161.63779907226564,1.689305496839427e+18,32.99942724609375,-0.8306765556335449,0.5213609933853149,-0.1932465508580207,0.0284166419878601,-0.652157187461853,1.0698819756507874,-2.8144387006759644
3.05,1.689305496882678e+18,33.04267805989583,-1.0570145845413208,0.4904346466064453,0.8941722710927328,1.689305496882678e+18,33.04267805989583,2.419941266377767,-8.194221496582031,3.9557347297668457,1.689305496882678e+18,33.04267805989583,3.4605085849761963,-8.674717585245768,2.999237537384033,1.6893054968913272e+18,33.05132722981771,-0.3382157286008199,-0.17190766086181,-0.812603493531545,1.6893054968913272e+18,33.05132722981771,-0.3390811185042063,-0.1675806964437166,-0.8104654749234518,,,,,,,,,,,,1.6893054968895368e+18,33.049536767578125,-31.768799591064457,32.988800811767575,-19.317480087280273,1.6893054968895368e+18,33.049536767578125,-300.0589965820312,125.87959747314451,-162.11847839355468,1.689305496882678e+18,33.04267805989583,-0.8221433758735657,0.5323374470074972,-0.2003911385933557,0.0223227627575396,-0.7142080863316854,1.0848515033721924,-2.7533241907755532
3.1,1.6893054969345815e+18,33.09458146158854,-0.4766252835591634,0.070681889851888,0.5138111114501953,1.6893054969345815e+18,33.09458146158854,2.5481566985448203,-8.699305852254232,3.804986715316773,1.6893054969345815e+18,33.09458146158854,3.0083320140838623,-8.760037104288736,3.2288408279418945,1.6893054969432315e+18,33.10323185221354,-0.3247766892115275,-0.6108652452627817,-0.8088364799817404,1.6893054969432315e+18,33.10323185221354,-0.3256929914156596,-0.6064364910125732,-0.8066984613736471,,,,,,,,,,,,1.6893054969395346e+18,33.099534423828125,-30.004679489135743,33.984318542480466,-20.330079650878908,1.6893054969395346e+18,33.099534423828125,-298.29486694335935,126.87511596679688,-163.1310791015625,1.6893054969345815e+18,33.09458146158854,-0.8081506888071696,0.5481225649515787,-0.2147671828667322,0.0163614929964144,-0.820832093556722,1.1038131713867188,-2.6583431561787925
3.15,1.689305496986483e+18,33.146483072916666,-0.9151450792948403,-1.0678577423095703,0.0105559825897216,1.689305496986483e+18,33.146483072916666,1.6354942520459492,-9.91107145945231,3.503291686375936,1.689305496986483e+18,33.146483072916666,2.534189303716024,-8.833253224690756,3.4303907553354898,1.6893054969951355e+18,33.15513582356771,-0.2866994192202885,-0.0700458822151025,-1.0222829977671306,1.6893054969951355e+18,33.15513582356771,-0.2875648190577825,-0.065668012946844,-1.0201449791590371,,,,,,,,,,,,1.689305496989541e+18,33.1495412109375,-28.13807945251465,34.77731857299805,-21.559839248657227,1.689305496989541e+18,33.1495412109375,-296.428271484375,127.66811676025392,-164.36083984375,1.689305496986483e+18,33.146483072916666,-0.7931637167930603,0.5648958086967468,-0.2272272755702336,0.0095418837542334,-0.9346654613812764,1.1206957896550496,-2.5521467526753745
3.2,1.689305497038381e+18,33.19838094075521,-1.1490895748138428,0.5394344329833984,0.592846949895223,1.689305497038381e+18,33.19838094075521,0.859621524810791,-8.3740816116333,4.255236307779948,1.689305497038381e+18,33.19838094075521,1.9922616084416709,-8.903546333312988,3.600034475326538,1.689305497047027e+18,33.207027180989584,-0.3743076870838801,-0.9499973058700562,-0.8967501719792684,1.689305497047027e+18,33.207027180989584,-0.3751730720202128,-0.9456702669461567,-0.8946121533711752,,,,,,,,,,,,1.6893054970395328e+18,33.19953291015625,-26.04455986022949,35.62643890380859,-22.57975959777832,1.6893054970395328e+18,33.19953291015625,-294.3347534179687,128.51723937988282,-165.38075256347656,1.689305497038381e+18,33.19838094075521,-0.7756097515424093,0.5840715964635214,-0.2391250530878702,0.00330445705913,-1.0652660926183064,1.137440284093221,-2.429213841756185
3.25,1.6893054970902835e+18,33.25028352864583,-0.3213634888331095,-0.6230907440185547,0.6950554847717285,1.6893054970902835e+18,33.25028352864583,1.114457130432129,-9.513463973999023,4.673182646433513,1.6893054970902835e+18,33.25028352864583,1.419349193572998,-8.880390803019205,3.915757497151693,1.6893054970902876e+18,33.250287719726565,-0.5094615966081619,-1.0322095155715942,-0.6584363579750061,1.6893054970902876e+18,33.250287719726565,-0.5103015452623367,-1.0277807712554932,-0.6562983393669128,,,,,,,,,,,,1.6893054970895355e+18,33.24953564453125,-22.872558975219725,35.94851989746094,-24.38779983520508,1.6893054970895355e+18,33.24953564453125,-291.1627563476562,128.83932189941407,-167.1887969970703,1.6893054970902835e+18,33.25028352864583,-0.7565471728642782,0.5964446465174357,-0.2679097255071004,0.0051217377185821,-1.2224787473678589,1.131871501604716,-2.3173670768737793
3.3,1.68930549714219e+18,33.30219010416666,1.110348065694173,-1.324459393819173,0.792306105295817,1.68930549714219e+18,33.30219010416666,1.9278175036112468,-10.167701721191406,5.0414778391520185,1.68930549714219e+18,33.30219010416666,0.8009794155756632,-8.833247502644857,4.186784585316976,1.689305497133538e+18,33.29353800455729,-0.4136066734790802,-1.2334896723429365,-0.8932885924975077,1.689305497133538e+18,33.29353800455729,-0.4145229756832123,-1.2291117906570437,-0.8911505738894144,,,,,,,,,,,,1.6893054971395343e+18,33.29953447265625,-19.98603935241699,36.153479766845706,-26.4739990234375,1.6893054971395343e+18,33.29953447265625,-288.2762390136719,129.04427490234374,-169.27499389648438,1.68930549714219e+18,33.30219010416666,-0.7353702386220297,0.6086000402768453,-0.297718624273936,0.0089863648948569,-1.38116721312205,1.1207091013590496,-2.209162394205729
3.35,1.6893054971940864e+18,33.35408626302083,0.7476436694463094,-0.7094573974609375,-0.4385563532511393,1.6893054971940864e+18,33.35408626302083,1.0911271174748738,-9.49152946472168,4.002394676208496,1.6893054971940864e+18,33.35408626302083,0.3269946376482645,-8.772067070007324,4.378552595774333,1.6893054971854405e+18,33.3454404296875,-0.375529408454895,0.0395535180966059,-0.8633561929066976,1.6893054971854405e+18,33.3454404296875,-0.3763947983582814,0.0439313898483911,-0.8612181742986044,,,,,,,,,,,,1.6893054971895373e+18,33.349537109375,-17.23859977722168,36.32183990478516,-27.369479751586915,1.6893054971895373e+18,33.349537109375,-285.52879028320314,129.21264038085937,-170.17047729492188,1.6893054971940864e+18,33.35408626302083,-0.2419750690460205,0.2043029069900512,-0.1040931046009063,0.0041700586152728,-1.495838284492493,1.10659654935201,-2.1007114251454673
3.4,1.6893054972459932e+18,33.40599324544271,0.4603432913621266,-0.3798863093058268,-0.9277775287628174,1.6893054972459932e+18,33.40599324544271,0.407178650299708,-9.120243390401203,3.605983654657999,1.6893054972459932e+18,33.40599324544271,-0.069629818201065,-8.73034413655599,4.471356550852458,1.6893054972373402e+18,33.39733992513021,-0.1930334170659382,0.3109304110209147,-1.1585568189620972,1.6893054972373402e+18,33.39733992513021,-0.1938988119363784,0.3153082728385925,-1.156418800354004,,,,,,,,,,,,1.689305497239533e+18,33.39953295898438,-15.779479789733887,36.5804801940918,-28.04779930114746,1.689305497239533e+18,33.39953295898438,-284.069677734375,129.47127685546874,-170.8488006591797,1.6893054972459932e+18,33.40599324544271,0.7043747305870056,-0.6396269202232361,0.3071288665135701,0.0180579554289579,-1.5859434207280476,1.0971942742665608,-1.9793572028477984
3.45,1.6893054972892462e+18,33.449246093750006,0.6159560084342957,-0.6315574645996094,-0.9833229780197144,1.6893054972892462e+18,33.449246093750006,0.1737787425518035,-9.340383052825928,3.5904303789138794,1.6893054972892462e+18,33.449246093750006,-0.4586244821548462,-8.698808670043945,4.511345624923706,1.6893054972892416e+18,33.44924169921875,-0.0792597656448682,0.1678861280282338,-1.02299569050471,1.6893054972892416e+18,33.44924169921875,-0.0801760641237099,0.1721621925632158,-1.0208576718966167,,,,,,,,,,,,1.689305497289534e+18,33.449533886718754,-14.176399612426758,37.28807907104492,-28.113679504394533,1.689305497289534e+18,33.449533886718754,-282.4665954589844,130.1788787841797,-170.9146759033203,1.6893054972892462e+18,33.449246093750006,0.6897659301757812,-0.6560477316379547,0.3048027008771896,0.0300301443785428,-1.6717962622642517,1.0902034640312197,-1.872596800327301
3.5,1.6893054973324977e+18,33.49249780273438,0.7352292537689209,-0.9418118794759116,-0.8786666393280029,1.6893054973324977e+18,33.49249780273438,0.003988038127621,-9.628917694091797,3.697908004124959,1.6893054973324977e+18,33.49249780273438,-0.7476774454116821,-8.67708937327067,4.514162540435791,1.6893054973411464e+18,33.501146565755214,-0.0017816899344324,0.0991637941139439,-0.7505497733751932,1.6893054973411464e+18,33.501146565755214,-0.0026979884132742,0.1035925674562652,-0.748360812664032,,,,,,,,,,,,1.68930549733953e+18,33.499530078125005,-12.539159965515136,37.861479949951175,-28.164918899536133,1.68930549733953e+18,33.499530078125005,-280.829345703125,130.75227966308594,-170.96591796875,1.6893054973324977e+18,33.49249780273438,0.6786824266115824,-0.6679495970408121,0.3031103909015655,0.0364852957427501,-1.7346078554789226,1.0854473114013672,-1.797916293144226
3.55,1.6893054973843914e+18,33.54439111328125,0.6649424235026041,-0.0739078521728516,-0.6586352189381918,1.6893054973843914e+18,33.54439111328125,-0.3180460010965665,-8.742177645365397,3.9058841864267984,1.6893054973843914e+18,33.54439111328125,-0.999403198560079,-8.658255894978842,4.502102057139079,1.6893054973930424e+18,33.55304239908855,0.1297579581538835,0.5620978474617004,-0.8101091186205546,1.6893054973930424e+18,33.55304239908855,0.1288925657669702,0.5664756993452708,-0.8079201976458231,,,,,,,,,,,,1.6893054973895355e+18,33.54953579101563,-11.10687961578369,38.10303955078125,-27.88431930541992,1.6893054973895355e+18,33.54953579101563,-279.39707641601564,130.99383850097655,-170.68531494140626,1.6893054973843914e+18,33.54439111328125,0.6684602499008179,-0.6811295747756958,0.2948043843110402,0.0475480755170185,-1.7889660596847534,1.081357717514038,-1.7150241136550903
3.6,1.689305497436301e+18,33.59630086263021,0.6333721081415812,0.1258236567179361,-0.5623954137166342,1.689305497436301e+18,33.59630086263021,-0.6235296924908956,-8.537391662597656,3.9419759114583335,1.689305497436301e+18,33.59630086263021,-1.2732996940612793,-8.653205871582031,4.441954135894775,1.689305497444955e+18,33.604954752604165,0.1788817097743351,0.2860376586516698,-0.6361143390337626,1.689305497444955e+18,33.604954752604165,0.1779654075702031,0.2904664228359857,-0.6339254081249237,,,,,,,,,,,,1.6893054974395412e+18,33.599541162109375,-10.282159805297852,38.59347915649414,-27.164519119262696,1.6893054974395412e+18,33.599541162109375,-278.5723571777344,131.48427734375,-169.96551818847655,1.689305497436301e+18,33.59630086263021,0.657235582669576,-0.6955430110295614,0.284680426120758,0.0564986020326614,-1.84971026579539,1.0802750587463377,-1.6260897318522136
3.65,1.6893054974882e+18,33.648199951171875,0.5277767777442933,-0.2672157287597656,0.1213207244873046,1.6893054974882e+18,33.648199951171875,-0.7427720328172048,-8.941778818766275,4.60000212987264,1.6893054974882e+18,33.648199951171875,-1.2869261900583904,-8.664559682210287,4.416261990865071,1.6893054974968517e+18,33.65685188802083,0.2026545455058415,1.1836022933324175,-0.3806708554426829,1.6893054974968517e+18,33.65685188802083,0.2017891506354014,1.1879292527834575,-0.3785328269004822,1.689305497479545e+18,33.63954541015625,0.0,0.0,0.9958750009536744,5.5269999504089355,0.0053541478700935,0.0,41.0,-122.7531003,49.1903839,1.6893054974895386e+18,33.649538671875,-10.674999809265136,39.44503936767578,-26.5496395111084,1.6893054974895386e+18,33.649538671875,-278.96519165039064,132.3358367919922,-169.350634765625,1.6893054974882e+18,33.648199951171875,0.6553055644035339,-0.7027310132980347,0.2676837046941121,0.0706983009974161,-1.854092796643575,1.08274511496226,-1.5755968888600669
3.7,1.689305497540105e+18,33.70010498046875,0.4852234919865926,-0.3032967249552408,0.7171473503112793,1.689305497540105e+18,33.70010498046875,-0.820738156636556,-8.991629282633463,5.158127943674724,1.689305497540105e+18,33.70010498046875,-1.322310447692871,-8.678336143493652,4.378557523091634,1.6893054975401047e+18,33.70010461425781,0.2341141104698181,0.803135097026825,-0.8115344643592834,1.6893054975401047e+18,33.70010461425781,0.2331978082656859,0.8074874877929688,-0.8093964457511902,,,,,,,,,,,,1.6893054975395328e+18,33.69953271484375,-10.648159980773926,40.05747909545899,-25.67855949401855,1.6893054975395328e+18,33.69953271484375,-278.9383544921875,132.94827880859376,-168.47955627441405,1.689305497540105e+18,33.70010498046875,0.6517077485720316,-0.7121515870094299,0.2452350556850433,0.0889116004109382,-1.8638500769933064,1.0857549905776978,-1.505982557932536
3.75,1.689305497592007e+18,33.752006673177085,0.3929146528244018,0.4965580304463704,0.3312478065490722,1.689305497592007e+18,33.752006673177085,-1.0049854914347331,-8.165307839711508,4.796014149983724,1.689305497592007e+18,33.752006673177085,-1.4142218430836997,-8.65187962849935,4.402332305908203,1.6893054975833562e+18,33.74335636393229,0.0986547370751698,1.2071206172307332,-0.74159042040507,1.6893054975833562e+18,33.74335636393229,0.0977893434464931,1.211498498916626,-0.7394523819287618,,,,,,,,,,,,1.689305497589538e+18,33.749537890625,-10.789679908752442,40.36491928100586,-24.861159133911137,1.689305497589538e+18,33.749537890625,-279.0798645019531,133.25571899414064,-167.6621551513672,1.689305497592007e+18,33.752006673177085,0.6444797118504842,-0.7228537599245707,0.2224122782548268,0.1120737567543983,-1.881427725156148,1.0800148248672483,-1.4212028980255127
3.8,1.689305497643908e+18,33.8039081217448,-0.0315542618433634,0.0558433532714843,-0.1269772847493489,1.689305497643908e+18,33.8039081217448,-1.4753745794296265,-8.554141362508139,4.423531373341878,1.689305497643908e+18,33.8039081217448,-1.4601155122121174,-8.600002606709799,4.488064130147298,1.689305497635258e+18,33.79525797526042,-0.085368417824308,0.7092654407024384,-0.501723994811376,1.689305497635258e+18,33.79525797526042,-0.0862847184762358,0.7135924299558004,-0.4995350539684295,,,,,,,,,,,,1.6893054976395387e+18,33.79953876953125,-10.735999870300294,40.72847900390625,-24.38047981262207,1.6893054976395387e+18,33.79953876953125,-279.0261962890625,133.61927795410156,-167.18147888183594,1.689305497643908e+18,33.8039081217448,0.6387205521265665,-0.7292099992434183,0.2064458479483921,0.1328532248735427,-1.885125954945882,1.0689222415288289,-1.3639569282531738
3.85,1.6893054976958124e+18,33.85581225585938,0.1910874843597411,-0.4661521911621094,-0.9307047526041666,1.6893054976958124e+18,33.85581225585938,-1.2705888350804646,-9.027322133382162,3.706482251485189,1.6893054976958124e+18,33.85581225585938,-1.477969964345296,-8.551186879475912,4.5747354825337725,1.6893054976871567e+18,33.847156575520835,-0.2224567631880442,-0.1041525254646937,0.0869973873098691,1.6893054976871567e+18,33.847156575520835,-0.2233221481243769,-0.0998764658967653,0.0891354208191235,,,,,,,,,,,,1.6893054976895347e+18,33.84953466796875,-10.848239707946778,40.457638549804685,-24.521999740600585,1.6893054976895347e+18,33.84953466796875,-279.1384338378906,133.3484344482422,-167.322998046875,1.6893054976958124e+18,33.85581225585938,0.6370484034220377,-0.7291904886563619,0.2086989680926004,0.1374248663584391,-1.88311771551768,1.05866539478302,-1.3627179463704426
3.9,1.6893054977390628e+18,33.89906286621094,0.4012420773506164,-0.9179801940917968,-1.110761642456055,1.6893054977390628e+18,33.89906286621094,-1.0313065648078918,-9.461819171905518,3.567997694015503,1.6893054977390628e+18,33.89906286621094,-1.4488559365272522,-8.533853530883789,4.616304159164429,1.689305497739058e+18,33.899057861328124,-0.1940515289704004,-0.8228355050086975,0.4276565710703532,1.689305497739058e+18,33.899057861328124,-0.1949678237239519,-0.8184576034545898,0.4297946095466614,,,,,,,,,,,,1.689305497739533e+18,33.89953305664063,-10.78235969543457,40.04283905029297,-25.302799224853516,1.689305497739533e+18,33.89953305664063,-279.0725524902344,132.9336364746094,-168.10379638671876,1.6893054977390628e+18,33.89906286621094,0.6398399174213409,-0.7245456278324127,0.2209556549787521,0.1296023279428481,-1.8747395873069763,1.055065095424652,-1.400565266609192
3.95,1.6893054977823163e+18,33.942316569010416,1.0326686104138691,-0.7938721974690756,-0.9792865912119548,1.6893054977823163e+18,33.942316569010416,-0.4400799671808879,-9.356136004130043,3.652244965235392,1.6893054977823163e+18,33.942316569010416,-1.4890755812327068,-8.552278836568197,4.5690765380859375,1.689305497790965e+18,33.95096508789063,0.0449495005110899,-0.8290459513664246,0.3266601860523224,1.689305497790965e+18,33.95096508789063,0.0440332032740115,-0.8246680696805319,0.3287982245286305,,,,,,,,,,,,1.6893054977895398e+18,33.94953989257813,-9.76975975036621,39.68659973144531,-25.74444007873535,1.6893054977895398e+18,33.94953989257813,-278.05995483398436,132.57740173339843,-168.54543762207032,1.6893054977823163e+18,33.942316569010416,0.641359786192576,-0.7212157249450684,0.2359725236892699,0.1130417560537656,-1.885690013567607,1.0588871240615845,-1.4358505010604858
4.0,1.689305497834214e+18,33.99421411132813,1.1037174860636394,-0.5942233403523763,-0.327263593673706,1.689305497834214e+18,33.99421411132813,-0.4049852291742961,-9.217551549275717,4.17567499478658,1.689305497834214e+18,33.99421411132813,-1.5250427722930908,-8.613348325093588,4.440481662750244,1.6893054978428654e+18,34.00286564127604,0.2818124989668528,-0.4419101079305013,0.0949895475059747,1.6893054978428654e+18,34.00286564127604,0.2809471140305201,-0.4374813238779704,0.0971275766690571,,,,,,,,,,,,1.6893054978395333e+18,33.999533203125,-9.23051986694336,39.50847854614258,-25.62975959777832,1.6893054978395333e+18,33.999533203125,-277.5207214355469,132.39927673339844,-168.43075561523438,1.689305497834214e+18,33.99421411132813,0.6426251928011576,-0.7198294202486674,0.2439957757790883,0.0965871686736742,-1.9015063444773357,1.0717543363571167,-1.4556312163670857
4.05,1.689305497886119e+18,34.046118815104165,0.9246625701586404,-0.2684672673543294,-0.1496092478434244,1.689305497886119e+18,34.046118815104165,-0.6073781450589498,-8.96670405069987,4.196612040201823,1.689305497886119e+18,34.046118815104165,-1.548389554023743,-8.688264846801758,4.283761183420817,1.689305497894768e+18,34.05476798502604,0.2685770789782206,-0.2610430767138799,0.2118684289356072,1.689305497894768e+18,34.05476798502604,0.2676607767740885,-0.2566143075625101,0.2140064562360445,,,,,,,,,,,,1.6893054978895352e+18,34.049535107421875,-9.330559921264648,40.142878723144534,-25.341839218139647,1.6893054978895352e+18,34.049535107421875,-277.620751953125,133.03367919921874,-168.14283447265626,1.689305497886119e+18,34.046118815104165,0.6433199842770895,-0.7206539909044901,0.2440094898144403,0.0851426795125007,-1.9175008535385132,1.0879511833190918,-1.4559926986694336
4.1,1.6893054979380183e+18,34.09801806640625,0.8419232368469238,-0.346356709798177,-0.2248709996541341,1.6893054979380183e+18,34.09801806640625,-0.5734798163175583,-9.134600321451822,3.975475470225016,1.6893054979380183e+18,34.09801806640625,-1.4317683776219683,-8.778278350830078,4.137884775797526,1.689305497946667e+18,34.10666723632813,0.1313869344691434,-0.8453866044680277,0.9559532006581624,1.689305497946667e+18,34.10666723632813,0.1304706384738285,-0.84100874265035,0.9580912192662556,,,,,,,,,,,,1.6893054979395354e+18,34.099535302734374,-9.306159591674804,40.16239929199219,-25.066119766235353,1.6893054979395354e+18,34.099535302734374,-277.5963562011719,133.0531982421875,-167.86711730957032,1.6893054979380183e+18,34.09801806640625,0.6498844822247823,-0.7146200736363729,0.2494668364524841,0.0682040825486182,-1.903650164604187,1.1081160306930542,-1.5020677248636882
4.15,1.6893054979899228e+18,34.1499228515625,0.946401337782542,-0.1752821604410807,0.0527702967325846,1.6893054979899228e+18,34.1499228515625,-0.0127617215233234,-9.054441134134928,4.188436508178711,1.6893054979899228e+18,34.1499228515625,-0.97555144627889,-8.869197209676107,4.073202292124431,1.6893054979899295e+18,34.14992980957031,-0.0381790781393646,-0.3751476109027862,1.5238797068595886,1.6893054979899295e+18,34.14992980957031,-0.0390953756868838,-0.3707952052354812,1.526017725467682,,,,,,,,,,,,1.6893054979895365e+18,34.14953662109375,-11.133719635009763,39.77200012207031,-25.35647964477539,1.6893054979895365e+18,34.14953662109375,-279.4239135742188,132.6627960205078,-168.15747680664063,1.6893054979899228e+18,34.1499228515625,0.6693636178970337,-0.6937053203582764,0.2615493138631184,0.046827670186758,-1.805361270904541,1.1293026606241865,-1.6487154960632324
4.2,1.6893054980418204e+18,34.201820393880205,0.7316920558611552,-0.576203982035319,0.1174335479736328,1.6893054980418204e+18,34.201820393880205,0.3036890812218188,-9.502497037251793,4.24506680170695,1.6893054980418204e+18,34.201820393880205,-0.4444085856278737,-8.91633383433024,4.065164089202881,1.6893054980331738e+18,34.19317399088541,0.0162897408008575,-0.2889901647965113,1.1340713302294414,1.6893054980331738e+18,34.19317399088541,0.0153734410802523,-0.2846632003784179,1.1362602512041728,,,,,,,,,,,,1.689305498039536e+18,34.19953627929688,-13.520039749145509,39.08635940551758,-25.558999252319335,1.689305498039536e+18,34.19953627929688,-281.81023559570315,131.97715759277344,-168.35999755859376,1.6893054980418204e+18,34.201820393880205,0.6901256839434305,-0.6712734500567118,0.268317441145579,0.0327749991168578,-1.6794291734695437,1.1406606833140056,-1.804800311724345
4.25,1.689305498093727e+18,34.25372705078125,0.8236391146977743,-0.9351574579874674,-0.0322315692901611,1.689305498093727e+18,34.25372705078125,0.8325028618176779,-9.894920031229654,4.044667959213257,1.689305498093727e+18,34.25372705078125,-0.0075475852936506,-8.949808120727539,4.014427026112874,1.6893054980850762e+18,34.24507609049479,0.1209513197342554,0.2969823119541009,0.8478809595108032,1.6893054980850762e+18,34.24507609049479,0.1200859248638152,0.3013601936399936,0.8500189781188965,,,,,,,,,,,,1.689305498089538e+18,34.24953793945313,-15.430559730529785,38.6105598449707,-25.478479385375977,1.689305498089538e+18,34.24953793945313,-283.720751953125,131.50135803222656,-168.27947387695312,1.689305498093727e+18,34.25372705078125,0.7063248952229818,-0.6558892925580343,0.2648427387078603,0.0267692071696122,-1.572377880414327,1.1489139000574748,-1.9152605930964153
4.3,1.689305498145629e+18,34.30562866210938,-0.6754517257213593,-0.8750858306884766,0.3180764516194661,1.689305498145629e+18,34.30562866210938,-0.0504486759503682,-9.867003440856934,4.274378776550293,1.689305498145629e+18,34.30562866210938,0.6085997819900513,-8.981971422831217,3.893829584121704,1.6893054981369743e+18,34.29697428385416,0.2553925762573878,0.8727737267812093,1.0024808049201963,1.6893054981369743e+18,34.29697428385416,0.2544762839873631,0.8772024909655253,1.004669725894928,,,,,,,,,,,,1.6893054981395305e+18,34.29953041992187,-18.35123977661133,38.1420783996582,-24.519559860229492,1.6893054981395305e+18,34.29953041992187,-286.6414306640625,131.03287658691406,-167.3205535888672,1.689305498145629e+18,34.30562866210938,0.728121260801951,-0.6386597156524658,0.2470343013604482,0.0291513589521248,-1.4154866933822632,1.1569818258285522,-2.0422736008961997
4.35,1.689305498197532e+18,34.35753181966146,0.0676439106464385,-0.5951766967773438,0.0396318435668945,1.689305498197532e+18,34.35753181966146,1.1798609495162964,-9.601001421610514,3.855236053466797,1.689305498197532e+18,34.35753181966146,1.095810075600942,-8.99588712056478,3.753129164377848,1.68930549818888e+18,34.3488798828125,0.2835941910743713,0.208508664742112,0.9057604471842448,1.68930549818888e+18,34.3488798828125,0.2826778888702392,0.2129374382396538,0.9080002705256144,,,,,,,,,,,,1.6893054981895345e+18,34.349534375000005,-20.38619956970215,37.634559631347656,-23.350799560546875,1.6893054981895345e+18,34.349534375000005,-288.67640380859376,130.52535705566407,-166.15179443359375,1.689305498197532e+18,34.35753181966146,0.7451732953389486,-0.6228932738304138,0.2368416289488474,0.0237730101992686,-1.2865503629048665,1.160512884457906,-2.164048910140991
4.4,1.6893054982407826e+18,34.40078259277344,-0.9378240704536438,0.1096739768981933,-0.004961609840393,1.6893054982407826e+18,34.40078259277344,0.7079764008522034,-8.892326831817627,3.622733473777771,1.6893054982407826e+18,34.40078259277344,1.6293989419937134,-8.992072105407715,3.5652204751968384,1.689305498240782e+18,34.40078206380208,0.3781255880991618,0.9116654992103576,1.0230974753697712,1.689305498240782e+18,34.40078206380208,0.3772092858950297,0.9160433411598206,1.0252863963445027,,,,,,,,,,,,1.6893054982395338e+18,34.39953383789062,-23.69239959716797,36.97575912475586,-22.382119369506835,1.6893054982395338e+18,34.39953383789062,-291.98259887695315,129.86655883789064,-165.18312072753906,1.6893054982407826e+18,34.40078259277344,0.7632440030574799,-0.6070592999458313,0.2199529632925987,0.0228126924484967,-1.142026960849762,1.1595309376716614,-2.285337209701538
4.45,1.689305498284033e+18,34.444032877604165,-1.0205678939819336,0.2965202331542969,0.1294116973876952,1.689305498284033e+18,34.444032877604165,1.0490533312161765,-8.698508262634277,3.5485560099283853,1.689305498284033e+18,34.444032877604165,2.053224722544352,-8.985108375549316,3.3566695054372153,1.689305498292681e+18,34.452680989583335,0.413555771112442,0.5360851486523946,0.8360199928283691,1.689305498292681e+18,34.452680989583335,0.4126903812090556,0.5405139327049255,0.8382089336713155,,,,,,,,,,,,1.6893054982895345e+18,34.449534472656254,-26.090919494628903,36.42919845581055,-20.81807975769043,1.6893054982895345e+18,34.449534472656254,-294.38112182617186,129.31999816894532,-163.61907653808595,1.689305498284033e+18,34.444032877604165,0.7773166100184122,-0.5946721831957499,0.2040827373663584,0.0209506253401437,-1.0217605233192444,1.157748262087504,-2.3852216402689614
4.5,1.689305498335929e+18,34.495929280598965,-1.536577304204305,0.5995473861694336,0.2358126640319824,1.689305498335929e+18,34.495929280598965,0.9980064431826272,-8.351748784383139,3.449652671813965,1.689305498335929e+18,34.495929280598965,2.5181928475697837,-8.94138272603353,3.15136448542277,1.689305498344587e+18,34.50458699544271,0.2331978032986322,0.233655959367752,0.8761843840281168,1.689305498344587e+18,34.50458699544271,0.2322815060615539,0.2379829188187917,0.8783733050028483,,,,,,,,,,,,1.6893054983395308e+18,34.49953081054688,-28.15027961730957,35.85335998535156,-19.427279663085937,1.6893054983395308e+18,34.49953081054688,-296.4404724121094,128.74415588378906,-162.22827758789063,1.689305498335929e+18,34.495929280598965,0.792523205280304,-0.5790208180745443,0.1905999581019083,0.0165190566331147,-0.8967881997426351,1.1467928886413574,-2.497300863265991
4.55,1.6893054983878382e+18,34.54783813476562,-0.6666254997253418,0.2878220876057942,0.4688633282979329,1.6893054983878382e+18,34.54783813476562,2.296312173207601,-8.56790033976237,3.579263925552368,1.6893054983878382e+18,34.54783813476562,2.946545441945394,-8.845812479654947,3.0479225317637124,1.6893054983964818e+18,34.556481852213544,0.141975258787473,0.2796235680580138,0.8450811703999838,1.6893054983964818e+18,34.556481852213544,0.1411098738511403,0.2838996251424153,0.847219189008077,,,,,,,,,,,,1.6893054983895393e+18,34.54953920898437,-29.802159118652344,34.99691925048828,-18.7001594543457,1.6893054983895393e+18,34.54953920898437,-298.09235229492185,127.8877166748047,-161.50115966796875,1.6893054983878382e+18,34.54783813476562,0.8062714338302612,-0.5617965658505758,0.1847730676333109,0.0113412821665405,-0.8025510708491007,1.1237191756566365,-2.591238101323446
4.6,1.6893054984397404e+18,34.59974047851563,-1.3619290987650554,0.2111142476399739,0.3599930604298909,1.6893054984397404e+18,34.59974047851563,1.97407865524292,-8.560721715291342,3.3268211682637534,1.6893054984397404e+18,34.59974047851563,3.319620450337728,-8.761931419372559,2.904348373413086,1.6893054984397417e+18,34.599741699218754,0.2201405614614486,0.5503895878791809,0.5377141386270523,1.6893054984397417e+18,34.599741699218754,0.2192242667078971,0.5547420084476471,0.539928525686264,,,,,,,,,,,,1.689305498439535e+18,34.59953491210938,-31.578479766845703,33.99651870727539,-18.14871940612793,1.689305498439535e+18,34.59953491210938,-299.8686767578125,126.88731689453124,-160.94971618652343,1.6893054984397404e+18,34.59974047851563,0.8179965217908224,-0.5481681029001871,0.1739383886257807,0.0105036292225121,-0.7187813321749369,1.1042761007944744,-2.660938262939453
4.65,1.6893054984916388e+18,34.65163883463541,-1.4907931089401243,-0.0827706654866536,0.5421528021494547,1.6893054984916388e+18,34.65163883463541,2.063410679499308,-8.817950248718262,3.359124183654785,1.6893054984916388e+18,34.65163883463541,3.5378209749857583,-8.725279490152994,2.754488150278727,1.6893054984829903e+18,34.64299047851563,0.1794925729433695,0.2716314072410265,0.3450370530287425,1.6893054984829903e+18,34.64299047851563,0.1786780854066212,0.2759583766261737,0.3471750716368357,,,,,,,,,,,,1.6893054984895304e+18,34.649530419921874,-32.79603958129883,33.22060012817383,-16.66519966125488,1.6893054984895304e+18,34.649530419921874,-301.08623046875,126.11139831542968,-159.46619567871093,1.6893054984916388e+18,34.65163883463541,0.8247760931650797,-0.541191558043162,0.163544734319051,0.0101672957340875,-0.6614546974500021,1.096017837524414,-2.703770955403646
4.7,1.6893054985435446e+18,34.70354451497396,-1.4830941359202068,1.2983943621317546,1.3224384784698486,1.6893054985435446e+18,34.70354451497396,2.164507428805033,-7.423333326975505,4.059622923533122,1.6893054985435446e+18,34.70354451497396,3.631218512852987,-8.71183172861735,2.674699385960897,1.6893054985348854e+18,34.69488517252604,0.1617265691359837,0.0521780724326769,0.1707877442240714,1.6893054985348854e+18,34.69488517252604,0.1608611817161241,0.0566068465511004,0.1729257677992184,1.689305498517593e+18,34.67759326171875,0.0,0.0,1.0062549114227295,5.544000148773193,0.0027594920247793,0.0,41.0,-122.7531,49.1903839,1.689305498539536e+18,34.69953603515625,-33.34259948730469,33.257199096679685,-16.66519966125488,1.689305498539536e+18,34.69953603515625,-301.63279418945314,126.147998046875,-159.46619567871093,1.6893054985435446e+18,34.70354451497396,0.827692965666453,-0.5378068884213766,0.160112793246905,0.0070644092435637,-0.6347296635309855,1.0930136839548747,-2.7300964991251626
4.75,1.689305498595446e+18,34.7554462890625,-0.3098697662353515,0.7211848894755045,0.9898136456807456,1.689305498595446e+18,34.7554462890625,3.2933215300242105,-7.98823881149292,3.82512633005778,1.689305498595446e+18,34.7554462890625,3.586801528930664,-8.699529965718588,2.772822936375936,1.68930549858679e+18,34.746790283203126,-0.1054251591364541,-0.2558507372935613,-0.0723366240660349,1.68930549858679e+18,34.746790283203126,-0.1062905552486578,-0.2514728605747223,-0.0701985986282428,,,,,,,,,,,,1.6893054985895337e+18,34.74953364257813,-33.515838623046875,33.08639907836914,-17.03120002746582,1.6893054985895337e+18,34.74953364257813,-301.8060363769531,125.97719879150392,-159.8321960449219,1.689305498595446e+18,34.7554462890625,0.8263368010520935,-0.5376211404800415,0.1676303793986638,0.0052179773338138,-0.657973051071167,1.090296983718872,-2.7206531365712485
4.8,1.6893054986473454e+18,34.807345377604165,-1.3511941035588582,0.4897041320800781,-0.0998868942260742,1.6893054986473454e+18,34.807345377604165,2.1196420192718506,-8.293523470560709,2.669592539469401,1.6893054986473454e+18,34.807345377604165,3.454456011454264,-8.773334185282389,2.706982215245565,1.6893054986386975e+18,34.79869775390625,-0.0002545279761155,0.4850269953409831,-0.4905247886975606,1.6893054986386975e+18,34.79869775390625,-0.0011199203630288,0.4894048869609833,-0.4883867700894673,,,,,,,,,,,,1.6893054986395346e+18,34.79953437499999,-32.93511962890625,33.9745590209961,-16.474879837036134,1.6893054986395346e+18,34.79953437499999,-301.2253112792969,126.86535949707032,-159.27587890625,1.6893054986473454e+18,34.807345377604165,0.822161078453064,-0.5463337699572245,0.1593338102102279,0.0127417951201398,-0.6645896633466085,1.1068644126256306,-2.6904316743214927
4.85,1.6893054986906002e+18,34.85060021972656,-1.4255553483963013,1.2229814529418943,1.3341392278671265,1.6893054986906002e+18,34.85060021972656,1.8625133633613584,-7.6013994216918945,4.195515394210815,1.6893054986906002e+18,34.85060021972656,3.2716881036758423,-8.814485549926758,2.798875093460083,1.6893054986905969e+18,34.85059684244792,-0.2896010229984919,-0.3292563656965891,-0.372424175341924,1.6893054986905969e+18,34.85059684244792,-0.2903646131356557,-0.3249294012784958,-0.3702861567338307,,,,,,,,,,,,1.6893054986895322e+18,34.84953203125,-32.317799758911136,34.18927917480469,-16.818919372558593,1.6893054986895322e+18,34.84953203125,-300.6079833984375,127.0800765991211,-159.6199188232422,1.6893054986906002e+18,34.85060021972656,0.8163995742797852,-0.5537158250808716,0.1630467772483825,0.0172374863177537,-0.7075181305408478,1.1162968277931211,-2.6461191177368164
4.9,1.6893054987338476e+18,34.89384741210937,-0.1580997308095296,-0.2535696029663086,0.9515734513600668,1.6893054987338476e+18,34.89384741210937,2.933401187260946,-9.079964637756348,4.020739555358887,1.6893054987338476e+18,34.89384741210937,3.075115521748861,-8.816495259602865,3.0066610972086587,1.689305498742502e+18,34.902501953125004,-0.3927354415257771,-0.3588833411534627,-0.4596760968367259,1.689305498742502e+18,34.902501953125004,-0.3936517437299092,-0.3545563717683156,-0.4574871659278869,,,,,,,,,,,,1.6893054987395384e+18,34.89953857421875,-31.09047927856445,34.53575897216797,-18.053559875488283,1.6893054987395384e+18,34.89953857421875,-299.38067016601565,127.42655639648436,-160.85455322265625,1.6893054987338476e+18,34.89384741210937,0.8101711670557658,-0.5589909553527832,0.1752799699703851,0.020113111163179,-0.7739836772282919,1.116767406463623,-2.593305826187134
4.95,1.6893054987857498e+18,34.94574983723958,-0.7925417025883993,-0.371315320332845,0.547290563583374,1.6893054987857498e+18,34.94574983723958,1.9655043681462605,-9.226524670918783,3.84486722946167,1.6893054987857498e+18,34.94574983723958,2.7416590054829917,-8.845302899678549,3.2350664933522544,1.6893054987944026e+18,34.95440226236979,-0.3609195450941722,-0.1941533337036768,-0.7477499643961588,1.6893054987944026e+18,34.95440226236979,-0.3617849449316661,-0.1897245595852533,-0.7455610235532125,,,,,,,,,,,,1.6893054987895324e+18,34.94953237304687,-29.497159576416017,35.03839874267578,-18.94904022216797,1.6893054987895324e+18,34.94953237304687,-297.7873596191406,127.92919616699218,-161.75003967285156,1.6893054987857498e+18,34.94574983723958,0.7994031310081482,-0.5702917774518331,0.1869505842526753,0.027070300032695,-0.8677427172660828,1.1235247453053792,-2.5062519709269204
5.0,1.6893054988376568e+18,34.997656819661465,-0.4115763902664184,-0.2047080993652343,0.2171018123626708,1.6893054988376568e+18,34.997656819661465,1.960718790690104,-9.099306106567385,3.705086469650269,1.6893054988376568e+18,34.997656819661465,2.3559110164642334,-8.884686470031738,3.425468683242798,1.689305498846306e+18,35.00630582682292,-0.3840815226236979,-0.1356629878282546,-0.7995207905769348,1.689305498846306e+18,35.00630582682292,-0.38499782482783,-0.13128512352705,-0.7973318696022034,,,,,,,,,,,,1.689305498839536e+18,34.99953569335937,-28.255199432373047,35.680118560791016,-19.917719650268555,1.689305498839536e+18,34.99953569335937,-296.54539794921874,128.57091369628907,-162.71871948242188,1.6893054988376568e+18,34.997656819661465,0.7866361141204834,-0.5846710403760275,0.1949450472990671,0.0363235287368297,-0.9682200153668722,1.1329012314478557,-2.403693199157715
5.05,1.6893054988895552e+18,35.04955550130208,-0.6613813241322836,0.2034269968668619,0.0549197196960449,1.6893054988895552e+18,35.04955550130208,1.2919248342514038,-8.710073788960775,3.749553044637045,1.6893054988895552e+18,35.04955550130208,1.9369232257207232,-8.903585116068522,3.632108370463053,1.6893054988895575e+18,35.04955737304688,-0.4124103933572769,-0.2679407671093941,-0.8191702961921692,1.6893054988895575e+18,35.04955737304688,-0.4132503420114516,-0.2635883539915084,-0.8170322775840759,,,,,,,,,,,,1.6893054988895345e+18,35.049534375,-26.588679122924805,36.27303924560547,-20.742439651489256,1.6893054988895345e+18,35.049534375,-294.8788757324219,129.16383361816406,-163.54343872070314,1.6893054988895552e+18,35.04955550130208,0.7724567850430807,-0.5995317101478577,0.2043327192465464,0.0455191197494665,-1.0806487401326497,1.1374726295471191,-2.2914273738861084
5.1,1.6893054989414574e+18,35.10145751953125,-0.2799885670344034,-0.075052261352539,-0.536537249883016,1.6893054989414574e+18,35.10145751953125,1.1647064288457234,-8.979066848754883,3.4071799914042153,1.6893054989414574e+18,35.10145751953125,1.4283088843027751,-8.89409351348877,3.881184736887614,1.6893054989328056e+18,35.09280574544271,-0.4633412857850392,-0.5848525563875834,-0.903418779373169,1.6893054989328056e+18,35.09280574544271,-0.4642575879891713,-0.5804238021373749,-0.9012807607650756,,,,,,,,,,,,1.6893054989395343e+18,35.09953432617188,-24.063279342651366,36.797637939453125,-21.911199188232423,1.6893054989395343e+18,35.09953432617188,-292.3534729003906,129.6884338378906,-164.71219787597656,1.6893054989414574e+18,35.10145751953125,0.7551161646842957,-0.6153146624565125,0.2201846142609914,0.0513183549046516,-1.2177660862604778,1.135187745094299,-2.169034401575724
5.15,1.6893054989933588e+18,35.15335904947917,0.1221734484036763,-0.8956038157145182,-1.4373351732889812,1.6893054989933588e+18,35.15335904947917,1.0420742829640706,-9.776873906453451,2.7116662661234536,1.6893054989933588e+18,35.15335904947917,0.9035138289133708,-8.871344248453775,4.086462179819743,1.689305498984707e+18,35.144707194010415,-0.3667736848195393,-0.454534649848938,-0.902247965335846,1.689305498984707e+18,35.144707194010415,-0.3676899671554565,-0.450105865796407,-0.9000590244928995,,,,,,,,,,,,1.6893054989895355e+18,35.149535693359375,-21.606199645996092,37.000159454345706,-23.450839614868165,1.6893054989895355e+18,35.149535693359375,-289.89638671875,129.89095458984374,-166.25183715820313,1.6893054989933588e+18,35.15335904947917,0.7368838588396708,-0.6313663125038147,0.2350202153126398,0.0556100805600483,-1.3528399467468262,1.1297356287638347,-2.049513022104899
5.2,1.6893054990452646e+18,35.20526489257813,0.1222387651602427,-1.1301145553588867,-0.7461539109547933,1.6893054990452646e+18,35.20526489257813,0.4947160681088765,-10.011769612630207,3.484548012415568,1.6893054990452646e+18,35.20526489257813,0.3560901880264282,-8.871727307637533,4.16815710067749,1.6893054990366106e+18,35.1966103515625,-0.1168788832922776,-0.5177082816759745,-1.010880172252655,1.6893054990366106e+18,35.1966103515625,-0.1177442769209543,-0.5133304297924042,-1.0086912512779236,,,,,,,,,,,,1.6893054990395382e+18,35.19953818359375,-19.30527992248535,37.61015853881836,-24.40243949890137,1.6893054990395382e+18,35.19953818359375,-287.59547119140626,130.50095825195314,-167.20343627929688,1.6893054990452646e+18,35.20526489257813,0.7175922393798828,-0.649564286073049,0.2445672154426574,0.0569220309456188,-1.4853447675704956,1.1298408110936482,-1.929047703742981
5.25,1.6893054990971628e+18,35.25716276041667,0.5539278984069824,-1.0996723175048828,-0.0689954757690429,1.6893054990971628e+18,35.25716276041667,0.2993022302786509,-9.988638559977211,4.152544339497884,1.6893054990971628e+18,35.25716276041667,-0.2710174818833669,-8.879040082295736,4.158993244171143,1.6893054990885169e+18,35.248516764322915,0.023212879585723,-0.8987354834874471,-0.9509135882059732,1.6893054990885169e+18,35.248516764322915,0.0222965820382038,-0.8944085240364075,-0.9486737052599588,,,,,,,,,,,,1.6893054990895345e+18,35.249534374999996,-16.199159622192383,38.55931854248047,-25.14663963317871,1.6893054990895345e+18,35.249534374999996,-284.48935546875,131.4501190185547,-167.9476318359375,1.6893054990971628e+18,35.25716276041667,0.6955723961194357,-0.6687420805295309,0.2578633924325307,0.0488417508701483,-1.6355397303899128,1.1316061814626055,-1.8101024230321248
5.3,1.689305499140418e+18,35.300418090820315,1.4010725021362305,-0.3969216346740722,-0.0484056472778319,1.689305499140418e+18,35.300418090820315,0.6610172390937805,-9.28774118423462,4.111168384552002,1.689305499140418e+18,35.300418090820315,-0.7564525604248047,-8.88089656829834,4.097024917602539,1.6893054991404175e+18,35.30041739908854,0.1645772755146026,-0.7434739172458649,-0.8405505816141764,1.6893054991404175e+18,35.30041739908854,0.1637118856112162,-0.7390960256258646,-0.8384125431378683,,,,,,,,,,,,1.6893054991395323e+18,35.2995322265625,-13.602999496459962,39.04487838745117,-25.646839904785157,1.6893054991395323e+18,35.2995322265625,-281.8931945800781,131.93567504882813,-168.44783935546874,1.689305499140418e+18,35.300418090820315,0.6782140731811523,-0.6828504800796509,0.2687029391527176,0.0389544572681188,-1.753109097480774,1.132063627243042,-1.7229321002960205
5.35,1.689305499183668e+18,35.34366780598958,1.676842212677002,-0.1718454360961913,-0.1272340615590413,1.689305499183668e+18,35.34366780598958,0.5852445463339487,-9.062217394510904,3.95234481493632,1.689305499183668e+18,35.34366780598958,-1.107994596163432,-8.880450248718262,4.017032225926717,1.689305499192317e+18,35.352317057291664,0.1310305905838807,0.1899790888031323,-0.8648324807484945,1.689305499192317e+18,35.352317057291664,0.1301652019222577,0.1944078629215558,-0.8626944621404012,,,,,,,,,,,,1.6893054991895342e+18,35.349534130859375,-11.165439796447751,39.94035873413086,-25.56143913269043,1.6893054991895342e+18,35.349534130859375,-279.4556396484375,132.8311553955078,-168.36244201660156,1.689305499183668e+18,35.34366780598958,0.6649537682533264,-0.6958346366882324,0.2687229017416635,0.0374364207188287,-1.8396236101786296,1.13196861743927,-1.638681173324585
5.4,1.6893054992355727e+18,35.39557275390625,0.9748939474423728,-0.3946482340494792,-0.5613533655802408,1.6893054992355727e+18,35.39557275390625,-0.3894318789243698,-9.24526850382487,3.5222349166870117,1.6893054992355727e+18,35.39557275390625,-1.3807060321172078,-8.840699513753256,4.021041075388591,1.6893054992442184e+18,35.40421834309896,-0.012522737806042,0.4846197664737701,-0.6429356634616852,1.6893054992442184e+18,35.40421834309896,-0.0134390350431203,0.4888958036899566,-0.6407976448535919,,,,,,,,,,,,1.6893054992395323e+18,35.39953256835937,-9.450119972229004,40.3039192199707,-24.873359298706056,1.6893054992395323e+18,35.39953256835937,-277.7403198242188,133.19471740722656,-167.67435607910156,1.6893054992355727e+18,35.39557275390625,0.6535836855570475,-0.7092109719912211,0.2594754695892334,0.0498376749455928,-1.901257475217184,1.1225467125574748,-1.545597235361735
5.45,1.6893054992874734e+18,35.44747347005208,0.605503777662913,-0.5716307957967123,-0.6612310409545898,1.6893054992874734e+18,35.44747347005208,-0.8739784757296244,-9.401399930318195,3.4273196856180825,1.6893054992874734e+18,35.44747347005208,-1.4958552122116089,-8.819851239522299,4.0259989102681475,1.6893054992961196e+18,35.456119628906244,0.0846557430922984,0.1847358345985412,-0.1215112758412336,1.6893054992961196e+18,35.456119628906244,0.0837394421299298,0.1891645987828572,-0.1193223466786245,,,,,,,,,,,,1.6893054992895337e+18,35.449533642578125,-9.41595973968506,40.44543991088867,-24.756239700317384,1.6893054992895337e+18,35.449533642578125,-277.70615844726564,133.33623962402345,-167.55723876953124,1.6893054992874734e+18,35.44747347005208,0.6484300096829733,-0.7158005038897196,0.2526295284430185,0.0578230991959571,-1.9263298908869424,1.1176618734995525,-1.4989371299743652
5.5,1.6893054993393746e+18,35.499374593098956,0.7949518163998922,-0.5304387410481771,0.0770612557729085,1.6893054993393746e+18,35.499374593098956,-0.6837490697701772,-9.388837814331056,4.102494398752849,1.6893054993393746e+18,35.499374593098956,-1.4950717290242512,-8.84848658243815,3.962875922520955,1.6893054993393754e+18,35.49937536621094,0.2160935774445533,0.072769321501255,-0.1122464910149574,1.6893054993393754e+18,35.49937536621094,0.2152536362409591,0.0771217383444309,-0.1101084575057029,,,,,,,,,,,,1.6893054993395346e+18,35.49953447265625,-9.284200096130371,40.79923934936524,-24.717199325561523,1.6893054993395346e+18,35.49953447265625,-277.57439575195315,133.69003601074218,-167.51819763183593,1.6893054993393746e+18,35.499374593098956,0.648434062798818,-0.7176710963249207,0.2471880912780761,0.0581033118069171,-1.9313769737879436,1.1243819793065388,-1.4852922360102336
5.55,1.6893054993912812e+18,35.55128100585937,0.6349990169207255,-0.2859052022298177,0.9300004641215006,1.6893054993912812e+18,35.55128100585937,-0.8424729704856873,-9.174879709879557,4.886941432952881,1.6893054993912812e+18,35.55128100585937,-1.493830959002177,-8.879066785176596,3.89438279469808,1.689305499382626e+18,35.54262589518229,0.2429207414388656,0.5442809462547302,-0.2244929720958073,1.689305499382626e+18,35.54262589518229,0.242004449168841,0.5486587882041931,-0.2223549485206603,,,,,,,,,,,,1.6893054993895337e+18,35.54953359375,-9.125599670410155,41.23843841552734,-23.9339599609375,1.6893054993895337e+18,35.54953359375,-277.4157958984375,134.12923583984374,-166.73495788574218,1.6893054993912812e+18,35.55128100585937,0.6479953527450562,-0.7214046915372213,0.2359094669421513,0.0632370846966902,-1.936900536219279,1.1316587527592976,-1.4555576244990032
5.6,1.6893054994431808e+18,35.60318090820312,0.5737660129865011,0.5569311777750651,0.7363518873850504,1.6893054994431808e+18,35.60318090820312,-0.987438142299652,-8.334999084472656,4.653242270151774,1.6893054994431808e+18,35.60318090820312,-1.577552318572998,-8.88202699025472,3.8543296655019126,1.6893054994345295e+18,35.59452962239583,0.0950404504934946,0.2394591718912123,-0.3752748966217041,1.6893054994345295e+18,35.59452962239583,0.094175054381291,0.2438370436429977,-0.3731368482112884,,,,,,,,,,,,1.6893054994395346e+18,35.59953447265625,-9.259799766540528,41.56051940917969,-23.353239440917967,1.6893054994395346e+18,35.59953447265625,-277.54998779296875,134.451318359375,-166.15423583984375,1.6893054994431808e+18,35.60318090820312,0.6440537969271342,-0.7273375988006592,0.2265971253315607,0.0694372008244196,-1.95910120010376,1.1323715051015215,-1.410693089167277
5.65,1.6893054994950858e+18,35.65508561197917,0.3900054295857747,0.3290443420410155,-0.3746570746103922,1.6893054994950858e+18,35.65508561197917,-1.160518964131673,-8.53380266825358,3.6127634048461914,1.6893054994950858e+18,35.65508561197917,-1.5668710072835286,-8.8529421488444,3.9248549938201904,1.689305499486431e+18,35.646430826822915,-0.1826996157566706,0.0066686173280079,0.1458440721035003,1.689305499486431e+18,35.646430826822915,-0.1836159129937489,0.0109955755372842,0.1479821080962816,,,,,,,,,,,,1.6893054994895375e+18,35.649537353515626,-8.798639869689941,41.34579849243164,-23.492319107055664,1.6893054994895375e+18,35.649537353515626,-277.0888305664063,134.2365966796875,-166.29331665039064,1.6893054994950858e+18,35.65508561197917,0.6440633138020834,-0.7265051404635111,0.2280571311712264,0.0731663182377815,-1.950503667195638,1.1254335244496665,-1.416158676147461
5.7,1.6893054995469804e+18,35.706980468750004,0.692490021387736,-0.1187829971313476,-0.7791378498077393,1.6893054995469804e+18,35.706980468750004,-0.6707879602909088,-8.984450976053873,3.2713874181111655,1.6893054995469804e+18,35.706980468750004,-1.3796367645263672,-8.855761845906576,3.9879537423451743,1.6893054995383288e+18,35.6983291015625,-0.2116648058096567,-0.4976006547609965,0.6714936097462972,1.6893054995383288e+18,35.6983291015625,-0.2125811080137888,-0.4931718707084656,0.6736316680908203,1.6893054995556314e+18,35.71563134765625,0.0,0.0,1.0158448219299316,5.578000068664551,0.0018948073266074,0.0,41.0,-122.7530997,49.190384,1.689305499539538e+18,35.699537890625,-9.647759628295898,40.99443893432617,-23.86563949584961,1.689305499539538e+18,35.699537890625,-277.9379516601563,133.88523559570314,-166.66663818359376,1.6893054995469804e+18,35.706980468750004,0.6522144476572672,-0.7161752978960673,0.239484538634618,0.0656862892210483,-1.90368390083313,1.1260960499445598,-1.4905739625295005
5.75,1.6893054995902305e+18,35.75023059082031,0.765566885471344,-0.6507573127746582,-0.7270604372024536,1.6893054995902305e+18,35.75023059082031,-0.3804588019847869,-9.536295890808104,3.3487552404403687,1.6893054995902305e+18,35.75023059082031,-1.1623905897140503,-8.875632762908936,4.013241767883301,1.6893054995902354e+18,35.750235595703124,-0.0625627804547548,-0.2054543445507684,0.6498079101244608,1.6893054995902354e+18,35.750235595703124,-0.0634790814171234,-0.2011273850997288,0.6519459287325541,,,,,,,,,,,,1.68930549958953e+18,35.74953002929688,-10.338279914855956,40.57963943481445,-24.47319984436035,1.68930549958953e+18,35.74953002929688,-278.62847290039065,133.4704376220703,-167.27419738769532,1.6893054995902305e+18,35.75023059082031,0.6613563597202301,-0.7057794332504272,0.2471556067466735,0.0582138523459433,-1.8525529503822329,1.130823791027069,-1.5637046694755554
5.8,1.689305499633485e+18,35.79348502604167,0.542804072300593,-0.6780188878377279,-0.6167169411977133,1.689305499633485e+18,35.79348502604167,-0.4043870270252228,-9.602197964986166,3.425724426905314,1.689305499633485e+18,35.79348502604167,-0.9635586142539978,-8.914275169372559,3.979865233103434,1.6893054996421332e+18,35.80213313802083,0.1534289841850598,0.1776090711355209,0.3849469125270843,1.6893054996421332e+18,35.80213313802083,0.1526144966483115,0.1819360268612702,0.3871358533700307,,,,,,,,,,,,1.6893054996395336e+18,35.799533642578126,-11.611959648132324,40.31611862182617,-24.360959625244146,1.6893054996395336e+18,35.799533642578126,-279.90215454101565,133.20691833496093,-167.16195373535157,1.689305499633485e+18,35.79348502604167,0.669302225112915,-0.6988329688707987,0.2463930149873097,0.054285159955422,-1.8080969254175825,1.1401743094126384,-1.6125038464864094
5.85,1.6893054996853937e+18,35.8453935546875,-0.0421432256698608,-0.4225915273030599,-0.3455557823181152,1.6893054996853937e+18,35.8453935546875,-0.7724829117457072,-9.402995427449545,3.6163525581359863,1.6893054996853937e+18,35.8453935546875,-0.7467019359270731,-8.970502853393555,3.899331013361613,1.6893054996940378e+18,35.85403767903646,0.2218968023856481,0.2386956003805001,0.2756529351075489,1.6893054996940378e+18,35.85403767903646,0.2210314124822616,0.2430734686786309,0.2778418809175491,,,,,,,,,,,,1.6893054996895324e+18,35.84953232421875,-12.61723976135254,40.10139923095703,-23.93395919799805,1.6893054996895324e+18,35.84953232421875,-280.9074340820313,132.99219665527343,-166.73495788574218,1.6893054996853937e+18,35.8453935546875,0.6775440772374471,-0.6937483350435892,0.2381915698448816,0.0538533789416153,-1.7597559690475464,1.154116193453471,-1.6490895748138428
5.9,1.6893054997372844e+18,35.89728426106771,-0.4049604733784993,-0.3015534083048503,-0.2296087741851806,1.6893054997372844e+18,35.89728426106771,-1.07258274157842,-9.339784940083822,3.608575979868571,1.6893054997372844e+18,35.89728426106771,-0.6839897632598877,-9.02833652496338,3.775606314341227,1.6893054997459392e+18,35.905939127604164,0.2268855373064676,-0.8946630557378134,0.2630792955557505,1.6893054997459392e+18,35.905939127604164,0.2260710497697194,-0.8903869986534119,0.2652173290650049,,,,,,,,,,,,1.6893054997395305e+18,35.89953051757813,-13.344359588623046,40.64795837402344,-23.646039962768555,1.6893054997395305e+18,35.89953051757813,-281.6345520019531,133.53875732421875,-166.44703674316406,1.6893054997372844e+18,35.89728426106771,0.6805752515792847,-0.6915542880694071,0.2378552357355753,0.0441852584481239,-1.7499255736668904,1.16892937819163,-1.6721010208129885
5.95,1.6893054997891932e+18,35.94919319661458,0.2585917115211487,-0.5716317494710287,-0.2073636054992675,1.6893054997891932e+18,35.94919319661458,-0.4123630933463573,-9.6554381052653,3.5194432735443115,1.6893054997891932e+18,35.94919319661458,-0.6873411933581034,-9.073912938435871,3.664228359858195,1.6893054997891922e+18,35.9491923828125,0.0135153941810131,-1.6573538184165957,0.8264243006706238,1.6893054997891922e+18,35.9491923828125,0.0127518102526664,-1.6529249548912048,0.828715056180954,,,,,,,,,,,,1.6893054997895337e+18,35.9495337890625,-12.285399627685546,40.39663848876953,-23.64847946166992,1.6893054997895337e+18,35.9495337890625,-280.5755981445312,133.28743591308594,-166.44947509765626,1.6893054997891932e+18,35.94919319661458,0.6816610296567281,-0.6841290593147278,0.258607268333435,0.0152370002275953,-1.7560255924860635,1.180961012840271,-1.7382399241129558
6.0,1.6893054998410944e+18,36.00109431966146,2.044196367263794,-0.5997285842895508,-0.2318577766418457,1.6893054998410944e+18,36.00109431966146,1.6945172945658369,-9.698907852172852,3.4999019304911294,1.6893054998410944e+18,36.00109431966146,-0.3660966207583744,-9.089285532633465,3.6691771348317466,1.6893054998324436e+18,35.992443359375,-0.1880955919623374,-1.7085392077763877,1.5630005200703938,1.6893054998324436e+18,35.992443359375,-0.1889100770155588,-1.7042631308237712,1.5651894807815552,,,,,,,,,,,,1.6893054998395392e+18,35.999539111328126,-12.692879676818848,39.46211929321289,-25.18323974609375,1.6893054998395392e+18,35.999539111328126,-280.9830627441406,132.35291748046876,-167.98423767089844,1.6893054998410944e+18,36.00109431966146,-0.6933323542277018,0.6582720478375753,-0.291842500368754,0.023468455299735,-1.6701714595158894,1.1850907802581787,-1.9297975699106853
6.05,1.6893054998843402e+18,36.04434033203125,1.7561277747154236,-0.6108040809631348,0.0050075054168701,1.689305499892992e+18,36.052991861979166,1.692922035853068,-9.650253931681316,3.882155338923136,1.6893054998843402e+18,36.04434033203125,0.1581514067947864,-9.070236206054688,3.732806563377381,1.6893054998843392e+18,36.04433919270833,-0.1107193231582641,0.0649553537368774,1.4011212984720869,1.6893054998843392e+18,36.04433919270833,-0.1115847167869408,0.0692822982867558,1.403310219446818,,,,,,,,,,,,1.6893054998895332e+18,36.049533154296874,-15.23535976409912,38.129879760742185,-26.30319938659668,1.6893054998895332e+18,36.049533154296874,-283.5255554199219,131.0206787109375,-169.10419921875,1.6893054998843402e+18,36.04434033203125,-0.7117236256599426,0.6330097615718842,-0.3020018488168716,0.038999181240797,-1.5284039974212646,1.1799582242965698,-2.1098846197128296
6.1,1.689305499944891e+18,36.104890869140625,0.28616464138031,-0.3941960334777832,0.5748379230499268,1.6893054999448904e+18,36.104890299479166,1.034696400165558,-9.46560764312744,4.18424924214681,1.689305499944891e+18,36.104890869140625,0.7918328940868378,-9.0984148979187,3.5805230140686035,1.689305499936241e+18,36.09624088541667,0.2720895608266194,0.86467977364858,0.7271841764450073,1.689305499936241e+18,36.09624088541667,0.2711732685565948,0.8690067132314047,0.7293221950531006,,,,,,,,,,,,1.689305499939527e+18,36.0995267578125,-18.058439636230467,37.78827896118164,-25.085639572143556,1.689305499939527e+18,36.0995267578125,-286.3486328125,130.6790771484375,-167.88663635253906,1.689305499944891e+18,36.104890869140625,-0.7341701686382294,0.617577463388443,-0.2796463966369629,0.0369224417954683,-1.3529638648033142,1.18756502866745,-2.248722791671753
6.15,1.6893054999881403e+18,36.14814029947917,-0.6672309835751852,0.2909345626831054,0.6238671938578287,1.68930549999679e+18,36.15679028320312,0.600000282128652,-8.7686980565389,4.155535380045573,1.6893054999881403e+18,36.14814029947917,1.3146276871363325,-9.081657409667969,3.4628984928131104,1.6893054999881403e+18,36.14814029947917,0.0911716396609942,1.0369946757952373,1.0923288663228352,1.6893054999881403e+18,36.14814029947917,0.0903571496407191,1.041372537612915,1.0945178071657815,,,,,,,,,,,,1.689305499989527e+18,36.14952680664062,-20.99375991821289,37.20267944335937,-23.68995971679687,1.689305499989527e+18,36.14952680664062,-289.28395385742186,130.0934814453125,-166.49095764160157,1.6893054999881403e+18,36.14814029947917,-0.7523094018300375,0.6043498516082764,-0.2601332664489746,0.0316883952667315,-1.2085445324579875,1.1830490032831829,-2.3567915757497153
6.2,1.6893055000400438e+18,36.20004370117187,-0.6873932282129923,0.1054118474324544,0.4359933535257975,1.689305500040044e+18,36.20004418945312,1.268195986747742,-8.880960941314697,3.901796460151672,1.6893055000400438e+18,36.20004370117187,1.9876383940378823,-8.980684280395508,3.406501611073812,1.6893055000400438e+18,36.20004370117187,0.0292197211335102,0.4101960162321726,1.1980085372924805,1.6893055000400438e+18,36.20004370117187,0.0283543293674786,0.4145229756832123,1.2001465559005735,,,,,,,,,,,,1.6893055000395287e+18,36.19952861328125,-24.146239471435543,35.938760375976564,-22.816439819335937,1.6893055000395287e+18,36.19952861328125,-292.4364379882812,128.82955780029295,-165.61743774414063,1.6893055000400438e+18,36.20004370117187,-0.774902363618215,0.5816354552904764,-0.2456161429484684,0.0287121615062156,-1.0432053407033284,1.1567047437032063,-2.4974581400553384
6.25,1.6893055000919452e+18,36.25194539388021,-0.1702072620391845,-0.4151973724365234,0.2679699261983235,1.689305500083295e+18,36.24329484049479,2.4147568543752036,-9.170492808024088,3.6705899238586426,1.6893055000919452e+18,36.25194539388021,2.601062456766764,-8.844523429870605,3.349001089731852,1.6893055000919452e+18,36.25194539388021,0.006159557805707,0.4759658475716908,1.147001306215922,1.6893055000919452e+18,36.25194539388021,0.0052432598701367,0.4803436994552612,1.1491902271906536,,,,,,,,,,,,1.68930550008953e+18,36.249530078125,-27.018119430541994,34.90175933837891,-22.560239410400392,1.68930550008953e+18,36.249530078125,-295.3083129882813,127.7925582885742,-165.36123657226562,1.6893055000919452e+18,36.25194539388021,-0.7947363456090292,0.5580335656801859,-0.2365522334973017,0.0309773000578085,-0.9110455513000488,1.1234851280848186,-2.6210320790608725
6.3,1.6893055001438472e+18,36.30384708658854,-0.3302971522013347,-0.4256099065144856,-0.0952724615732828,1.6893055001351974e+18,36.295197265625,2.888535737991333,-9.321240743001304,3.341776212056478,1.6893055001438472e+18,36.30384708658854,3.1727214654286704,-8.693334261576334,3.2510263125101724,1.6893055001438472e+18,36.30384708658854,0.0582358203828334,0.6494515637556711,0.9938268462816876,1.6893055001438472e+18,36.30384708658854,0.057319523145755,0.6537276109059652,0.9960157672564188,,,,,,,,,,,,1.68930550013953e+18,36.29952998046875,-29.648439407348633,33.369439697265626,-21.979519653320313,1.68930550013953e+18,36.29952998046875,-297.9386352539062,126.26023712158204,-164.780517578125,1.6893055001438472e+18,36.30384708658854,-0.8128876288731893,0.5367369850476583,-0.2239044507344563,0.0303408124794562,-0.7980387012163798,1.0890582005182905,-2.7159461975097656
6.35,1.6893055001957478e+18,36.355747884114585,-1.2050374348958333,-0.0078544616699218,0.0726068019866943,1.689305500187098e+18,36.34709822591146,2.310868422190348,-8.558727582295736,3.1353952884674072,1.6893055001957478e+18,36.355747884114585,3.6329147020975743,-8.570711453755697,3.093316078186035,1.6893055001957478e+18,36.355747884114585,0.0822122804820537,0.4917465100685755,0.7209228078524271,1.6893055001957478e+18,36.355747884114585,0.0812959844867387,0.4961753040552139,0.7230608264605204,,,,,,,,,,,,1.6893055001895286e+18,36.349528515625,-31.993279266357423,32.210439682006836,-20.535039138793945,1.6893055001895286e+18,36.349528515625,-300.2834716796875,125.10123901367189,-163.33603515625,1.6893055001957478e+18,36.355747884114585,-0.8273065090179443,0.5211760600407919,-0.2077575027942657,0.0272647608071564,-0.7055010994275411,1.062694072723389,-2.781195084253947
6.4,1.6893055002476506e+18,36.40765071614583,-1.313730001449585,0.2508449554443359,0.16658616065979,1.6893055002390016e+18,36.39900170898438,2.7322046756744385,-8.337590853373209,3.311666568120321,1.6893055002476506e+18,36.40765071614583,3.980690876642863,-8.423428535461426,3.070317586263021,1.6893055002476506e+18,36.40765071614583,-0.0149152937034766,0.0161879292378822,0.7625634471575419,1.6893055002476506e+18,36.40765071614583,-0.0158315909405549,0.0206167014160503,0.7647014657656351,,,,,,,,,,,,1.6893055002395277e+18,36.39952778320312,-33.02783889770508,31.09047966003418,-20.01775970458984,1.6893055002395277e+18,36.39952778320312,-301.3180236816406,123.98127746582033,-162.81875305175782,1.6893055002476506e+18,36.40765071614583,-0.8378678361574808,0.5051244695981344,-0.2047268052895863,0.0297907895098129,-0.6570726235707601,1.0326481660207112,-2.8302818139394126
6.45,1.6893055002909066e+18,36.450906494140625,-1.515913486480713,0.9506278038024902,0.5436791181564331,1.689305500290903e+18,36.45090315755208,2.7535406748453775,-7.4524461428324384,3.655834197998047,1.6893055002909066e+18,36.450906494140625,4.207898139953613,-8.308856010437012,3.0807578563690186,1.6893055002909066e+18,36.450906494140625,-0.0045814896002412,-0.1168279759585857,0.574824184179306,1.6893055002909066e+18,36.450906494140625,-0.0054977866820991,-0.1125519219785928,0.5769622027873993,,,,,,,,,,,,1.689305500289527e+18,36.4495271484375,-34.694359588623044,29.8729190826416,-20.16903953552246,1.689305500289527e+18,36.4495271484375,-302.98455200195315,122.7637176513672,-162.97003479003905,1.6893055002909066e+18,36.450906494140625,-0.8446395397186279,0.4933751076459884,-0.2051252126693725,0.03290899656713,-0.6319201290607452,1.0102270245552063,-2.861792206764221
6.5,1.6893055003341606e+18,36.49416031901042,-0.9581131935119628,0.4705184300740559,0.4813067118326823,1.6893055003428104e+18,36.50281030273438,3.380659580230713,-7.870392481486003,3.6185460090637207,1.6893055003341606e+18,36.49416031901042,4.315200010935466,-8.241907755533854,3.1121206283569336,1.6893055003341606e+18,36.49416031901042,0.0121154940376679,-0.01847867302907,0.2564616004625956,1.6893055003341606e+18,36.49416031901042,0.0111991955588261,-0.0140498992986977,0.2585996190706888,,,,,,,,,,,,1.6893055003395354e+18,36.499535205078125,-35.33607864379883,29.306839752197263,-20.264199447631835,1.6893055003395354e+18,36.499535205078125,-303.62626953125,122.19763793945312,-163.06519775390626,1.6893055003341606e+18,36.49416031901042,-0.8477675318717957,0.4868022998174031,-0.2074880997339884,0.035497968395551,-0.6247604688008627,0.9975071946779888,-2.877028306325277
6.55,1.6893055003860657e+18,36.54606567382813,-1.580257256825765,0.4474995930989583,0.2181216080983479,1.6893055003947172e+18,36.55471736653646,2.6915266513824463,-7.769495010375977,3.326023499170939,1.6893055003860657e+18,36.54606567382813,4.339738210042317,-8.237833658854166,3.0887604554494223,1.6893055003860657e+18,36.54606567382813,0.0404189162266751,0.0578794817750651,-0.0748818969974915,1.6893055003860657e+18,36.54606567382813,0.039502620541801,0.0621555366863806,-0.072692962984244,,,,,,,,,,,,1.689305500389537e+18,36.5495369140625,-35.394639587402345,29.040879440307616,-20.342279815673827,1.689305500389537e+18,36.5495369140625,-303.68483276367186,121.93167724609376,-163.14327697753907,1.6893055003860657e+18,36.54606567382813,-0.84852135181427,0.4862841169039408,-0.2056770225365956,0.0351438745856284,-0.6184970339139303,0.996734857559204,-2.8800883293151855
6.6,1.689305500437968e+18,36.59796793619792,-1.5549071629842122,0.5516765912373861,0.4208127657572428,1.6893055004466138e+18,36.606613932291665,2.7186454137166343,-7.725427309672038,3.6476587454477944,1.689305500437968e+18,36.59796793619792,4.2449951171875,-8.290566444396973,3.079089641571045,1.689305500437968e+18,36.59796793619792,0.0330885338286558,-0.0555887381779029,-0.2478076666593551,1.689305500437968e+18,36.59796793619792,0.0322231420626242,-0.0512617747299373,-0.2456696331501006,,,,,,,,,,,,1.6893055004395295e+18,36.59952944335937,-34.88711853027344,29.45811958312988,-20.361799621582033,1.6893055004395295e+18,36.59952944335937,-303.1773193359375,122.34891662597656,-163.16279296875,1.689305500437968e+18,36.59796793619792,-0.8456690112749735,0.4910659193992615,-0.2060393591721852,0.0352315704027811,-0.62748783826828,1.006710648536682,-2.8712448279062905
6.65,1.689305500489872e+18,36.64987190755208,-1.1921443939208984,0.5872435569763184,0.6024673779805502,1.6893055004898703e+18,36.64987023925781,2.8779674768447876,-7.800003528594971,3.776472330093384,1.689305500489872e+18,36.64987190755208,4.0505264600118,-8.377183278401693,3.105807304382324,1.689305500489872e+18,36.64987190755208,0.0214820945014555,-0.1477275763948758,-0.4858414928118388,1.689305500489872e+18,36.64987190755208,0.0205657960226137,-0.1433497096101442,-0.4837034543355306,,,,,,,,,,,,1.6893055004895365e+18,36.64953642578125,-34.15755996704102,30.177919387817383,-20.42279968261719,1.6893055004895365e+18,36.64953642578125,-302.4477478027344,123.06871948242188,-163.22379455566406,1.689305500489872e+18,36.64987190755208,-0.8397981921831766,0.4996846914291382,-0.2093186477820078,0.0349847823381423,-0.6541610161463419,1.023465275764465,-2.8482374350229898
