seconds_elapsed_rounded,accelerometer_time,accelerometer_seconds_elapsed,accelerometer_z,accelerometer_y,accelerometer_x,accelerometeruncalibrated_time,accelerometeruncalibrated_seconds_elapsed,accelerometeruncalibrated_z,accelerometeruncalibrated_y,accelerometeruncalibrated_x,gravity_time,gravity_seconds_elapsed,gravity_z,gravity_y,gravity_x,gyroscope_time,gyroscope_seconds_elapsed,gyroscope_z,gyroscope_y,gyroscope_x,gyroscopeuncalibrated_time,gyroscopeuncalibrated_seconds_elapsed,gyroscopeuncalibrated_z,gyroscopeuncalibrated_y,gyroscopeuncalibrated_x,location_time,location_seconds_elapsed,location_bearingAccuracy,location_speedAccuracy,location_verticalAccuracy,location_horizontalAccuracy,location_speed,location_bearing,location_altitude,location_longitude,location_latitude,magnetometer_time,magnetometer_seconds_elapsed,magnetometer_z,magnetometer_y,magnetometer_x,magnetometeruncalibrated_time,magnetometeruncalibrated_seconds_elapsed,magnetometeruncalibrated_z,magnetometeruncalibrated_y,magnetometeruncalibrated_x,orientation_time,orientation_seconds_elapsed,orientation_qz,orientation_qy,orientation_qx,orientation_qw,orientation_roll,orientation_pitch,orientation_yaw
0.0,,,,,,,,,,,,,,,,1.6893054639073298e+18,0.067329833984375,0.3243694305419922,-0.1244637966156005,-0.0021380283869802,,,,,,,,,,,,,,,,,1.6893054639137818e+18,0.07378173828125,-38.966800689697266,-32.866798400878906,3.5745999813079834,,,,,,,,,,,,,,
0.05,1.6893054639592433e+18,0.1192431640625,-0.5092687606811523,-0.6160151958465576,0.7902518510818481,1.6893054639419315e+18,0.1019313964843749,8.026723384857178,4.175475597381592,-1.9271195530891416,,,,,,1.6893054639419415e+18,0.1019415690104166,0.5835290253162384,0.6531167378028234,0.2461277842521667,1.6893054639419315e+18,0.1019313964843749,0.5924629271030426,0.6973790526390076,0.2905427813529968,,,,,,,,,,,,1.6893054639439316e+18,0.103931689453125,-37.99079895019531,-33.181558990478514,3.57947998046875,1.6893054639489567e+18,0.1089566650390625,-306.23524475097656,59.61224842071533,-139.21724700927734,,,,,,,,,
0.1,1.6893054639938414e+18,0.1538413899739583,-0.7943078676859537,-1.2792067527770996,1.0718260606129963,1.689305463985191e+18,0.1451905924479166,7.572087287902832,3.4620155493418374,-1.3651053110758464,1.689305463985191e+18,0.1451905924479166,8.367767651875814,4.5713551839192705,-2.301597515741984,1.6893054639938414e+18,0.1538413899739583,1.2323697606722517,1.6722945372263591,0.2854267929991086,1.689305463985191e+18,0.1451905924479166,1.1024081508318584,1.57786492506663,0.1899790950119495,,,,,,,,,,,,1.6893054639941816e+18,0.154181689453125,-37.38811874389648,-33.5524398803711,4.672599983215332,1.6893054639941816e+18,0.154181689453125,-305.6783142089844,59.33835906982422,-138.1283966064453,1.689305463985191e+18,0.1451905924479166,-0.925300677617391,-0.1987948318322498,0.1841457535823185,0.2649154861768086,0.2692999343077341,-0.4843774437904358,2.650834004084269
0.15,1.6893054640457408e+18,0.2057406412760416,-0.038362979888916,-1.489501953125,0.8885802825291952,1.6893054640370952e+18,0.1970950520833333,7.113263448079427,3.4384861389795938,-1.7288143634796145,1.6893054640370952e+18,0.1970950520833333,8.002222696940104,5.017721652984619,-2.6411050955454507,1.6893054640457408e+18,0.2057406412760416,1.4492268959681194,1.9316577514012656,0.8413650592168173,1.6893054640370952e+18,0.1970950520833333,1.531133731206258,1.7466673851013184,0.8363763292630514,,,,,,,,,,,,1.689305464044432e+18,0.204431689453125,-36.343798828125,-35.01887969970703,4.97027997970581,1.689305464044432e+18,0.204431689453125,-304.6339904785156,57.871918487548825,-137.83071899414062,1.6893054640370952e+18,0.1970950520833333,-0.9024284283320108,-0.2085849493741988,0.2203223903973896,0.305394689242045,0.3198226590951283,-0.5366884072621664,2.5776580174764
0.2,1.6893054640976486e+18,0.2576486002604166,-0.3563655217488606,0.2021830876668294,-2.1123875776926675,1.6893054640889966e+18,0.24899658203125,7.053243478139241,5.323232809702556,-5.4051869710286455,1.6893054640889966e+18,0.24899658203125,7.5387899080912275,5.314977327982585,-3.3316681385040283,1.6893054640976486e+18,0.2576486002604166,-0.3834197471539179,1.6682730118433635,-0.1718058486779531,1.6893054640889966e+18,0.24899658203125,-0.1301652193069458,2.007201393445333,0.0527889480193456,,,,,,,,,,,,1.6893054640946816e+18,0.2546816894531249,-35.223839569091794,-36.058319091796875,7.149199962615967,1.6893054640946816e+18,0.2546816894531249,-303.5140319824219,56.832479095458986,-135.65179748535155,1.6893054640889966e+18,0.24899658203125,-0.8804035981496176,-0.2060306618611017,0.2706186274687449,0.3302216827869415,0.4169592559337616,-0.5722651282946268,2.5481794675191245
0.25,1.6893054641409034e+18,0.3009033203125,-0.056542158126831,-0.8743788003921509,-0.0948742628097534,1.6893054641409014e+18,0.3009013671875,7.106085141499837,4.490929206212361,-4.341577212015788,1.6893054641409014e+18,0.3009013671875,7.45681365331014,5.097674210866292,-3.8263646761576338,1.6893054641409034e+18,0.3009033203125,0.158137746155262,0.6924921274185181,-0.5276348739862442,1.6893054641409014e+18,0.3009013671875,0.1447241604328155,0.801353394985199,-0.5169956187407175,,,,,,,,,,,,1.6893054641399066e+18,0.2999066772460937,-35.861900329589844,-35.37694835662842,9.939949750900269,1.6893054641399066e+18,0.2999066772460937,-304.152099609375,57.513848304748535,-132.86104583740234,1.6893054641409014e+18,0.3009013671875,-0.8770318031311035,-0.1849111417929331,0.2929530541102091,0.3327994743982951,0.4749829570452372,-0.5461227496465048,2.551600217819214
0.3,1.6893054641841472e+18,0.3441473795572916,-2.0975546836853027,-0.5407630602518717,-0.4924285411834717,1.6893054641928028e+18,0.3528028157552083,4.57268413901329,4.172484477361043,-4.160919109980266,1.6893054641928028e+18,0.3528028157552083,7.519973913828532,4.998430569966634,-3.8306028048197422,1.6893054641841472e+18,0.3441473795572916,0.8597419261932373,0.1643227338790893,-0.6610070864359537,1.6893054641928028e+18,0.3528028157552083,0.8918632666269938,-0.2899573594331741,-0.6459900041421255,,,,,,,,,,,,1.6893054641851315e+18,0.34513173828125,-36.23399963378906,-34.6723991394043,9.989360046386718,1.6893054641851315e+18,0.34513173828125,-304.5241943359375,58.21839828491211,-132.81163940429687,1.6893054641928028e+18,0.3528028157552083,-0.8698339263598124,-0.1720646669467289,0.2952477037906647,0.3556857307751973,0.4720562895139058,-0.5343625148137411,2.496795733769735
0.35,1.6893054642360563e+18,0.3960563151041666,-1.3229660987854004,-2.337939739227295,0.247123638788859,1.6893054642447022e+18,0.4047020670572916,6.327420711517334,2.0346968372662864,-3.2480573654174805,1.6893054642447022e+18,0.4047020670572916,8.02982759475708,4.686138947804769,-3.105535348256429,1.6893054642360563e+18,0.3960563151041666,0.960280160109202,-1.3509793678919475,-1.6028086245059967,1.6893054642447022e+18,0.4047020670572916,1.0494665304819744,-1.2006047169367473,-2.173560361067454,,,,,,,,,,,,1.6893054642353815e+18,0.39538173828125,-38.46171951293945,-33.086398696899415,6.729519844055176,1.6893054642353815e+18,0.39538173828125,-306.7519104003906,59.80439834594726,-136.07147521972655,1.6893054642447022e+18,0.4047020670572916,-0.8746388753255209,-0.1636632035175959,0.2523524115482966,0.3795668681462605,0.3704263369242349,-0.4980408747990926,2.418564796447754
0.4,1.689305464287956e+18,0.4479561360677083,-0.8537667592366537,-3.5889514287312827,1.820392608642578,1.6893054642966044e+18,0.4566044921875,7.7651082674662275,-0.5541378458340963,-0.525822788476944,1.6893054642966044e+18,0.4566044921875,8.933127403259277,3.2526824474334717,-2.357778310775757,1.689305464287956e+18,0.4479561360677083,1.0945178071657815,-1.1322896679242451,-3.974645614624023,1.6893054642966044e+18,0.4566044921875,0.8529714892307917,-1.2353222370147705,-3.798207283020019,,,,,,,,,,,,1.6893054642856315e+18,0.44563173828125,-43.32707824707031,-26.69359931945801,2.8572399616241455,1.6893054642856315e+18,0.44563173828125,-311.6172729492188,66.19719772338867,-139.94375610351562,1.6893054642966044e+18,0.4566044921875,-0.8814236720403036,-0.0999003623922665,0.1845068484544753,0.4221732417742411,0.2593935827414194,-0.3382900555928548,2.2935845851898193
0.45,1.6893054643398607e+18,0.4998606770833333,0.4653002421061198,-4.099247694015503,1.4818130731582642,1.6893054643398615e+18,0.499861572265625,10.164112567901611,-1.2882359027862549,-0.7256234809756279,1.6893054643398615e+18,0.499861572265625,9.350571155548096,2.224961519241333,-1.9570037722587583,1.6893054643398607e+18,0.4998606770833333,-0.0671442722280819,-0.5746714919805527,-1.882941206296285,1.6893054643398615e+18,0.499861572265625,-0.0868955813348292,-0.592081144452095,-1.8112918138504028,,,,,,,,,,,,1.6893054643358817e+18,0.49588173828125,-46.784558868408205,-19.710319137573244,-0.1073599979281425,1.6893054643358817e+18,0.49588173828125,-315.0747497558594,73.18047790527343,-142.90836181640626,1.6893054643398615e+18,0.499861572265625,-0.8880596160888672,-0.0586522128432988,0.1414001509547233,0.4334245324134826,0.2071751877665519,-0.2287433519959449,2.2574163675308228
0.5,1.6893054643917637e+18,0.5517635091145833,-2.558147589365641,-3.763033310572306,0.9762439727783204,1.6893054643831124e+18,0.5431123860677084,7.18923552831014,-2.2195424238840737,-1.121835033098857,1.6893054643831124e+18,0.5431123860677084,9.47649383544922,1.604265610376994,-1.952462116877238,1.6893054643917637e+18,0.5517635091145833,-0.0374154945214589,0.382045308748881,-1.69148584206899,1.6893054643831124e+18,0.5431123860677084,0.0241291777541239,0.2525927790751059,-1.5516995191574097,,,,,,,,,,,,1.6893054643861317e+18,0.546131494140625,-48.61211929321289,-15.823399353027344,-0.3757599920034408,1.6893054643861317e+18,0.546131494140625,-316.9023132324219,77.06739654541016,-143.1767578125,1.6893054643831124e+18,0.5431123860677084,-0.8895211021105448,-0.0294750481843947,0.126811772584915,0.4378045101960499,0.2040093988180159,-0.1642434795697529,2.2436596552530923
0.55,1.6893054644436657e+18,0.6036656901041667,-1.81161371866862,-3.0170276165008545,-0.90768035252889,1.689305464435015e+18,0.5950150553385417,7.238687356313069,-2.3994028568267822,-2.9513473510742188,1.689305464435015e+18,0.5950150553385417,9.505745887756348,0.3811178207397461,-2.339152971903483,1.6893054644436657e+18,0.6036656901041667,-1.108873148759206,1.266578157742818,-3.3443853855133057,1.689305464435015e+18,0.5950150553385417,-0.9390525817871094,1.1243484020233154,-3.082527875900269,,,,,,,,,,,,1.6893054644363817e+18,0.596381494140625,-49.932158660888675,-10.3651198387146,1.31027999073267,1.6893054644363817e+18,0.596381494140625,-318.22235107421875,82.52567901611329,-141.4907196044922,1.689305464435015e+18,0.5950150553385417,-0.8920599023501078,0.0352285060410697,0.1170757934451102,0.4342847069104512,0.2420767347017924,-0.0388406521330277,2.239771525065104
0.6,1.6893054644955656e+18,0.6555654296875,1.0966965357462566,-2.767638603846232,-3.478963295618693,1.6893054644869158e+18,0.6469156087239584,9.709675470987955,-4.350151538848877,-6.276174386342366,1.6893054644869158e+18,0.6469156087239584,9.16787306467692,-1.5305278499921162,-3.083944797515869,1.6893054644955656e+18,0.6555654296875,-1.6794212659200032,2.2322543462117515,-3.264565706253052,1.6893054644869158e+18,0.6469156087239584,-1.58371905485789,2.018858790397644,-3.400737762451172,,,,,,,,,,,,1.6893054644866317e+18,0.6466314941406249,-50.69099884033203,-1.8153599470853805,6.034119987487793,1.6893054644866317e+18,0.6466314941406249,-318.98118896484374,91.0754379272461,-136.76687622070312,1.6893054644869158e+18,0.6469156087239584,-0.8944998184839884,0.1388630966345469,0.1130368361870447,0.4085477789243062,0.3255615035692851,0.1569441805283228,2.258176406224569
0.65,1.689305464547472e+18,0.7074720052083334,2.4286769231160483,-0.9826610088348388,-5.402585506439209,1.6893054645388204e+18,0.6988202311197917,10.754342079162598,-4.306083679199219,-9.536993344624838,1.6893054645388204e+18,0.6988202311197917,8.219820499420166,-3.3136260509490967,-4.146836042404175,1.689305464547472e+18,0.7074720052083334,-2.540181318918864,3.996382236480713,-2.958522160847982,1.6893054645388204e+18,0.6988202311197917,-2.416226545969645,3.725107034047445,-2.961321989695231,,,,,,,,,,,,1.6893054645368817e+18,0.696881494140625,-48.902478790283205,6.556279897689819,12.300039672851565,1.6893054645368817e+18,0.696881494140625,-317.19267578125,99.44707794189452,-130.5009567260742,1.6893054645388204e+18,0.6988202311197917,-0.8898820281028748,0.2457705636819203,0.1404247532288233,0.3556131621201833,0.4690880874792735,0.3451798458894093,2.296764294306437
0.7,1.6893054645907164e+18,0.7507164306640625,0.6841199398040771,-1.0471763610839844,-6.170700550079346,1.689305464590718e+18,0.7507180175781251,7.297909736633301,-5.881757418314616,-11.493325551350912,1.689305464590718e+18,0.7507180175781251,6.646177291870117,-5.012460549672444,-5.157350063323975,1.6893054645907164e+18,0.7507164306640625,-2.366186499595642,3.6111299991607666,-2.498744249343872,1.689305464590718e+18,0.7507180175781251,-2.3385448455810547,3.599727153778076,-2.405943671862284,,,,,,,,,,,,1.6893054645871314e+18,0.7471314941406251,-44.25427932739258,14.688799476623537,20.14463996887207,1.6893054645871314e+18,0.7471314941406251,-312.5444763183594,107.57959899902345,-122.65635681152344,1.689305464590718e+18,0.7507180175781251,-0.872175951798757,0.3533871471881866,0.1896219899257024,0.2781619131565094,0.6620750625928243,0.5370431939760844,2.334620396296183
0.75,1.6893054646339768e+18,0.7939770507812499,0.8550360997517904,-0.5772868792215983,-6.353723843892415,1.6893054646426202e+18,0.8026202799479166,6.468198458353679,-6.052445570627849,-11.989636739095053,1.6893054646426202e+18,0.8026202799479166,5.53908125559489,-5.940923849741618,-5.492522080739339,1.6893054646339768e+18,0.7939770507812499,-1.4312063852945964,2.1889847119649253,-1.1013900240262349,1.6893054646426202e+18,0.8026202799479166,-1.3044517834981282,2.11506994565328,-1.0266608397165935,1.68930546466e+18,0.82,0.0,0.0,0.9919047951698304,12.539999961853027,0.0,0.0,38.199385646071306,-122.7531548,49.1904055,1.6893054646373816e+18,0.79738154296875,-38.96923904418945,20.449639892578126,24.49272003173828,1.6893054646373816e+18,0.79738154296875,-307.2594360351562,113.34043731689454,-118.3082763671875,1.6893054646426202e+18,0.8026202799479166,-0.8556380470593771,0.4113650520642598,0.2204528699318567,0.2229937811692555,0.7826487421989441,0.6508593161900839,2.354766766230265
0.8,1.6893054646858783e+18,0.845878173828125,0.4224928220113118,0.344635009765625,-5.2652214368184405,1.6893054646945288e+18,0.8545288899739584,4.620739936828613,-5.874379634857178,-10.883554458618164,1.6893054646945288e+18,0.8545288899739584,4.584233125050862,-6.4817525545756025,-5.755210717519124,1.6893054646858783e+18,0.845878173828125,-0.7570147514343262,2.0793343782424927,-1.0930415391921997,1.6893054646945288e+18,0.8545288899739584,-0.6394231915473938,1.9709567228953044,-1.091056227684021,,,,,,,,,,,,1.6893054646876316e+18,0.84763154296875,-35.365359497070315,23.348359680175783,27.22307891845703,1.6893054646876316e+18,0.84763154296875,-303.6555541992187,116.2391571044922,-115.57791748046876,1.6893054646945288e+18,0.8545288899739584,-0.8357951243718466,0.4512121081352234,0.2508672873179118,0.1861634900172551,0.8997119069099426,0.722045918305715,2.3422587712605796
0.85,1.68930546473778e+18,0.8977800292968751,0.2708496252695719,1.381712754567464,-3.254108746846517,1.6893054647464312e+18,0.9064309895833332,4.344368855158488,-5.023332277933757,-9.109077135721842,1.6893054647464312e+18,0.9064309895833332,3.8446367581685386,-6.752886931101481,-5.985689163208008,1.68930546473778e+18,0.8977800292968751,0.0217366193731625,0.957582155863444,-0.9875654578208924,1.6893054647464312e+18,0.9064309895833332,0.1296561459700266,0.790408710638682,-0.9288206100463868,,,,,,,,,,,,1.6893054647378816e+18,0.8978815429687501,-31.51015968322754,25.546799850463863,29.602079391479492,1.6893054647378816e+18,0.8978815429687501,-299.80034790039065,118.43759613037108,-113.19891662597657,1.6893054647464312e+18,0.9064309895833332,-0.8156019647916158,0.4801353911558787,0.2717197239398956,0.1742567420005797,1.0010552803675334,0.7593498428662618,2.290687084197998
0.9,1.6893054647896837e+18,0.9496837565104168,5.274357318878174,3.838290770848592,-0.8325544993082682,1.6893054647896763e+18,0.9496766357421876,8.32253646850586,-3.0406793355941772,-7.3298139572143555,1.6893054647896763e+18,0.9496766357421876,3.494080066680908,-6.784795522689819,-6.163496971130371,1.6893054647896837e+18,0.9496837565104168,0.0411315858364105,1.0990484058856964,-0.1454368233680725,1.6893054647896763e+18,0.9496766357421876,0.1612684214487671,0.8975901305675507,-0.2740494254976511,,,,,,,,,,,,1.6893054647881313e+18,0.94813154296875,-29.467879486083984,26.19339942932129,30.985559463500977,1.6893054647881313e+18,0.94813154296875,-297.75806884765626,119.08419799804688,-111.81543884277345,1.6893054647896763e+18,0.9496766357421876,-0.8042981326580048,0.4918524771928787,0.2834532856941223,0.175558641552925,1.0561954975128174,0.7638027966022491,2.251499652862549
0.95,1.6893054648415798e+18,1.0015799967447918,0.0011526743570962,0.9565409819285072,-1.4669445355733235,1.6893054648329367e+18,0.9929367675781248,4.7286161581675215,-4.570490558942159,-7.516653537750244,1.6893054648329367e+18,0.9929367675781248,3.164823691050211,-6.8261590003967285,-6.29403289159139,1.6893054648415798e+18,1.0015799967447918,-0.5980879813432693,1.8750508626302085,0.8944594462712606,1.6893054648329367e+18,0.9929367675781248,-0.688597838083903,2.113288323084513,0.952847977479299,,,,,,,,,,,,1.6893054648383816e+18,0.99838154296875,-27.30359916687012,26.33979911804199,32.99611930847168,1.6893054648383816e+18,0.99838154296875,-295.5937927246094,119.23059692382812,-109.80487823486328,1.6893054648329367e+18,0.9929367675781248,-0.8006778756777445,0.4895964960257212,0.3150580724080403,0.14024052520593,1.106044848759969,0.7697038054466248,2.3048648039499917
1.0,1.689305464893488e+18,1.0534878743489584,-0.722324808438619,-0.078188419342041,-0.8970855077107748,1.6893054648848366e+18,1.0448367513020835,1.7752749919891355,-7.031508763631185,-7.763114293416341,1.6893054648848366e+18,1.0448367513020835,2.9852518240610757,-6.786574522654216,-6.423597017923991,1.689305464893488e+18,1.0534878743489584,0.2712241659561792,0.4960225820541382,0.2147191328306992,1.6893054648848366e+18,1.0448367513020835,0.1921171161035697,0.6260859767595927,0.3145446901520093,,,,,,,,,,,,1.6893054648886316e+18,1.0486315429687498,-26.5691593170166,25.59315948486328,34.4186393737793,1.6893054648886316e+18,1.0486315429687498,-294.85935668945314,118.48395690917968,-108.38235778808594,1.6893054648848366e+18,1.0448367513020835,-0.7988282243410746,0.4826997419198354,0.3394310573736827,0.1167920976877212,1.136840303738912,0.7641452749570211,2.3487861156463623
1.05,1.6893054649453957e+18,1.1053955891927083,-0.5418851375579834,-0.703828493754069,0.8134193420410156,1.6893054649367327e+18,1.0967328287760416,2.772683262825012,-6.8791656494140625,-6.052046616872151,1.6893054649367327e+18,1.0967328287760416,2.854546308517456,-6.678074200948079,-6.594353357950847,1.6893054649453957e+18,1.1053955891927083,0.2783000220855077,0.6303620338439941,0.1300124898552894,1.6893054649367327e+18,1.0967328287760416,0.2432261804739633,0.6121887862682343,0.0992146969462434,,,,,,,,,,,,1.6893054649388815e+18,1.09888154296875,-26.125079727172853,24.93435935974121,35.016439056396486,1.6893054649388815e+18,1.09888154296875,-294.4152770996094,117.82515716552734,-107.78455963134766,1.6893054649367327e+18,1.0967328287760416,-0.7948605418205261,0.479545384645462,0.35342538356781,0.115311729411284,1.1633352438608806,0.7489295999209086,2.34769074122111
1.1,1.689305464997285e+18,1.1572851562500002,-1.5761189858118694,-0.3570257822672526,1.3133764266967771,1.689305464988644e+18,1.1486438802083334,0.661416053151091,-7.067600568135579,-5.702096303304036,1.689305464988644e+18,1.1486438802083334,2.7595013777414956,-6.4832444190979,-6.8248066902160645,1.689305464997285e+18,1.1572851562500002,0.6724099119504293,0.2098322163025538,0.2063197344541549,1.689305464988644e+18,1.1486438802083334,0.6697628299395243,0.2282599806785583,0.2034181257088979,,,,,,,,,,,,1.6893054649891315e+18,1.14913154296875,-25.30279960632324,24.043759536743163,36.27791900634766,1.6893054649891315e+18,1.14913154296875,-293.5929931640625,116.93455810546877,-106.52307891845705,1.689305464988644e+18,1.1486438802083334,-0.7913743654886881,0.4727699955304463,0.3690662483374278,0.1182252466678619,1.1875940561294556,0.7221872409184774,2.345768769582113
1.15,1.6893054650405463e+18,1.2005462646484375,-1.4578636288642883,0.9231028556823728,0.5025207996368408,1.6893054650405458e+18,1.2005457356770834,0.9547362526257832,-5.221936543782552,-6.664808591206868,1.6893054650405458e+18,1.2005457356770834,2.663635492324829,-6.262551943461101,-7.0648345947265625,1.6893054650405463e+18,1.2005462646484375,0.3959933966398239,0.7009678781032562,0.1236238535493611,1.6893054650405458e+18,1.2005457356770834,0.4153374632199605,0.6292421122392019,0.0949386383096377,,,,,,,,,,,,1.6893054650393815e+18,1.199381591796875,-24.52444000244141,22.7139591217041,37.47839965820312,1.6893054650393815e+18,1.199381591796875,-292.81463623046875,115.6047576904297,-105.32259826660156,1.6893054650405458e+18,1.2005457356770834,-0.7876180013020834,0.4652341703573863,0.3849101563294728,0.1225802848736444,1.21123468875885,0.6925552288691202,2.343178987503052
1.2,1.6893054650837985e+18,1.2437986653645832,-2.140767733256022,1.143306891123454,-0.0322723388671875,1.6893054650924475e+18,1.2524475097656251,0.4993023127317428,-4.8009993235270185,-7.409375349680583,1.6893054650924475e+18,1.2524475097656251,2.378187815348307,-6.15744145711263,-7.256476402282715,1.6893054650837985e+18,1.2437986653645832,0.3688098887602488,0.424653152624766,-0.4405865619579951,1.6893054650924475e+18,1.2524475097656251,0.3566943903764089,0.4039855500062306,-0.4711807270844777,,,,,,,,,,,,1.6893054650895355e+18,1.24953564453125,-23.41667938232422,21.981959915161134,38.73255920410156,1.6893054650895355e+18,1.24953564453125,-291.7068725585938,114.87275848388671,-104.06843872070311,1.6893054650924475e+18,1.2524475097656251,-0.7776361703872681,0.4687782029310862,0.3992651005585988,0.1268382643659909,1.255094329516093,0.678682823975881,2.31686798731486
1.25,1.6893054651356972e+18,1.295697021484375,0.4314573605855306,1.7847475210825603,0.1301089922587076,1.689305465144345e+18,1.304345458984375,2.3758734862009683,-3.989034732182821,-7.436294396718343,1.689305465144345e+18,1.304345458984375,2.0824540058771768,-6.082887967427571,-7.4086995124816895,1.6893054651356972e+18,1.295697021484375,0.2478076666593551,0.6114252010981241,-0.1881464968125025,1.689305465144345e+18,1.304345458984375,0.2385937869548797,0.6456336577733358,-0.1622356250882148,,,,,,,,,,,,1.6893054651395348e+18,1.299534765625,-21.930719757080077,21.898999404907222,39.52067947387695,1.6893054651395348e+18,1.299534765625,-290.2209106445313,114.78979797363282,-103.28031616210936,1.689305465144345e+18,1.304345458984375,-0.7674884796142578,0.4734526673952738,0.412403533856074,0.1292284429073333,1.2977768977483113,0.6689397295316061,2.2925262451171875
1.3,1.6893054651876045e+18,1.3476043294270834,0.1734397411346435,1.9497305552164712,-0.7667349179585775,1.6893054651962483e+18,1.3562482096354167,1.8943179448445635,-3.999802509943644,-8.51545778910319,1.6893054651962483e+18,1.3562482096354167,1.897905747095744,-5.977096080780029,-7.543592611948649,1.6893054651876045e+18,1.3476043294270834,0.3017165263493855,0.27519479378437,0.0060068412373463,1.6893054651962483e+18,1.3562482096354167,0.2987640102704366,0.1697187287112077,0.0934623777866363,,,,,,,,,,,,1.6893054651895365e+18,1.349536181640625,-20.8302791595459,21.32559928894043,40.44055862426758,1.6893054651895365e+18,1.349536181640625,-289.1204772949219,114.21639862060547,-102.36043853759766,1.6893054651962483e+18,1.3562482096354167,-0.7611441810925802,0.4729603926340739,0.4242203632990519,0.1303747395674387,1.3253257671991985,0.6552670995394388,2.2837729454040527
1.35,1.6893054652395036e+18,1.3995035807291665,0.3157631556193034,1.2002655665079751,-0.9871044158935548,1.6893054652395018e+18,1.399501953125,2.2022942304611206,-4.578965425491333,-8.717650890350342,1.6893054652395018e+18,1.399501953125,1.9342169165611267,-5.890555381774902,-7.602378845214844,1.6893054652395036e+18,1.3995035807291665,0.0775798844794432,0.1585704361399015,0.2388483087221781,1.6893054652395018e+18,1.399501953125,0.0714712347835301,0.1727985031902789,0.2258674204349517,,,,,,,,,,,,1.6893054652395364e+18,1.399536279296875,-20.75219955444336,20.796119689941406,40.78459854125977,1.6893054652395364e+18,1.399536279296875,-289.0423950195312,113.68692016601562,-102.01639709472656,1.6893054652395018e+18,1.399501953125,-0.762261837720871,0.4674685895442962,0.4281131625175475,0.1309470832347869,1.3226535320281982,0.6441866457462311,2.2931512594223022
1.4,1.6893054652913992e+18,1.451399169921875,-0.0582639376322428,0.3486437797546386,-1.6168222427368164,1.6893054652827574e+18,1.4427572428385416,1.5898312330245972,-5.2263234456380205,-9.203593254089355,1.6893054652827574e+18,1.4427572428385416,1.891225258509318,-5.879583994547526,-7.62165371576945,1.6893054652913992e+18,1.451399169921875,0.0130317943791548,0.4176282087961833,0.3511966069539388,1.6893054652827574e+18,1.4427572428385416,-0.0441350142161051,0.396095206340154,0.3290527462959289,,,,,,,,,,,,1.6893054652895416e+18,1.4495416015625,-20.25199966430664,20.469160079956055,41.09935836791992,1.6893054652895416e+18,1.4495416015625,-288.5421875,113.35995941162108,-101.7016387939453,1.6893054652827574e+18,1.4427572428385416,-0.7619790633519491,0.4640322724978129,0.4343576828638713,0.1240202859044074,1.328558365503947,0.64280104637146,2.3088757197062173
1.45,1.6893054653433126e+18,1.5033124999999998,-0.9145653247833252,-0.3491913477579753,-1.7924291292826335,1.6893054653346614e+18,1.4946616210937502,0.745563647399346,-6.0000027020772295,-9.90150006612142,1.6893054653346614e+18,1.4946616210937502,1.840070128440857,-5.710864067077637,-7.760334014892578,1.6893054653433126e+18,1.5033124999999998,0.7461209893226624,0.3138320197661717,0.2649627923965453,1.6893054653346614e+18,1.4946616210937502,0.6681847472985586,0.3203988224267959,0.2713259806235631,,,,,,,,,,,,1.68930546533954e+18,1.4995400878906249,-20.32031974792481,19.807920074462892,41.24331970214844,1.68930546533954e+18,1.4995400878906249,-288.6105163574219,112.69871673583984,-101.55767669677736,1.6893054653346614e+18,1.4946616210937502,-0.7604816555976868,0.4549128413200378,0.4468020300070445,0.1226911122600237,1.3389253218968709,0.6215431094169617,2.32389227549235
1.5,1.6893054653952143e+18,1.5552145182291668,-1.5610864758491516,-0.3151652018229167,-1.1855414708455403,1.689305465386563e+18,1.5465632324218752,0.1812563041845958,-5.3054860432942705,-9.245866775512695,1.689305465386563e+18,1.5465632324218752,1.799362381299337,-5.3410647710164385,-8.028178373972574,1.6893054653952143e+18,1.5552145182291668,1.01826145251592,0.1411098738511403,0.2981531421343485,1.689305465386563e+18,1.5465632324218752,0.9136508107185364,0.2467386449376742,0.3730350534121195,,,,,,,,,,,,1.6893054653895414e+18,1.54954130859375,-19.544400024414063,17.546039581298828,42.882999420166016,1.6893054653895414e+18,1.54954130859375,-287.8345886230469,110.43683624267578,-99.91799926757812,1.689305465386563e+18,1.5465632324218752,-0.7577340006828308,0.4395627776781717,0.4641337394714355,0.1309487372636795,1.3512338002522786,0.5759361584981283,2.3332022031148276
1.55,1.6893054654471094e+18,1.607109130859375,-1.2270245552062988,-0.2200280825297037,-0.1944510142008463,1.689305465438466e+18,1.5984659830729169,0.5649055341879526,-4.999204635620117,-8.874580383300781,1.689305465438466e+18,1.5984659830729169,1.8133126894632976,-4.787994384765625,-8.365467389424643,1.6893054654471094e+18,1.607109130859375,1.4818572998046875,0.1023708335123955,0.1326595731079578,1.689305465438466e+18,1.5984659830729169,1.4457652966181438,0.087201011677583,0.1301652019222577,,,,,,,,,,,,1.689305465439535e+18,1.5995351074218749,-19.82011985778809,14.552159690856934,43.62231903076171,1.689305465439535e+18,1.5995351074218749,-288.1103149414063,107.44295654296874,-99.17867736816406,1.689305465438466e+18,1.5984659830729169,-0.7541132171948751,0.4209399123986561,0.4803279240926106,0.1526380230983098,1.358198602994283,0.510130782922109,2.3273255825042725
1.6,1.6893054654903706e+18,1.65037060546875,-1.213687777519226,0.7369874715805054,1.4672811031341553,1.6893054654903652e+18,1.6503651529947916,0.4243272095918655,-3.4307095209757485,-7.339185873667399,1.6893054654903652e+18,1.6503651529947916,1.8117278814315796,-4.158967097600301,-8.696718533833822,1.6893054654903706e+18,1.65037060546875,1.199662983417511,-0.0284815914928912,0.0339030208997428,1.6893054654903652e+18,1.6503651529947916,1.2136874397595725,-0.0160352125143011,0.0323249539360403,,,,,,,,,,,,1.6893054654895342e+18,1.6495341796875,-19.912839889526367,11.450919723510742,44.7739990234375,1.6893054654895342e+18,1.6495341796875,-288.20302734375,104.34171752929689,-98.0269989013672,1.6893054654903652e+18,1.6503651529947916,-0.7482523322105408,0.4021056493123372,0.4963165521621704,0.1789856354395548,1.3662662506103516,0.4379808704058329,2.313636620839437
1.65,1.6893054655336215e+18,1.693621826171875,-0.592322051525116,0.830597718556722,1.703842004140218,1.6893054655422702e+18,1.7022704264322917,1.1276176969210308,-2.647658268610636,-7.280761082967122,1.6893054655422702e+18,1.7022704264322917,1.8484150568644209,-3.766539017359415,-8.867090225219727,1.6893054655336215e+18,1.693621826171875,0.7366525729497274,-0.1048651983340581,0.0068722354869047,1.6893054655422702e+18,1.7022704264322917,0.6621779203414917,-0.1430442780256271,-0.0231110683331886,,,,,,,,,,,,1.6893054655395346e+18,1.69953466796875,-20.247119903564453,9.411079597473144,45.318119049072266,1.6893054655395346e+18,1.69953466796875,-288.5373168945313,102.3018783569336,-97.48287811279296,1.6893054655422702e+18,1.7022704264322917,-0.7452601393063863,0.3901630342006683,0.5039263963699341,0.1959502895673116,1.3661298354466755,0.394197016954422,2.305191993713379
1.7,1.6893054655855268e+18,1.7455267740885416,-0.8945167064666748,0.7840116818745931,1.2814327875773113,1.689305465594168e+18,1.754167724609375,0.8019943833351135,-2.8344977696736655,-7.632107098897298,1.689305465594168e+18,1.754167724609375,1.912207007408142,-3.6155595779418945,-8.916680018107096,1.6893054655855268e+18,1.7455267740885416,0.2337068667014439,-0.2157881533106167,-0.2500984172026316,1.689305465594168e+18,1.754167724609375,0.1443169166644413,-0.1629483078916866,-0.3019201507170995,,,,,,,,,,,,1.6893054655895383e+18,1.7495384277343748,-20.461839294433595,8.918199729919433,45.36935958862305,1.6893054655895383e+18,1.7495384277343748,-288.7520385742188,101.80899810791016,-97.4316390991211,1.689305465594168e+18,1.754167724609375,-0.744312564531962,0.3877711991469065,0.502545972665151,0.2075388133525848,1.3603792190551758,0.3775592148303985,2.2910497983296714
1.75,1.689305465637427e+18,1.7974267578124998,-1.1684585412343342,0.2407493591308593,1.1191864013671875,1.6893054656460687e+18,1.806068603515625,0.5433701525131861,-3.265804131825765,-7.985846042633057,1.6893054656460687e+18,1.806068603515625,1.8900842666625977,-3.7290163040161137,-8.874248822530111,1.689305465637427e+18,1.7974267578124998,-0.2660827189683914,-0.2059124919275442,-0.5053382615248362,1.6893054656460687e+18,1.806068603515625,-0.3579670290152232,-0.3046181313693523,-0.5210171540578207,,,,,,,,,,,,1.6893054656395392e+18,1.7995391113281252,-20.618000030517575,9.45011978149414,45.21563873291016,1.6893054656395392e+18,1.7995391113281252,-288.90819091796874,102.34091796875,-97.58535766601562,1.6893054656460687e+18,1.806068603515625,-0.7422447999318441,0.3978257775306701,0.4957353373368581,0.2121876825888951,1.3617762724558513,0.3900234103202819,2.267369270324707
1.8,1.6893054656893228e+18,1.8493229166666667,-1.219187339146932,1.1621938546498616,0.5789270401000977,1.6893054656893302e+18,1.849330322265625,0.5605187118053436,-2.554936408996582,-8.324929237365723,1.6893054656893302e+18,1.849330322265625,2.007834255695343,-4.045335531234741,-8.707923412322998,1.6893054656893228e+18,1.8493229166666667,-0.9960157871246338,-0.7743735114733378,-0.7557421326637268,1.6893054656893302e+18,1.849330322265625,-0.9913579523563384,-0.7317402064800262,-0.738917887210846,,,,,,,,,,,,1.689305465689538e+18,1.849537841796875,-20.88883934020996,11.294759941101074,44.471438598632815,1.689305465689538e+18,1.849537841796875,-289.1790283203125,104.18555908203123,-98.32955780029296,1.6893054656893302e+18,1.849330322265625,-0.7461543679237366,0.4124080538749695,0.4774120599031448,0.2126216366887092,1.345011055469513,0.4251427054405212,2.245996594429016
1.85,1.6893054657412288e+18,1.9012285970052083,-1.1372615496317546,-1.2976160844167073,1.684740384419759,1.68930546573258e+18,1.8925801595052083,1.019143025080363,-5.159324407577515,-6.5443698565165205,1.68930546573258e+18,1.8925801595052083,2.254628817240397,-4.68593962987264,-8.312014897664389,1.6893054657412288e+18,1.9012285970052083,-1.728748639424642,-1.5836681524912517,-1.3139711618423462,1.68930546573258e+18,1.8925801595052083,-1.680541197458903,-1.5395331382751465,-1.262454827626546,,,,,,,,,,,,1.689305465739537e+18,1.899536865234375,-22.731039428710936,15.476919555664065,42.05339889526367,1.689305465739537e+18,1.899536865234375,-291.0212341308594,108.36771697998049,-100.74759826660156,1.68930546573258e+18,1.8925801595052083,-0.7549417416254679,0.4390111168225606,0.4385822514692942,0.2111598700284958,1.306522806485494,0.4982726275920868,2.211784283320109
1.9,1.6893054657931346e+18,1.9531343587239585,-1.5667293071746826,-1.7976361910502117,-1.7045447031656902,1.6893054657844808e+18,1.944480794270833,0.4077768425146739,-7.314858754475911,-9.074779828389486,1.6893054657844808e+18,1.944480794270833,2.5123067696889243,-5.538045883178711,-7.693404833475749,1.6893054657931346e+18,1.9531343587239585,-1.4542156060536702,-1.0545570651690166,-1.0583240389823914,1.6893054657844808e+18,1.944480794270833,-1.5241088072458904,-1.1882347265879314,-1.0972666939099631,,,,,,,,,,,,1.6893054657895388e+18,1.9495389160156251,-24.66839904785156,20.203199768066405,38.917999267578125,1.6893054657895388e+18,1.9495389160156251,-292.95859375,113.09399871826172,-103.88299865722657,1.6893054657844808e+18,1.944480794270833,-0.7644346157709757,0.4738416274388631,0.3841455181439717,0.2081255167722701,1.2559103568394978,0.6000754038492838,2.1682191689809165
1.95,1.68930546584503e+18,2.0050302734375,-0.2547230323155721,0.1962989171346028,-1.8874735832214355,1.6893054658363825e+18,1.9963826497395831,2.435893416404724,-6.2983078956604,-9.584849993387856,1.6893054658363825e+18,1.9963826497395831,2.292504072189331,-6.166738669077556,-7.272406895955403,1.68930546584503e+18,2.0050302734375,-1.0038552085558574,0.6419175565242767,-1.387274980545044,1.6893054658363825e+18,1.9963826497395831,-1.0269662737846377,0.4180863400300343,-1.3705271085103352,,,,,,,,,,,,1.6893054658395315e+18,1.99953154296875,-24.1023193359375,23.875399780273437,36.88303985595703,1.6893054658395315e+18,1.99953154296875,-292.39251708984375,116.76619873046874,-105.91795806884764,1.6893054658363825e+18,1.9963826497395831,-0.7594049572944641,0.5071956813335419,0.3551641007264455,0.199348047375679,1.2667518456776936,0.6798850297927856,2.119638999303182
2.0,1.6893054658969372e+18,2.0569371744791667,-1.2839564482371013,-0.393770694732666,-0.1054884592692056,1.6893054658882888e+18,2.0482889811197915,0.1280160148938497,-6.595018068949382,-7.505486965179443,1.6893054658882888e+18,2.0482889811197915,1.6603859663009644,-6.674522717793782,-6.992074648539226,1.6893054658969372e+18,2.0569371744791667,-1.2774210373560588,0.5423974295457205,-0.4610505402088165,1.6893054658882888e+18,2.0482889811197915,-1.21918523311615,0.6352998614311218,-0.636979748805364,,,,,,,,,,,,1.6893054658895388e+18,2.049538818359375,-21.29387969970703,27.05471878051758,36.41943893432617,1.6893054658895388e+18,2.049538818359375,-289.5840759277344,119.94552001953124,-106.38155822753906,1.6893054658882888e+18,2.0482889811197915,-0.7432345946629842,0.541637142499288,0.349740982055664,0.1783341566721598,1.3388861020406086,0.7483711838722229,2.067918062210083
2.05,1.6893054659401925e+18,2.1001921386718747,-0.9875500202178956,-0.8446109294891357,0.8636891841888428,1.6893054659401902e+18,2.100190266927083,0.3036890774965285,-8.0151580174764,-5.869594097137451,1.6893054659401902e+18,2.100190266927083,1.472926179567973,-7.173173745473226,-6.525118192036946,1.6893054659401925e+18,2.1001921386718747,-1.3632985353469849,-0.0184023119509219,-0.165697194635868,1.6893054659401902e+18,2.100190266927083,-1.3386093775431316,-0.0286088539287447,-0.1880446846286455,,,,,,,,,,,,1.6893054659395382e+18,2.0995380859375,-20.334960174560543,29.699679946899415,34.82611999511719,1.6893054659395382e+18,2.0995380859375,-288.6251586914062,122.5904769897461,-107.9748779296875,1.6893054659401902e+18,2.100190266927083,-0.7429490288098654,0.5599000453948975,0.3342908819516499,0.150654911994934,1.3498461643854778,0.8202189803123474,2.071803410847982
2.1,1.6893054659834376e+18,2.1434374999999997,-0.8831029931704203,-0.7494735717773438,-0.2338501612345378,1.6893054659920945e+18,2.1520942382812502,0.4849453866481781,-8.00080140431722,-6.669993241628011,1.6893054659920945e+18,2.1520942382812502,1.4494645992914836,-7.553008556365967,-6.088459173838298,1.6893054659834376e+18,2.1434374999999997,-0.9501499931017556,-0.5412775178750356,-0.4587088823318481,1.6893054659920945e+18,2.1520942382812502,-0.8851946592330933,-0.6011423071225485,-0.4725042680899302,,,,,,,,,,,,1.6893054659895414e+18,2.149541259765625,-20.26663932800293,31.81027946472168,32.864359283447264,1.6893054659895414e+18,2.149541259765625,-288.5568420410156,124.70107879638672,-109.93663635253908,1.6893054659920945e+18,2.1520942382812502,-0.7444139719009399,0.5749756097793579,0.3095427552858988,0.139156937599182,1.3381929794947307,0.8787606557210287,2.0602832635243735
2.15,1.6893054660353467e+18,2.1953470052083333,-0.6054796973864237,-0.0559968948364257,-0.3353816668192546,1.689305466043993e+18,2.2039930013020834,0.8145567178726196,-7.733204046885173,-6.236692746480306,1.689305466043993e+18,2.2039930013020834,1.4851601123809814,-7.79040002822876,-5.773326396942139,1.6893054660353467e+18,2.1953470052083333,-0.6021094918251038,-0.6363179683685303,-0.3445789019266764,1.689305466043993e+18,2.2039930013020834,-0.5883650382359823,-0.5849543809890747,-0.2856304049491882,,,,,,,,,,,,1.6893054660395405e+18,2.19954052734375,-20.620439529418945,33.740319061279294,30.783039474487303,1.6893054660395405e+18,2.19954052734375,-288.9106384277344,126.63111877441406,-112.01795959472656,1.689305466043993e+18,2.2039930013020834,-0.7456708947817484,0.5856936375300089,0.2856286466121673,0.138988251487414,1.3201710383097331,0.9175304174423218,2.040836254755656
2.2,1.68930546608725e+18,2.247249837239583,-0.5439035296440125,-0.4685543378194172,-0.4206185340881347,1.6893054660958994e+18,2.2558994140625,0.9080761869748434,-8.266005674997965,-6.054240067799886,1.6893054660958994e+18,2.2558994140625,1.5796618064244587,-7.984268506368001,-5.475642681121826,1.68930546608725e+18,2.247249837239583,-0.6682865818341573,-0.3628539542357127,0.0087557338799039,1.6893054660958994e+18,2.2558994140625,-0.6519459287325541,-0.3428990244865417,0.0523307886905968,,,,,,,,,,,,1.6893054660895347e+18,2.2495346679687502,-21.496399688720704,34.82367935180664,28.699279403686525,1.6893054660895347e+18,2.2495346679687502,-289.7865905761719,127.7144790649414,-114.10171661376953,1.6893054660958994e+18,2.2558994140625,-0.7498897115389506,0.590235710144043,0.2672796448071797,0.1335036804278691,1.29110852877299,0.9507816235224406,2.049476941426595
2.25,1.6893054661391483e+18,2.2991485188802083,-0.8385547399520874,-0.0682716369628905,0.1289545694986978,1.689305466139152e+18,2.2991517333984373,0.6921239495277405,-8.068299055099487,-5.31984281539917,1.689305466139152e+18,2.2991517333984373,1.705553948879242,-8.086411476135254,-5.285402059555054,1.6893054661391483e+18,2.2991485188802083,-0.3809762895107269,-0.4806491235891978,0.1385136966904003,1.689305466139152e+18,2.2991517333984373,-0.3185662329196929,-0.4211915731430053,0.1498147025704383,,,,,,,,,,,,1.689305466139539e+18,2.29953876953125,-22.079559326171875,35.41415939331055,27.69155960083008,1.689305466139539e+18,2.29953876953125,-290.3697509765625,128.3049560546875,-115.10943908691408,1.689305466139152e+18,2.2991517333984373,-0.7547921240329742,0.58999964594841,0.2555607706308365,0.1298939883708953,1.2599494457244873,0.968900740146637,2.067997455596924
2.3,1.6893054661910548e+18,2.3510550130208334,-0.764538049697876,0.0773224830627441,0.1634790102640787,1.6893054661824054e+18,2.342405517578125,0.9569296439488728,-7.900103410085042,-4.887539704640706,1.6893054661824054e+18,2.342405517578125,1.9136706193288169,-8.20296827952067,-5.0259073575337725,1.6893054661910548e+18,2.3510550130208334,-0.684474507967631,-1.5714508295059204,-0.2379829188187916,1.6893054661824054e+18,2.342405517578125,-0.6460917989412943,-1.4016303022702534,-0.1703804942468802,,,,,,,,,,,,1.6893054661895388e+18,2.349538818359375,-23.25807991027832,36.03635940551758,25.598039627075195,1.6893054661895388e+18,2.349538818359375,-291.5482666015625,128.92715759277343,-117.20295715332033,1.6893054661824054e+18,2.342405517578125,-0.7609955668449402,0.590406060218811,0.2325574060281117,0.1344262907902399,1.2079699039459229,0.9903099536895752,2.078632116317749
2.35,1.6893054662429573e+18,2.4029573567708336,-0.3435705900192261,0.5076274871826172,-0.5900368690490723,1.6893054662343035e+18,2.394303548177083,1.9421743949254353,-7.884151299794515,-5.271188894907634,1.6893054662343035e+18,2.394303548177083,2.1925591627756753,-8.384171803792318,-4.595602830251058,1.6893054662429573e+18,2.4029573567708336,-0.6103052695592245,-0.820850153764089,0.0507527217268943,1.6893054662343035e+18,2.394303548177083,-0.6212499539057413,-1.0581204096476238,-0.0251981920252243,,,,,,,,,,,,1.689305466239539e+18,2.399538916015625,-24.309719467163085,36.92695922851563,22.811559677124023,1.689305466239539e+18,2.399538916015625,-292.59991455078125,129.81775512695313,-119.98943634033203,1.6893054662343035e+18,2.394303548177083,-0.768448015054067,0.5924954613049825,0.1935647130012512,0.1446106135845184,1.1268222729365032,1.024874250094096,2.0866928895314536
2.4,1.6893054662948577e+18,2.4548575846354166,-0.4122380415598551,-0.2100146611531575,-0.5706262588500977,1.6893054662862057e+18,2.446205647786458,1.94715944925944,-8.680163383483887,-5.087539831797282,1.6893054662862057e+18,2.446205647786458,2.341568867365519,-8.515209197998047,-4.270487626393636,1.6893054662948577e+18,2.4548575846354166,-0.6571891903877258,0.2346740663051605,0.1876883506774902,1.6893054662862057e+18,2.446205647786458,-0.6726644436518351,0.0731511091192563,0.1880446871121724,,,,,,,,,,,,1.6893054662895386e+18,2.4495386718749996,-25.58339920043945,37.497920227050784,21.176759338378908,1.6893054662895386e+18,2.4495386718749996,-293.87359619140625,130.3887176513672,-121.62423858642578,1.6893054662862057e+18,2.446205647786458,-0.7748095393180847,0.5913423498471578,0.1768659104903538,0.1366567164659499,1.0706053574879963,1.0512068669001262,2.129831155141195
2.45,1.689305466346757e+18,2.5067571614583333,-1.1431745688120525,0.6315410931905112,-0.1770638624827067,1.6893054663381092e+18,2.498108968098958,1.1708879172801971,-7.820741335550944,-4.705485661824544,1.6893054663381092e+18,2.498108968098958,2.2788870334625244,-8.63244597117106,-4.064172267913818,1.689305466346757e+18,2.5067571614583333,-0.5247841477394104,0.5082907875378927,-0.0732020189364751,1.6893054663381092e+18,2.498108968098958,-0.5866342385609945,0.5720752875010172,0.0022398391738533,,,,,,,,,,,,1.6893054663395397e+18,2.49953935546875,-25.28083953857422,37.76875915527344,20.461840057373045,1.6893054663395397e+18,2.49953935546875,-293.57103271484374,130.65955810546876,-122.3391571044922,1.6893054663381092e+18,2.498108968098958,-0.7761557499567667,0.5935009320576986,0.1786685039599735,0.1156777540842692,1.061311682065328,1.0758506854375205,2.1721885999043784
2.5,1.6893054663900152e+18,2.5500152587890623,-3.176079750061035,7.04463529586792,2.268506646156311,1.6893054663900147e+18,2.5500148925781247,1.6099708080291748,-3.639882041762272,-2.3667010068893433,1.6893054663900147e+18,2.5500148925781247,2.0273569027582803,-8.786262512207031,-3.8586272398630777,1.6893054663900152e+18,2.5500152587890623,-0.8148942142724991,0.1515709459781646,-0.6188828647136688,1.6893054663900147e+18,2.5500148925781247,-0.9819149896502496,0.0918334027131398,-0.6145304441452026,,,,,,,,,,,,1.6893054663895388e+18,2.549538818359375,-23.921759796142577,38.766719818115234,20.03971939086914,1.6893054663895388e+18,2.549538818359375,-292.2119506835937,131.65751953125,-122.76127777099607,1.6893054663900147e+18,2.5500148925781247,-0.7700223525365194,0.6046545704205831,0.1769414544105529,0.100229521592458,1.0886104901631672,1.1102548440297444,2.164480447769165
2.55,1.6893054664332628e+18,2.5932631022135415,-1.1046421130498254,-0.849223772684733,0.1735327243804931,1.6893054664419172e+18,2.601917236328125,0.2727817793687185,-10.703095436096191,-2.7846473852793374,1.6893054664419172e+18,2.601917236328125,1.743010401725769,-9.265973726908364,-2.6762287616729736,1.6893054664332628e+18,2.5932631022135415,-2.819499413172404,-0.9976447621981304,-0.8866200049718221,1.6893054664419172e+18,2.601917236328125,-2.800409952799479,-1.0651453733444214,-0.8515970508257548,,,,,,,,,,,,1.689305466439533e+18,2.599533154296875,-22.80423927307129,41.51415939331055,15.313439559936525,1.689305466439533e+18,2.599533154296875,-291.09443359375,134.4049560546875,-127.48755645751952,1.6893054664419172e+18,2.601917236328125,-0.7640305360158285,0.6293585697809855,0.1223710402846336,0.0685183132688204,0.9898191293080648,1.23850413163503,2.2290809949239097
2.6,1.689305466485173e+18,2.6451729329427085,-0.471296489238739,-2.5488710403442383,-1.5472651322682698,1.6893054664938156e+18,2.6538155110677084,0.9621141068637372,-12.00000540415446,-3.387239853541056,1.6893054664938156e+18,2.6538155110677084,1.5652353763580322,-9.552246729532875,-1.5845119953155518,1.689305466485173e+18,2.6451729329427085,-1.629330297311147,-1.126028299331665,-0.5216280122598013,1.6893054664938156e+18,2.6538155110677084,-1.2662218312422435,-0.968679577112198,-0.4538219769795735,,,,,,,,,,,,1.689305466489537e+18,2.64953681640625,-21.80627899169922,43.31975936889648,9.064599800109864,1.689305466489537e+18,2.64953681640625,-290.0964721679687,136.21055603027344,-133.73639831542968,1.6893054664938156e+18,2.6538155110677084,-0.7596385280291239,0.6451533834139506,0.0647520969311396,0.0492304588357606,0.792031983534495,1.3416828314463298,2.3716694513956704
2.65,1.6893054665370693e+18,2.6970694173177083,-0.1974806388219197,0.3101453781127929,-0.7296043634414673,1.6893054665457224e+18,2.7057224121093753,1.3104691902796428,-9.108877817789711,-1.744965930779775,1.6893054665457224e+18,2.7057224121093753,1.3652543624242146,-9.638988176981607,-1.19544118642807,1.6893054665370693e+18,2.6970694173177083,-0.704734871784846,-0.3841833372910817,-0.53516885638237,1.6893054665457224e+18,2.7057224121093753,-0.9086111585299174,-0.357254351178805,-0.5901467303435007,,,,,,,,,,,,1.689305466539537e+18,2.69953671875,-21.28411979675293,44.078600311279295,6.285439777374267,1.689305466539537e+18,2.69953671875,-289.57431640625,136.96939697265626,-136.51555786132812,1.6893054665457224e+18,2.7057224121093753,-0.7531446615854899,0.6548964778582255,0.0419012581308682,0.0451566030581791,0.7194910446802775,1.3847631613413494,2.4174818197886148
2.7,1.689305466588975e+18,2.7489751790364583,-0.1774151325225829,-0.1969216664632161,-0.0589924057324727,1.6893054665976256e+18,2.7576254882812505,1.143569807211558,-9.961719512939451,-1.0707881251970928,1.6893054665976256e+18,2.7576254882812505,1.0954922835032146,-9.732402165730797,-0.5357535183429718,1.689305466588975e+18,2.7489751790364583,-1.30328102906545,-0.1924734612305958,-0.494495411713918,1.6893054665976256e+18,2.7576254882812505,-1.2137383421262105,-0.1556179175774256,-0.4159483214219411,,,,,,,,,,,,1.689305466589536e+18,2.749536083984375,-19.885999298095705,44.74227752685547,3.2915600299835206,1.689305466589536e+18,2.749536083984375,-288.1761901855469,137.6330780029297,-139.50943908691406,1.6893054665976256e+18,2.7576254882812505,-0.7449326117833456,0.6664662957191467,0.0151765760965644,0.0243162078162034,0.4502042233943939,1.4458558956782024,2.678438345591227
2.75,1.6893054666408783e+18,2.8008783365885415,0.2464027404785156,0.151709238688151,-0.722660501797994,1.689305466640873e+18,2.800873046875,1.3375878930091858,-9.600303649902344,-1.1832507848739624,1.689305466640873e+18,2.800873046875,1.025537610054016,-9.754584789276125,-0.172289241105318,1.6893054666408783e+18,2.8008783365885415,-0.7742716868718466,0.7872016727924347,0.0076867211610078,1.689305466640873e+18,2.800873046875,-0.750142514705658,0.8216901123523712,0.0232892371714115,,,,,,,,,,,,1.6893054666395392e+18,2.799539208984375,-19.402879333496095,45.3034782409668,0.8808399677276612,1.6893054666395392e+18,2.799539208984375,-287.6930725097656,138.19427795410155,-141.92015380859374,1.689305466640873e+18,2.800873046875,-0.7429086565971375,0.6693109273910522,0.0065638464875519,0.0061296391650102,0.1708968430757522,1.4649654030799866,2.97131085395813
2.8,1.6893054666927762e+18,2.852776123046875,-1.4687095483144124,-0.3765223821004231,0.0532481471697489,1.6893054666841306e+18,2.8441305338541665,-0.2869393105308215,-9.735398292541504,-0.0081754823525746,1.6893054666841306e+18,2.8441305338541665,1.0726604461669922,-9.75020694732666,0.1024090160305301,1.6893054666927762e+18,2.852776123046875,-0.7352781295776367,1.1545862356821697,0.0699440718938907,1.6893054666841306e+18,2.8441305338541665,-0.780940314133962,1.210989475250244,0.1072068512439727,,,,,,,,,,,,1.6893054666895409e+18,2.849540966796875,-19.595639419555663,45.059478759765625,0.2147199958562851,1.6893054666895409e+18,2.849540966796875,-287.8858337402344,137.95027770996094,-142.58627319335938,1.6893054666841306e+18,2.8441305338541665,0.7441022197405497,-0.66737961769104,-0.0150621812790631,0.0243507067983348,-0.0908307482798894,1.460979739824931,-2.994929472605387
2.85,1.6893054667446835e+18,2.904683512369792,-1.290954311688741,-1.1303892135620115,-0.5832311511039734,1.689305466736027e+18,2.8960268554687496,-0.4081756522258122,-11.165708223978678,-0.3720839172601699,1.689305466736027e+18,2.8960268554687496,1.0021738012631731,-9.754095077514648,0.2912471890449524,1.6893054667446835e+18,2.904683512369792,-0.1608102768659591,0.7894923985004425,-0.5315036773681641,1.689305466736027e+18,2.8960268554687496,-0.2324851341545581,0.9056077202161154,-0.4025092919667561,,,,,,,,,,,,1.689305466739537e+18,2.89953681640625,-19.480959701538087,45.3449592590332,0.295239993929863,1.689305466739537e+18,2.89953681640625,-287.7711608886719,138.23575744628906,-142.5057586669922,1.689305466736027e+18,2.8960268554687496,0.7403173049290975,-0.6696853240331014,-0.0269561391323804,0.0516899389525254,-0.2829073468844096,1.4648593664169312,-2.747248888015747
2.9,1.689305466796589e+18,2.9565891927083334,-1.0938088993231456,-0.6493587493896484,-0.6335980892181396,1.689305466787934e+18,2.947934000651042,-0.3744767587631941,-10.562317848205566,-0.641276478767395,1.689305466787934e+18,2.947934000651042,0.6336425145467123,-9.782888094584148,0.340240329504013,1.689305466796589e+18,2.9565891927083334,-0.1778635910401741,0.5917756954828898,-0.8076147635777792,1.689305466787934e+18,2.947934000651042,-0.2007710461815198,0.5930992364883423,-0.830674926439921,,,,,,,,,,,,1.6893054667895368e+18,2.9495367675781248,-17.58752021789551,45.74755935668945,0.1683599978685379,1.6893054667895368e+18,2.9495367675781248,-285.8777221679687,138.63835754394532,-142.63263854980468,1.689305466787934e+18,2.947934000651042,0.7264570593833923,-0.6830763618151346,-0.0373785682022571,0.0648753022154171,-0.5067358016967773,1.4976751804351809,-2.490025838216146
2.95,1.6893054668398364e+18,2.99983642578125,0.0654745995998382,-0.0980377197265625,-0.2314707934856414,1.6893054668398387e+18,2.9998387858072917,-0.0049850642681121,-9.919047355651855,-0.0827517832318941,1.6893054668398387e+18,2.9998387858072917,0.263534019390742,-9.80059019724528,0.3228179613749186,1.6893054668398364e+18,2.99983642578125,0.1987602785229682,0.1236238554120063,-0.6943247020244598,1.6893054668398387e+18,2.9998387858072917,0.1830050411323706,0.2128865346312523,-0.7043785254160563,,,,,,,,,,,,1.689305466839537e+18,2.999536865234375,-15.69407958984375,46.44295883178711,0.8759599938988686,1.689305466839537e+18,2.999536865234375,-283.98427734375,139.33375244140626,-141.92503662109374,1.6893054668398387e+18,2.9998387858072917,0.7128045757611593,-0.6962170402208964,-0.0463105663657187,0.0708309039473533,-0.9245697061220804,1.5284927686055498,-2.051133950551351
3.0,1.6893054668830917e+18,3.043091389973958,0.8463131785392761,0.2551972071329753,-0.0722449968258539,1.6893054668917425e+18,3.051742431640625,0.6971090038617452,-9.8448699315389,-0.2520439823468526,1.6893054668917425e+18,3.051742431640625,-0.011922472777466,-9.806989669799805,0.2414941142002741,1.6893054668830917e+18,3.043091389973958,0.1052724441202977,0.683863639831543,-0.433561617663751,1.6893054668917425e+18,3.051742431640625,0.0392989963293075,0.861116349697113,-0.240222747127215,,,,,,,,,,,,1.689305466889538e+18,3.049537841796875,-14.127599906921386,46.99439926147461,1.595759963989258,1.689305466889538e+18,3.049537841796875,-282.4177978515625,139.88519592285155,-141.20523681640626,1.6893054668917425e+18,3.051742431640625,0.7022753159205118,-0.7052304148674011,-0.0595811692376931,0.076586902141571,-1.6470266580581665,1.5462522506713867,-1.3016849358876543
3.05,1.689305466934993e+18,3.094993082682292,0.3724084297815959,-1.7087891896565754,-2.1549079418182373,1.6893054669436424e+18,3.103642333984375,-0.5473581353823342,-11.640483856201172,-1.8831514517466228,1.6893054669436424e+18,3.103642333984375,0.07026891844968,-9.80818017323812,0.0757403497894604,1.689305466934993e+18,3.094993082682292,0.491695595284303,3.0596203406651816,0.1190678079922994,1.6893054669436424e+18,3.103642333984375,0.8043568183978399,3.454341093699137,-0.1475239371260007,,,,,,,,,,,,1.6893054669395354e+18,3.0995354492187497,-14.693679809570312,46.606439208984376,3.040240025520325,1.6893054669395354e+18,3.0995354492187497,-282.98387451171874,139.4972351074219,-139.76075439453126,1.6893054669436424e+18,3.103642333984375,0.7002879977226257,-0.6962661941846212,-0.1064838593204816,0.112425573170185,-0.1044234037399292,1.552528699239095,-0.6318090756734213
3.1,1.689305466986889e+18,3.146888834635417,-1.0866899092992146,0.1137361526489257,1.5980804562568665,1.6893054669955464e+18,3.155546549479167,-0.2855435808499654,-9.237691561381022,1.2737792531649272,1.6893054669955464e+18,3.155546549479167,-0.3347269892692566,-9.78667418162028,-0.5748565097649893,1.689305466986889e+18,3.146888834635417,1.289587418238322,1.5724180042743685,-0.7658722698688507,1.6893054669955464e+18,3.155546549479167,0.9691886181632676,1.0760391354560852,-0.4676173329353332,,,,,,,,,,,,1.689305466989539e+18,3.1495391113281253,-12.443999862670898,46.633279418945314,8.195959758758544,1.689305466989539e+18,3.1495391113281253,-280.73419799804685,139.52407531738282,-134.60503845214845,1.6893054669955464e+18,3.155546549479167,0.6823893984158834,-0.6973825693130493,-0.1760644018650054,0.1301758488019307,2.1106032530466714,1.5024315516153972,1.4678109089533489
3.15,1.689305467038798e+18,3.1987982584635417,-0.9044717947642008,0.7801783879597982,0.6123189677794774,1.6893054670474424e+18,3.2074422200520836,-1.921635965506236,-9.240084330240885,-0.166899375617504,1.6893054670474424e+18,3.2074422200520836,-0.2341437687476475,-9.799759229024252,-0.3408041596412658,1.689305467038798e+18,3.1987982584635417,-0.935845583677292,0.3727295994758606,0.3491094807783763,1.6893054670474424e+18,3.2074422200520836,-1.1223122080167134,0.2095776920517285,0.3038545499245325,,,,,,,,,,,,1.689305467039536e+18,3.1995361328125,-11.863279724121094,46.48931884765625,8.791319847106934,1.689305467039536e+18,3.1995361328125,-280.1534729003906,139.38011779785157,-134.00968017578126,1.6893054670474424e+18,3.2074422200520836,0.6824436187744141,-0.6936788360277811,-0.1761702895164489,0.1482078631718953,2.2616469860076904,1.527395526568095,1.34293532371521
3.2,1.6893054670906977e+18,3.2506975911458333,0.4748135407765706,1.7661749521891277,-0.2350928038358687,1.6893054670907008e+18,3.2507006835937498,0.2868396192789078,-7.734500169754028,-0.1411765366792678,1.6893054670907008e+18,3.2507006835937498,-0.2046098709106445,-9.802355289459229,0.2869325354695319,1.6893054670906977e+18,3.2506975911458333,-1.7695238987604778,0.4349360416332881,-0.1977676252524058,1.6893054670907008e+18,3.2507006835937498,-1.774639904499054,0.3904192559421062,-0.1798234637826681,,,,,,,,,,,,1.6893054670895347e+18,3.2495347167968753,-12.224399948120118,46.9773193359375,5.665679836273194,1.6893054670895347e+18,3.2495347167968753,-280.51459350585935,139.8681213378906,-137.13532104492188,1.6893054670907008e+18,3.2507006835937498,0.678202748298645,-0.6977842152118683,-0.1543999835848808,0.1709580048918723,-2.301836609840393,1.533555269241333,-0.3753773272037505
3.25,1.6893054671426007e+18,3.3026006673177086,-2.027232050895691,-1.992502212524414,1.0673467914263408,1.6893054671339543e+18,3.2939544270833334,-1.546561022599538,-10.74835999806722,1.935992916425069,1.6893054671339543e+18,3.2939544270833334,-0.3816614151000976,-9.73129940032959,1.1491023500760396,1.6893054671426007e+18,3.3026006673177086,-1.4869478146235149,1.480075577894847,-0.416202861815691,1.6893054671339543e+18,3.2939544270833334,-1.8251126607259112,1.6455691655476887,-0.5274821470181147,,,,,,,,,,,,1.6893054671395436e+18,3.2995434082031254,-11.733959579467774,47.631238555908205,1.898319971561432,1.6893054671395436e+18,3.2995434082031254,-280.02415161132814,140.52203674316405,-140.90267639160157,1.6893054671339543e+18,3.2939544270833334,0.6570931275685629,-0.7059010068575541,-0.1465745369593302,0.2193316221237181,-1.9042348464330037,1.446776270866394,-0.7127913236618042
3.3,1.689305467194507e+18,3.354506917317708,-1.4604713320732117,-0.086772600809733,-1.5620275338490803,1.6893054671858545e+18,3.3458543294270835,-2.7074787616729736,-10.483354886372885,0.1387837032477061,1.6893054671858545e+18,3.3458543294270835,-0.4277645746866862,-9.698689778645834,1.4089234670003254,1.689305467194507e+18,3.354506917317708,0.3338378469149272,-0.5278384784857432,-0.003512472535173,1.6893054671858545e+18,3.3458543294270835,0.2713768879572549,-0.3755803157885869,0.0258599619070688,,,,,,,,,,,,1.6893054671895368e+18,3.349536767578125,-11.184959983825683,47.65319976806641,0.4147999793291091,1.6893054671895368e+18,3.349536767578125,-279.47515258789065,140.54399719238282,-142.38619689941407,1.6893054671858545e+18,3.3458543294270835,0.6496292551358541,-0.707513431708018,-0.1468151261409123,0.2362776150306065,-1.8704570929209392,1.4199436108271282,-0.7208935618400574
3.35,1.6893054672464123e+18,3.406412516276042,0.4891827503840129,-1.3818257649739585,0.299837052822113,1.689305467237759e+18,3.3977589518229165,-0.344965249300003,-11.450852394104004,1.2492528160413106,1.689305467237759e+18,3.3977589518229165,-0.4839358528455098,-9.734849294026692,1.099425216515859,1.6893054672464123e+18,3.406412516276042,1.1589640776316326,-0.2352340370416641,0.0213802841802438,1.689305467237759e+18,3.3977589518229165,0.9529497722784678,-0.3760384656488895,0.0004581473767757,,,,,,,,,,,,1.6893054672395343e+18,3.3995343750000004,-10.657919692993165,47.66295852661133,1.9178399562835693,1.6893054672395343e+18,3.3995343750000004,-278.94810791015624,140.5537567138672,-140.88316040039064,1.689305467237759e+18,3.3977589518229165,0.6542661587397257,-0.709051271279653,-0.1490611632664998,0.2165414094924926,-1.9974245230356853,1.447615146636963,-0.620153546333313
3.4,1.6893054672896627e+18,3.449662719726563,-0.0485496819019317,0.3568315505981445,-0.0571473687887191,1.6893054672896612e+18,3.4496610514322916,-0.6438686971863111,-9.38664436340332,0.2825524806976318,1.6893054672896612e+18,3.4496610514322916,-0.4892359673976898,-9.787668863932293,0.408153881629308,1.6893054672896627e+18,3.449662719726563,1.3758975863456726,0.7431175708770752,-0.1148426681756973,1.6893054672896612e+18,3.4496610514322916,1.343496282895406,0.7082473635673523,-0.0780380368232726,,,,,,,,,,,,1.689305467289539e+18,3.449539404296875,-11.084919738769532,47.43603973388672,5.148399925231933,1.689305467289539e+18,3.449539404296875,-279.37510986328124,140.32683715820312,-137.65259399414063,1.6893054672896612e+18,3.4496610514322916,0.660022517045339,-0.7022348244984945,-0.1789142191410064,0.1977501412232716,-2.487671693166097,1.5036756992340088,-0.1144034763177235
3.45,1.689305467332914e+18,3.492913818359375,-1.248300313949585,0.8542197545369467,0.3515405803918838,1.6893054673415567e+18,3.5015567220052084,-1.905085603396098,-8.861619313557943,0.2747758030891418,1.6893054673415567e+18,3.5015567220052084,-0.4753860632578532,-9.798155148824057,0.0736176657179991,1.689305467332914e+18,3.492913818359375,0.4007784997423489,0.4939863532781601,0.1066468926146626,1.6893054673415567e+18,3.5015567220052084,0.2040799011786778,0.3520620030661424,0.1557706346114476,,,,,,,,,,,,1.689305467339537e+18,3.49953671875,-10.62131996154785,47.30183868408203,7.500559711456299,1.689305467339537e+18,3.49953671875,-278.91151733398436,140.19263916015626,-135.300439453125,1.6893054673415567e+18,3.5015567220052084,0.6606619755427042,-0.6954723199208578,-0.2021508862574894,0.1974166929721832,-2.991135279337565,1.5210816462834675,0.4226021071275075
3.5,1.6893054673848123e+18,3.5448124186197916,-0.7542575001716614,0.1407868067423502,0.7344697515169779,1.6893054673934664e+18,3.553466145833333,-1.2231311400731404,-9.662816047668455,0.7611170013745626,1.6893054673934664e+18,3.553466145833333,-0.3926937580108642,-9.800856908162435,0.154989277323087,1.6893054673848123e+18,3.5448124186197916,-0.2348776807387669,0.0237728386806945,0.1590794896086056,1.6893054673934664e+18,3.553466145833333,-0.2266310006380081,0.0538070481270551,0.1338813006877899,,,,,,,,,,,,1.6893054673895388e+18,3.5495388671874997,-10.806759452819824,47.18471908569336,7.032079792022705,1.6893054673895388e+18,3.5495388671874997,-279.0969482421875,140.0755187988281,-135.76891479492187,1.6893054673934664e+18,3.553466145833333,0.6623831590016683,-0.693134089310964,-0.1997455457846323,0.2022681484619776,-2.7710935274759927,1.5270307858784993,0.2061253910263379
3.55,1.6893054674367153e+18,3.596715494791667,-0.6908870140711466,0.7100105285644531,0.1949633061885833,1.6893054674453617e+18,3.6053617350260416,-1.2711870272954304,-8.770891507466635,0.0458624437451362,1.6893054674453617e+18,3.6053617350260416,-0.3669116298357645,-9.79990323384603,0.2497204542160034,1.6893054674367153e+18,3.596715494791667,-0.1720603754123052,0.1746565550565718,0.0364482930550972,1.6893054674453617e+18,3.6053617350260416,-0.2193006277084349,0.214617316921552,0.0448985956609248,,,,,,,,,,,,1.6893054674395346e+18,3.599534716796875,-10.965359878540038,47.101759338378905,6.775879859924316,1.6893054674395346e+18,3.599534716796875,-279.25554809570315,139.9925537109375,-136.02511596679688,1.6893054674453617e+18,3.6053617350260416,0.6615383426348368,-0.6924842397371928,-0.1987033436695734,0.2081938832998275,-2.554203669230143,1.5249301592508953,-0.0035400213673711
3.6,1.6893054674886216e+18,3.64862158203125,-1.54701828956604,0.8904248873392739,-0.6562430262565613,1.689305467497271e+18,3.657270914713542,-2.057029883066813,-9.223733266194662,-0.1836491450667381,1.689305467497271e+18,3.657270914713542,-0.3092812697092692,-9.787477175394692,0.568999449412028,1.6893054674886216e+18,3.64862158203125,-0.8415177861849467,0.0412843128045399,0.1708895489573478,1.689305467497271e+18,3.657270914713542,-0.9890926480293274,-0.1721112728118896,0.1425861266131202,,,,,,,,,,,,1.6893054674895388e+18,3.6495388671875,-11.67052001953125,47.39943923950195,5.977999973297119,1.6893054674895388e+18,3.6495388671875,-279.96071166992186,140.2902374267578,-136.8230010986328,1.689305467497271e+18,3.657270914713542,0.659300168355306,-0.6929779052734375,-0.1892339686552683,0.221880555152893,-2.100745360056559,1.50388499101003,-0.4505752424399058
3.65,1.6893054675405238e+18,3.7005236816406257,-0.9490032196044922,-0.3948618570963542,-0.1955616275469462,1.689305467540525e+18,3.7005250244140626,-1.4294124245643616,-10.103394508361816,0.7277171611785889,1.689305467540525e+18,3.7005250244140626,-0.3617798238992691,-9.74523639678955,1.0613606572151184,1.6893054675405238e+18,3.7005236816406257,-1.149953822294871,-1.423112432161967,-0.0420478917658328,1.689305467540525e+18,3.7005250244140626,-1.2003502249717712,-1.471039891242981,-0.0744492001831531,,,,,,,,,,,,1.6893054675395364e+18,3.6995364257812495,-11.699799728393554,47.540958404541016,2.7083999633789064,1.6893054675395364e+18,3.6995364257812495,-279.989990234375,140.43175659179687,-140.09259643554688,1.689305467540525e+18,3.7005250244140626,0.6564821600914001,-0.7027308642864227,-0.1576399877667426,0.2242268919944762,-1.9052926301956177,1.4560648202896118,-0.6885316073894501
3.7,1.6893054675924273e+18,3.7524271647135414,0.1961224228143692,-1.2032079696655271,-0.0398183266321818,1.6893054675837747e+18,3.7437747395833334,-0.549950398504734,-11.08355458577474,1.293320655822754,1.6893054675837747e+18,3.7437747395833334,-0.364688903093338,-9.713308016459148,1.323857307434082,1.6893054675924273e+18,3.7524271647135414,-0.3106249819199244,-1.1645636955897014,0.3737477262814839,1.6893054675837747e+18,3.7437747395833334,-0.4048509349425633,-1.3484341303507488,0.3320561697085698,,,,,,,,,,,,1.689305467589536e+18,3.7495358886718746,-12.102399826049805,47.53363876342773,0.2830399990081787,1.689305467589536e+18,3.7495358886718746,-280.39259643554686,140.42443237304687,-142.51795654296876,1.6893054675837747e+18,3.7437747395833334,0.6606987516085306,-0.7094383239746094,-0.1246098106106122,0.2110752910375594,-1.8444818655649824,1.4302135705947876,-0.81657608350118
3.75,1.689305467644327e+18,3.804326985677083,-0.1961534221967061,0.2763395309448242,-0.5967837969462076,1.689305467635676e+18,3.795675618489584,-0.1645065595706304,-9.585647583007812,0.7248258590698242,1.689305467635676e+18,3.795675618489584,-0.1424742406234145,-9.69363784790039,1.4929056962331135,1.689305467644327e+18,3.804326985677083,-0.6187046964963278,0.3468696512281894,0.8491535782814026,1.689305467635676e+18,3.795675618489584,-0.53725599249204,0.1626937786738077,0.7122179766496023,,,,,,,,,,,,1.689305467639537e+18,3.79953671875,-13.032039642333984,47.235958862304685,-1.1321599960327149,1.689305467639537e+18,3.79953671875,-281.3222351074219,140.1267578125,-143.93315734863282,1.689305467635676e+18,3.795675618489584,0.6696895162264506,-0.704365869363149,-0.1068375632166862,0.2095576624075571,-1.6738509734471638,1.416831612586975,-1.0151036779085796
3.8,1.6893054676962322e+18,3.856232177734375,-0.8810667395591736,0.3450167973836263,-0.1546357870101928,1.689305467687578e+18,3.8475779622395834,-0.7649056116739908,-9.338788032531738,1.5467604001363118,1.689305467687578e+18,3.8475779622395834,0.3036638597647348,-9.64437993367513,1.7673799991607666,1.6893054676962322e+18,3.856232177734375,-0.2185879411796728,-0.6829982399940491,0.6837109327316284,1.689305467687578e+18,3.8475779622395834,-0.3380630128085613,-0.4492404758930206,0.7788022756576538,,,,,,,,,,,,1.689305467689533e+18,3.8495326171875,-15.60867977142334,46.3648796081543,-2.2862799882888796,1.689305467689533e+18,3.8495326171875,-283.89887084960935,139.25567932128905,-145.08727416992187,1.689305467687578e+18,3.8475779622395834,0.6823364098866781,-0.6899969379107157,-0.0932379861672719,0.2226577401161193,-1.4047343333562214,1.387040098508199,-1.2843657334645588
3.85,1.6893054677394847e+18,3.899484619140625,-0.737894743680954,-0.0920476913452148,-0.4003081917762756,1.6893054677394803e+18,3.89948046875,-0.3056830962498982,-9.725826899210611,1.2468600273132324,1.6893054677394803e+18,3.89948046875,0.5507069726785024,-9.622161865234377,1.8278457323710124,1.6893054677394847e+18,3.899484619140625,-0.0712421592324971,-0.683863639831543,0.7039458453655243,1.6893054677394803e+18,3.89948046875,-0.0554360213379065,-0.7139487663904825,0.6767877737681071,,,,,,,,,,,,1.6893054677395333e+18,3.899533349609375,-16.853079986572265,46.00863876342773,-3.452599906921386,1.6893054677395333e+18,3.899533349609375,-285.1432800292969,138.8994354248047,-146.25359497070312,1.6893054677394803e+18,3.89948046875,0.6949296593666077,-0.6831527352333069,-0.0741866156458854,0.2117197215557098,-1.2815405925114949,1.3751074870427449,-1.4509254296620686
3.9,1.6893054677827323e+18,3.942732584635417,-0.999137798945109,-0.1158866882324218,-0.5493823289871216,1.6893054677913836e+18,3.9513836263020834,-0.3980061610539754,-9.723434130350748,1.1535398960113523,1.6893054677913836e+18,3.9513836263020834,0.7402945558230082,-9.600152969360352,1.8770939111709597,1.6893054677827323e+18,3.942732584635417,-0.0653625828369209,-0.8153523802757263,0.4743877748648326,1.6893054677913836e+18,3.9513836263020834,-0.1075122822076081,-0.8387688795725504,0.4389066795508067,,,,,,,,,,,,1.6893054677895347e+18,3.949534521484375,-18.317079162597658,45.420599365234374,-3.696599960327149,1.6893054677895347e+18,3.949534521484375,-286.607275390625,138.3113983154297,-146.4976013183594,1.6893054677913836e+18,3.9513836263020834,0.7053296367327372,-0.6777439117431641,-0.0564983437458673,0.1998392492532729,-1.1976911624272666,1.3639661073684692,-1.5773858229319255
3.95,1.6893054678346363e+18,3.994636637369792,-1.1601056655248003,0.0257104237874348,-0.3964991569519043,1.68930546784329e+18,4.003289632161458,-0.4683950344721476,-9.64287567138672,1.566102425257365,1.68930546784329e+18,4.003289632161458,0.7989813288052877,-9.566462198893229,2.0195939938227334,1.6893054678346363e+18,3.994636637369792,-0.2476040422916412,-0.9871073365211488,0.2851722538471221,1.68930546784329e+18,4.003289632161458,-0.2323324183622996,-1.0314968625704448,0.2465350329875945,,,,,,,,,,,,1.6893054678395387e+18,3.9995388183593743,-18.629399490356445,45.18879928588867,-5.233800029754638,1.6893054678395387e+18,3.9995388183593743,-286.9195983886719,138.07959594726563,-148.03479919433593,1.68930546784329e+18,4.003289632161458,0.7108350992202759,-0.6770307421684265,-0.0338465310633182,0.1874477714300155,-1.1960502465566,1.347911715507507,-1.629310170809428
4.0,1.689305467886539e+18,4.046538981119792,-1.3003657658894856,-0.1862045923868815,0.1976342995961507,1.6893054678951926e+18,4.055192545572917,-0.6707879503568014,-9.716853777567543,2.2237298488616943,1.6893054678951926e+18,4.055192545572917,0.7077746788660685,-9.554712931315104,2.1073286533355713,1.689305467886539e+18,4.046538981119792,-0.0096720306707235,-1.2909109592437744,0.0432696208978692,1.6893054678951926e+18,4.055192545572917,0.0373645896712938,-1.3122912645339966,0.0280998001495996,,,,,,,,,,,,1.6893054678895404e+18,4.049540234375,-18.27316017150879,44.83011932373047,-6.282999801635742,1.6893054678895404e+18,4.049540234375,-286.5633544921875,137.72091674804688,-149.08399353027343,1.6893054678951926e+18,4.055192545572917,0.7125310897827148,-0.6812238295873007,-0.0095122017276783,0.1674872289101282,-1.248875379562378,1.342536528905233,-1.6400795380274455
4.05,1.6893054679384443e+18,4.0984447428385415,-0.8616988857587179,0.0733489990234374,0.2511877218882243,1.6893054679470907e+18,4.1070908203125,-0.2590230430165926,-9.59003448486328,2.183849493662516,1.6893054679470907e+18,4.1070908203125,0.5409173568089803,-9.56749471028646,2.0981974601745605,1.6893054679384443e+18,4.0984447428385415,0.1064941734075546,-1.2113457918167114,-0.0806851175924142,1.6893054679470907e+18,4.1070908203125,0.0844012151161829,-1.1818715731302898,-0.1621847221006949,,,,,,,,,,,,1.6893054679395364e+18,4.099536181640625,-18.2048397064209,45.06923980712891,-7.646959781646728,1.6893054679395364e+18,4.099536181640625,-286.4950317382812,137.9600341796875,-150.4479553222656,1.6893054679470907e+18,4.1070908203125,0.7118625640869141,-0.6874035000801086,0.0117681371048092,0.1432446936766306,-1.3207717736562092,1.3483574787775676,-1.6334484418233235
4.1,1.689305467990343e+18,4.150342692057292,-0.3097351094086965,0.0311520894368489,0.0606563886006673,1.689305467990342e+18,4.150341918945313,-0.138185504823923,-9.61017370223999,2.0344974398612976,1.689305467990342e+18,4.150341918945313,0.2370917424559593,-9.574790000915527,2.120678424835205,1.689305467990343e+18,4.150342692057292,-0.065820732153952,-0.9827294747034708,-0.6470081210136414,1.689305467990342e+18,4.150341918945313,-0.0753654986619948,-0.9982301890850068,-0.6776022613048553,,,,,,,,,,,,1.689305467989536e+18,4.149535986328125,-16.41387996673584,45.1741584777832,-8.522919845581054,1.689305467989536e+18,4.149535986328125,-284.7040771484375,138.06495666503906,-151.32391662597655,1.689305467990342e+18,4.150341918945313,0.7040636241436005,-0.6981419920921326,0.0275017833337187,0.126921609044075,-1.4616706371307373,1.3516942262649536,-1.5383548140525818
4.15,1.689305468042249e+18,4.2022490234375,1.161693036556244,-0.3020763397216796,-0.2583345572153727,1.6893054680335982e+18,4.193598063151042,0.7549355374649167,-9.808379491170248,1.763909101486206,1.6893054680335982e+18,4.193598063151042,-0.0960257065792878,-9.569846153259276,2.1532888412475586,1.689305468042249e+18,4.2022490234375,-0.0117082502692937,0.0207185174028079,-0.6245078841845194,1.6893054680335982e+18,4.193598063151042,-0.0456112728764613,-0.2140573660532633,-0.6601416865984598,,,,,,,,,,,,1.6893054680395418e+18,4.199541796875001,-14.454559516906738,45.70851821899414,-9.206119918823244,1.6893054680395418e+18,4.199541796875001,-282.7447570800781,138.59931640625,-152.00711975097656,1.6893054680335982e+18,4.193598063151042,0.6931145787239075,-0.7098619937896729,0.0351137220859527,0.1201358040173848,-1.6175767183303833,1.3493216435114543,-1.402962366739909
4.2,1.6893054680941504e+18,4.254150227864583,0.0418065637350082,-0.144476572672526,-0.2412652174631754,1.689305468085502e+18,4.245502115885416,0.1347956769168376,-9.88315518697103,1.7134604056676228,1.689305468085502e+18,4.245502115885416,-0.1932502885659535,-9.577397028605144,2.113979975382487,1.6893054680941504e+18,4.254150227864583,0.1746056526899337,1.265356461207072,0.1078686267137527,1.689305468085502e+18,4.245502115885416,0.163101019958655,1.1811079581578572,-0.0195476859807968,,,,,,,,,,,,1.689305468089543e+18,4.249542822265625,-14.303279876708984,46.00375900268555,-8.581479549407959,1.689305468089543e+18,4.249542822265625,-282.5934753417969,138.89455871582032,-151.38247680664062,1.689305468085502e+18,4.245502115885416,0.6875283519426981,-0.7138848304748535,0.0205200140674908,0.1310147494077682,-1.664142409960429,1.3528192043304443,-1.3200881083806355
4.25,1.6893054681460554e+18,4.306055419921875,-1.385735034942627,0.0244175593058268,-0.1644413471221923,1.6893054681374072e+18,4.297407145182292,-1.2588241298993428,-9.635498046875,1.7369898557662964,1.6893054681374072e+18,4.297407145182292,-0.0015649100144704,-9.595961570739746,2.0378781159718833,1.6893054681460554e+18,4.306055419921875,0.1083267703652381,0.4172209681322176,0.0858774702064693,1.6893054681374072e+18,4.297407145182292,0.1261945789059003,0.6416121373573939,0.1142827079941828,,,,,,,,,,,,1.689305468139536e+18,4.299536181640625,-15.137759590148926,45.8988395690918,-7.227279758453369,1.689305468139536e+18,4.299536181640625,-283.4279479980469,138.78963928222657,-150.0282775878906,1.6893054681374072e+18,4.297407145182292,0.6913602948188782,-0.707340677579244,-0.0005505407849947,0.1472289264202117,-1.5740055243174236,1.3617501656214397,-1.3570597171783447
4.3,1.689305468189308e+18,4.34930810546875,-1.4839235544204712,0.3376469612121582,-0.0032616853713989,1.6893054681893076e+18,4.349307373046876,-1.463410456975301,-9.335797309875488,1.8394824266433716,1.6893054681893076e+18,4.349307373046876,0.0641279742121695,-9.602968533833822,2.0036137104034424,1.689305468189308e+18,4.34930810546875,0.0350483935326337,-0.4503604024648666,0.3024546504020691,1.6893054681893076e+18,4.349307373046876,0.0225002039223909,-0.4541783183813095,0.2706642101208368,,,,,,,,,,,,1.6893054681895337e+18,4.349533740234375,-15.403719520568847,46.01839904785156,-6.993039894104004,1.6893054681895337e+18,4.349533740234375,-283.69391479492185,138.90919494628906,-149.79403991699218,1.6893054681893076e+18,4.349307373046876,0.6942580540974935,-0.704967717329661,-0.0002451337641104,0.1449362784624099,-1.5412741502126055,1.36522642771403,-1.3935420513153076
4.35,1.6893054682325558e+18,4.392555908203125,-1.077041427294413,0.2820943196614583,0.0913726488749185,1.689305468241207e+18,4.401206787109374,-0.9876375397046409,-9.349156697591146,1.9892332553863523,1.689305468241207e+18,4.401206787109374,0.0838935151696205,-9.59256076812744,2.0521020889282227,1.6893054682325558e+18,4.392555908203125,-0.1421279783050219,-1.0595457752545674,0.2366084704796473,1.689305468241207e+18,4.401206787109374,-0.169616920252641,-1.0941105286280317,0.2432261804739634,,,,,,,,,,,,1.6893054682395366e+18,4.399536669921875,-16.047879791259767,45.47915878295898,-7.668919849395752,1.6893054682395366e+18,4.399536669921875,-284.33807373046875,138.36995849609374,-150.46991882324218,1.689305468241207e+18,4.401206787109374,0.6979758938153585,-0.7039705316225687,0.018809153077503,0.129745657245318,-1.5322562058766682,1.3601421515146892,-1.4514072338740032
4.4,1.68930546828446e+18,4.444460042317709,-0.7841261029243469,0.1583932240804036,-0.2607327699661254,1.6893054682931126e+18,4.4531126302083335,-0.7302097082138062,-9.580662409464518,1.6811572710673015,1.6893054682931126e+18,4.4531126302083335,0.0537678785622119,-9.565106391906738,2.1770505905151367,1.68930546828446e+18,4.444460042317709,-0.2800817141930262,-1.1633419195810957,0.1758782863616943,1.6893054682931126e+18,4.4531126302083335,-0.2975422839323679,-1.1809043486913045,0.1425352195898691,,,,,,,,,,,,1.6893054682895386e+18,4.449538671875,-15.064559936523438,45.26931991577148,-9.293959808349609,1.6893054682895386e+18,4.449538671875,-283.35474853515626,138.16011962890624,-152.09495544433594,1.6893054682931126e+18,4.4531126302083335,0.6997929414113363,-0.7038767337799072,0.0447023188074429,0.1130128055810927,-1.5480119387308755,1.347212036450704,-1.4963308970133464
4.45,1.689305468336359e+18,4.496358723958333,-0.0575974012414614,-0.4779609044392903,-0.7859531243642172,1.6893054683450094e+18,4.505009521484375,0.0612163816889126,-10.10209846496582,1.2915260394414263,1.6893054683450094e+18,4.505009521484375,-0.1014698538929223,-9.534746487935385,2.3042962551116943,1.689305468336359e+18,4.496358723958333,-0.2462805012861887,-1.2483540376027424,-0.0892372317612171,1.6893054683450094e+18,4.505009521484375,-0.2166026383638381,-1.207935094833374,-0.1402444796015818,,,,,,,,,,,,1.689305468339534e+18,4.499534033203124,-14.786399650573731,45.242478942871095,-10.96779956817627,1.689305468339534e+18,4.499534033203124,-283.07659912109375,138.1332794189453,-153.768798828125,1.6893054683450094e+18,4.505009521484375,0.696797251701355,-0.7072420517603556,0.0718291997909545,0.0951130638519922,-1.6164892117182414,1.3336453437805176,-1.4919428030649822
4.5,1.6893054683882652e+18,4.548265380859375,0.8702892859776815,-0.2638463973999023,-1.0389985640843709,1.689305468396915e+18,4.556914957682292,0.5198407123486201,-9.788040161132812,1.1573285659154255,1.689305468396915e+18,4.556914957682292,-0.2553615669409433,-9.524689356486002,2.3347408771514893,1.6893054683882652e+18,4.548265380859375,-0.0468839063930014,-0.5716680685679117,-0.0733038286368052,1.689305468396915e+18,4.556914957682292,-0.0266235431966682,-0.3892738862584035,0.0244346116669476,,,,,,,,,,,,1.6893054683895365e+18,4.549536181640625,-14.237399864196778,45.24491958618164,-11.741279792785644,1.6893054683895365e+18,4.549536181640625,-282.5275939941406,138.13571472167968,-154.54227294921876,1.689305468396915e+18,4.556914957682292,0.6928301056226095,-0.711073617140452,0.0872195040186245,0.082149530450503,-1.6817000309626262,1.3292967081069946,-1.4671157995859785
4.55,1.6893054684401713e+18,4.600171223958333,-0.1530279417832692,-0.3122091293334961,-0.9049135446548462,1.6893054684401702e+18,4.600170288085938,-0.3080759122967719,-9.906285762786863,1.2915260195732117,1.6893054684401702e+18,4.600170288085938,-0.1246103085577487,-9.527813911437988,2.3322430849075317,1.6893054684401713e+18,4.600171223958333,-0.0279979913805921,0.1690060521165529,0.4370231727759043,1.6893054684401702e+18,4.600170288085938,-0.0319940671324729,0.2087631970643997,0.466395616531372,,,,,,,,,,,,1.689305468439535e+18,4.59953505859375,-14.342319679260251,45.26931915283203,-12.114599418640136,1.689305468439535e+18,4.59953505859375,-282.63251342773435,138.1601135253906,-154.91559448242188,1.6893054684401702e+18,4.600170288085938,0.6976742744445801,-0.7063452005386353,0.0874258317053317,0.0817219838500022,-1.6260721683502195,1.3306543231010437,-1.523646056652069
4.6,1.6893054684920735e+18,4.652073486328125,-1.0084511836369832,-0.2520615259806315,-0.8914631605148315,1.6893054684834222e+18,4.643422281901041,-0.8749754826227824,-9.90688387552897,1.3318052291870115,1.6893054684834222e+18,4.643422281901041,0.0387711337146659,-9.52571964263916,2.343987226486206,1.6893054684920735e+18,4.652073486328125,-0.0589484957357247,-0.234928596454362,0.3076215684413909,1.6893054684834222e+18,4.643422281901041,-0.0527380344768364,-0.1216639950871467,0.3329724669456481,,,,,,,,,,,,1.689305468489541e+18,4.64954111328125,-15.42079963684082,44.67395935058594,-12.321999740600583,1.689305468489541e+18,4.64954111328125,-283.71099243164065,137.56476135253905,-155.12299499511718,1.6893054684834222e+18,4.643422281901041,0.7035832603772482,-0.7003601988156637,0.087930272022883,0.0820264294743537,-1.5560719172159831,1.3297882477442424,-1.5939318339029949
4.65,1.6893054685439764e+18,4.703976481119792,-0.963145891825358,-0.1232582728068033,-0.8066368500391642,1.6893054685353254e+18,4.6953251953125,-0.9593224922815958,-9.678568840026855,1.3740784327189128,1.6893054685353254e+18,4.6953251953125,0.1152018482486406,-9.51811695098877,2.372370799382528,1.6893054685439764e+18,4.703976481119792,-0.0568613751480976,-0.8586728970209757,0.2695951908826827,1.6893054685353254e+18,4.6953251953125,-0.0689259606103102,-0.7577274243036906,0.294386143485705,,,,,,,,,,,,1.689305468539539e+18,4.6995388671875,-15.774599838256837,44.378719329833984,-12.81487979888916,1.689305468539539e+18,4.6995388671875,-284.064794921875,137.26951599121094,-155.61587829589843,1.6893054685353254e+18,4.6953251953125,0.7073272069295248,-0.6960935393969218,0.0988387117783228,0.0730375945568084,-1.5239474773406982,1.3265896638234456,-1.6544111967086792
4.7,1.689305468595879e+18,4.755879069010416,-0.0532526622215906,-0.1482810974121093,-0.5393064022064209,1.689305468587226e+18,4.747226074218751,-0.138584313293298,-9.716255823771158,1.6823537349700928,1.689305468587226e+18,4.747226074218751,0.0663723330944776,-9.515185356140137,2.3857837518056235,1.689305468595879e+18,4.755879069010416,-0.0146607660378018,-0.9614000717798868,0.0257072468909124,1.689305468587226e+18,4.747226074218751,-0.0163915508116284,-1.0164289077123003,0.0558432635540763,,,,,,,,,,,,1.6893054685895347e+18,4.749534521484375,-15.503759574890136,44.40311965942383,-13.649359893798827,1.6893054685895347e+18,4.749534521484375,-283.79395751953126,137.29391784667968,-156.45035400390626,1.689305468587226e+18,4.747226074218751,0.7072011232376099,-0.6949419577916464,0.1176619678735732,0.0550097562372684,-1.5445712804794312,1.3253672520319622,-1.6863282918930054
4.75,1.6893054686391311e+18,4.7991312255859375,0.3855839222669601,-0.0968875885009765,-0.5844283699989319,1.689305468639131e+18,4.799130777994791,0.3611168066660563,-9.672786394755043,1.669592022895813,1.689305468639131e+18,4.799130777994791,-0.0015341143977517,-9.514337857564293,2.390281836191813,1.6893054686391311e+18,4.7991312255859375,-0.0256563406437635,-0.3765220716595649,0.0701731443405151,1.689305468639131e+18,4.799130777994791,-0.0282016117125749,-0.3796527485052745,0.0765108726918697,,,,,,,,,,,,1.6893054686395387e+18,4.799538720703125,-14.77663974761963,44.36651992797851,-13.968999671936036,1.6893054686395387e+18,4.799538720703125,-283.06683349609375,137.25731506347657,-156.7699951171875,1.689305468639131e+18,4.799130777994791,0.7056242823600769,-0.6951817274093628,0.1303366273641586,0.0427060350775718,-1.5730022589365642,1.3250120083491008,-1.693542758623759
4.8,1.689305468682379e+18,4.842378824869791,-0.1313738773266474,-0.0800511042277017,-0.7987291812896729,1.689305468691033e+18,4.851033528645833,-0.2145564258098602,-9.688937505086264,1.437687595685323,1.689305468691033e+18,4.851033528645833,0.0963502265512943,-9.508587837219238,2.410649617513021,1.689305468682379e+18,4.842378824869791,-0.0725402471919854,0.0450004078447818,0.2697988202174504,1.689305468691033e+18,4.851033528645833,-0.0836376324295996,0.0784452793498833,0.3135265956322351,,,,,,,,,,,,1.6893054686895345e+18,4.84953447265625,-15.335399627685549,44.13471908569336,-14.293519592285156,1.6893054686895345e+18,4.84953447265625,-283.62559204101564,137.02551879882813,-157.09451904296876,1.689305468691033e+18,4.851033528645833,0.7092119057973226,-0.691197137037913,0.1323625197013218,0.0417030664781728,-1.532410184542338,1.3226344188054402,-1.738478660583496
4.85,1.6893054687342825e+18,4.894282552083333,-1.0262579917907717,-0.324459711710612,-0.8508665561676025,1.6893054687429292e+18,4.902929280598959,-0.7882356643676758,-9.877970695495604,1.5050854682922363,1.6893054687429292e+18,4.902929280598959,0.2819531311591466,-9.496172269185385,2.4448952674865723,1.6893054687342825e+18,4.894282552083333,-0.0813468905786672,-0.0737619784971078,0.4084652364253998,1.6893054687429292e+18,4.902929280598959,-0.07142032807072,-0.1411098738511403,0.3900883595148722,,,,,,,,,,,,1.6893054687395356e+18,4.89953564453125,-16.06007957458496,44.000518798828125,-14.615599822998046,1.6893054687395356e+18,4.89953564453125,-284.35027465820315,136.8913146972656,-157.41659851074218,1.6893054687429292e+18,4.902929280598959,0.7158654928207397,-0.683956523736318,0.1342066824436187,0.04147403438886,-1.4573639233907063,1.3175633748372395,-1.8165285189946492
4.9,1.6893054687861862e+18,4.946186197916666,-1.0304692188898723,-0.1230904261271158,-0.4407074451446533,1.6893054687948393e+18,4.95483935546875,-0.6049853165944418,-9.640283584594728,1.951546271642049,1.6893054687948393e+18,4.95483935546875,0.3551579415798187,-9.492866198221842,2.44855268796285,1.6893054687861862e+18,4.946186197916666,0.0208203246196111,-0.395942489306132,0.1942551508545875,1.6893054687948393e+18,4.95483935546875,0.0409279700058202,-0.3984368642171223,0.1545489082733789,,,,,,,,,,,,1.6893054687895347e+18,4.94953466796875,-16.594440078735353,43.77115936279297,-14.79859962463379,1.6893054687895347e+18,4.94953466796875,-284.8846374511719,136.66195678710938,-157.59959411621094,1.6893054687948393e+18,4.95483935546875,0.7188377976417542,-0.6798998912175497,0.1407437225182851,0.034498910109202,-1.427957018216451,1.3162333965301514,-1.8652602831522624
4.95,1.6893054688380908e+18,4.998090901692708,-0.9210078914960226,-0.3044293721516927,-0.0745631059010823,1.6893054688467374e+18,5.006737467447917,-0.6157530148824056,-9.850852330525717,2.191227356592814,1.6893054688467374e+18,5.006737467447917,0.3414764404296875,-9.502713839213053,2.412003835042318,1.6893054688380908e+18,4.998090901692708,0.0862847169240315,-0.2527454967300097,0.0537052368745207,1.6893054688467374e+18,5.006737467447917,0.0827722400426864,-0.1920662112534046,0.0846048351377248,,,,,,,,,,,,1.6893054688395372e+18,4.99953720703125,-16.57735939025879,43.52715835571289,-14.849839782714843,1.6893054688395372e+18,4.99953720703125,-284.8675537109375,136.41795959472657,-157.6508361816406,1.6893054688467374e+18,5.006737467447917,0.7186750372250875,-0.6794812679290771,0.1451653291781743,0.0271346078564723,-1.431331713994344,1.3202455441157024,-1.87869930267334
5.0,1.689305468889995e+18,5.049995035807291,-1.1420681476593018,0.12452761332194,-0.0425113439559936,1.6893054688899927e+18,5.049992553710938,-0.7752745449542999,-9.45882797241211,2.2109681367874146,1.6893054688899927e+18,5.049992553710938,0.3911074101924896,-9.507586479187012,2.3851436376571655,1.689305468889995e+18,5.049995035807291,0.0609847133358319,-0.2657263862589995,0.1644754633307456,1.6893054688899927e+18,5.049992553710938,0.0556650962680578,-0.2465604841709136,0.1937206387519836,,,,,,,,,,,,1.6893054688895388e+18,5.049538720703125,-16.557839584350585,43.59303817749024,-15.054799652099607,1.6893054688895388e+18,5.049538720703125,-284.84803466796876,136.483837890625,-157.85579833984374,1.6893054688899927e+18,5.049992553710938,0.7205726206302643,-0.6772938072681427,0.1466527134180068,0.023211309686303,-1.4093928933143616,1.322256565093994,-1.9083572030067444
5.05,1.6893054689418924e+18,5.101892252604166,-0.3489490896463394,0.681738535563151,0.3373388449350993,1.689305468933247e+18,5.093246907552083,-0.1615155301988124,-8.920642217000326,2.5254248778025308,1.689305468933247e+18,5.093246907552083,0.3177657822767893,-9.513784090677897,2.370868523915609,1.6893054689418924e+18,5.101892252604166,0.0269289763333896,-0.554563840230306,-0.1918116882443427,1.689305468933247e+18,5.093246907552083,0.0412843097001313,-0.5519167383511862,-0.148694780965646,,,,,,,,,,,,1.6893054689395366e+18,5.0995365234375,-16.167439460754395,43.712599182128905,-14.859599685668943,1.6893054689395366e+18,5.0995365234375,-284.4576354980469,136.60339965820313,-157.6605987548828,1.689305468933247e+18,5.093246907552083,0.718189517656962,-0.6784616510073344,0.1537819157044092,0.0150752101714412,-1.4387593666712444,1.3248297373453777,-1.9008117119471233
5.1,1.689305468993799e+18,5.153798909505208,0.6968309879302979,-0.3767801920572917,0.0524197022120157,1.689305468985145e+18,5.145145263671875,0.7473582625389099,-9.757132848103842,2.471586386362711,1.689305468985145e+18,5.145145263671875,0.162050907810529,-9.509833653767904,2.402440309524536,1.689305468993799e+18,5.153798909505208,-0.1607084646821021,-0.3732895602782567,-0.0239255552490552,1.689305468985145e+18,5.145145263671875,-0.1308778797586758,-0.4448626140753428,-0.1078686242302258,,,,,,,,,,,,1.6893054689895347e+18,5.14953447265625,-15.140199851989744,43.88583908081055,-15.667239570617676,1.6893054689895347e+18,5.14953447265625,-283.43040161132814,136.7766357421875,-158.4682373046875,1.689305468985145e+18,5.145145263671875,0.7127698461214701,-0.6818485061327616,0.1642319758733113,0.0076489741913974,-1.5045467615127563,1.3231768210728962,-1.860664168993632
5.15,1.689305469045703e+18,5.20570263671875,0.0989527205626169,-0.1691271464029947,-0.2021649281183878,1.6893054690370445e+18,5.197044189453125,0.6504489282766978,-9.829316775004068,2.076172391573588,1.6893054690370445e+18,5.197044189453125,0.2778437187274297,-9.48550542195638,2.485377550125122,1.689305469045703e+18,5.20570263671875,-0.139735423028469,0.3874412775039673,0.490473876396815,1.6893054690370445e+18,5.197044189453125,-0.1600466966629028,0.2845613838483889,0.4559090932210286,,,,,,,,,,,,1.6893054690395356e+18,5.199535693359375,-15.676999855041505,43.42711868286133,-16.030799674987794,1.6893054690395356e+18,5.199535693359375,-283.9671936035156,136.3179138183594,-158.83179626464843,1.6893054690370445e+18,5.197044189453125,0.7168790896733602,-0.6765452822049459,0.1681422938903172,0.0088269305415451,-1.4608620405197144,1.313283125559489,-1.9084093570709229
5.2,1.689305469097604e+18,5.2576040852864585,-0.7781283855438232,0.3380886713663737,0.4715180397033691,1.6893054690889546e+18,5.248954833984375,-0.1810569167137145,-9.228917439778646,2.8027928670247397,1.6893054690889546e+18,5.248954833984375,0.528603712717692,-9.465432167053224,2.5221091906229653,1.689305469097604e+18,5.2576040852864585,-0.0822631865739822,0.3429499318202336,0.1400917619466781,1.6893054690889546e+18,5.248954833984375,-0.0711658025781313,0.3992513418197632,0.2318742666393518,,,,,,,,,,,,1.6893054690895352e+18,5.249535107421875,-16.99703941345215,43.00987854003906,-15.6989595413208,1.6893054690895352e+18,5.249535107421875,-285.2872375488281,135.9006774902344,-158.4999572753906,1.6893054690889546e+18,5.248954833984375,0.7256053686141968,-0.6686573028564453,0.1615833987792332,0.0166541896760463,-1.3651672999064128,1.3053843180338542,-1.983575145403544
5.25,1.689305469140857e+18,5.3008574218749995,-0.7116231322288513,0.1030912399291992,0.1457558870315552,1.6893054691408566e+18,5.3008564453125,-0.1519442399342854,-9.42353375752767,2.5896323521931968,1.6893054691408566e+18,5.3008564453125,0.5722379883130392,-9.4441343943278,2.591516494750977,1.689305469140857e+18,5.3008574218749995,-0.2326633036136627,0.3320816308259964,-0.0289397425949573,1.6893054691408566e+18,5.3008564453125,-0.2229658116896946,0.3428481221199035,-0.0047851105531056,,,,,,,,,,,,1.6893054691395354e+18,5.2995354980468745,-17.16295928955078,42.58043899536133,-15.955159759521484,1.6893054691395354e+18,5.2995354980468745,-285.4531555175781,135.4712371826172,-158.75615539550782,1.6893054691408566e+18,5.3008564453125,0.7268991867701212,-0.6676976283391317,0.1586518734693527,0.0248577675471702,-1.354365348815918,1.2972511450449626,-1.9785163005193072
5.3,1.6893054691841083e+18,5.344108317057291,-1.2177607615788777,-0.4668569564819336,-0.409201701482137,1.6893054691927583e+18,5.352758626302084,-0.5383851031462351,-9.964112281799316,2.162314017613729,1.6893054691927583e+18,5.352758626302084,0.7034003933270773,-9.40797773996989,2.688570419947306,1.6893054691841083e+18,5.344108317057291,-0.2251038451989492,0.2866485143701235,0.2836959958076476,1.6893054691927583e+18,5.352758626302084,-0.2240348309278487,0.1805106749137242,0.3027855356534322,,,,,,,,,,,,1.6893054691895388e+18,5.34953876953125,-17.853479385375977,42.39744033813477,-16.172319412231445,1.6893054691895388e+18,5.34953876953125,-286.1436706542969,135.28823852539062,-158.9733154296875,1.6893054691927583e+18,5.352758626302084,0.731119970480601,-0.6632057030995687,0.1563967516024907,0.0339697860181331,-1.315869927406311,1.283952037493388,-2.0008812745412192
5.35,1.6893054692360095e+18,5.396009521484376,-0.7474690775076548,-0.4260702133178711,-0.2103509902954101,1.689305469244663e+18,5.4046630859375,0.2550350129604339,-9.733803113301596,2.4687947432200112,1.689305469244663e+18,5.4046630859375,0.740771492322286,-9.377700169881184,2.783063014348348,1.6893054692360095e+18,5.396009521484376,-0.160199408729871,-0.353181928396225,0.074016507094105,1.689305469244663e+18,5.4046630859375,-0.1322014182806014,-0.3691153228282928,0.024536419349412,,,,,,,,,,,,1.689305469239539e+18,5.39953896484375,-18.482999801635746,42.141239166259766,-16.728639221191408,1.689305469239539e+18,5.39953896484375,-286.773193359375,135.03203430175782,-159.529638671875,1.689305469244663e+18,5.4046630859375,0.732474168141683,-0.6599746147791544,0.1637769838174183,0.0329218842089175,-1.3113433917363484,1.273228128751119,-2.0176490942637124
5.4,1.6893054692879148e+18,5.4479149576822925,0.763654351234436,0.2265837987263997,-0.1005287965138753,1.689305469296565e+18,5.4565650227864575,1.655434489250183,-9.24526850382487,2.6911278565724692,1.689305469296565e+18,5.4565650227864575,0.6927479306856791,-9.36901315053304,2.8244715531667075,1.6893054692879148e+18,5.4479149576822925,-0.071471232920885,-0.0278961819907029,-0.0716239487131436,1.689305469296565e+18,5.4565650227864575,-0.0857247561216354,0.1197804982463518,-0.0539088571288932,,,,,,,,,,,,1.689305469289542e+18,5.4495419433593755,-17.89495964050293,42.07047958374024,-16.816479873657226,1.689305469289542e+18,5.4495419433593755,-286.1851501464844,134.96127624511718,-159.61748046875,1.689305469296565e+18,5.4565650227864575,0.730851928393046,-0.6607704957326254,0.1679974446694056,0.0318087711930274,-1.3310060898462932,1.270219882329305,-2.0056918462117515
5.45,1.689305469339818e+18,5.4998179524739585,0.394575854142507,-0.3076871236165364,-0.0369805494944254,1.689305469339817e+18,5.499817016601563,1.2071790397167206,-9.74506902694702,2.729313373565674,1.689305469339817e+18,5.499817016601563,0.7722873985767365,-9.352960586547852,2.8567570447921753,1.689305469339818e+18,5.4998179524739585,-0.1493056466182072,0.7570656736691793,0.0577267669141292,1.689305469339817e+18,5.499817016601563,-0.1475239545106887,0.8018369972705841,0.0610101651400327,,,,,,,,,,,,1.6893054693395354e+18,5.4995353515625,-18.309759902954102,42.01435928344726,-17.177599716186524,1.6893054693395354e+18,5.4995353515625,-286.599951171875,134.90516052246093,-159.9785949707031,1.689305469339817e+18,5.499817016601563,0.7331298291683197,-0.6594234704971313,0.1610769033432006,0.0414947792887687,-1.307515263557434,1.2647467255592346,-2.0054019689559937
5.5,1.6893054693917156e+18,5.551715738932292,-1.1278608441352844,-0.5115652084350586,-0.4394992192586263,1.6893054693830684e+18,5.543068359375,-0.0604187697172164,-9.859625816345217,2.328814665476481,1.6893054693830684e+18,5.543068359375,0.9127537210782368,-9.32800324757894,2.896319309870402,1.6893054693917156e+18,5.551715738932292,-0.1863138973712921,0.6958264311154684,0.1615229547023773,1.6893054693830684e+18,5.543068359375,-0.1925752709309259,0.754011332988739,0.1499165122707685,,,,,,,,,,,,1.6893054693895365e+18,5.5495362304687506,-19.405319595336913,41.75083923339844,-16.560279846191406,1.6893054693895365e+18,5.5495362304687506,-287.6955139160156,134.64163818359376,-159.36127624511718,1.6893054693830684e+18,5.543068359375,0.7370914419492086,-0.6563790043195089,0.1509649654229481,0.0551625738541284,-1.266310095787048,1.256432016690572,-2.0125668048858643
5.55,1.689305469443624e+18,5.603623942057292,-0.6915814876556396,-0.4495429992675781,-0.4058247407277425,1.6893054694349734e+18,5.594973388671875,0.1623131384452184,-9.924630800882976,2.4512473742167153,1.6893054694349734e+18,5.594973388671875,1.01742684841156,-9.30285135904948,2.9423910776774087,1.689305469443624e+18,5.603623942057292,-0.0926988025506336,-0.1024217456579208,-0.0242309905588626,1.6893054694349734e+18,5.594973388671875,-0.105068822701772,0.0296269593139489,0.0297287727395693,,,,,,,,,,,,1.6893054694395387e+18,5.599538671875,-20.183679580688477,41.72643966674805,-16.66519966125488,1.6893054694395387e+18,5.599538671875,-288.4738708496094,134.61723937988282,-159.46619567871093,1.6893054694349734e+18,5.594973388671875,0.74001677831014,-0.6534184018770853,0.1460881729920704,0.0638475293914476,-1.23850683371226,1.248236894607544,-2.0209895769755044
5.6,1.6893054694955254e+18,5.655525227864583,-0.3855624000231425,0.238231341044108,-0.2702223459879557,1.6893054694868713e+18,5.646871175130208,0.6315057675043741,-9.152745882670084,2.5495524406433105,1.6893054694868713e+18,5.646871175130208,0.9568682312965392,-9.2962646484375,2.9832607905069985,1.6893054694955254e+18,5.655525227864583,-0.0663806907832621,0.0822631890575091,-0.0185295771807432,1.6893054694868713e+18,5.646871175130208,-0.0737619784971077,-0.002494367149969,-0.05726861829559,,,,,,,,,,,,1.6893054694895375e+18,5.649537646484375,-19.805479431152342,41.53855895996094,-16.926279830932618,1.6893054694895375e+18,5.649537646484375,-288.0956787109375,134.42936096191406,-159.72727661132814,1.6893054694868713e+18,5.646871175130208,0.7379845579465231,-0.6549498240152994,0.149741768836975,0.0632153650124867,-1.261049787203471,1.246120015780131,-2.004619836807251
5.65,1.6893054695474278e+18,5.707427734375,-0.4996983607610066,0.1539119084676106,-0.0371543566385904,1.689305469538777e+18,5.698777425130209,0.4713860551516215,-9.163513819376629,2.8231319586435952,1.689305469538777e+18,5.698777425130209,0.985810379187266,-9.28554662068685,3.00710391998291,1.6893054695474278e+18,5.707427734375,-0.0786998085677623,-0.1898772791028022,-0.0094684098536769,1.689305469538777e+18,5.698777425130209,-0.0714203293124834,-0.0601193259159724,0.0393499036629994,,,,,,,,,,,,1.6893054695395387e+18,5.699538720703125,-20.13975944519043,41.27259902954101,-16.943359756469725,1.6893054695395387e+18,5.699538720703125,-288.4299621582031,134.16339721679688,-159.7443603515625,1.689305469538777e+18,5.698777425130209,0.7387824257214864,-0.6539305845896403,0.1492599348227182,0.0655373707413673,-1.254619002342224,1.2427139282226562,-2.0070592562357583
5.7,1.689305469590682e+18,5.75068212890625,0.2760562300682067,0.0640006065368652,0.1531890630722045,1.6893054695906793e+18,5.750679280598958,1.056431194146474,-9.2325070699056,3.140978495279948,1.6893054695906793e+18,5.750679280598958,0.8537165323893229,-9.275798161824545,3.076279322306315,1.689305469590682e+18,5.75068212890625,-0.1189660094678401,-0.6512587070465088,-0.1997529417276382,1.6893054695906793e+18,5.750679280598958,-0.1320487037301063,-0.5855652491251627,-0.18616118033727,,,,,,,,,,,,1.6893054695895414e+18,5.749541259765625,-19.624919509887697,41.34579925537109,-17.402079391479493,1.6893054695895414e+18,5.749541259765625,-287.9151184082031,134.23659973144532,-160.2030792236328,1.6893054695906793e+18,5.750679280598958,0.7346567312876383,-0.6566853324572245,0.1593167036771774,0.0603279545903205,-1.300666054089864,1.239639083544413,-1.9829809268315632
5.75,1.6893054696339297e+18,5.7939296875,-0.1073360443115234,0.5656388600667318,0.5658615430196127,1.689305469642581e+18,5.802581136067708,0.4598207585513592,-8.676374753316244,3.75573452313741,1.689305469642581e+18,5.802581136067708,0.7554433345794678,-9.23838233947754,3.2117406527201333,1.6893054696339297e+18,5.7939296875,-0.3113376547892888,0.0108937645951906,-0.1117374350627263,1.689305469642581e+18,5.802581136067708,-0.3468696475028991,0.1247183258334795,-0.0982983981569607,,,,,,,,,,,,1.6893054696395407e+18,5.799540625000001,-18.883159637451172,41.33603973388672,-18.09259948730469,1.6893054696395407e+18,5.799540625000001,-287.17335205078126,134.22683410644532,-160.89359436035156,1.689305469642581e+18,5.802581136067708,0.7310649752616882,-0.6584674715995789,0.1675116519133249,0.0624089104433853,-1.3403669993082683,1.228135307629903,-1.952215035756429
5.8,1.6893054696858296e+18,5.845829833984375,-1.06613294283549,0.6025552749633789,0.3408504327138265,1.6893054696944865e+18,5.854486490885416,-0.437088946501414,-8.731609344482422,3.516651709874471,1.6893054696944865e+18,5.854486490885416,0.7089255253473917,-9.164653142293297,3.4259321689605713,1.6893054696858296e+18,5.845829833984375,-0.491390198469162,0.1198823029796282,-0.1665116846561431,1.6893054696944865e+18,5.854486490885416,-0.5050328473250071,0.096109462281068,-0.1920153051614761,,,,,,,,,,,,1.6893054696895368e+18,5.849536621093749,-18.72699928283691,41.01639938354492,-18.802639770507813,1.6893054696895368e+18,5.849536621093749,-287.01719360351564,133.90719604492188,-161.6036407470703,1.6893054696944865e+18,5.854486490885416,0.7283197244008383,-0.6590330600738525,0.1722823331753412,0.074352574845155,-1.3671791553497314,1.206458330154419,-1.9153539339701335
5.85,1.6893054697377329e+18,5.897732584635417,-1.397876779238383,0.1501700083414713,-0.4440053304036458,1.6893054697463836e+18,5.906383463541666,-0.7992027799288431,-9.10110092163086,3.0634111563364663,1.6893054697463836e+18,5.906383463541666,0.5685736139615377,-9.086454391479492,3.652712186177572,1.6893054697377329e+18,5.897732584635417,-0.4678209722042084,-0.0861319974064827,-0.2769764860471089,1.6893054697463836e+18,5.906383463541666,-0.4611014525095622,-0.185193977629145,-0.2990185419718424,1.68930546974e+18,5.9,0.0,0.0,0.9880953431129456,12.63599967956543,0.1740225404500961,207.6022796630859,41.0,-122.7531589,49.1904004,1.6893054697395336e+18,5.899533447265625,-18.568399810791018,40.50155868530273,-20.256879806518555,1.6893054697395336e+18,5.899533447265625,-286.85858764648435,133.3923583984375,-163.05787353515626,1.6893054697463836e+18,5.906383463541666,0.7223405639330546,-0.6622339884440104,0.1805423249800999,0.0840029666821161,-1.4167728821436565,1.1846935749053955,-1.8640462160110471
5.9,1.689305469789638e+18,5.949637939453125,-0.5160266011953354,-0.5342473983764648,-0.3990532557169596,1.6893054697896407e+18,5.949640869140625,-0.2667997321113944,-9.678070068359377,3.3436704874038696,1.6893054697896407e+18,5.949640869140625,0.2835836857557297,-9.024511814117432,3.834742784500122,1.689305469789638e+18,5.949637939453125,-0.4348851541678111,-1.0642290910085042,-0.5187264084815979,1.6893054697896407e+18,5.949640869140625,-0.437226802110672,-1.0954340994358065,-0.5297728776931763,,,,,,,,,,,,1.6893054697895368e+18,5.9495365234375,-16.640799713134765,40.55279922485352,-21.469559478759766,1.6893054697895368e+18,5.9495365234375,-284.9309936523438,133.4436004638672,-164.270556640625,1.6893054697896407e+18,5.949640869140625,0.7123710811138153,-0.6685821115970612,0.1966027617454528,0.0826776102185249,-1.4974406957626345,1.1682313680648804,-1.8087779879570007
5.95,1.6893054698415414e+18,6.001541422526041,1.4746089776357014,-0.3912846247355143,-0.387176752090454,1.689305469832893e+18,5.992892659505209,1.1728818615277607,-9.473184903462728,3.5204402605692544,1.689305469832893e+18,5.992892659505209,-0.1273814061035712,-8.960448265075684,3.989534298578898,1.6893054698415414e+18,6.001541422526041,-0.3658064703146617,-0.9552404979864756,-0.3243185480435689,1.689305469832893e+18,5.992892659505209,-0.3825034598509471,-1.1349367101987202,-0.414981111884117,,,,,,,,,,,,1.6893054698395336e+18,5.99953349609375,-13.773799705505372,40.43567886352539,-22.97259941101074,1.6893054698395336e+18,5.99953349609375,-282.0639953613281,133.32647705078125,-165.77359619140626,1.689305469832893e+18,5.992892659505209,0.6986546317736307,-0.6766290068626404,0.2207765529553095,0.0723909139633178,-1.6030512650807698,1.1518909533818562,-1.7535072565078735
6.0,1.6893054698934464e+18,6.053446451822917,0.8552499214808146,-0.3865906397501628,-0.3936231136322021,1.6893054698847918e+18,6.0447918294270835,0.9072785973548888,-9.363115310668944,3.660021702448527,1.6893054698847918e+18,6.0447918294270835,-0.2289160688718159,-8.899446487426758,4.120860735575358,1.6893054698934464e+18,6.053446451822917,-0.2043853302796681,0.3922263955076535,0.0650062433754404,1.6893054698847918e+18,6.0447918294270835,-0.2326887547969818,0.2264273911714553,0.0635299859568476,,,,,,,,,,,,1.6893054698895375e+18,6.049537548828125,-13.5712797164917,40.07699890136719,-23.890039443969727,1.6893054698895375e+18,6.049537548828125,-281.861474609375,132.9677978515625,-166.6910369873047,1.6893054698847918e+18,6.0447918294270835,0.6949739456176758,-0.6768280466397604,0.2317225684722264,0.0721805815895398,-1.626978079477946,1.136840542157491,-1.7461752494176228
6.05,1.689305469945345e+18,6.105344970703125,-0.5958927273750305,-0.2826662063598632,-0.6515401204427084,1.689305469936698e+18,6.096697916666667,-0.5034897675116857,-9.20678424835205,3.45742932955424,1.689305469936698e+18,6.096697916666667,-0.0957325709362824,-8.871083577473959,4.186850706736247,1.689305469945345e+18,6.105344970703125,-0.0747291818261146,0.863763431708018,-0.1503237560391425,1.689305469936698e+18,6.096697916666667,-0.0962112757066884,0.8354091246922811,-0.1168279784421125,,,,,,,,,,,,1.6893054699395348e+18,6.09953486328125,-14.381359672546386,39.90863952636719,-23.980319595336915,1.6893054699395348e+18,6.09953486328125,-282.6715576171875,132.7994415283203,-166.78131713867188,1.689305469936698e+18,6.096697916666667,0.6982428232828776,-0.6750229199727377,0.2221188793579737,0.0861742993195851,-1.5942953824996948,1.1300090551376345,-1.7446407079696655
6.1,1.6893054699972518e+18,6.157252034505208,-0.8023289243380228,-0.1605323155721028,-0.2600022157033284,1.689305469988601e+18,6.148600992838542,-0.8488538265228271,-9.166504859924316,3.7784663836161294,1.689305469988601e+18,6.148600992838542,-0.044558415810267,-8.867377916971842,4.1956281661987305,1.6893054699972518e+18,6.157252034505208,0.0038179075345396,0.5327253937721252,-0.434121568997701,1.689305469988601e+18,6.148600992838542,0.0022398391738533,0.6417648494243622,-0.3680972158908844,,,,,,,,,,,,1.6893054699895386e+18,6.149538623046875,-14.896199798583984,39.96231918334961,-23.223919677734376,1.6893054699895386e+18,6.149538623046875,-283.18638916015624,132.85311889648438,-166.02491760253906,1.689305469988601e+18,6.148600992838542,0.6980351408322653,-0.6777527928352356,0.2074647645155588,0.1016419380903243,-1.582046349843343,1.1291126012802124,-1.713080366452535
6.15,1.689305470040504e+18,6.200504150390625,-0.6294230818748474,0.0838403701782226,0.0120308399200439,1.689305470040502e+18,6.200502034505209,-0.8253244161605835,-8.83669376373291,4.115854422251384,1.689305470040502e+18,6.200502034505209,-0.2455331683158874,-8.86154588063558,4.200290203094482,1.689305470040504e+18,6.200504150390625,-0.0332921566441654,-0.0406225360929966,-0.5884159505367279,1.689305470040502e+18,6.200502034505209,-0.0416406467556953,-0.0311032210787137,-0.5709553956985474,,,,,,,,,,,,1.689305470039536e+18,6.199536328125,-14.31547966003418,40.46983947753906,-23.06775932312012,1.689305470039536e+18,6.199536328125,-282.6056823730469,133.3606384277344,-165.86875610351564,1.689305470040502e+18,6.200502034505209,0.6895637313524882,-0.6869448820749918,0.2018571197986602,0.1088322276870409,-1.6298011938730876,1.1277049382527669,-1.646747390429179
6.2,1.6893054700837548e+18,6.243754801432291,-0.1338943839073181,0.2513958613077799,-0.016149361928304,1.689305470092406e+18,6.2524059244791665,-0.5623133182525635,-8.640881220499674,4.089732646942139,1.689305470092406e+18,6.2524059244791665,-0.4892445305983225,-8.828644434611002,4.248487949371338,1.6893054700837548e+18,6.243754801432291,-0.1524617845813432,-0.2978477130333582,-0.3109304060538609,1.689305470092406e+18,6.2524059244791665,-0.1684460937976837,-0.2688825229803721,-0.2380338236689566,,,,,,,,,,,,1.689305470089541e+18,6.24954111328125,-13.046679878234864,40.48203887939453,-23.533799362182616,1.689305470089541e+18,6.24954111328125,-281.336865234375,133.37283630371093,-166.3347961425781,1.689305470092406e+18,6.2524059244791665,0.6805799206097921,-0.6942828893661499,0.2074468284845351,0.1083574766914049,-1.6860647996266682,1.119940161705017,-1.5994245211283369
6.25,1.6893054701356593e+18,6.2956591796875,-0.0109607974688211,0.1149915059407552,-0.6269778410593668,1.689305470144302e+18,6.304302083333333,-0.541376123825709,-8.867202440897623,3.5471601486206055,1.689305470144302e+18,6.304302083333333,-0.5873013933499655,-8.78007729848226,4.335840702056885,1.6893054701356593e+18,6.2956591796875,-0.2444988091786702,-0.3603595991929372,-0.0146607658049712,1.689305470144302e+18,6.304302083333333,-0.2587014287710189,-0.4290310343106587,-0.0023925555869936,,,,,,,,,,,,1.689305470139536e+18,6.299536279296875,-12.43423957824707,40.159960174560545,-24.07547950744629,1.689305470139536e+18,6.299536279296875,-280.72443237304685,133.0507568359375,-166.87647705078126,1.689305470144302e+18,6.304302083333333,0.6771342356999716,-0.6951239109039307,0.2164518634478251,0.1068880011638005,-1.706032435099284,1.1087154547373457,-1.5949094692866008
6.3,1.6893054701875615e+18,6.347561686197917,0.2748439411322276,-0.4606342315673828,-0.9002827803293864,1.6893054701962127e+18,6.356212727864583,-0.385045051574707,-9.294321378072103,3.414557854334513,1.6893054701962127e+18,6.356212727864583,-0.6789469321568807,-8.737837155659994,4.40739631652832,1.6893054701875615e+18,6.347561686197917,-0.1746056452393531,-0.4171700626611709,0.0428623792249708,1.6893054701962127e+18,6.356212727864583,-0.1418734515706697,-0.3303253849347432,0.058592158059279,,,,,,,,,,,,1.6893054701895388e+18,6.349538964843751,-11.926719665527344,40.157518768310545,-24.83431968688965,1.6893054701895388e+18,6.349538964843751,-280.2169128417969,133.0483184814453,-167.63531494140625,1.6893054701962127e+18,6.356212727864583,0.674483597278595,-0.6947600841522217,0.2281086643536884,0.1016957983374595,-1.724263350168864,1.099142034848531,-1.601454496383667
6.35,1.6893054702394644e+18,6.399464436848959,0.1383687158425648,-0.6163279215494791,-0.8165272871653239,1.6893054702394609e+18,6.399460693359375,-0.5386841893196106,-9.463314533233644,3.5324044227600098,1.6893054702394609e+18,6.399460693359375,-0.6858538687229156,-8.733343601226807,4.41524863243103,1.6893054702394644e+18,6.399464436848959,-0.0032070417073555,-0.0615446728964646,-0.007228570136552,1.6893054702394609e+18,6.399460693359375,-0.0012217303737998,-0.0461203269660472,-0.0017562378197908,,,,,,,,,,,,1.6893054702395338e+18,6.3995337890625,-11.616839599609374,39.83055877685547,-25.078319931030272,1.6893054702395338e+18,6.3995337890625,-279.90703125,132.7213592529297,-167.8793151855469,1.6893054702394609e+18,6.399460693359375,0.6744954288005829,-0.6941752731800079,0.2306504994630813,0.0998849309980869,-1.7255188822746277,1.0981333255767822,-1.6065800189971924
6.4,1.6893054702913574e+18,6.451357259114584,0.2408185899257659,-0.4398142496744792,-0.8431080182393392,1.689305470282711e+18,6.442710856119792,-0.5028915603955587,-9.31864865620931,3.514258861541748,1.689305470282711e+18,6.442710856119792,-0.7313239773114523,-8.742465019226074,4.389778931935628,1.6893054702913574e+18,6.451357259114584,0.0632245540618896,-0.0388408489525317,-0.1084285813073316,1.689305470282711e+18,6.442710856119792,0.0563523185749848,-0.0408770665526389,-0.116878884534041,,,,,,,,,,,,1.6893054702895386e+18,6.449538623046875,-11.548519897460938,39.99159927368164,-25.05147933959961,1.6893054702895386e+18,6.449538623046875,-279.8387145996094,132.8823974609375,-167.85247802734375,1.689305470282711e+18,6.442710856119792,0.6729540824890137,-0.6959791978200277,0.2302345484495162,0.0986749132474262,-1.736503799756368,1.1001745859781902,-1.5967082579930625
6.45,1.6893054703432696e+18,6.5032698567708325,0.2518530388673146,-0.2991453806559245,-0.986579179763794,1.6893054703346196e+18,6.494619873046875,-0.4478566348552704,-9.111469904581703,3.2588249842325845,1.6893054703346196e+18,6.494619873046875,-0.7510249813397726,-8.765056927998861,4.341135183970134,1.6893054703432696e+18,6.5032698567708325,0.1149444778760273,-0.059762983272473,0.0920370301852622,1.6893054703346196e+18,6.494619873046875,0.102421740690867,-0.0400625790158907,0.0573704255123933,,,,,,,,,,,,1.6893054703395377e+18,6.499537744140625,-11.189839935302734,40.21363906860351,-24.80503921508789,1.6893054703395377e+18,6.499537744140625,-279.480029296875,133.10444030761718,-167.60603942871094,1.6893054703346196e+18,6.494619873046875,0.6725412408510844,-0.6971388459205627,0.2289010236660639,0.0963779538869857,-1.7427208423614502,1.1052762667338054,-1.5917809804280598
6.5,1.6893054703951708e+18,6.555170979817707,0.2339219351609547,-0.4456733067830403,-0.6436316172281901,1.689305470386521e+18,6.546521321614584,-0.4711866676807403,-9.323433876037598,3.4891342322031655,1.689305470386521e+18,6.546521321614584,-0.7005845705668131,-8.810168902079264,4.257331530253093,1.6893054703951708e+18,6.555170979817707,0.2012291898330052,-0.1919644027948378,0.2176716476678847,1.689305470386521e+18,6.546521321614584,0.1901827106873193,-0.1673261672258376,0.2116139034430186,,,,,,,,,,,,1.689305470389536e+18,6.5495359863281255,-11.558279609680175,40.20875854492188,-24.51467933654785,1.689305470389536e+18,6.5495359863281255,-279.8484802246094,133.09955749511718,-167.31567993164063,1.689305470386521e+18,6.546521321614584,0.6752975980440775,-0.6955211361249288,0.2281992336114247,0.0902328640222549,-1.7344943284988403,1.1156344016393025,-1.607712189356486
6.55,1.6893054704470715e+18,6.607071533203125,0.539326955874761,-0.3390092849731445,-0.6757082939147949,1.6893054704384197e+18,6.598419514973958,-0.1272184034072173,-9.295118967692057,3.425724506378174,1.6893054704384197e+18,6.598419514973958,-0.6350756883621216,-8.867693583170572,4.146699587504069,1.6893054704470715e+18,6.607071533203125,0.212784727414449,-0.1832595765590667,0.2822197427352269,1.6893054704384197e+18,6.598419514973958,0.2089159140984217,-0.1971567571163177,0.2619084765513738,,,,,,,,,,,,1.689305470439539e+18,6.599538818359375,-11.58267993927002,40.357598876953126,-24.256039428710935,1.689305470439539e+18,6.599538818359375,-279.8728759765625,133.24839477539064,-167.05703735351562,1.6893054704384197e+18,6.598419514973958,0.6789252559343973,-0.6930589477221171,0.2283673534790674,0.0810560286045073,-1.7233516375223796,1.129159967104594,-1.6321624120076497
6.6,1.689305470490322e+18,6.650321899414063,0.6970604360103607,-0.4369320869445801,-0.7305883169174194,1.6893054704903268e+18,6.65032666015625,0.2169492567578951,-9.43190860748291,3.235295613606771,1.6893054704903268e+18,6.65032666015625,-0.4861692090829213,-8.932232538859049,4.026143232981364,1.689305470490322e+18,6.650321899414063,0.2576324194669723,-0.0767399482429027,0.4610505551099777,1.6893054704903268e+18,6.65032666015625,0.2522873431444168,-0.067806040868163,0.4602869749069214,,,,,,,,,,,,1.6893054704895386e+18,6.649538525390625,-12.612359809875487,40.62355880737304,-24.007159805297853,1.6893054704895386e+18,6.649538525390625,-280.9025512695313,133.5143585205078,-166.80816040039062,1.6893054704903268e+18,6.65032666015625,0.6854964892069498,-0.6880621910095215,0.2268420110146204,0.072051279246807,-1.6914395888646443,1.1448222398757937,-1.6745916604995728
6.65,1.6893054705335795e+18,6.693579508463542,0.4728796482086181,-0.456033706665039,-0.6216994921366373,1.6893054705422277e+18,6.702227864583333,0.2059821486473082,-9.4925266901652,3.228515942891439,1.6893054705422277e+18,6.702227864583333,-0.2139856840173403,-8.999066670735678,3.898503383000691,1.6893054705335795e+18,6.693579508463542,0.2587523361047109,0.1089885421097277,0.5765549937884012,1.6893054705422277e+18,6.702227864583333,0.2652682363986969,0.1540398548046747,0.5845980445543925,,,,,,,,,,,,1.689305470539536e+18,6.6995361816406245,-13.544439888000488,40.52107925415039,-23.484999465942384,1.689305470539536e+18,6.6995361816406245,-281.8346313476562,133.41187744140626,-166.28599548339844,1.6893054705422277e+18,6.702227864583333,0.6962614258130392,-0.6794934471448263,0.2220242420832316,0.0647361055016517,-1.6259971857070925,1.1616251468658447,-1.74326491355896
6.7,1.6893054705854822e+18,6.7454823404947915,-0.0365224033594131,-0.2323586146036783,-0.4411579767862956,1.6893054705941276e+18,6.754127522786458,0.0360917411744594,-9.344371477762856,3.30189577738444,1.6893054705941276e+18,6.754127522786458,0.1096994261994647,-9.064245541890465,3.7487756411234536,1.6893054705854822e+18,6.7454823404947915,0.3228931824366252,0.2522873481114705,0.5910121202468872,1.6893054705941276e+18,6.754127522786458,0.3315980235735575,0.2540181279182434,0.5967135230700175,,,,,,,,,,,,1.6893054705895398e+18,6.749539697265625,-14.923039627075196,40.63331909179688,-22.579759216308595,1.6893054705895398e+18,6.749539697265625,-283.21323852539064,133.52411499023438,-165.38075561523436,1.6893054705941276e+18,6.754127522786458,0.7084636092185974,-0.6701206763585409,0.2131705085436502,0.0595768528680006,-1.5418155590693157,1.1786670287450154,-1.821690797805786
6.75,1.6893054706373844e+18,6.797384521484375,-0.4909812609354655,-0.3050483067830403,0.0566200415293375,1.6893054706460347e+18,6.80603466796875,-0.0927218769987423,-9.556933403015137,3.6496527194976807,1.6893054706460347e+18,6.80603466796875,0.4503066738446553,-9.126924832661944,3.566494623819987,1.6893054706373844e+18,6.797384521484375,0.3884593943754832,0.2924008270104726,0.6322964429855347,1.6893054706460347e+18,6.80603466796875,0.3955861429373423,0.3139338394006093,0.6352489391962687,,,,,,,,,,,,1.689305470639538e+18,6.799537939453126,-16.35531997680664,40.48447799682617,-21.78919982910156,1.689305470639538e+18,6.799537939453126,-284.64552001953126,133.37527770996093,-164.59019165039064,1.6893054706460347e+18,6.80603466796875,0.7210737466812134,-0.6603269378344218,0.2027368148167927,0.0537195776899655,-1.4453397194544475,1.1957401037216189,-1.9111714363098145
