seconds_elapsed_rounded,accelerometer_time,accelerometer_seconds_elapsed,accelerometer_z,accelerometer_y,accelerometer_x,accelerometeruncalibrated_time,accelerometeruncalibrated_seconds_elapsed,accelerometeruncalibrated_z,accelerometeruncalibrated_y,accelerometeruncalibrated_x,gravity_time,gravity_seconds_elapsed,gravity_z,gravity_y,gravity_x,gyroscope_time,gyroscope_seconds_elapsed,gyroscope_z,gyroscope_y,gyroscope_x,gyroscopeuncalibrated_time,gyroscopeuncalibrated_seconds_elapsed,gyroscopeuncalibrated_z,gyroscopeuncalibrated_y,gyroscopeuncalibrated_x,location_time,location_seconds_elapsed,location_bearingAccuracy,location_speedAccuracy,location_verticalAccuracy,location_horizontalAccuracy,location_speed,location_bearing,location_altitude,location_longitude,location_latitude,magnetometer_time,magnetometer_seconds_elapsed,magnetometer_z,magnetometer_y,magnetometer_x,magnetometeruncalibrated_time,magnetometeruncalibrated_seconds_elapsed,magnetometeruncalibrated_z,magnetometeruncalibrated_y,magnetometeruncalibrated_x,orientation_time,orientation_seconds_elapsed,orientation_qz,orientation_qy,orientation_qx,orientation_qw,orientation_roll,orientation_pitch,orientation_yaw,totalacceleration_time,totalacceleration_seconds_elapsed,totalacceleration_z,totalacceleration_y,totalacceleration_x
0.1,1.6893054639678925e+18,0.127892333984375,-0.47833943367004395,-0.7992993593215942,0.9051711559295654,1.689305463959237e+18,0.11923712158203126,7.756932735443115,3.6436707377433777,-1.580010712146759,1.6893054639765427e+18,0.1365428466796875,8.410491466522217,4.5295538902282715,-2.2306495904922485,1.6893054639419392e+18,0.101939208984375,0.5926614582538605,0.6636745423078537,0.1557706351391971,1.689305463959237e+18,0.11923712158203126,0.756251186132431,1.0760773122310638,0.18677204754203555,,,,,,,,,,,,1.6893054639489567e+18,0.10895669555664063,-38.05484914779663,-33.144349098205566,3.6996499598026276,1.6893054639590065e+18,0.11900667317708334,-306.17322794596356,59.64173189798991,-139.05762990315756,1.6893054639765427e+18,0.1365428466796875,-0.9283143877983093,-0.1988141238689422,0.17826478183269495,0.25858123600482935,0.2600858509540558,-0.47954751551151276,2.6621947288513184,1.6893054639505864e+18,0.11058637695312501,7.810292720794678,3.848735523223877,-1.803231120109558
0.2,1.689305464037092e+18,0.19709195963541667,-0.4345463116963704,-0.9782701333363851,0.14735408624013266,1.689305464045745e+18,0.20574471028645835,7.204390128453572,4.189433674017589,-3.0172496835390725,1.689305464045745e+18,0.20574471028645835,7.9062089920043945,5.066806077957153,-2.79554275671641,1.689305464037092e+18,0.19709195963541667,1.2138656203945477,1.9634227355321248,0.6078363731503487,1.689305464045745e+18,0.20574471028645835,1.0554987688859303,1.9528344074885051,0.5736788287758827,,,,,,,,,,,,1.6893054640394066e+18,0.199406689453125,-36.364538955688474,-34.86759948730469,5.213059997558593,1.6893054640394066e+18,0.199406689453125,-304.65473022460935,58.02319869995117,-137.5879379272461,1.689305464045745e+18,0.20574471028645835,-0.8981869320074717,-0.20736476778984067,0.2309567108750343,0.3091666450103124,0.341537872950236,-0.5427068720261256,2.574869473775228,1.689305464045745e+18,0.20574471028645835,7.188238700230916,4.199004948139191,-3.080061217149099
0.30000000000000004,1.6893054641408993e+18,0.3008993326822917,-0.2783176104227702,-0.5994707345962524,-0.6653626759847006,1.6893054641408998e+18,0.3008998046875,7.11362247467041,4.683830595016479,-4.587280178070069,1.6893054641408998e+18,0.3008998046875,7.454826831817627,5.1154581069946286,-3.804139995574951,1.6893054641408993e+18,0.3008993326822917,0.10206540673971176,0.9453139702479044,-0.5585344533125559,1.6893054641408998e+18,0.3008998046875,0.11429288983345032,0.9419541954994202,-0.5338656842708588,,,,,,,,,,,,1.6893054641399066e+18,0.2999067138671875,-35.70085983276367,-35.438558959960936,9.464759874343873,1.6893054641399066e+18,0.2999067138671875,-303.9910583496094,57.45223846435547,-133.33623809814452,1.6893054641408998e+18,0.3008998046875,-0.8760979652404786,-0.18546963632106778,0.2926329791545868,0.3350396454334259,0.4726672828197479,-0.5482708573341369,2.546245002746582,1.6893054641408998e+18,0.3008998046875,7.097470951080322,4.6934020042419435,-4.650091886520386
0.4,1.6893054642447053e+18,0.40470524088541665,-1.7404208183288574,-2.236787954966227,0.5964679718017579,1.6893054642360532e+18,0.3960532633463542,5.384748304883639,2.593620330095291,-3.170589725176493,1.6893054642360532e+18,0.3960532633463542,7.976921002070109,4.641393621762593,-3.244146386782328,1.6893054642447053e+18,0.40470524088541665,1.1063533127307892,-1.2286027173201244,-2.2512166053056717,1.6893054642360532e+18,0.3960532633463542,1.0755046407381694,-1.114090936879317,-1.9818249891201656,,,,,,,,,,,,1.6893054642404068e+18,0.40040673828125,-39.20835914611816,-31.954238891601562,6.3781599521636965,1.6893054642404068e+18,0.40040673828125,-307.49855041503906,60.93655853271484,-136.42283630371094,1.6893054642360532e+18,0.3960532633463542,-0.8735790352026621,-0.15949117640654242,0.2585275173187256,0.3781207700570424,0.388643592596054,-0.4932442257801692,2.425679087638855,1.6893054642360532e+18,0.3960532633463542,5.368596697847049,2.603191594282786,-3.233401298522949
0.5,1.6893054643398605e+18,0.499860498046875,-0.3323789596557617,-4.445466470718384,1.6061265230178834,1.6893054643398587e+18,0.49985888671875006,8.691130638122559,-1.8399809300899506,-0.5764708643158277,1.6893054643398587e+18,0.49985888671875006,9.295781771341959,2.3092270890871682,-2.0371493299802146,1.6893054643398605e+18,0.499860498046875,0.08252789676189425,-0.5809328645467758,-2.148199272155762,1.6893054643398587e+18,0.49985888671875006,0.18114699454357228,-0.5579235817616185,-2.2763129671414695,,,,,,,,,,,,1.6893054643409065e+18,0.5009066650390624,-46.9565788269043,-19.60173931121826,0.08295998945832253,1.6893054643409065e+18,0.5009066650390624,-315.24677124023435,73.28905715942383,-142.7180389404297,1.6893054643398587e+18,0.49985888671875006,-0.8868039747079214,-0.06097975373268122,0.14726360887289044,0.4327408572038014,0.21686642368634534,-0.23794561872879663,2.260242740313212,1.6893054643398587e+18,0.49985888671875006,8.674979209899902,-1.8304096261660259,-0.6392824699481329
0.6000000000000001,1.689305464435015e+18,0.5950150553385417,-1.8648944695790608,-3.1921873092651367,-0.5545029242833456,1.6893054644436654e+18,0.6036654866536458,7.74915623664856,-2.929014285405477,-3.553441365559896,1.6893054644436654e+18,0.6036654866536458,9.428394158681234,0.003880550463994381,-2.4832244316736856,1.689305464435015e+18,0.5950150553385417,-0.8385143590470155,1.1015172948439915,-2.890894293785095,1.6893054644436654e+18,0.6036654866536458,-0.9823731121917566,1.2482013404369356,-3.0360511938730874,,,,,,,,,,,,1.6893054644414067e+18,0.601406494140625,-49.92117919921875,-9.220759797096253,2.103279956430197,1.6893054644414067e+18,0.601406494140625,-318.21137084960935,83.67003860473633,-140.69771728515624,1.6893054644436654e+18,0.6036654866536458,-0.8924874663352966,0.05557370387638605,0.11623081440726911,0.4287021160125732,0.2584107418855031,-0.0002943330133954684,2.2440069913864136,1.6893054644436654e+18,0.6036654866536458,7.733004490534465,-2.9194430112838745,-3.6162529389063516
0.7000000000000001,1.6893054645388183e+18,0.6988182373046875,1.8500995635986328,-1.321805953979492,-5.031106273333232,1.689305464538819e+18,0.69881904296875,10.217831230163574,-4.320719814300537,-9.419346332550049,1.689305464538819e+18,0.69881904296875,8.156736469268798,-3.319114637374878,-4.153196907043457,1.6893054645388183e+18,0.6988182373046875,-2.286646783351898,3.482771873474121,-2.98529843489329,1.689305464538819e+18,0.69881904296875,-2.3371398687362674,3.594789218902588,-2.978029155731201,,,,,,,,,,,,1.6893054645419064e+18,0.701906494140625,-48.237578582763675,7.391979803144932,13.36265983581543,1.6893054645419064e+18,0.701906494140625,-316.52777404785155,100.28277816772462,-129.43833770751954,1.689305464538819e+18,0.69881904296875,-0.8886512875556946,0.2466283619403839,0.1427285403013229,0.35309687852859495,0.4747766494750977,0.3467965573072433,2.296888065338135,1.689305464538819e+18,0.69881904296875,10.201679611206055,-4.311148595809937,-9.482157802581787
0.8,1.6893054646426263e+18,0.8026261800130209,0.7943213780721029,-0.5023143291473389,-6.093884785970052,1.6893054646339697e+18,0.7939697672526042,6.435297171274821,-6.215955018997192,-11.83430258433024,1.6893054646339697e+18,0.7939697672526042,5.715848922729492,-5.778720776240031,-5.444649775822957,1.6893054646426263e+18,0.8026261800130209,-1.3671164214611053,2.3568962812423706,-1.2766574521859486,1.6893054646339697e+18,0.7939697672526042,-1.5167274673779805,2.4992024103800454,-1.4111241698265076,1.68930546466e+18,0.82,0.0,0.0,0.9919047951698304,12.539999961853027,0.0,0.0,38.199385646071306,-122.7531548,49.1904055,1.6893054646424067e+18,0.8024065185546874,-38.82649917602539,20.476479721069335,24.615939712524415,1.6893054646424067e+18,0.8024065185546874,-307.1166961669922,113.36727752685547,-118.1850570678711,1.6893054646339697e+18,0.7939697672526042,-0.8578825294971466,0.4017332245906194,0.2157975335915883,0.23284186174472168,0.7645478546619415,0.6310952405134836,2.349013845125834,1.6893054646339697e+18,0.7939697672526042,6.419145584106445,-6.20638370513916,-11.897114117940268
0.9,1.6893054647464312e+18,0.9064312744140626,1.0361952384312947,1.6995760997136433,-2.9389325777689614,1.6893054647377797e+18,0.8977796223958333,4.594319144884746,-5.109872738520305,-9.403494040171305,1.6893054647377797e+18,0.8977796223958333,3.98964524269104,-6.692824999491374,-5.94778037071228,1.6893054647464312e+18,0.9064312744140626,0.015373437354962017,0.99601578215758,-0.8431721925735474,1.6893054647377797e+18,0.8977796223958333,-0.05950845777988433,1.1051061352094014,-0.9128363033135732,,,,,,,,,,,,1.6893054647429064e+18,0.9029065429687501,-31.551639747619628,25.45651969909668,29.60817928314209,1.6893054647429064e+18,0.9029065429687501,-299.8418304443359,118.34731674194336,-113.19281768798828,1.6893054647377797e+18,0.8977796223958333,-0.8194645543893179,0.47433215876420337,0.26785596708456677,0.1770462865630785,0.9817139108975729,0.7510426541169485,2.299964189529419,1.6893054647377797e+18,0.8977796223958333,4.578167637189229,-5.100301424662272,-9.466305255889893
1.0,1.689305464841582e+18,1.001581982421875,1.7280892610549927,1.6232921123504638,-1.0138689041137696,1.689305464841586e+18,1.0015858154296875,4.6081775824228925,-5.097310443719228,-7.541977564493815,1.689305464841586e+18,1.0015858154296875,3.1537359952926636,-6.81331729888916,-6.311758120854695,1.689305464841582e+18,1.001581982421875,-0.4207639813423157,1.6928908586502076,0.7396051049232483,1.689305464841586e+18,1.0015858154296875,-0.3067561602219939,1.5225816369056702,0.6157521673788627,,,,,,,,,,,,1.6893054648434066e+18,1.00340654296875,-27.41461925506592,26.118979263305665,33.11201934814453,1.6893054648434066e+18,1.00340654296875,-295.70481262207034,119.0097770690918,-109.6889778137207,1.689305464841586e+18,1.0015858154296875,-0.8005144695440928,0.48818788429101306,0.31773736079533893,0.1381349799533685,1.1085759997367859,0.7678888340791067,2.3099408547083535,1.689305464841586e+18,1.0015858154296875,4.592025935649873,-5.087739129861196,-7.604789098103841
1.1,1.6893054649367396e+18,1.096739501953125,-0.8195828199386597,-0.4195968310038249,0.4121410846710205,1.6893054649453868e+18,1.1053868408203125,1.815952996102472,-6.96710189183553,-6.147958993911743,1.6893054649453868e+18,1.1053868408203125,2.8393978277842202,-6.639109452565511,-6.638444821039836,1.6893054649367396e+18,1.096739501953125,0.3716096853216489,0.4703407883644104,0.1292489065478245,1.6893054649453868e+18,1.1053868408203125,0.4075234731038411,0.4409938032428424,0.12800172048931321,,,,,,,,,,,,1.6893054649439063e+18,1.10390654296875,-25.91645965576172,24.82455940246582,35.251899337768556,1.6893054649439063e+18,1.10390654296875,-294.20665588378904,117.71535797119141,-107.54909896850586,1.6893054649453868e+18,1.1053868408203125,-0.7942896982034048,0.4780776798725128,0.3564016322294871,0.11587707077463465,1.167545239130656,0.7435809175173441,2.3477488358815513,1.6893054649453868e+18,1.1053868408203125,1.7998015073438485,-6.957530657450358,-6.210770606994629
1.2000000000000002,1.689305465040545e+18,1.2005449625651041,-1.7026164929072063,0.6462456385294596,0.6222566763559977,1.6893054650405455e+18,1.200545556640625,0.8677571386098861,-5.400002479553223,-6.591388797760009,1.6893054650405455e+18,1.200545556640625,2.648285245895386,-6.27173490524292,-7.0612386703491214,1.689305465040545e+18,1.2005449625651041,0.4789438048998515,0.45290567725896835,-0.013464486226439512,1.6893054650405455e+18,1.200545556640625,0.460103702545166,0.5040860027074814,0.024587325751781453,,,,,,,,,,,,1.6893054650443924e+18,1.2043924072265626,-24.424399757385252,22.717619514465333,37.6577392578125,1.6893054650443924e+18,1.2043924072265626,-292.7145935058594,115.60841751098633,-105.14325866699218,1.6893054650405455e+18,1.200545556640625,-0.7870961427688599,0.4661761462688446,0.38473229408264153,0.12270789444446559,1.2128835439682006,0.6937984466552735,2.3409468650817873,1.6893054650405455e+18,1.200545556640625,0.8516055881977082,-5.390431213378906,-6.654200553894043
1.3,1.68930546514435e+18,1.3043502197265624,0.10428224007288613,1.8320540984471638,-0.17431950569152832,1.6893054651356977e+18,1.2956975097656251,1.8355940630038579,-4.1723848183949785,-7.589136123657227,1.6893054651356977e+18,1.2956975097656251,2.132645825544993,-6.094135125478108,-7.383314768473308,1.68930546514435e+18,1.3043502197265624,0.27885998040437693,0.5043456157048544,-0.22428936045616862,1.6893054651356977e+18,1.2956975097656251,0.28326330582300824,0.521093507607778,-0.27781642352541286,,,,,,,,,,,,1.6893054651445368e+18,1.30453681640625,-21.827019500732423,21.783099555969237,39.57435913085938,1.6893054651445368e+18,1.30453681640625,-290.1172149658203,114.67389831542968,-103.22663726806641,1.6893054651356977e+18,1.2956975097656251,-0.7691915531953176,0.4726267606019973,0.4101846019426982,0.12891013423601783,1.2905136346817017,0.670415590206782,2.296584963798523,1.6893054651356977e+18,1.2956975097656251,1.819442515571912,-4.162813425064087,-7.651947657267253
1.4000000000000001,1.6893054652395008e+18,1.39950078125,0.1815737247467041,1.2636403083801269,-1.052832794189453,1.6893054652395016e+18,1.3995015869140623,1.8509480555852253,-4.493820746739705,-8.812665939331055,1.6893054652395016e+18,1.3995015869140623,1.9103996555010478,-5.909132560094197,-7.593841552734375,1.6893054652395008e+18,1.39950078125,0.08744536116719248,0.1784948273561895,0.26377160847187037,1.6893054652395016e+18,1.3995015869140623,0.09078984645505743,0.20250182785093784,0.2604322135448455,,,,,,,,,,,,1.6893054652445366e+18,1.4045366455078123,-20.62775936126709,20.768059539794923,40.971258544921874,1.6893054652445366e+18,1.4045366455078123,-288.91795349121094,113.65885925292969,-101.82973785400391,1.6893054652395016e+18,1.3995015869140623,-0.7617684801419576,0.46810917059580487,0.4288085500399272,0.1291401733954747,1.3253365755081177,0.6465649505456289,2.2942633628845215,1.6893054652395016e+18,1.3995015869140623,1.8347964684168498,-4.484249273935954,-8.8754776318868
1.5,1.6893054653346598e+18,1.4946597493489584,-0.636458824078242,-0.1293486754099528,-1.6068906784057617,1.689305465343311e+18,1.5033112792968748,0.8322037613640229,-5.714858055114746,-9.500004450480143,1.689305465343311e+18,1.5033112792968748,1.8298863172531128,-5.639419635136922,-7.812219778696696,1.6893054653346598e+18,1.4946597493489584,0.5190572943538427,0.37825285146633775,0.3444516360759735,1.689305465343311e+18,1.5033112792968748,0.6022367676099142,0.3713551585872968,0.3571780050794284,,,,,,,,,,,,1.68930546534454e+18,1.50453994140625,-20.15683994293213,19.410199928283692,41.58491897583008,1.68930546534454e+18,1.50453994140625,-288.44703063964846,112.30099716186524,-101.21607818603516,1.689305465343311e+18,1.5033112792968748,-0.7598649064699808,0.45203495025634766,0.45015520850817364,0.12435710181792574,1.3415532906850178,0.6127506792545319,2.325363556543986,1.689305465343311e+18,1.5033112792968748,0.8160522130007545,-5.705286900202434,-9.562816143035889
1.6,1.6893054654384632e+18,1.5984632161458334,-1.4797073403994243,-0.22451786200205484,-0.3518485228220622,1.689305465438466e+18,1.598466162109375,0.24442682564258575,-4.974199676513672,-8.828079795837402,1.689305465438466e+18,1.598466162109375,1.8117089986801147,-4.778102111816406,-8.366670227050781,1.6893054654384632e+18,1.5984632161458334,1.3537282943725586,0.03721187333576379,0.12135856272652744,1.689305465438466e+18,1.598466162109375,1.4082276582717896,0.030176742561161502,0.09532552156597374,,,,,,,,,,,,1.689305465444538e+18,1.604538037109375,-19.69567985534668,14.228859806060791,43.8223991394043,1.689305465444538e+18,1.604538037109375,-287.9858734130859,107.11965713500976,-98.97859802246094,1.689305465438466e+18,1.598466162109375,-0.7539034008979797,0.4207403242588043,0.48048641085624694,0.15303087830543516,1.3583538293838502,0.509204912185669,2.3269635677337646,1.689305465438466e+18,1.598466162109375,0.22827527225017546,-4.964628505706787,-8.890891456604004
1.7000000000000002,1.6893054655422733e+18,1.7022733561197916,-0.7216642002264658,0.8726722399393717,1.5391079584757488,1.6893054655336192e+18,1.6936191813151042,0.8969096938769022,-2.771985332171122,-7.32921576499939,1.6893054655336192e+18,1.6936191813151042,1.8471949299176533,-3.8442474206288657,-8.832099119822184,1.6893054655422733e+18,1.7022733561197916,0.6516150459647179,-0.14851661461095012,-0.05006549693644047,1.6893054655336192e+18,1.6936191813151042,0.7393760134776434,-0.12881621035436783,-0.022322032911082118,,,,,,,,,,,,1.6893054655445343e+18,1.7045341552734374,-20.181239700317384,9.48305959701538,45.342519760131836,1.6893054655445343e+18,1.7045341552734374,-288.471435546875,102.37385787963868,-97.45847854614257,1.6893054655336192e+18,1.6936191813151042,-0.7459437847137451,0.3926573544740677,0.5020159929990768,0.19301665574312207,1.3654836416244507,0.4028640041748682,2.306069254875183,1.6893054655336192e+18,1.6936191813151042,0.8807581265767416,-2.76241401831309,-7.392027378082275
1.8,1.6893054656460739e+18,1.806073974609375,-1.1395812233289082,0.5494014024734497,0.9176886081695557,1.689305465637419e+18,1.7974189860026042,0.6525426829854647,-3.076472004254659,-7.9258261521657305,1.689305465637419e+18,1.7974189860026042,1.9129951198895772,-3.7268292903900146,-8.869473616282145,1.6893054656460739e+18,1.806073974609375,-0.40253474563360214,-0.3437644187361002,-0.5343289226293564,1.689305465637419e+18,1.7974189860026042,-0.299883929391702,-0.29568422771990294,-0.48953214287757874,,,,,,,,,,,,1.6893054656445394e+18,1.8045395263671875,-20.704619789123534,9.731939888000488,44.993598556518556,1.6893054656445394e+18,1.8045395263671875,-288.99480895996095,102.62273864746093,-97.80739822387696,1.689305465637419e+18,1.7974189860026042,-0.7432967126369476,0.396436870098114,0.49559493859608966,0.21124561876058576,1.359182874361674,0.3898130059242248,2.271480719248454,1.689305465637419e+18,1.7974189860026042,0.6363911330699921,-3.0669007301330566,-7.988637765248616
1.9000000000000001,1.6893054657412296e+18,1.901229736328125,-1.4528369665145875,-0.8626121997833252,1.0502872467041016,1.6893054657412293e+18,1.9012292887369793,0.5747759292523066,-5.424728314081828,-7.525227785110474,1.6893054657412293e+18,1.9012292887369793,2.2954065799713135,-4.838896671930949,-8.195359627405802,1.6893054657412296e+18,1.901229736328125,-1.6164410591125489,-1.3829989194869996,-1.2110709071159362,1.6893054657412293e+18,1.9012292887369793,-1.5585208733876545,-1.314785639444987,-1.1581495900948842,,,,,,,,,,,,1.689305465744537e+18,1.904536865234375,-22.89085922241211,15.989319801330566,41.70813903808594,1.689305465744537e+18,1.904536865234375,-291.1810546875,108.88011779785157,-101.0928581237793,1.6893054657412293e+18,1.9012292887369793,-0.7564588387807211,0.4452688942352931,0.42863977948824566,0.21059296280145642,1.2976017395655315,0.5168190399805704,2.203918218612671,1.6893054657412293e+18,1.9012292887369793,0.5586243818203608,-5.415157159169515,-7.588039557139079
2.0,1.6893054658363835e+18,1.9963836669921875,-0.6701275706291199,-0.49636348088582355,-1.8105235894521077,1.6893054658450353e+18,2.0050352376302083,1.5115659808119137,-6.479963064193726,-9.035098870595297,1.6893054658450353e+18,2.0050352376302083,2.147769033908844,-6.243428866068522,-7.23898967107137,1.6893054658363835e+18,1.9963836669921875,-1.1527027189731598,0.10891216496626534,-1.1652254561583202,1.6893054658450353e+18,2.0050352376302083,-1.1270972788333893,0.2666681259870529,-1.1205305059750874,,,,,,,,,,,,1.6893054658445353e+18,2.00453515625,-23.620419311523438,24.180399322509764,37.02577934265137,1.6893054658445353e+18,2.00453515625,-291.9106170654297,117.07119903564453,-105.7752182006836,1.6893054658450353e+18,2.0050352376302083,-0.7555474042892456,0.5134357412656149,0.3560962329308192,0.1951237668593724,1.2846206029256184,0.6904893020788828,2.1092939376831055,1.6893054658450353e+18,2.0050352376302083,1.4954144681493442,-6.470391909281413,-9.097910642623901
2.1,1.6893054659401884e+18,2.100188557942708,-1.0922498603661854,-0.7695313294728597,0.36211450894673664,1.6893054659401907e+18,2.100190869140625,0.25268207788467406,-7.86963472366333,-6.2027946472167965,1.6893054659401907e+18,2.100190869140625,1.4810532569885253,-7.161700439453125,-6.5308574676513675,1.6893054659401884e+18,2.100188557942708,-1.2400819063186646,-0.0087811859945456,-0.296167828142643,1.6893054659401907e+18,2.100190869140625,-1.2762807726860046,-0.018600842542946305,-0.25470026582479477,,,,,,,,,,,,1.689305465944539e+18,2.104538818359375,-20.262979888916014,29.87413959503174,34.62603950500488,1.689305465944539e+18,2.104538818359375,-288.5531768798828,122.76493835449219,-108.17495727539062,1.6893054659401907e+18,2.100190869140625,-0.7428630113601684,0.5598259568214417,0.333638995885849,0.15221484005451197,1.3487873554229737,0.8188655257225037,2.069571828842163,1.6893054659401907e+18,2.100190869140625,0.23653052598237992,-7.860063362121582,-6.265606021881103
2.2,1.689305466043996e+18,2.2039958089192706,-0.5837952593962351,-0.34532753626505536,-0.39377673467000324,1.6893054660353444e+18,2.195344441731771,0.7535397261381149,-7.932207028071086,-6.397211313247681,1.6893054660353444e+18,2.195344441731771,1.4830010135968525,-7.750979900360107,-5.823551257451375,1.689305466043996e+18,2.2039958089192706,-0.67085729042689,-0.5580763121445974,-0.2634356343187392,1.6893054660353444e+18,2.195344441731771,-0.6894632379213969,-0.5739842603603998,-0.3061707489347706,,,,,,,,,,,,1.6893054660445394e+18,2.204539501953125,-20.86321964263916,33.72079925537109,30.55367946624756,1.6893054660445394e+18,2.204539501953125,-289.15341796875,126.61159896850586,-112.24731826782227,1.6893054660353444e+18,2.195344441731771,-0.745706687370936,0.583543042341868,0.2899344066778819,0.1383864283561706,1.3223405480384827,0.9111666083335876,2.046358585357666,1.6893054660353444e+18,2.195344441731771,0.7373881787061691,-7.9226358731587725,-6.460023005803426
2.3000000000000003,1.6893054661391498e+18,2.2991497070312503,-0.9415624260902404,-0.0011361122131347378,0.06025485992431636,1.6893054661391516e+18,2.2991517333984377,0.7246264517307281,-7.997710625330607,-5.392624616622925,1.6893054661391516e+18,2.2991517333984377,1.7217275500297546,-8.089447339375814,-5.272091786066691,1.6893054661391498e+18,2.2991497070312503,-0.4818810522556305,-0.5930279731750489,0.0813977941870689,1.6893054661391516e+18,2.2991517333984377,-0.5184209744135538,-0.6472880790630976,0.04869105170170465,,,,,,,,,,,,1.689305466144539e+18,2.304538818359375,-22.21863956451416,35.45563926696777,27.359719657897948,1.689305466144539e+18,2.304538818359375,-290.5088287353516,128.34643630981446,-115.44127807617187,1.6893054661391516e+18,2.2991517333984377,-0.7550615072250366,0.5901345411936442,0.2533976609508196,0.13143477092186606,1.2559669216473897,0.9695520401000977,2.0664939483006797,1.6893054661391516e+18,2.2991517333984377,0.7084749042987823,-7.988139231999715,-5.455436150232951
2.4000000000000004,1.6893054662343058e+18,2.394305908203125,-0.36423081159591675,0.24857425689697266,-0.4286183516184489,1.6893054662429545e+18,2.4029544677734376,1.8680965900421143,-8.128418525060018,-5.2292148272196455,1.6893054662429545e+18,2.4029544677734376,2.2113030354181924,-8.402411619822184,-4.547886371612549,1.6893054662343058e+18,2.394305908203125,-0.6575964291890463,-1.0319804549217224,-0.05324708546201388,1.6893054662429545e+18,2.4029544677734376,-0.6603198746840159,-0.8810203981896242,-0.011631891441841949,,,,,,,,,,,,1.689305466244537e+18,2.4045370849609378,-24.567139434814454,37.00381965637207,22.754219627380373,1.689305466244537e+18,2.4045370849609378,-292.8573333740234,129.89461669921874,-120.04677734375,1.6893054662429545e+18,2.4029544677734376,-0.7695404291152954,0.5919772585233053,0.1922764256596565,0.1420132095615069,1.1186429063479106,1.0286418199539185,2.096796751022339,1.6893054662429545e+18,2.4029544677734376,1.8519450227419536,-8.118847370147705,-5.2920262813568115
2.5,1.6893054663381102e+18,2.4981099446614583,-1.3593987623850505,1.5976463158925374,0.46401679515838623,1.6893054663381094e+18,2.49810947265625,2.129971081018448,-7.477929592132568,-3.99481737613678,1.6893054663381094e+18,2.49810947265625,2.2662766456604,-8.631897735595704,-4.07137246131897,1.6893054663381102e+18,2.4981099446614583,-0.4957425942023595,0.5526294261217117,-0.06963863968849182,1.6893054663381094e+18,2.49810947265625,-0.49779407531023023,0.6241820931434632,-0.04966334346681836,,,,,,,,,,,,1.6893054663445407e+18,2.5045407958984374,-25.07587947845459,37.927359390258786,20.502099609375,1.6893054663445407e+18,2.5045407958984374,-293.36607360839844,130.8181579589844,-122.29889755249023,1.6893054663381094e+18,2.49810947265625,-0.7755666971206665,0.5940906882286072,0.17848484516143795,0.11662368923425674,1.0645312309265136,1.0757982015609742,2.167308521270752,1.6893054663381094e+18,2.49810947265625,2.113819509744644,-7.468358421325684,-4.0576289892196655
2.6,1.6893054664419172e+18,2.601917114257813,-1.3375149468580882,-0.2639053662618,-0.3466418981552124,1.6893054664332654e+18,2.593265380859375,0.057527453328172405,-8.337890045717359,-2.9809585412343345,1.6893054664332654e+18,2.593265380859375,1.7958596150080364,-9.159742514292398,-2.9053221543629966,1.6893054664419172e+18,2.601917114257813,-2.335032363732656,-1.0286716322104137,-0.7451283385356268,1.6893054664332654e+18,2.593265380859375,-2.2208769818147025,-0.863127147157987,-0.7521532873312632,,,,,,,,,,,,1.689305466444534e+18,2.6045339355468746,-22.627339363098145,41.47877960205078,14.610719585418702,1.689305466444534e+18,2.6045339355468746,-290.9175323486328,134.36957702636718,-128.19027709960938,1.6893054664332654e+18,2.593265380859375,-0.764987846215566,0.6242535213629404,0.13253893579045928,0.07530368678271766,1.0007179776827495,1.212706983089447,2.2234153747558594,1.6893054664332654e+18,2.593265380859375,0.041375900308291115,-8.328318854173025,-3.0437700748443604
2.7,1.6893054665457213e+18,2.705721435546875,-0.08665784200032552,-0.2781230608622233,-0.5738603671391805,1.6893054665370719e+18,2.6970720621744793,1.315653642018636,-10.130214214324951,-2.10488631327947,1.6893054665370719e+18,2.6970720621744793,1.3909364144007366,-9.629964351654053,-1.2121951580047607,1.6893054665457213e+18,2.705721435546875,-0.9617309818665186,-0.37939822922150296,-0.5247077892223994,1.6893054665370719e+18,2.6970720621744793,-0.9818895310163498,-0.4628576834996541,-0.5205589979887009,,,,,,,,,,,,1.6893054665445376e+18,2.7045374755859375,-21.00107936859131,44.20059928894043,5.81085991859436,1.6893054665445376e+18,2.7045374755859375,-289.29127502441406,137.09139709472657,-136.9901382446289,1.6893054665370719e+18,2.6970720621744793,-0.7540647486845652,0.6536371111869812,0.04418657192339495,0.04382697585970158,0.7102362811565399,1.3813016613324482,2.431880791982015,1.6893054665370719e+18,2.6970720621744793,1.2995020945866902,-10.120642503102621,-2.1676979263623557
2.8000000000000003,1.689305466640877e+18,2.8008770019531246,-0.18453261852264402,0.06972503662109375,-0.5470306992530822,1.6893054666408765e+18,2.8008765462239587,0.7199405233065287,-9.722237745920816,-0.8276175260543823,1.6893054666408765e+18,2.8008765462239587,1.0514470338821411,-9.749501546223959,-0.18526397474731007,1.689305466640877e+18,2.8008770019531246,-0.8524013638496399,0.6911023944616318,-0.02987131066620352,1.6893054666408765e+18,2.8008765462239587,-0.8950448433558146,0.6535749137401581,-0.05515604093670845,,,,,,,,,,,,1.689305466644539e+18,2.8045390136718753,-19.452899360656737,45.218078231811525,1.0418799698352814,1.689305466644539e+18,2.8045390136718753,-287.7430908203125,138.10887756347657,-141.75911407470704,1.6893054666408765e+18,2.8008765462239587,-0.24757997194925943,0.2231661876042684,0.0012772636643300333,0.015264526455818316,0.1726141770680745,1.460327724615733,0.8853824138641357,1.6893054666408765e+18,2.8008765462239587,0.7037889746328195,-9.712666511535645,-0.8904291292031606
2.9000000000000004,1.6893054667360315e+18,2.8960314941406247,-1.1582387735446293,-0.7901204427083334,-0.4725438555081685,1.6893054667446797e+18,2.9046799316406253,-0.23140588433792195,-10.775478680928549,-0.44366920242706936,1.6893054667446797e+18,2.9046799316406253,0.9163573384284973,-9.761308511098227,0.2895772233605385,1.6893054667360315e+18,2.8960314941406247,-0.3534364427129428,0.8375725994507471,-0.4022293199474613,1.6893054667446797e+18,2.9046799316406253,-0.30958142317831516,0.8036695917447408,-0.48006372650464374,,,,,,,,,,,,1.6893054667445368e+18,2.904536767578125,-19.21743984222412,45.2729793548584,0.23789999783039092,1.6893054667445368e+18,2.904536767578125,-287.5076385498047,138.16377868652344,-142.56309814453124,1.6893054667446797e+18,2.9046799316406253,0.7372245887915293,-0.6728434165318807,-0.02830358284215127,0.05257071244219933,-0.319469245771567,1.4729247490564983,-2.7075478235880532,1.6893054667446797e+18,2.9046799316406253,-0.24755744108309344,-10.765907446543375,-0.5064808006087939
3.0,1.6893054668398397e+18,2.999839762369792,-0.15510114034016928,-0.2335840861002604,-0.18654501686493552,1.6893054668398377e+18,2.99983779296875,-0.015433722734451271,-10.016953659057616,-0.09451649338006972,1.6893054668398377e+18,2.99983779296875,0.26077997907996175,-9.799856376647949,0.3164412647485733,1.6893054668398397e+18,2.999839762369792,0.07526368989298741,0.43188172827164334,-0.7053966422875723,1.6893054668398377e+18,2.99983779296875,0.11542298421263693,0.37934731394052507,-0.7173695921897888,,,,,,,,,,,,1.6893054668445373e+18,3.004537280273438,-15.42933988571167,46.53811874389648,0.8393599830567837,1.6893054668445373e+18,3.004537280273438,-283.71954040527345,139.42891387939454,-141.96163635253907,1.6893054668398377e+18,2.99983779296875,0.7126906514167786,-0.6962585330009461,-0.046790203452110234,0.07081020176410671,-0.9869988560676575,1.5280178546905516,-1.9880510807037353,1.6893054668398377e+18,2.99983779296875,-0.03158527016639705,-10.0073823928833,-0.15732808783650393
3.1,1.6893054669436419e+18,3.103641805013021,-0.7723467946052551,-0.9896814028422037,-0.7805504550536474,1.6893054669349937e+18,3.09499365234375,-0.7805586854616801,-10.853544394175211,-0.9776674658060074,1.6893054669349937e+18,3.09499365234375,-0.01888806543623407,-9.805972258249918,0.04750631377100942,1.6893054669436419e+18,3.103641805013021,0.7976372711515675,2.4075980484485626,-0.3448588721609364,1.6893054669349937e+18,3.09499365234375,0.6952664653460184,2.416328340768814,-0.3144937716424465,,,,,,,,,,,,1.6893054669445373e+18,3.1045373535156253,-13.968999767303467,46.710139465332034,4.129699909687043,1.6893054669445373e+18,3.1045373535156253,-282.2591949462891,139.60093536376954,-138.67129669189453,1.6893054669349937e+18,3.09499365234375,0.6980315943559011,-0.6995621224244436,-0.10171484140058355,0.1046089927355448,-0.26432053248087567,1.5449378093083699,-0.48972906668980914,1.6893054669349937e+18,3.09499365234375,-0.7967102428277334,-10.843973318735758,-1.0404790590206783
3.2,1.6893054670387963e+18,3.19879638671875,-0.06117060184478769,0.7425996780395507,0.9084750950336454,1.6893054670387948e+18,3.1987948811848956,-0.46091746787230176,-8.970094203948975,0.44476590926448506,1.6893054670387948e+18,3.1987948811848956,-0.2700557112693786,-9.794918696085611,-0.3662704850236575,1.6893054670387963e+18,3.19879638671875,-0.7346571028232575,0.2666426748037338,0.262000098824501,1.6893054670387948e+18,3.1987948811848956,-0.6423757337033749,0.29716049631436664,0.15454890392720697,,,,,,,,,,,,1.6893054670445376e+18,3.204537524414062,-12.090199851989746,46.583259201049806,8.149599838256837,1.6893054670445376e+18,3.204537524414062,-280.3803955078125,139.47405853271485,-134.65140075683593,1.6893054670387948e+18,3.1987948811848956,0.681806206703186,-0.6953166623910269,-0.17477589597304657,0.14448107033967966,1.4025766849517822,1.5196114579836528,1.1474274694919586,1.6893054670387948e+18,3.1987948811848956,-0.47706901033719395,-8.960522492726644,0.3819543085992337
3.3000000000000003,1.6893054671339502e+18,3.2939502360026043,-1.182322343190511,-0.515263557434082,0.13893662889798486,1.689305467142604e+18,3.302604044596354,-1.8084753851095836,-10.396515289942423,1.0510473400354385,1.689305467142604e+18,3.302604044596354,-0.36806976050138474,-9.729889710744223,1.1300705621639888,1.6893054671339502e+18,3.2939502360026043,-1.3378712435563405,0.9223301510016125,-0.30848695275684196,1.689305467142604e+18,3.302604044596354,-1.1546116818984349,0.8532260333498319,-0.29675325254599255,,,,,,,,,,,,1.6893054671445391e+18,3.3045390869140627,-11.50581979751587,47.588539123535156,2.011779959499836,1.6893054671445391e+18,3.3045390869140627,-279.79601135253904,140.47933654785157,-140.78921661376953,1.689305467142604e+18,3.302604044596354,0.6574615041414896,-0.7052141626675924,-0.14748619993527726,0.2190568000078201,-1.9132780234018965,1.448923687140147,-0.7027450005213419,1.689305467142604e+18,3.302604044596354,-1.8246269524097443,-10.386944055557251,0.9882357542713484
3.4000000000000004,1.6893054672377613e+18,3.3977612304687503,0.10697056849797566,-0.4305639266967774,-0.2960155705610911,1.6893054672464087e+18,3.4064085286458337,-0.4189433467884858,-10.213863054911295,0.6389833440383276,1.6893054672464087e+18,3.4064085286458337,-0.4767864644527435,-9.746752580006918,0.9433289468288422,1.6893054672377613e+18,3.3977612304687503,0.9451866944630941,-0.2161953921119372,-0.02830342296510931,1.6893054672464087e+18,3.4064085286458337,1.0278062224388123,-0.07546730525791645,-0.041742459560434014,,,,,,,,,,,,1.6893054672445368e+18,3.4045368652343746,-11.09101972579956,47.58121910095215,2.405839943885803,1.6893054672445368e+18,3.4045368652343746,-279.38121032714844,140.47201843261718,-140.39515838623046,1.6893054672464087e+18,3.4064085286458337,0.655631959438324,-0.707113097111384,-0.15637653817733124,0.21297242740790046,-2.0977731347084045,1.460887332757314,-0.5144706666469574,1.6893054672464087e+18,3.4064085286458337,-0.4350949053963025,-10.204291820526123,0.5761717483401299
3.5,1.6893054673415619e+18,3.5015618896484373,-0.9863984485467275,0.550718625386556,0.37376470615466434,1.6893054673415596e+18,3.5015595703125,-1.7126627922058106,-9.259625434875488,0.4555934309959412,1.6893054673415596e+18,3.5015595703125,-0.46822633743286135,-9.798023414611816,0.10787426158785818,1.6893054673415619e+18,3.5015618896484373,0.32197688395778334,0.39281179655032855,0.09430232256030043,1.6893054673415596e+18,3.5015595703125,0.27342328131198884,0.3859446678310633,0.1189660057425499,,,,,,,,,,,,1.6893054673445368e+18,3.504536767578125,-10.710379791259765,47.29329872131348,7.133339786529541,1.6893054673445368e+18,3.504536767578125,-279.0005737304688,140.18409881591796,-135.66765594482422,1.6893054673415596e+18,3.5015595703125,0.6608687281608582,-0.6958753228187561,-0.19979991316795345,0.19764220416545863,-2.9216951370239257,1.520940113067627,0.3500333249568939,1.6893054673415596e+18,3.5015595703125,-1.7288143396377564,-9.250054168701173,0.3927818387746811
3.6,1.6893054674453676e+18,3.6053675537109378,-0.9628125031789144,0.8346381982167562,-0.04954962432384493,1.6893054674367142e+18,3.596714396158854,-1.371386468410492,-8.970093886057535,0.17188443119327226,1.6893054674367142e+18,3.596714396158854,-0.36648955941200256,-9.799668153127035,0.24889551351467765,1.6893054674453676e+18,3.6053675537109378,-0.34653876225153607,0.19565504789352414,0.10313441387067233,1.6893054674367142e+18,3.596714396158854,-0.29051733265320456,0.19532415953775242,0.0953458826988935,,,,,,,,,,,,1.6893054674445368e+18,3.6045367431640627,-11.010499858856202,47.19569969177246,6.645339870452881,1.6893054674445368e+18,3.6045367431640627,-279.3006896972656,140.08649444580078,-136.15565795898436,1.6893054674367142e+18,3.596714396158854,0.661611000696818,-0.6925221780935923,-0.19851583490769065,0.2079668765266736,-2.563689867655436,1.5245045224825542,0.005339190519104364,1.6893054674367142e+18,3.596714396158854,-1.387537995974223,-8.960522492726644,0.10907283642639715
3.7,1.6893054675405243e+18,3.700524365234375,-0.9545880436897278,-0.48523845672607424,-0.1895460844039917,1.6893054675405243e+18,3.7005243326822916,-1.4487544099489849,-10.277871290842691,0.6857430823147297,1.6893054675405243e+18,3.7005243326822916,-0.3482854167620341,-9.747722466786703,1.0078905423482258,1.6893054675405243e+18,3.700524365234375,-1.0236574411392212,-1.2479366302490233,0.05919284448027612,1.6893054675405243e+18,3.7005243326822916,-0.955927754441897,-1.1405872354904811,0.107817717983077,,,,,,,,,,,,1.689305467544537e+18,3.704537060546875,-11.864499759674072,47.50923843383789,2.6437399834394455,1.689305467544537e+18,3.704537060546875,-280.1546905517578,140.40003662109376,-140.15725708007812,1.6893054675405243e+18,3.7005243326822916,0.6581346094608307,-0.7018960614999136,-0.15745065112908677,0.220827671388785,-1.9266567826271057,1.4614543120066326,-0.6724018156528473,1.6893054675405243e+18,3.7005243326822916,-1.4649059375127156,-10.26829973856608,0.6229314909627041
3.8000000000000003,1.6893054676356774e+18,3.7956774902343753,-0.1502170885602633,-0.1974024772644043,-0.3035554687182109,1.689305467644325e+18,3.8043251953124995,-0.3894318751990795,-9.759027481079102,1.1113664110501607,1.689305467644325e+18,3.8043251953124995,-0.03673143017416202,-9.68137534459432,1.5564060807228088,1.6893054676356774e+18,3.7956774902343753,-0.46295950065056485,-0.1901572626084089,0.7060584078232447,1.689305467644325e+18,3.8043251953124995,-0.4568763052423795,-0.1514182140429815,0.7184538841247559,,,,,,,,,,,,1.6893054676445348e+18,3.804534814453125,-13.584699726104736,47.09321899414063,-1.2553799957036973,1.6893054676445348e+18,3.804534814453125,-281.87489624023436,139.98401641845703,-144.0563766479492,1.689305467644325e+18,3.8043251953124995,0.6723086833953857,-0.7007596294085184,-0.10489566251635547,0.21380219111839924,-1.6132209300994873,1.4095283945401509,-1.0722350180149078,1.689305467644325e+18,3.8043251953124995,-0.4055834387739499,-9.749456246693928,1.0485548277695973
3.9000000000000004,1.6893054677394844e+18,3.8994845784505205,-0.7995987335840861,0.03256432215372724,-0.40610005458196,1.68930546773948e+18,3.899480078125,-0.325663161277771,-9.654321479797364,1.2557533264160157,1.68930546773948e+18,3.899480078125,0.5462939202785492,-9.622149085998535,1.8269449949264527,1.6893054677394844e+18,3.8994845784505205,-0.05553783239641532,-0.7951938211917877,0.5972734987735748,1.68930546773948e+18,3.899480078125,-0.04257730804383752,-0.7782728672027588,0.6175236701965332,,,,,,,,,,,,1.689305467744534e+18,3.9045340087890623,-17.005579662322997,45.88663902282715,-3.2622799396514894,1.689305467744534e+18,3.9045340087890623,-285.2957763671875,138.77743682861328,-146.0632766723633,1.68930546773948e+18,3.899480078125,0.6947420835494995,-0.6832608461380005,-0.07435308098793023,0.21170401871204372,-1.2844964265823364,1.375137948989868,-1.4477401733398438,1.68930546773948e+18,3.899480078125,-0.34181471467018126,-9.644750213623047,1.19294171333313
4.0,1.6893054678432847e+18,4.003284708658854,-1.1915880640347798,-0.07449118296305339,-0.2610163489977519,1.689305467834639e+18,3.994639038085938,-0.4821537633736928,-9.696813901265463,1.5135600169499714,1.689305467834639e+18,3.994639038085938,0.779337594906489,-9.573962688446045,1.9900802373886108,1.6893054678432847e+18,4.003284708658854,-0.1710931720153894,-1.0557787617047627,0.23365595471113917,1.689305467834639e+18,3.994639038085938,-0.1796452887356281,-1.0124073227246602,0.2702315139273802,,,,,,,,,,,,1.6893054678445376e+18,4.004537548828125,-18.592799758911134,45.07533950805664,-5.283819961547851,1.6893054678445376e+18,4.004537548828125,-286.88299560546875,137.9661376953125,-148.0848175048828,1.689305467834639e+18,3.994639038085938,0.7096987366676331,-0.6774709622065226,-0.03758018712202705,0.1889299501975377,-1.1993478337923686,1.35150812069575,-1.6185378233591716,1.689305467834639e+18,3.994639038085938,-0.4983053157726924,-9.68724282582601,1.4507484436035156
4.1000000000000005,1.689305467938444e+18,4.098444140625,-0.8531928539276123,0.03058681488037106,0.251700234413147,1.689305467938441e+18,4.098440836588542,-0.3704887007673581,-9.608179887135824,2.198306123415629,1.689305467938441e+18,4.098440836588542,0.5502373377482096,-9.564872900644938,2.104524612426758,1.689305467938444e+18,4.098444140625,0.08164213988929986,-1.2320541143417358,-0.15848899055272342,1.689305467938441e+18,4.098440836588542,0.06401358669002848,-1.221908688545227,-0.18565212655812505,,,,,,,,,,,,1.6893054679445386e+18,4.10453837890625,-17.71683979034424,45.03995933532715,-7.607919788360595,1.6893054679445386e+18,4.10453837890625,-286.0070343017578,137.93075561523438,-150.4089157104492,1.689305467938441e+18,4.098440836588542,0.7111984292666117,-0.687021921078364,0.008152862467492583,0.14764185249805445,-1.318004270394643,1.3471664985020955,-1.6247167388598125,1.689305467938441e+18,4.098440836588542,-0.386640265583992,-9.59860865275065,2.135494510332743
4.2,1.6893054680335982e+18,4.193598103841146,0.6136637479066849,-0.19258356094360352,-0.17987513542175293,1.6893054680422492e+18,4.2022492268880205,0.4964109937039514,-9.838190078735352,1.7813567519187927,1.6893054680422492e+18,4.2022492268880205,-0.09784165831903617,-9.57193660736084,2.1408543984095254,1.6893054680335982e+18,4.193598103841146,-0.008755735121667366,-0.10422888273994128,-0.5767076934377352,1.6893054680422492e+18,4.2022492268880205,0.012471832024554418,0.1013781726360321,-0.5085198506712914,,,,,,,,,,,,1.689305468044541e+18,4.204540893554688,-14.749799728393555,45.70119857788086,-9.05971975326538,1.689305468044541e+18,4.204540893554688,-283.0399963378906,138.5919967651367,-151.8607177734375,1.6893054680422492e+18,4.2022492268880205,0.6924677193164825,-0.7100919584433237,0.030931917019188366,0.12329384436209993,-1.6186888019243877,1.3502892057100933,-1.391390065352122,1.6893054680422492e+18,4.2022492268880205,0.48025944200344384,-9.82861884435018,1.718545138835907
4.3,1.6893054681374031e+18,4.2974031575520835,-1.0590743099649746,0.06256930033365884,-0.16553737719853714,1.6893054681460564e+18,4.306056437174479,-1.2419746567805607,-9.535996596018473,1.7511473894119263,1.6893054681460564e+18,4.306056437174479,-0.003670297563076052,-9.596404075622559,2.034839471181234,1.6893054681374031e+18,4.2974031575520835,0.12268210450808203,0.6120360732699434,0.17613281410497925,1.6893054681460564e+18,4.306056437174479,0.10870856108764804,0.46008334557215375,0.1967749673252304,,,,,,,,,,,,1.689305468144536e+18,4.304536010742188,-14.907179641723634,45.9927791595459,-7.306579828262329,1.689305468144536e+18,4.304536010742188,-283.19736938476564,138.88357696533203,-150.10757904052736,1.6893054681460564e+18,4.306056437174479,0.6916241546471914,-0.7073989609877268,0.0009171475927966334,0.14557701100905732,-1.5746819774309795,1.3619859019915264,-1.3608441948890686,1.6893054681460564e+18,4.306056437174479,-1.2581262091795604,-9.526425043741861,1.6883357763290405
4.4,1.689305468241207e+18,4.401207112630208,-1.0333281258742015,0.3010306358337402,-0.006577670574188251,1.689305468241208e+18,4.401208056640625,-0.9857232928276062,-9.324829864501954,1.9360328197479248,1.689305468241208e+18,4.401208056640625,0.0840768828988075,-9.59148006439209,2.056813097000122,1.689305468241207e+18,4.401207112630208,-0.15378532372415066,-1.0137563149134319,0.24200444668531418,1.689305468241208e+18,4.401208056640625,-0.1583668198436498,-1.042380440235138,0.2446515321731567,,,,,,,,,,,,1.6893054682445368e+18,4.404536645507813,-15.775819778442383,45.52551918029785,-7.9592798233032225,1.6893054682445368e+18,4.404536645507813,-284.0660125732422,138.41631927490235,-150.7602783203125,1.689305468241208e+18,4.401208056640625,0.6979472994804382,-0.7038957834243774,0.01912971241399642,0.12976767867803568,-1.5322196006774902,1.3596489429473877,-1.4518601894378662,1.689305468241208e+18,4.401208056640625,-1.001874840259552,-9.315258407592774,1.873221206665039
4.5,1.6893054683450122e+18,4.505012369791667,0.16899572685360909,-0.37027883529663086,-0.8185349702835083,1.6893054683363625e+18,4.496362548828125,-0.08105686927835147,-9.944271723429361,1.373081386089325,1.6893054683363625e+18,4.496362548828125,-0.0787564432248473,-9.54118553797404,2.2759918769200644,1.6893054683450122e+18,4.505012369791667,-0.202094583461682,-1.0798315902551014,-0.08702284532288708,1.6893054683363625e+18,4.496362548828125,-0.22680917630592978,-1.1336386303106945,-0.06785694789141414,,,,,,,,,,,,1.6893054683445366e+18,4.504536523437499,-14.707099723815919,45.177819442749026,-10.920219612121581,1.6893054683445366e+18,4.504536523437499,-282.99729614257814,138.06861724853516,-153.7212158203125,1.6893054683363625e+18,4.496362548828125,0.6971172491709391,-0.7068284948666891,0.06654639045397436,0.09836883222063376,-1.606200913588206,1.3365220824877422,-1.4900797804196675,1.6893054683363625e+18,4.496362548828125,-0.0972084179520607,-9.93470048904419,1.310269792874654
4.6000000000000005,1.6893054684401695e+18,4.60016943359375,-0.11878830790519715,-0.3033708572387695,-0.9050035238265991,1.6893054684401682e+18,4.6001682942708335,-0.23240289588769278,-9.883354345957438,1.2792628208796184,1.6893054684401682e+18,4.6001682942708335,-0.12055799559069175,-9.5264360109965,2.335516850153605,1.6893054684401695e+18,4.60016943359375,-0.024068091157823778,0.06102543715387584,0.35979962944984434,1.6893054684401682e+18,4.6001682942708335,-0.026572638424113365,-0.00048360321670770645,0.32034791532593465,,,,,,,,,,,,1.689305468444537e+18,4.604537036132813,-14.51433973312378,45.15951919555664,-12.09141960144043,1.689305468444537e+18,4.604537036132813,-282.8045318603516,138.0503173828125,-154.8924133300781,1.6893054684401682e+18,4.6001682942708335,0.6977969805399576,-0.7061721483866373,0.08755286037921901,0.08184229706724482,-1.6242042382558186,1.3300661245981853,-1.5255237023035686,1.6893054684401682e+18,4.6001682942708335,-0.24855444580316544,-9.873783270517984,1.2164512077967327
4.7,1.6893054685353254e+18,4.69532548014323,-0.9126698970794678,-0.13411823908487952,-0.8112159570058187,1.6893054685439754e+18,4.703975423177083,-0.7485546953976154,-9.696415424346924,1.4503496487935383,1.6893054685439754e+18,4.703975423177083,0.0985522903501987,-9.518140157063803,2.372926910718282,1.6893054685353254e+18,4.69532548014323,-0.053374351623157616,-0.7282277146975199,0.24292074888944623,1.6893054685439754e+18,4.703975423177083,-0.051490849660088565,-0.7950665851434072,0.2223040461540222,,,,,,,,,,,,1.6893054685445384e+18,4.704538452148437,-15.727019691467286,44.45435981750488,-12.925899887084961,1.6893054685445384e+18,4.704538452148437,-284.0172180175781,137.34515686035155,-155.72689666748047,1.6893054685439754e+18,4.703975423177083,0.7070587078730265,-0.6961037913958231,0.10258626937866207,0.06928838913639383,-1.5309542616208394,1.3266029159228008,-1.6580933332443237,1.6893054685439754e+18,4.703975423177083,-0.7647062440713247,-9.686844189961752,1.3875380357106526
4.800000000000001,1.6893054686391293e+18,4.799129313151042,0.18508908649285635,-0.09500424067179357,-0.6151026487350464,1.6893054686391296e+18,4.79912958984375,0.27194428741931914,-9.664132118225098,1.6522440433502197,1.6893054686391296e+18,4.79912958984375,0.012734066997654739,-9.514010810852051,2.3914823055267336,1.6893054686391293e+18,4.799129313151042,-0.03336851438507433,-0.41915537354846794,0.09845111619991559,1.6893054686391296e+18,4.79912958984375,-0.03213151134550566,-0.40219368115067483,0.09016371127218006,,,,,,,,,,,,1.6893054686445356e+18,4.804535522460937,-15.047479724884033,44.2859992980957,-14.119059658050537,1.6893054686445356e+18,4.804535522460937,-283.3376739501953,137.17679748535156,-156.92005615234376,1.6893054686391296e+18,4.79912958984375,0.7060766220092773,-0.6948214530944824,0.12943519502878184,0.0436466604471206,-1.5670371770858764,1.3248769760131835,-1.6968801021575928,1.6893054686391296e+18,4.79912958984375,0.25579273700714106,-9.654560661315918,1.589432454109192
4.9,1.6893054687429348e+18,4.902934977213541,-0.9628850022951762,-0.25039688746134436,-0.7472960750261942,1.689305468734282e+18,4.894282104492188,-0.643071082731088,-9.807382424672445,1.5206388036410015,1.689305468734282e+18,4.894282104492188,0.24103490263223645,-9.498906771341959,2.437166452407837,1.6893054687429348e+18,4.902934977213541,-0.05808310396969315,-0.1478293891996145,0.34228816628456116,1.689305468734282e+18,4.894282104492188,-0.06846781269026293,-0.10102184116840363,0.35348735749721527,,,,,,,,,,,,1.689305468744535e+18,4.904535083007813,-16.133279705047606,43.9565990447998,-14.555819702148437,1.689305468744535e+18,4.904535083007813,-284.42347412109376,136.84739532470704,-157.35681762695313,1.689305468734282e+18,4.894282104492188,0.7144273420174917,-0.6854519546031952,0.13429354627927143,0.04098799141744767,-1.4739392002423604,1.3186823725700378,-1.8007632493972778,1.689305468734282e+18,4.894282104492188,-0.6592226326465607,-9.797811031341553,1.4578271905581157
5.0,1.6893054688467402e+18,5.006740112304687,-1.0250850816567738,-0.12533044815063477,-0.1390511592229207,1.6893054688380895e+18,4.998089477539062,-0.6332006851832072,-9.69472042719523,2.1146570444107056,1.6893054688380895e+18,4.998089477539062,0.3538518746693929,-9.500420093536377,2.419122099876404,1.6893054688467402e+18,5.006740112304687,0.07332928230365114,-0.24493151220182577,0.11980594399695589,1.6893054688380895e+18,4.998089477539062,0.0711148946235577,-0.24989479221403596,0.1213331076626976,,,,,,,,,,,,1.689305468844538e+18,5.004538037109375,-16.517579650878908,43.56985855102539,-14.942559719085693,1.689305468844538e+18,5.004538037109375,-284.8077758789062,136.46065826416014,-157.7435562133789,1.6893054688380895e+18,4.998089477539062,0.7190472582976023,-0.679225226243337,0.14417967448631921,0.028641267369190832,-1.4267125527064006,1.3193138043085735,-1.8797637621561687,1.6893054688380895e+18,4.998089477539062,-0.649352232615153,-9.68514903386434,2.0518454114596048
5.1000000000000005,1.6893054689418944e+18,5.10189443359375,-0.3228722423315048,0.4564199447631836,0.31249241828918456,1.6893054689418967e+18,5.101896565755208,-0.0009970149646202724,-9.219445864359537,2.5246272484461465,1.6893054689418967e+18,5.101896565755208,0.28305495033661526,-9.512701511383057,2.3783331712086997,1.6893054689418944e+18,5.10189443359375,0.011911872122436778,-0.538813692331314,-0.14755450189113617,1.6893054689418967e+18,5.101896565755208,-0.0005854129170378327,-0.5095379650592804,-0.11570805932084716,,,,,,,,,,,,1.6893054689445356e+18,5.104535522460937,-16.02957954406738,43.76627883911133,-15.045039749145507,1.6893054689445356e+18,5.104535522460937,-284.319775390625,136.6570785522461,-157.84603729248047,1.6893054689418967e+18,5.101896565755208,0.7169616917769114,-0.6793209711710612,0.1556323220332463,0.013970966838921066,-1.4535683790842693,1.3243752519289653,-1.8902445435523987,1.6893054689418967e+18,5.101896565755208,-0.017148571088910103,-9.209874629974365,2.4618156353632608
5.2,1.6893054690370532e+18,5.197053181966146,0.2063870976368586,-0.24760023752848306,-0.07342406113942464,1.6893054690456968e+18,5.20569677734375,0.44586260120073945,-9.72114102045695,2.3214367429415383,1.6893054690456968e+18,5.20569677734375,0.33250183612108225,-9.482404708862305,2.487216273943583,1.6893054690370532e+18,5.197053181966146,-0.1451059468090534,0.17511470367511114,0.32454760993520415,1.6893054690456968e+18,5.20569677734375,-0.13545936966935787,0.24640776123851538,0.34977125748991966,,,,,,,,,,,,1.6893054690445356e+18,5.204535400390625,-15.947839641571045,43.36733856201172,-15.96125955581665,1.6893054690445356e+18,5.204535400390625,-284.238037109375,136.2581344604492,-158.76225738525392,1.6893054690456968e+18,5.20569677734375,0.7187730570634207,-0.6749571859836578,0.16615913063287732,0.010664040921255917,-1.4400597016016643,1.3120882113774617,-1.923746665318807,1.6893054690456968e+18,5.20569677734375,0.42971106246113777,-9.711569786071777,2.2586251894632974
5.300000000000001,1.689305469140855e+18,5.300855143229167,-0.8894689083099365,0.022068659464518248,0.08578288555145264,1.6893054691408568e+18,5.30085673828125,-0.23724836707115168,-9.45416202545166,2.5558935165405274,1.6893054691408568e+18,5.30085673828125,0.5846861600875854,-9.443035888671876,2.5923062801361083,1.689305469140855e+18,5.300855143229167,-0.1836668203274409,0.3381139164169629,0.08989899978041649,1.6893054691408568e+18,5.30085673828125,-0.19578230977058406,0.34626896381378175,0.056963187083601964,,,,,,,,,,,,1.689305469144537e+18,5.304537084960938,-17.256899452209474,42.64875946044922,-15.896599674224854,1.689305469144537e+18,5.304537084960938,-285.5470947265625,135.53955841064453,-158.69759674072264,1.6893054691408568e+18,5.30085673828125,0.7273167490959167,-0.6672766447067261,0.15841711461544034,0.02509628795087334,-1.3499521017074585,1.296871566772461,-1.982255458831787,1.6893054691408568e+18,5.30085673828125,-0.25339992046356197,-9.44459056854248,2.4930819034576417
5.4,1.689305469244661e+18,5.404661295572917,-0.4043905983368556,-0.19794162114461264,-0.24616535504659012,1.6893054692360118e+18,5.396011678059896,0.16919250289599097,-9.703294595082602,2.370290199915568,1.6893054692360118e+18,5.396011678059896,0.7301523685455322,-9.384703477223715,2.7618016401926675,1.689305469244661e+18,5.404661295572917,-0.136019326125582,-0.22591833459834254,0.06319910070548454,1.6893054692360118e+18,5.396011678059896,-0.1491783832510312,-0.19748764236768088,0.10275262019907434,,,,,,,,,,,,1.6893054692445373e+18,5.404537402343751,-18.148719596862794,42.13635940551758,-16.63591938018799,1.6893054692445373e+18,5.404537402343751,-286.4389129638672,135.02715606689452,-159.43691864013672,1.6893054692360118e+18,5.396011678059896,0.732091893752416,-0.6607787410418192,0.16213116049766538,0.03315883595496412,-1.3129974206288655,1.2756995757420857,-2.013260841369629,1.6893054692360118e+18,5.396011678059896,0.15304095049699148,-9.693723360697428,2.307478586832682
5.5,1.6893054693398175e+18,5.49981767578125,0.29598226547241213,-0.25200252532958983,-0.09740786552429201,1.6893054693398172e+18,5.499817179361979,1.0293125535051029,-9.634401162465414,2.6146572828292847,1.6893054693398172e+18,5.499817179361979,0.7825543483098348,-9.351300239562988,2.8582315842310586,1.6893054693398175e+18,5.49981767578125,-0.1503339350223541,0.6643465101718903,0.053053646534681274,1.6893054693398172e+18,5.499817179361979,-0.1491783832510312,0.621580840398868,0.05283984235332657,,,,,,,,,,,,1.6893054693445391e+18,5.504539111328125,-18.60743980407715,41.94725914001465,-17.043399810791016,1.6893054693445391e+18,5.504539111328125,-286.8976287841797,134.8380584716797,-159.84439697265626,1.6893054693398172e+18,5.499817179361979,0.7333977123101553,-0.6591319044431051,0.16052561998367307,0.04221424615631494,-1.3046302596728008,1.2642200191815693,-2.0064707597096763,1.6893054693398172e+18,5.499817179361979,1.0131610035896301,-9.62482992808024,2.551845669746399
5.6000000000000005,1.68930546943497e+18,5.594970214843751,-0.8120795289675394,-0.3728429476420085,-0.4085925022761027,1.6893054694436227e+18,5.603622517903646,0.25473590940237045,-9.679166952768961,2.4492533206939697,1.6893054694436227e+18,5.603622517903646,0.9898367722829183,-9.303376992543539,2.9499128659566245,1.68930546943497e+18,5.594970214843751,-0.1201622846225897,0.14281520247459414,0.027641653393705695,1.6893054694436227e+18,5.603622517903646,-0.11049025257428484,0.08921177762870987,0.011402816822131479,,,,,,,,,,,,1.6893054694445373e+18,5.60453740234375,-19.8603796005249,41.70935974121094,-16.634699630737305,1.6893054694445373e+18,5.60453740234375,-288.15057373046875,134.60016021728515,-159.4356948852539,1.6893054694436227e+18,5.603622517903646,0.7391489346822103,-0.654155025879542,0.14758408069610593,0.06286781467497345,-1.2476670543352764,1.2484097679456074,-2.015381375948588,1.6893054694436227e+18,5.603622517903646,0.23858436197042465,-9.66959555943807,2.3864417473475137
5.7,1.6893054695387784e+18,5.698778361002604,-0.38230691353480023,0.15055576960245767,-0.049438277880350746,1.6893054695387756e+18,5.698775439453125,0.5367101192474365,-9.192028427124024,2.857269525527954,1.6893054695387756e+18,5.698775439453125,0.9666996121406555,-9.285958099365235,3.011874723434448,1.6893054695387784e+18,5.698778361002604,-0.07521278535326316,-0.13887002815802893,-0.03046690377717218,1.6893054695387756e+18,5.698775439453125,-0.07403686866164204,-0.1003346234560013,-0.007941248267889023,,,,,,,,,,,,1.6893054695445407e+18,5.704540527343751,-19.977499389648436,41.32627906799316,-17.055599784851076,1.6893054695445407e+18,5.704540527343751,-288.2677032470703,134.21707763671876,-159.85659942626953,1.6893054695387756e+18,5.698775439453125,0.7381913185119628,-0.654418671131134,0.1503643006086349,0.06475172489881512,-1.260819149017334,1.2428455829620362,-2.0035724401474,1.6893054695387756e+18,5.698775439453125,0.5205585598945618,-9.182456779479981,2.7944579124450684
5.800000000000001,1.6893054696425787e+18,5.8025784505208335,-0.3000040551026662,0.5587778091430664,0.46368300914764404,1.6893054696339313e+18,5.79393115234375,0.5975077506154776,-8.805487632751465,3.5528430938720703,1.6893054696339313e+18,5.79393115234375,0.7748866975307465,-9.242592334747313,3.1936285893122354,1.6893054696425787e+18,5.8025784505208335,-0.33791029701630276,-0.055257853120565435,-0.13181963066260016,1.6893054696339313e+18,5.79393115234375,-0.3039818157752355,-0.11524990821878116,-0.13199779515465096,,,,,,,,,,,,1.6893054696445386e+18,5.804538623046875,-19.025899505615236,41.24453964233398,-18.09869956970215,1.6893054696445386e+18,5.804538623046875,-287.3160919189453,134.13533630371094,-160.89969787597656,1.6893054696339313e+18,5.79393115234375,0.7317172388235728,-0.6580981115500132,0.16596394528945282,0.06260221389432744,-1.3330131769180298,1.2294960220654805,-1.957047124703725,1.6893054696339313e+18,5.79393115234375,0.5813562022522092,-8.795916398366293,3.4900315205256143
5.9,1.689305469746385e+18,5.906384765625,-1.2052111725012462,-0.0333868662516276,-0.36153658231099445,1.689305469737736e+18,5.897735921223958,-0.6706882615884145,-9.104789892832438,3.2087751626968384,1.689305469737736e+18,5.897735921223958,0.5766649047533671,-9.099627494812012,3.615128477414449,1.689305469746385e+18,5.906384765625,-0.46878817677497864,-0.3327179426948229,-0.33709580451250076,1.689305469737736e+18,5.897735921223958,-0.47680578132470447,-0.22019146848469973,-0.30431270599365234,1.68930546974e+18,5.9,0.0,0.0,0.9880953431129456,12.63599967956543,0.1740225404500961,207.60227966308597,41.0,-122.7531589,49.1904004,1.689305469744536e+18,5.90453603515625,-18.182879638671874,40.600378799438474,-20.314219665527343,1.689305469744536e+18,5.90453603515625,-286.4730712890625,133.49117889404297,-163.1152145385742,1.689305469737736e+18,5.897735921223958,0.7228895425796509,-0.6620225608348846,0.18006816009680426,0.08152725795904792,-1.4122020800908406,1.1884116927782695,-1.8714625438054402,1.689305469737736e+18,5.897735921223958,-0.6868398090203603,-9.095218499501547,3.1459635496139526
6.0,1.6893054698415427e+18,6.001542626953125,1.2133107632398605,-0.42139434814453125,-0.3698499679565429,1.6893054698415414e+18,6.0015413818359375,0.9736793988073865,-9.466405232747396,3.5472598473230996,1.6893054698415414e+18,6.0015413818359375,-0.1146239498630166,-8.950924237569174,4.0082692702611284,1.6893054698415427e+18,6.001542626953125,-0.3533550024032593,-0.8367326572537422,-0.2974302977323532,1.6893054698415414e+18,6.0015413818359375,-0.34888041764497757,-0.7633524760603905,-0.2829578629073997,,,,,,,,,,,,1.6893054698445335e+18,6.004533422851563,-14.023899745941161,40.39175910949707,-23.077519416809082,1.6893054698445335e+18,6.004533422851563,-282.31409606933596,133.28255767822264,-165.8785171508789,1.6893054698415414e+18,6.0015413818359375,0.6990174353122711,-0.675875316063563,0.22141286482413605,0.07317679499586419,-1.5991483926773071,1.1495917240778606,-1.7572703957557678,1.6893054698415414e+18,6.0015413818359375,0.9575278505799361,-9.456833998362224,3.484448273976644
6.1000000000000005,1.6893054699366963e+18,6.0966962076822915,-0.25343505541483563,-0.33390808105468744,-0.5226939916610718,1.6893054699453484e+18,6.105348510742188,-0.47417768587668735,-9.257930755615234,3.583551049232483,1.6893054699453484e+18,6.105348510742188,-0.08812285649279748,-8.872169176737467,4.184432824452718,1.6893054699366963e+18,6.0966962076822915,-0.09562586434185505,0.7437029679616293,-0.10354165996735294,1.6893054699453484e+18,6.105348510742188,-0.07696902162084973,0.7648287415504456,-0.14515685476362702,,,,,,,,,,,,1.6893054699445366e+18,6.104536743164063,-14.511899757385255,39.9452392578125,-23.747299575805663,1.6893054699445366e+18,6.104536743164063,-282.8020935058594,132.8360397338867,-166.5482971191406,1.6893054699453484e+18,6.105348510742188,0.6981284121672312,-0.6756404340267181,0.2192336246371269,0.08893276626865065,-1.5925243496894836,1.1302681962649028,-1.7381970087687175,1.6893054699453484e+18,6.105348510742188,-0.4903292382756869,-9.248358885447184,3.520739436149597
6.2,1.6893054700405056e+18,6.200505615234374,-0.525413860877355,0.08606402079264323,-0.051527182261149086,1.6893054700405028e+18,6.200502783203125,-0.773360276222229,-8.832865333557129,4.085864305496216,1.6893054700405028e+18,6.200502783203125,-0.24940199702978133,-8.859293556213379,4.20354118347168,1.6893054700405056e+18,6.200505615234374,-0.056886825865755435,0.012370023876428604,-0.49418998261292774,1.6893054700405028e+18,6.200502783203125,-0.05375614147633312,-0.007208208739757527,-0.5232366323471069,,,,,,,,,,,,1.6893054700445386e+18,6.204538720703125,-13.94337968826294,40.400299072265625,-23.200739479064943,1.6893054700445386e+18,6.204538720703125,-282.2335723876953,133.29109802246094,-166.00173645019532,1.6893054700405028e+18,6.200502783203125,0.689524483680725,-0.6867799401283264,0.20286576151847835,0.10809472799301142,-1.63058021068573,1.1271741151809693,-1.648513960838318,1.6893054700405028e+18,6.200502783203125,-0.7895118236541748,-8.823294067382813,4.02305269241333
6.300000000000001,1.689305470144308e+18,6.304307698567708,0.08001769085725148,-0.05938069025675455,-0.6267083883285522,1.6893054701356547e+18,6.295654785156249,-0.5147559742132822,-8.866604328155518,3.6934214433034263,1.6893054701356547e+18,6.295654785156249,-0.5766725043455759,-8.788017431894938,4.320606708526611,1.689305470144308e+18,6.304307698567708,-0.22215132415294644,-0.38695768763621646,-0.026190846615160513,1.6893054701356547e+18,6.295654785156249,-0.2250020305315653,-0.3770311276117961,-0.05171992396935818,,,,,,,,,,,,1.6893054701445368e+18,6.304536743164062,-12.402519702911377,40.228279495239256,-24.16697940826416,1.6893054701445368e+18,6.304536743164062,-280.6927124023438,133.11907806396485,-166.96797637939454,1.6893054701356547e+18,6.295654785156249,0.6775585611661276,-0.6950488487879435,0.215378093222777,0.10670861850182212,-1.7039820551872253,1.110565980275472,-1.5956307252248128,1.6893054701356547e+18,6.295654785156249,-0.530907521645228,-8.857032934824625,3.63060986995697
6.4,1.6893054702394598e+18,6.399459912109375,0.1750206172466278,-0.5656145095825196,-0.8301641464233398,1.6893054702394637e+18,6.399463826497396,-0.4858426998058955,-9.370492935180664,3.498904903729757,1.6893054702394637e+18,6.399463826497396,-0.6974140107631683,-8.735852718353271,4.408420403798421,1.6893054702394598e+18,6.399459912109375,-0.01215621688170362,-0.0937372729182243,-0.015424346597865221,1.6893054702394637e+18,6.399463826497396,-0.018835012180109818,-0.10952304800351455,-0.01740966054300468,,,,,,,,,,,,1.689305470244538e+18,6.404538159179687,-11.627819728851318,39.87447891235352,-25.057579803466798,1.689305470244538e+18,6.404538159179687,-279.9180145263672,132.7652786254883,-167.85857696533202,1.6893054702394637e+18,6.399463826497396,0.6740497450033823,-0.69476651151975,0.23014541715383527,0.09993751471241309,-1.7283217112223308,1.0986947218577068,-1.6029494404792786,1.6893054702394637e+18,6.399463826497396,-0.5019942571719488,-9.360921541849772,3.4360933701197305
6.5,1.6893054703346176e+18,6.494617431640624,0.24602308869361875,-0.3501822153727214,-0.9149585167566935,1.6893054703432666e+18,6.503266723632812,-0.4698905448118846,-9.192526658376059,3.3484561443328857,1.6893054703432666e+18,6.503266723632812,-0.7377152641614279,-8.773938496907553,4.3252042929331465,1.6893054703346176e+18,6.494617431640624,0.1100321020931005,-0.06467535905539985,0.04899648297578094,1.6893054703432666e+18,6.503266723632812,0.12148582562804217,-0.07218390827377631,0.080812381580472,,,,,,,,,,,,1.6893054703445368e+18,6.504536840820313,-11.430179786682128,40.21485900878906,-24.8160192489624,1.6893054703445368e+18,6.504536840820313,-279.7203704833984,133.10565795898438,-167.6170181274414,1.6893054703432666e+18,6.503266723632812,0.6732193827629089,-0.6966736912727356,0.22883297502994535,0.0951182680825392,-1.740325152873993,1.1073172291119893,-1.595868746439616,1.6893054703432666e+18,6.503266723632812,-0.4860421071449916,-9.182955265045166,3.28564453125
6.6000000000000005,1.6893054704384228e+18,6.5984227701822915,0.473171591758728,-0.39075422286987305,-0.6556233167648315,1.689305470438421e+18,6.5984207519531255,-0.1305284771253355,-9.324112129211425,3.4274792194366457,1.689305470438421e+18,6.5984207519531255,-0.6283565759658813,-8.868221855163574,4.146129035949707,1.6893054704384228e+18,6.5984227701822915,0.21980967621008551,-0.1799252678950627,0.28573221713304514,1.689305470438421e+18,6.5984207519531255,0.21725422441959377,-0.1844202160835266,0.2784323811531067,,,,,,,,,,,,1.6893054704445386e+18,6.6045386962890635,-11.838879871368409,40.34905853271484,-24.192599487304687,1.6893054704445386e+18,6.6045386962890635,-280.1290771484375,133.23985595703124,-166.99359893798828,1.689305470438421e+18,6.5984207519531255,0.6791597485542298,-0.6928617835044861,0.22821188867092132,0.08110603690147394,-1.721704649925232,1.129318356513977,-1.6335045576095581,1.689305470438421e+18,6.5984207519531255,-0.14668002855032683,-9.314540672302247,3.36466760635376
6.7,1.6893054705422282e+18,6.702228271484375,0.3643514464298884,-0.38655678431193036,-0.5957099199295044,1.689305470533576e+18,6.693575846354167,0.1995015889406204,-9.45902713139852,3.230310559272766,1.689305470533576e+18,6.693575846354167,-0.25727496266093414,-8.987979888916016,3.917954405148824,1.6893054705422282e+18,6.702228271484375,0.2780200441678365,0.13362677457431948,0.5677483479181925,1.689305470533576e+18,6.693575846354167,0.27122417092323303,0.10896308937420447,0.5571345637241999,,,,,,,,,,,,1.6893054705445373e+18,6.7045373046875,-13.695719814300537,40.5613395690918,-23.348359489440917,1.6893054705445373e+18,6.7045373046875,-281.9859130859375,133.45213775634767,-166.14935607910155,1.689305470533576e+18,6.693575846354167,0.6945140163103739,-0.6809284587701162,0.22252987573544183,0.06611401960253711,-1.6360434889793396,1.1588736176490784,-1.7320175170898438,1.689305470533576e+18,6.693575846354167,0.183350038404266,-9.449456055959066,3.16749898592631
6.800000000000001,1.6893054706460352e+18,6.8060352376302085,-0.5085599745313326,-0.40067338943481445,0.0576624870300293,1.6893054706373847e+18,6.797384765625,-0.04227319980661071,-9.540383338928223,3.538187026977539,1.6893054706373847e+18,6.797384765625,0.39226940274238586,-9.115776379903156,3.5963863531748452,1.6893054706460352e+18,6.8060352376302085,0.372933233777682,0.2523891565700372,0.6021604239940643,1.6893054706373847e+18,6.797384765625,0.3723987241586049,0.27478755265474314,0.6119597057501475,,,,,,,,,,,,1.689305470644538e+18,6.8045381103515625,-16.541979789733887,40.58695831298828,-21.61595973968506,1.689305470644538e+18,6.8045381103515625,-284.832177734375,133.4777572631836,-164.41695556640624,1.6893054706373847e+18,6.797384765625,0.71890988945961,-0.662002444267273,0.20443484187126157,0.05473147829373675,-1.461285392443339,1.1927354335784912,-1.8962860902150471,1.6893054706373847e+18,6.797384765625,-0.058424752516051115,-9.53081194559733,3.475375493367513
6.9,1.689305470741192e+18,6.901191845703124,0.21264429688453673,-0.401092529296875,-0.4240239143371582,1.6893054707411904e+18,6.901190348307292,1.0582257856925328,-9.65803050994873,2.8127630154291787,1.6893054707411904e+18,6.901190348307292,0.947281132141749,-9.202519416809082,3.2585206429163613,1.689305470741192e+18,6.901191845703124,0.31016682386398314,0.16050484813749794,0.49467867612838745,1.6893054707411904e+18,6.901190348307292,0.3190498203039169,0.20479257156451544,0.5017239848772684,,,,,,,,,,,,1.689305470744539e+18,6.904538891601563,-19.297959518432616,40.28805923461914,-20.267859649658202,1.689305470744539e+18,6.904538891601563,-287.58815002441406,133.178857421875,-163.06885681152343,1.6893054707411904e+18,6.901190348307292,0.7392336825529734,-0.6450750827789307,0.18878595282634095,0.040949389959375034,-1.287476638952891,1.2173752983411152,-2.0668999751408896,1.6893054707411904e+18,6.901190348307292,1.042074238260587,-9.64845895767212,2.749951402346293
7.0,1.6893054708363448e+18,6.996344848632813,-0.8334007362524668,-0.12880706787109372,-0.29295980930328364,1.6893054708449933e+18,7.004993204752604,0.6817550510168076,-9.470991293589273,2.4296122789382935,1.6893054708449933e+18,7.004993204752604,1.4789426922798157,-9.289517879486084,2.778355121612549,1.6893054708363448e+18,6.996344848632813,0.5056691567103068,0.41375938554604846,0.3057635053992271,1.6893054708449933e+18,7.004993204752604,0.5166392773389816,0.3909283032019933,0.2754493157068888,,,,,,,,,,,,1.689305470844538e+18,7.004537963867188,-22.061259841918947,40.256338882446286,-17.533839797973634,1.689305470844538e+18,7.004537963867188,-290.35145568847656,133.1471405029297,-160.3348373413086,1.6893054708449933e+18,7.004993204752604,0.7577279508113861,-0.6319814423720042,0.15885310371716813,0.0334550592427452,-1.080219308535258,1.2440704902013142,-2.2413588762283325,1.6893054708449933e+18,7.004993204752604,0.665603498617808,-9.46142021814982,2.3668006658554077
7.1000000000000005,1.6893054709401436e+18,7.100143636067709,0.12242843707402545,-0.5464181900024414,-0.5449578960736593,1.6893054709401503e+18,7.100150146484376,2.012962007522583,-9.98512897491455,1.5908681154251099,1.6893054709401503e+18,7.100150146484376,1.8163020610809326,-9.378701400756835,2.2234087944030763,1.6893054709401436e+18,7.100143636067709,0.5302819510300955,0.37636935090025264,0.3477604960401852,1.6893054709401503e+18,7.100150146484376,0.5234198808670044,0.42723915353417397,0.36838228702545167,,,,,,,,,,,,1.6893054709445366e+18,7.104536645507812,-23.86929931640625,40.696759414672854,-14.220319652557373,1.6893054709445366e+18,7.104536645507812,-292.15949096679685,133.58755645751953,-157.0213195800781,1.6893054709401503e+18,7.100150146484376,0.769334077835083,-0.6254807829856872,0.1272899970412254,0.0244676530361175,-0.8850043416023254,1.2734827041625976,-2.4037599563598633,1.6893054709401503e+18,7.100150146484376,1.9968104839324954,-9.975557899475097,1.528056526184082
7.2,1.6893054710439555e+18,7.203955322265625,-0.8508112827936808,0.13823938369750977,0.2835168242454529,1.6893054710352978e+18,7.195297973632813,1.4140584667523701,-9.386744022369385,1.8319051265716553,1.6893054710352978e+18,7.195297973632813,2.1805179119110107,-9.40630833307902,1.722165008385976,1.6893054710439555e+18,7.203955322265625,0.4942917972803116,0.12008592626079913,0.4251876622438431,1.6893054710352978e+18,7.195297973632813,0.5063054859638214,0.11250101573144394,0.4115959157546361,,,,,,,,,,,,1.6893054710445348e+18,7.204534887695313,-25.32597942352295,40.440559768676756,-11.1703200340271,1.6893054710445348e+18,7.204534887695313,-293.6161743164063,133.33135833740235,-153.97131805419923,1.6893054710352978e+18,7.195297973632813,0.781652569770813,-0.6144075989723206,0.10666298245390253,0.00699230356258335,-0.6682131489117941,1.28318589925766,-2.615926146507263,1.6893054710352978e+18,7.195297973632813,1.3979069193204243,-9.377172787984213,1.7690935333569844
7.300000000000001,1.6893054711391063e+18,7.299106396484374,-0.7418617963790893,0.46077117919921873,0.43421154022216796,1.689305471139108e+18,7.299108194986979,1.8754744331041973,-8.932007948557535,1.7440686225891113,1.689305471139108e+18,7.299108194986979,2.625525871912638,-9.354624112447103,1.3485079209009807,1.6893054711391063e+18,7.299106396484374,0.26206119060516353,-0.057482418930158,0.4150218486785889,1.689305471139108e+18,7.299108194986979,0.2654209459821383,-0.04143702657893298,0.4130721688270569,,,,,,,,,,,,1.689305471144537e+18,7.304537036132812,-27.698879623413085,39.989159393310544,-10.060119915008546,1.689305471144537e+18,7.304537036132812,-295.98907470703125,132.87995452880858,-152.86111602783203,1.689305471139108e+18,7.299108194986979,-0.796022911866506,0.5979366600513458,-0.09319394081830973,0.00932771336132035,-0.47475044926007587,1.2651894092559814,-2.813674251238505,1.689305471139108e+18,7.299108194986979,1.8593228856722515,-8.922436873118082,1.6812570293744404
7.4,1.6893054712342638e+18,7.394263793945313,-0.7249873479207357,0.22765604654947913,0.6375256776809692,1.6893054712429094e+18,7.402909220377604,2.199402848879496,-9.108977317810059,1.8543378512064617,1.6893054712429094e+18,7.402909220377604,2.8909579515457153,-9.290655612945557,1.2481877207756042,1.6893054712342638e+18,7.394263793945313,0.05182173568755386,-0.09414960599193967,0.2554943909247716,1.6893054712429094e+18,7.402909220377604,0.035099300439469516,-0.09465866225461161,0.24808764954408005,,,,,,,,,,,,1.6893054712445363e+18,7.404536279296875,-29.170199584960937,39.2803394317627,-9.841739845275878,1.6893054712445363e+18,7.404536279296875,-297.46039428710935,132.17113800048827,-152.64273834228516,1.6893054712429094e+18,7.402909220377604,-0.8043407301108042,0.5866407950719198,-0.09237589811285331,0.01840897199387345,-0.4071503033240636,1.2441755334536235,-2.8933993577957153,1.6893054712429094e+18,7.402909220377604,2.1832512418429055,-9.099405924479166,1.7915262579917908
7.5,1.6893054713380672e+18,7.498067423502604,-0.9850980043411255,0.26658773422241205,0.6505131721496582,1.6893054713467205e+18,7.506720499674479,1.99391915400823,-8.99133030573527,1.8824535409609477,1.6893054713467205e+18,7.506720499674479,3.003305196762085,-9.244484106699625,1.3242703874905903,1.6893054713380672e+18,7.498067423502604,-0.13469578822453812,0.0548760617772738,0.0571159000198046,1.6893054713467205e+18,7.506720499674479,-0.1544216442853212,0.05441791284829375,0.0465021170675754,,,,,,,,,,,,1.689305471344536e+18,7.5045361328124995,-29.75701961517334,38.675218963623045,-10.054019832611084,1.689305471344536e+18,7.5045361328124995,-298.0472137451172,131.5660171508789,-152.85501403808593,1.6893054713467205e+18,7.506720499674479,-0.8079490661621094,0.5813161929448446,-0.09498760600884752,0.016089767993738218,-0.4146951536337535,1.2297448714574177,-2.886465628941854,1.6893054713467205e+18,7.506720499674479,1.9777676264444988,-8.981758912404379,1.819641927878062
7.6000000000000005,1.6893054714418762e+18,7.601876383463542,-1.1863628427187602,0.22275924682617188,0.2858241597811381,1.6893054714418767e+18,7.60187685546875,1.725584053993225,-9.010173797607422,1.8326628923416137,1.6893054714418767e+18,7.60187685546875,2.932759189605713,-9.22603244781494,1.5823271989822387,1.6893054714418762e+18,7.601876383463542,-0.3258711546659469,-0.2225840290387471,-0.12909618578851217,1.6893054714418767e+18,7.60187685546875,-0.32943962216377254,-0.22641720771789547,-0.13341297358274457,,,,,,,,,,,,1.6893054714445366e+18,7.604536499023437,-29.52155933380127,38.63008003234863,-11.215459823608398,1.6893054714445366e+18,7.604536499023437,-297.81175231933594,131.52087860107423,-154.016455078125,1.6893054714418767e+18,7.60187685546875,-0.8058508992195129,0.5824751734733582,-0.10595423579215998,0.00829199859872456,-0.4942572832107544,1.2241336345672607,-2.8115467548370363,1.6893054714418767e+18,7.60187685546875,1.7094325065612792,-9.000602340698242,1.769851279258728
7.7,1.6893054715456765e+18,7.705676310221354,-0.9689255158106486,-0.10332886377970373,0.10773700475692749,1.6893054715370268e+18,7.6970266927083335,1.68345042069753,-9.373384316762289,1.9901305437088013,1.6893054715370268e+18,7.6970266927083335,2.662166158358256,-9.23048702875773,1.9790072242418926,1.6893054715456765e+18,7.705676310221354,-0.39319359759489697,-0.3476841350396474,-0.3208569710453351,1.6893054715370268e+18,7.6970266927083335,-0.389426589012146,-0.32100968807935715,-0.3072143122553825,,,,,,,,,,,,1.6893054715445353e+18,7.704535253906249,-28.382079315185546,38.70815887451172,-13.482219791412353,1.6893054715445353e+18,7.704535253906249,-296.6722747802734,131.5989562988281,-156.28321685791016,1.6893054715370268e+18,7.6970266927083335,-0.0032588044802347818,-0.003053128719329834,0.006269087394078568,0.00215141807954445,-0.6389834384123484,1.2254621982574463,-2.6857995986938477,1.6893054715370268e+18,7.6970266927083335,1.6672988732655842,-9.363812923431396,1.9273189306259155
7.800000000000001,1.6893054716408346e+18,7.8008344238281255,-0.3115147829055786,0.04481258392333983,0.36188392639160155,1.6893054716408364e+18,7.80083642578125,1.8758732279141743,-9.211868604024252,2.844966411590576,1.6893054716408364e+18,7.80083642578125,2.2004387776056924,-9.218935489654541,2.5207939942677817,1.6893054716408346e+18,7.8008344238281255,-0.5061323940753937,-0.48322494626045226,-0.38997637033462523,1.6893054716408364e+18,7.80083642578125,-0.5041419913371404,-0.49037207166353863,-0.3875176360209783,,,,,,,,,,,,1.6893054716445373e+18,7.804537329101562,-25.80299949645996,38.94605979919434,-16.48585958480835,1.6893054716445373e+18,7.804537329101562,-294.09320068359375,131.83685913085938,-159.28685455322267,1.6893054716408364e+18,7.80083642578125,0.782371997833252,-0.6019371747970581,0.15931827823321024,0.006283052498474666,-0.8520112534364065,1.2220279375712078,-2.509790619214376,1.6893054716408364e+18,7.80083642578125,1.8597217003504436,-9.202297528584799,2.78215483824412
7.9,1.6893054717361554e+18,7.896155476888022,-0.22800515095392862,-0.2712373733520508,-0.07752764225006102,1.689305471737597e+18,7.8975970052083335,1.4304094115893047,-9.464610735575357,2.99431844552358,1.689305471737597e+18,7.8975970052083335,1.6242764592170715,-9.147874673207602,3.1368923584620156,1.6893054717328786e+18,7.892878743489583,-0.6124687592188517,-0.6802493631839752,-0.5077817291021347,1.689305471734712e+18,7.894711954752604,-0.6161848505338033,-0.6915503740310669,-0.50836714108785,,,,,,,,,,,,1.6893054717445363e+18,7.904536328125,-22.718839645385742,38.935079193115236,-19.953099632263182,1.6893054717445363e+18,7.904536328125,-291.0090362548828,131.82587738037108,-162.75409698486328,1.689305471737597e+18,7.8975970052083335,0.7632665236790975,-0.6146068672339121,0.19815329462289807,0.014036248127619383,-1.090988387664159,1.2015175024668376,-2.3162915309270224,1.689305471737597e+18,7.8975970052083335,1.4142578641573589,-9.455039024353027,2.9315068324406943
8.0,1.6893054718397883e+18,7.999788330078125,0.10507672528425853,-0.7346978187561035,-0.4036165475845337,1.6893054718397883e+18,7.999788330078125,1.1264212727546692,-9.830712477366129,3.213660478591919,1.6893054718397883e+18,7.999788330078125,0.988595316807429,-9.046229839324951,3.6595659653345742,1.6893054718354678e+18,7.995467569986978,-0.4225405851999919,0.06047565986712772,-0.6142504711945852,1.6893054718354678e+18,7.995467569986978,-0.4234059751033783,0.06472626576821007,-0.6123160620530447,,,,,,,,,,,,1.689305471844533e+18,8.004532934570312,-19.69201946258545,38.810639190673825,-22.510219383239747,1.689305471844533e+18,8.004532934570312,-287.9822143554687,131.7014358520508,-165.31121673583985,1.6893054718397883e+18,7.999788330078125,0.7411731878916422,-0.6317486266295115,0.22458898524443305,0.03157961089164012,-1.3060277899106343,1.1737803022066753,-2.114895502726237,1.6893054718397883e+18,7.999788330078125,1.1102697253227234,-9.821141084035238,3.150848944981893
8.1,1.689305471943593e+18,8.103592895507813,-0.30394087980190915,-0.24610996246337888,-0.6592329343159994,1.689305471943593e+18,8.103592895507813,0.17318053854008508,-9.252845764160156,3.281656543413798,1.689305471943593e+18,8.103592895507813,0.447316937148571,-8.95320463180542,3.979545513788859,1.6893054719392686e+18,8.099268513997396,-0.3391065647204717,-0.18654297416408858,-0.5441791216532389,1.6893054719392686e+18,8.099268513997396,-0.33999741574128467,-0.18226691770056883,-0.5422447125116984,,,,,,,,,,,,1.6893054719445315e+18,8.104531323242188,-17.34473934173584,38.82039947509766,-23.81073989868164,1.6893054719445315e+18,8.104531323242188,-285.6349334716797,131.71119689941406,-166.61173400878906,1.689305471943593e+18,8.103592895507813,0.7211810747782389,-0.649716337521871,0.23447039226690924,0.051837606976429564,-1.4578526814778645,1.1499693592389424,-1.9486266771952312,1.689305471943593e+18,8.103592895507813,0.15702898676196728,-9.243274370829264,3.218844930330912
8.200000000000001,1.6893054720387502e+18,8.19875029296875,0.1310572817921638,-0.5388639450073243,-0.5541486263275146,1.6893054720387502e+18,8.19875029296875,0.05144568458199502,-9.462776184082031,3.6010783672332765,1.6893054720387502e+18,8.19875029296875,-0.10902906060218806,-8.868215751647949,4.19064302444458,1.6893054720430746e+18,8.20307442220052,-0.15943582976857815,-0.04296418900291127,-0.5848271151383718,1.6893054720430746e+18,8.20307442220052,-0.16032667209704712,-0.038713586206237466,-0.5828672548135122,,,,,,,,,,,,1.6893054720445315e+18,8.204531420898437,-14.491159629821777,38.97655982971192,-25.124679183959962,1.6893054720445315e+18,8.204531420898437,-282.78135681152344,131.8673568725586,-167.92567749023436,1.6893054720387502e+18,8.19875029296875,0.7006837368011475,-0.6661373615264893,0.24850395619869228,0.05912810787558552,-1.5963759899139405,1.1292089700698853,-1.8205670595169068,1.6893054720387502e+18,8.19875029296875,0.035294132679700864,-9.453204917907716,3.5382668018341064
8.3,1.6893054721339075e+18,8.293907470703125,0.3825346653660138,-0.24518839518229166,-0.13420792420705158,1.6893054721339075e+18,8.293907470703125,-0.21834506839513776,-9.114161650339762,4.09232493241628,1.6893054721339075e+18,8.293907470703125,-0.6256316800912222,-8.812775452931723,4.259899854660034,1.6893054721382351e+18,8.298235009765625,-0.059009583294391585,0.2191479086875915,-0.7963544607162476,1.6893054721382351e+18,8.298235009765625,-0.059895336627960184,0.22342396378517151,-0.7944302320480346,,,,,,,,,,,,1.6893054721445363e+18,8.304536425781249,-12.334199810028077,39.348659133911134,-25.45285987854004,1.6893054721445363e+18,8.304536425781249,-280.6243957519531,132.2394561767578,-168.253857421875,1.6893054721339075e+18,8.293907470703125,0.6800726056098938,-0.6873225371042887,0.24366863568623856,0.07459852099418635,-1.7160967588424683,1.1161865790685017,-1.6715286175409954,1.6893054721339075e+18,8.293907470703125,-0.23449661831061042,-9.10459041595459,4.029513398806254
8.4,1.6893054722377152e+18,8.397715169270834,0.5198423663775126,-0.1596744855244954,-0.2609203259150187,1.6893054722377152e+18,8.397715169270834,-0.49122655391693115,-8.925228436787924,4.10438867410024,1.6893054722377152e+18,8.397715169270834,-1.0303135712941487,-8.708743572235107,4.396216154098511,1.6893054722333924e+18,8.393392456054688,-0.18590665856997166,0.3160718555251757,-0.3560071736574173,1.6893054722333924e+18,8.393392456054688,-0.18679749965667722,0.320347915093104,-0.35412366936604184,,,,,,,,,,,,1.68930547224454e+18,8.404539990234374,-10.38341999053955,39.94157943725586,-25.807879638671874,1.68930547224454e+18,8.404539990234374,-278.6736145019531,132.8323776245117,-168.60887756347657,1.6893054722377152e+18,8.397715169270834,0.6620742380619049,-0.7046137551466624,0.2366475736101468,0.09551600739359851,-1.8009344935417175,1.092642903327942,-1.5464493830998738,1.6893054722377152e+18,8.397715169270834,-0.5073781063159307,-8.915657043457031,4.041577140490214
8.5,1.6893054723415227e+18,8.501522705078125,0.29325732588768005,-0.5284797350565592,-0.844740629196167,1.6893054723415227e+18,8.501522705078125,-0.7603193819522858,-9.190931320190428,3.7147574424743652,1.6893054723415227e+18,8.501522705078125,-1.0703757405281067,-8.604766686757406,4.587554057439168,1.6893054723371948e+18,8.497194620768228,-0.20100011924902594,-0.009773845163484418,-0.055945074496169866,1.6893054723371948e+18,8.497194620768228,-0.20191641648610428,-0.005523239883283783,-0.0540615729987621,,,,,,,,,,,,1.6893054723445325e+18,8.504532592773437,-10.465159893035889,39.336459732055665,-26.36785945892334,1.6893054723445325e+18,8.504532592773437,-278.75535583496094,132.22725830078124,-169.16885528564453,1.6893054723415227e+18,8.501522705078125,0.6582827170689901,-0.7059480051199595,0.2369938939809799,0.11011998727917667,-1.7999900579452515,1.070080578327179,-1.5270714958508809,1.6893054723415227e+18,8.501522705078125,-0.776470939318339,-9.181360244750977,3.6519458293914795
8.6,1.6893054724453256e+18,8.605325764973959,0.6490809718767802,-0.2822759946187337,-0.8754801352818807,1.6893054724453256e+18,8.605325764973959,-0.44765723248322803,-8.907082875569662,3.7456647952397666,1.6893054724453256e+18,8.605325764973959,-1.1148786147435505,-8.567333698272705,4.6468807856241865,1.6893054724410028e+18,8.601002522786459,-0.0388917533370355,-0.19540052488446233,0.034895677294116446,1.6893054724410028e+18,8.601002522786459,-0.03980805228153859,-0.19114991401632628,0.03677917834526545,,,,,,,,,,,,1.6893054724445384e+18,8.604538427734374,-9.874679660797119,39.002179336547854,-26.953459548950196,1.6893054724445384e+18,8.604538427734374,-278.1648742675781,131.89297637939453,-169.75445556640625,1.6893054724453256e+18,8.605325764973959,0.6569859186808268,-0.7048023541768392,0.24505915244420365,0.10750451683998101,-1.8062680164972942,1.062165876229604,-1.536662220954895,1.6893054724453256e+18,8.605325764973959,-0.4638087898492813,-8.897511641184488,3.682853182156881
8.700000000000001,1.6893054725404826e+18,8.700482470703125,0.36153832674026487,-0.6696033477783203,-0.6497314929962158,1.6893054725404826e+18,8.700482470703125,-0.5868397533893586,-9.34229736328125,3.9123846530914306,1.6893054725404826e+18,8.700482470703125,-0.9676592588424683,-8.61673583984375,4.5864501953125,1.6893054725448087e+18,8.704808471679687,0.1532762690912932,0.20591249565283457,0.33383786181608827,1.6893054725448087e+18,8.704808471679687,0.15238542505539948,0.21018854777018228,0.33574680984020233,,,,,,,,,,,,1.6893054725445396e+18,8.704539624023436,-10.696959686279296,38.928979110717776,-26.810719108581544,1.6893054725445396e+18,8.704539624023436,-278.9871490478516,131.8197799682617,-169.61171875,1.6893054725404826e+18,8.700482470703125,0.6636521458625794,-0.699289345741272,0.2455119431018829,0.1011981517076492,-1.778445029258728,1.0726473569869994,-1.5741339921951294,1.6893054725404826e+18,8.700482470703125,-0.6029913187026977,-9.332726287841798,3.849573087692261
8.8,1.6893054726356357e+18,8.795635701497396,-0.15273258090019223,-0.3617636362711589,-0.6869430541992188,1.6893054726356357e+18,8.795635701497396,-0.7115656435489655,-9.176375230153402,3.660121281941732,1.6893054726356357e+18,8.795635701497396,-0.578014979759852,-8.761908531188965,4.370941003163655,1.6893054726399652e+18,8.799965234375,0.3397327065467834,0.07437284439802168,0.41205914616584777,1.6893054726399652e+18,8.799965234375,0.3388164103031158,0.07864890098571775,0.41395283341407774,,,,,,,,,,,,1.6893054726445376e+18,8.8045375,-12.613579845428466,39.33767929077148,-25.55045967102051,1.6893054726445376e+18,8.8045375,-280.9037750244141,132.22847900390624,-168.35145874023436,1.6893054726356357e+18,8.795635701497396,0.679570734500885,-0.6892675856749216,0.2330513224005699,0.09332732235391931,-1.7015777428944905,1.1046627759933472,-1.643458604812622,1.6893054726356357e+18,8.795635701497396,-0.7277171909809113,-9.166803995768229,3.597309668858846
8.9,1.6893054727394394e+18,8.899439086914063,-0.0962506383657455,-0.22978734970092773,-0.06807426611582436,1.6893054727394394e+18,8.899439086914063,-0.3362912858525912,-9.23160950342814,3.9054853518803916,1.6893054727394394e+18,8.899439086914063,-0.26236832886934275,-8.953756968180338,3.9971937338511148,1.689305472735116e+18,8.895115966796874,0.4029674381017685,-0.3200679322083791,0.40770164132118225,1.689305472735116e+18,8.895115966796874,0.4020511458317439,-0.3157918825745582,0.4096360554297765,,,,,,,,,,,,1.6893054727445366e+18,8.904536425781249,-14.123939800262452,39.87569961547852,-24.370719337463377,1.6893054727445366e+18,8.904536425781249,-282.41412963867185,132.7664993286133,-167.17171783447264,1.6893054727394394e+18,8.899439086914063,0.6943114201227824,-0.6793913940588633,0.22744922588268912,0.06727454935510951,-1.6356144944826763,1.1502556602160137,-1.7381144563357036,1.6893054727394394e+18,8.899439086914063,-0.3524428363889456,-9.22203811009725,3.842673738797506
9.0,1.6893054728432463e+18,9.003246134440104,0.12249156832695007,0.09550333023071288,-0.030312577883402508,1.6893054728432463e+18,9.003246134440104,0.28673991312583286,-9.042975266774496,3.61575440565745,1.6893054728432463e+18,9.003246134440104,0.13932828853527704,-9.094643274943033,3.6690940062204995,1.689305472838925e+18,8.998925008138022,0.30337095260620117,0.1755473961432775,0.5379941115776697,1.689305472838925e+18,8.998925008138022,0.3024546603361765,0.17974709967772165,0.5398776183525721,,,,,,,,,,,,1.6893054728445358e+18,9.004535717773438,-15.875859546661378,40.134338760375975,-23.077519607543948,1.6893054728445358e+18,9.004535717773438,-284.1660522460937,133.02513732910157,-165.8785171508789,1.6893054728432463e+18,9.003246134440104,0.7107091347376505,-0.6662584344546,0.2210821335514386,0.04476655088365073,-1.53146098057429,1.1867997845013936,-1.8648422360420227,1.6893054728432463e+18,9.003246134440104,0.2705883644521236,-9.033403873443604,3.5529427925745645
9.1,1.6893054729384008e+18,9.098400732421876,-0.6809161603450775,-0.3496395111083984,-0.0984328746795654,1.6893054729384008e+18,9.098400732421876,0.05048855906352401,-9.563154983520509,3.2794830799102783,1.6893054729384008e+18,9.098400732421876,0.7080049872398376,-9.173067474365235,3.400437593460083,1.689305472942731e+18,9.102730875651043,0.26435193667809165,0.36883534491062164,0.5040656328201294,1.689305472942731e+18,9.102730875651043,0.2634356394410133,0.3730350434780121,0.5059491395950317,,,,,,,,,,,,1.6893054729445373e+18,9.1045373046875,-18.708699798583986,39.86593933105469,-21.318279647827147,1.6893054729445373e+18,9.1045373046875,-286.9988952636719,132.75673828125,-164.11927795410156,1.6893054729384008e+18,9.098400732421876,0.7310996174812316,-0.6506739616394043,0.2010255545377731,0.0403999768197536,-1.3645022869110108,1.208624505996704,-2.008546328544617,1.6893054729384008e+18,9.098400732421876,0.0343370046466589,-9.553583908081055,3.2166714668273926
9.200000000000001,1.689305473033554e+18,9.193553792317708,-0.07775149742762247,-0.3917786280314128,-0.3282102743784587,1.689305473033554e+18,9.193553792317708,1.1355937371651332,-9.65404224395752,2.761317332585653,1.689305473033554e+18,9.193553792317708,1.191254715124766,-9.225063959757486,3.111389676729838,1.689305473046535e+18,9.206534830729167,0.3807217627763748,0.40044762566685677,0.42274420460065204,1.689305473046535e+18,9.206534830729167,0.3798818190892537,0.4046727667252223,0.42460225025812787,,,,,,,,,,,,1.6893054730445358e+18,9.204535937500001,-21.22677993774414,39.8500789642334,-19.535859489440917,1.6893054730445358e+18,9.204535937500001,-289.5169738769531,132.74087829589843,-162.33685760498048,1.689305473033554e+18,9.193553792317708,0.7480636139710745,-0.6370315651098887,0.18248450756072995,0.03456537611782549,-1.203467071056366,1.2238599061965942,-2.1509103377660117,1.689305473033554e+18,9.193553792317708,1.1194421897331874,-9.644471009572348,2.6985057592391968
9.3,1.6893054731373622e+18,9.297362263997396,-0.5235518713792165,-0.05569442113240558,0.15786806742350257,1.6893054731373622e+18,9.297362263997396,1.2498510380585988,-9.37178897857666,2.7700909773508706,1.6893054731373622e+18,9.297362263997396,1.7542903820673625,-9.283332188924154,2.633588115374247,1.6893054731416863e+18,9.30168623046875,0.4409836232662201,0.4123035103082657,0.45555275678634644,1.6893054731416863e+18,9.30168623046875,0.440067321062088,0.41654900908470155,0.45744643807411195,,,,,,,,,,,,1.6893054731445379e+18,9.304537915039063,-24.049859619140626,39.56947975158691,-16.721319675445557,1.6893054731445379e+18,9.304537915039063,-292.3400543212891,132.4602783203125,-159.5223159790039,1.6893054731373622e+18,9.297362263997396,0.7672620515028635,-0.6223966876665751,0.15163962791363395,0.028645778695742266,-0.9815441568692526,1.241644064585368,-2.336604197820028,1.6893054731373622e+18,9.297362263997396,1.2336994508902233,-9.362217744191488,2.707279404004415
9.4,1.6893054732411645e+18,9.401164510091146,-0.6396445234616598,0.207037607828776,-0.08313667774200435,1.6893054732411645e+18,9.401164510091146,1.601994772752126,-9.135597546895346,2.018146534760793,1.6893054732411645e+18,9.401164510091146,2.2260924577713013,-9.314035733540853,2.1218179066975913,1.6893054732368433e+18,9.396843139648437,0.3804417848587036,0.4693735788265864,0.31034499903519946,1.6893054732368433e+18,9.396843139648437,0.3795509437719981,0.47359873354434967,0.312253954509894,,,,,,,,,,,,1.6893054732445373e+18,9.404537475585936,-26.5496395111084,39.50969886779785,-14.138579654693604,1.6893054732445373e+18,9.404537475585936,-294.83983459472654,132.40049896240234,-156.9395751953125,1.6893054732411645e+18,9.401164510091146,0.7829494575659434,-0.6100286344687144,0.11907566338777538,0.024341547861695234,-0.7600339651107788,1.2513581315676372,-2.5173681577046714,1.6893054732411645e+18,9.401164510091146,1.5858432054519653,-9.126026153564453,1.9553349216779072
9.5,1.6893054733449725e+18,9.50497245279948,-0.8292073210080465,-0.08288415273030596,0.16245168447494507,1.6893054733449725e+18,9.50497245279948,1.774676779905955,-9.37807003657023,2.0449660619099936,1.6893054733449725e+18,9.50497245279948,2.587458848953247,-9.26897398630778,1.9017101526260376,1.6893054733406497e+18,9.500649698893229,0.14457144464055693,-0.33337970823049545,0.45234571894009906,1.6893054733406497e+18,9.500649698893229,0.14368059734503424,-0.32912910884867114,0.4542546719312668,,,,,,,,,,,,1.6893054733445358e+18,9.50453583984375,-28.28813953399658,38.98143882751465,-13.069859886169434,1.6893054733445358e+18,9.50453583984375,-296.5783264160156,131.8722366333008,-155.87085418701173,1.6893054733449725e+18,9.50497245279948,0.7949249148368835,-0.5958706339200338,0.11321787039438878,0.011416887825665316,-0.6331490576267242,1.236997087796529,-2.6545856396357217,1.6893054733449725e+18,9.50497245279948,1.7585252126057942,-9.368498961130777,1.9821544289588928
9.600000000000001,1.6893054734401252e+18,9.60012509765625,-0.7007445096969604,0.5597932815551758,1.0242063760757447,1.6893054734401252e+18,9.60012509765625,2.1004196882247923,-8.676375007629394,2.9186453819274902,1.6893054734401252e+18,9.60012509765625,2.7818479537963867,-9.210920715332032,1.9121160984039307,1.6893054734444524e+18,9.604452392578125,0.0372882324736565,-0.18766289204359052,0.0918843164108693,1.6893054734444524e+18,9.604452392578125,0.03637193601268029,-0.18341228614250815,0.09384417495069401,,,,,,,,,,,,1.6893054734445402e+18,9.604540283203125,-28.931079292297362,38.36899909973145,-13.490759468078613,1.6893054734445402e+18,9.604540283203125,-297.2212768554688,131.25979614257812,-156.29175567626953,1.6893054734401252e+18,9.60012509765625,-0.48098307847976685,0.3507553577423096,-0.0749868720769882,0.0024714796687475603,-0.6011094212532043,1.2192105293273925,-2.720995855331421,1.6893054734401252e+18,9.60012509765625,2.0842681169509887,-8.666803741455078,2.85583381652832
9.700000000000001,1.6893054735352814e+18,9.695281372070312,-0.9775461554527283,0.49883588155110675,0.6432923078536987,1.6893054735352814e+18,9.695281372070312,1.7379868229230244,-8.745766957600912,2.6202405293782554,1.6893054735352814e+18,9.695281372070312,2.695826609929403,-9.219104448954264,1.9929348627726238,1.6893054735396068e+18,9.69960673828125,-0.1333824276924133,-0.0022602017037570594,-0.18808540850877759,1.6893054735396068e+18,9.69960673828125,-0.1342681840062141,0.0019242262467741799,-0.18619172424077984,,,,,,,,,,,,1.6893054735445358e+18,9.704535815429688,-28.610219383239745,38.40315895080566,-14.02389965057373,1.6893054735445358e+18,9.704535815429688,-296.9004150390625,131.29395751953126,-156.82489624023438,1.6893054735352814e+18,9.695281372070312,-0.26767465472221375,0.1942542095979055,-0.04161993414163588,0.002132576269408,-0.6355440815289816,1.2216039299964905,-2.6920148531595864,1.6893054735352814e+18,9.695281372070312,1.7218352754910786,-8.7361954053243,2.5574289162953696
9.8,1.689305473639086e+18,9.799086181640625,-1.0440271894137065,0.17766523361206055,0.41195376714070636,1.689305473639086e+18,9.799086181640625,1.3889338374137878,-9.070991198221842,2.7102704445521035,1.689305473639086e+18,9.799086181640625,2.412045439084371,-9.221190134684244,2.312046925226847,1.689305473634765e+18,9.794765055338543,-0.4007021536429723,-0.5378668531775475,-0.24572054793437323,1.689305473634765e+18,9.794765055338543,-0.40161844591299695,-0.533590787400802,-0.2438624948263168,,,,,,,,,,,,1.6893054736445373e+18,9.804537451171875,-27.26455955505371,38.49831886291504,-15.579399681091308,1.6893054736445373e+18,9.804537451171875,-295.55475158691405,131.3891159057617,-158.38039855957032,1.689305473639086e+18,9.799086181640625,0.7894248366355896,-0.5962371925512949,0.14535303413867948,0.00517900703319655,-0.7622324327627817,1.2222086191177368,-2.581001043319702,1.689305473639086e+18,9.799086181640625,1.372782289981842,-9.06141996383667,2.647458831469218
9.9,1.6893054737428897e+18,9.902889689127605,-0.27955494324366253,-0.08200931549072263,-0.062287211418151855,1.6893054737428897e+18,9.902889689127605,1.6189439296722412,-9.277671337127686,2.8757740259170532,1.6893054737428897e+18,9.902889689127605,1.8720679879188538,-9.164643764495851,2.9485910733540854,1.6893054737385667e+18,9.898566609700522,-0.452549343307813,-0.6950628459453583,-0.37939822177092236,1.6893054737385667e+18,9.898566609700522,-0.45346564054489136,-0.690837691227595,-0.37743836144606274,,,,,,,,,,,,1.689305473744538e+18,9.904537915039063,-24.404879570007324,38.36167945861816,-19.388239860534668,1.689305473744538e+18,9.904537915039063,-292.69507751464846,131.25247802734376,-162.18923645019532,1.6893054737428897e+18,9.902889689127605,0.7718195021152496,-0.6056628028551737,0.19317202270030975,0.0020104282011743167,-1.002775639295578,1.2057544589042664,-2.4146140019098916,1.6893054737428897e+18,9.902889689127605,1.6027923623720806,-9.268100102742512,2.8129624128341675
10.0,1.689305473846698e+18,10.006697998046874,-0.27800877888997394,-0.4225160280863444,0.3486802577972412,1.689305473846698e+18,10.006697998046874,0.9404790202776591,-9.586245695749918,3.718047618865967,1.689305473846698e+18,10.006697998046874,1.1899206737677257,-9.129807949066162,3.37691064675649,1.6893054738423726e+18,10.00237255859375,-0.3253875523805618,-0.45603635907173157,-0.6594290435314178,1.6893054738423726e+18,10.00237255859375,-0.32625294228394824,-0.4517857531706491,-0.6575200855731964,,,,,,,,,,,,1.6893054738445384e+18,10.004538403320312,-21.053539657592772,38.50319862365723,-21.875819587707518,1.6893054738445384e+18,10.004538403320312,-289.34373168945314,131.3939987182617,-164.67681732177735,1.689305473846698e+18,10.006697998046874,0.7489162087440491,-0.623407781124115,0.22421411176522568,0.006809611106291367,-1.2299196124076843,1.1959933439890544,-2.2259049812952676,1.689305473846698e+18,10.006697998046874,0.9243274529774984,-9.576674461364746,3.655236005783081
10.100000000000001,1.6893054739418516e+18,10.10185166015625,0.01902533173561096,-0.0681955337524414,-0.009853792190551741,1.6893054739418516e+18,10.10185166015625,0.4919643349945545,-9.154460906982422,3.7416567325592043,1.6893054739418516e+18,10.10185166015625,0.4435315042734146,-9.04939250946045,3.756198787689209,1.6893054739461775e+18,10.10617744954427,-0.4544328401486079,-0.32803463935852045,-0.5767331471045812,1.6893054739461775e+18,10.10617744954427,-0.4553236812353134,-0.3237840334574381,-0.5747987379630407,,,,,,,,,,,,1.6893054739445356e+18,10.104535375976562,-17.180039405822754,38.935079956054686,-24.033999633789062,1.6893054739445356e+18,10.104535375976562,-285.47023315429686,131.82587738037108,-166.83499450683593,1.6893054739418516e+18,10.10185166015625,0.7229424595832825,-0.643524956703186,0.25075296461582186,0.01585186272859572,-1.4504980325698853,1.1744255304336548,-2.0315794467926027,1.6893054739418516e+18,10.10185166015625,0.4758127866312861,-9.14488945007324,3.6788451194763185
10.200000000000001,1.6893054740370056e+18,10.197005615234376,0.44232437138756114,-0.7595523198445638,-0.27854593594868976,1.6893054740370056e+18,10.197005615234376,0.35423743973175686,-9.716853936513264,3.7974095741907754,1.6893054740370056e+18,10.197005615234376,-0.11774523804585137,-8.917989095052084,4.077946901321411,1.6893054740413332e+18,10.201333203125,-0.2608700007200241,-0.41679335236549375,-0.7244861900806427,1.6893054740413332e+18,10.201333203125,-0.2617862999439239,-0.4125478506088257,-0.722653591632843,,,,,,,,,,,,1.6893054740445368e+18,10.204536840820314,-13.750619602203368,38.64349937438965,-26.005519485473634,1.6893054740445368e+18,10.204536840820314,-282.0408172607422,131.5342987060547,-168.8065170288086,1.6893054740370056e+18,10.197005615234376,0.7025729914506277,-0.6569166382153829,0.27210169037183124,0.025484913960099165,-1.5970554947853088,1.1410955786705017,-1.9034491976102192,1.6893054740370056e+18,10.197005615234376,0.3380859059592088,-9.707282543182373,3.73459792137146
10.3,1.6893054741408084e+18,10.300808430989584,0.13131986558437347,-0.06290117899576825,-0.46834226449330646,1.6893054741408084e+18,10.300808430989584,-0.44047877192497253,-8.939884503682455,3.747858166694641,1.6893054741408084e+18,10.300808430989584,-0.5965194255113602,-8.836639563242594,4.216760238011678,1.6893054741364861e+18,10.296486246744792,-0.02252565572659175,0.9271661750972271,-0.6032039982577165,1.6893054741364861e+18,10.296486246744792,-0.023441952342788366,0.9313658817360798,-0.6012950415412585,,,,,,,,,,,,1.6893054741445376e+18,10.30453759765625,-12.203659629821777,39.030239486694335,-25.99453945159912,1.6893054741445376e+18,10.30453759765625,-280.4938537597656,131.92103729248046,-168.79553833007813,1.6893054741408084e+18,10.300808430989584,0.6833036144574484,-0.6792194247245789,0.2618232270081838,0.05301625157395993,-1.7098443110783894,1.121658205986023,-1.7358848452568054,1.6893054741408084e+18,10.300808430989584,-0.45663031935691833,-8.930312951405844,3.6850465138753257
10.4,1.6893054742446182e+18,10.404618408203126,-0.09213680028915404,-0.24359178543090818,-0.053576270739237465,1.6893054742446182e+18,10.404618408203126,-1.0580264230569203,-9.028717994689941,4.28245468934377,1.6893054742446182e+18,10.404618408203126,-0.9859625200430552,-8.744448026021322,4.335220734278361,1.6893054742402936e+18,10.400293416341146,-0.17475836941351489,0.11794790004690488,-0.465021158568561,1.6893054742402936e+18,10.400293416341146,-0.17562375993778304,0.12219850222269694,-0.46313765831291676,,,,,,,,,,,,1.6893054742445368e+18,10.404536889648437,-10.816519927978515,39.42063941955566,-26.018939590454103,1.6893054742445368e+18,10.404536889648437,-279.1067169189453,132.31143798828126,-168.81993865966797,1.6893054742446182e+18,10.404618408203126,0.6662934919198354,-0.6982234617074331,0.24981692185004548,0.07803621639808013,-1.7929862141609192,1.1005929311116536,-1.5990663568178813,1.6893054742446182e+18,10.404618408203126,-1.074177970488866,-9.01914676030477,4.219643036524455
10.5,1.689305474339773e+18,10.49977275390625,0.5576694011688232,-0.17340564727783198,-0.06829376220703127,1.689305474339773e+18,10.49977275390625,-0.7191628456115723,-8.839924240112305,4.422414779663086,1.689305474339773e+18,10.49977275390625,-1.2962254285812378,-8.62521572113037,4.488076877593994,1.6893054743440988e+18,10.504098958333334,-0.3146974146366119,-0.2892701501647631,-0.34585153808196384,1.6893054743440988e+18,10.504098958333334,-0.31561371187369025,-0.28507043917973834,-0.3439934893200795,,,,,,,,,,,,1.6893054743445373e+18,10.504537377929688,-9.383019828796387,39.17053871154785,-26.739959526062012,1.6893054743445373e+18,10.504537377929688,-277.6732147216797,132.06133575439452,-169.54095764160155,1.689305474339773e+18,10.49977275390625,0.6533470749855042,-0.7067461848258972,0.2573763370513916,0.08574834167957301,-1.8503719091415405,1.074541974067688,-1.5422782897949219,1.689305474339773e+18,10.49977275390625,-0.7353143930435181,-8.830353164672852,4.3596032619476315
10.600000000000001,1.6893054744349256e+18,10.59492549641927,0.8008901278177897,-0.5805837313334147,-1.1357946395874023,1.6893054744349256e+18,10.59492549641927,-0.6370890289545059,-9.092327117919922,3.5996028582255044,1.6893054744349256e+18,10.59492549641927,-1.4584483901659648,-8.469163417816162,4.73047947883606,1.6893054744392525e+18,10.59925244140625,-0.3093116104602814,-0.23167064338922497,0.10390817970037455,1.6893054744392525e+18,10.59925244140625,-0.31022790670394895,-0.22745567560195917,0.10586294829845425,,,,,,,,,,,,1.6893054744445376e+18,10.604537573242187,-8.12519974708557,38.23235893249512,-28.396719551086427,1.6893054744445376e+18,10.604537573242187,-276.4153991699219,131.12315826416017,-171.19771728515624,1.6893054744349256e+18,10.59492549641927,0.6465771694978079,-0.7055788934230804,0.27601175010204315,0.08876680831114447,-1.8688597083091736,1.042061189810435,-1.5479485591252644,1.6893054744349256e+18,10.59492549641927,-0.6532405763864517,-9.08275588353475,3.536791284879049
10.700000000000001,1.6893054745387328e+18,10.698733072916667,0.7286396821339926,-0.3973711331685384,-0.7899455229441324,1.6893054745387328e+18,10.698733072916667,-0.6488537341356277,-8.873982270558676,4.0271205107371015,1.6893054745387328e+18,10.698733072916667,-1.3987221320470173,-8.434157053629557,4.8105244636535645,1.6893054745344054e+18,10.694405476888022,0.0028252527117728853,0.12166399555280805,0.10924306884407992,1.6893054745344054e+18,10.694405476888022,0.0019853115081786992,0.1258636899292469,0.11112656941016512,,,,,,,,,,,,1.6893054745445373e+18,10.704537353515626,-8.336259984970093,37.790719223022464,-28.94449977874756,1.6893054745445373e+18,10.704537353515626,-276.62645568847654,130.6815170288086,-171.74549865722656,1.6893054745387328e+18,10.698733072916667,0.6491225759188334,-0.7004069487253824,0.28365995983282727,0.08715455606579776,-1.8527781168619792,1.034987489382426,-1.578004499276479,1.6893054745387328e+18,10.698733072916667,-0.6650052964687347,-8.864410877227783,3.9643089373906455
10.8,1.6893054746425393e+18,10.802539103190105,-0.12221382061640419,-0.2390023867289225,0.10256059964497884,1.6893054746425393e+18,10.802539103190105,-1.162513017654419,-8.766005992889404,4.9158546924591064,1.6893054746425393e+18,10.802539103190105,-1.0615305105845134,-8.485564231872559,4.8057059446970625,1.689305474638212e+18,10.798211954752604,-0.032426763946811335,-0.052101715467870235,0.44832418362299603,1.689305474638212e+18,10.798211954752604,-0.03334306056300797,-0.04782565993567308,0.4502585877974828,,,,,,,,,,,,1.689305474644537e+18,10.804537207031249,-9.956419849395752,37.62113914489746,-28.783459281921388,1.689305474644537e+18,10.804537207031249,-278.2466217041016,130.5119384765625,-171.58445739746094,1.6893054746425393e+18,10.802539103190105,0.6623231669267019,-0.6895488699277242,0.2798912078142166,0.08629959945877387,-1.7871774037679036,1.0453155239423115,-1.6388853589693706,1.6893054746425393e+18,10.802539103190105,-1.1786645650863647,-8.756434758504232,4.85304315884908
10.9,1.6893054747463332e+18,10.906333333333334,0.7114834388097128,-0.6388664245605469,-0.8383942445119222,1.6893054747463332e+18,10.906333333333334,0.010169496138890585,-9.189037322998047,3.99481733640035,1.6893054747463332e+18,10.906333333333334,-0.7269870837529501,-8.509504795074463,4.823876778284709,1.6893054747420152e+18,10.902015258789064,-0.006490443522731463,-0.45142941859861213,0.7711919148763021,1.6893054747420152e+18,10.902015258789064,-0.007406742622454989,-0.4471533599620064,0.7731263240178426,,,,,,,,,,,,1.6893054747445345e+18,10.904534741210938,-11.032459735870361,36.63415946960449,-29.45689926147461,1.6893054747445345e+18,10.904534741210938,-279.32265319824216,129.52495727539062,-172.25789947509764,1.6893054747463332e+18,10.906333333333334,0.6776271462440491,-0.6678878565629324,0.30107547839482623,0.06250506701568759,-1.7190847396850586,1.0501675208409627,-1.773465136686961,1.6893054747463332e+18,10.906333333333334,-0.005982056260108948,-9.179465611775717,3.932005842526754
11.0,1.689305474841496e+18,11.001496142578125,0.7709434032440186,-1.0574731826782227,-1.0319484233856202,1.689305474841496e+18,11.001496142578125,0.7203592538833619,-9.776115989685058,3.540181112289429,1.689305474841496e+18,11.001496142578125,-0.07880977466702459,-8.680976676940919,4.562529754638672,1.6893054748458227e+18,11.005822631835938,0.49663345019022626,0.2422589771449566,0.7945829629898071,1.6893054748458227e+18,11.005822631835938,0.4957171479860942,0.24653503050406775,0.7965428233146667,1.689305474798e+18,10.958000244140624,0.0,0.0,0.9837077856063844,12.95199966430664,0.0843364298343658,0.0,41.0,-122.7531647,49.1904033,1.6893054748445356e+18,11.004535522460937,-13.73353967666626,36.56949882507324,-28.58703956604004,1.6893054748445356e+18,11.004535522460937,-282.0237335205078,129.46029663085938,-171.3880386352539,1.689305474841496e+18,11.001496142578125,0.7034227013587951,-0.6445985198020935,0.29698402881622316,0.036674526706337876,-1.585930585861206,1.0865310668945312,-1.9371798753738403,1.689305474841496e+18,11.001496142578125,0.7042077064514161,-9.766544914245605,3.477369499206543
11.100000000000001,1.6893054749366505e+18,11.09665059407552,0.4420120318730672,0.061950286229451534,0.803462545077006,1.6893054749366505e+18,11.09665059407552,1.406880001227061,-8.803892532984415,4.9565326770146685,1.6893054749366505e+18,11.09665059407552,0.9352042029301325,-8.83256975809733,4.143853584925334,1.6893054749409746e+18,11.1009744140625,0.24074198361486196,-0.1298699527978897,1.618273663520813,1.6893054749409746e+18,11.1009744140625,0.23982570618391036,-0.1256549820303917,1.6201978921890259,,,,,,,,,,,,1.689305474944538e+18,11.104538134765624,-18.381739711761476,36.34258041381836,-26.905879402160643,1.689305474944538e+18,11.104538134765624,-286.67192993164065,129.2333786010742,-169.70687561035157,1.6893054749366505e+18,11.09665059407552,0.23514757553736368,-0.21857204039891562,0.09134125212828319,0.01178632793016725,-1.3486103018124898,1.1206498543421428,-2.186595638593038,1.6893054749366505e+18,11.09665059407552,1.3907284537951152,-8.794321298599243,4.893721143404643
11.200000000000001,1.6893054750404567e+18,11.200456868489583,-1.081255038579305,-0.7048552831013998,0.7721772988637289,1.6893054750404567e+18,11.200456868489583,1.4273187220096588,-9.30588674545288,4.848357240358989,1.6893054750404567e+18,11.200456868489583,2.479004999001821,-8.569987932840982,4.06652836004893,1.6893054750361357e+18,11.196135864257812,-0.044287730629245466,0.9405288497606913,1.018286903699239,1.6893054750361357e+18,11.196135864257812,-0.045204026003678656,0.9447794655958811,1.0202213128407795,1.6893054750652882e+18,11.2252880859375,0.0,0.0,0.9868927001953124,29.96299934387207,0.0846267864108085,0.0,41.0,-122.7531627,49.1904004,1.689305475044537e+18,11.204537133789064,-25.476039314270018,33.69517936706543,-25.60413932800293,1.689305475044537e+18,11.204537133789064,-293.7662384033203,126.58597793579102,-168.40513610839844,1.6893054750404567e+18,11.200456868489583,0.5335811177889506,-0.3635050555070241,0.1663225119312604,0.0061637545198512,-1.0237842897574108,1.062465985616048,-2.488707105318705,1.6893054750404567e+18,11.200456868489583,1.411167174577713,-9.296315352121988,4.785545587539673
11.3,1.6893054751445133e+18,11.304513142903646,-0.6640472014745077,-1.0874711672465007,-0.7336926460266113,1.6893054751445133e+18,11.304513142903646,2.6646074453989663,-9.59511915842692,2.9329026540120444,1.6893054751445133e+18,11.304513142903646,3.301790793736776,-8.479109128316244,3.657113035519918,1.6893054751390188e+18,11.29901875813802,0.37919459988673526,0.6006078124046326,0.5520440191030502,1.6893054751390188e+18,11.29901875813802,0.37827830264965695,0.6048584133386612,0.5539529671271642,,,,,,,,,,,,1.6893054751445356e+18,11.304535498046874,-29.706999588012696,32.29705944061279,-23.171459579467772,1.6893054751445356e+18,11.304535498046874,-297.9971923828125,125.18785781860352,-165.9724578857422,1.6893054751445133e+18,11.304513142903646,0.8176405231157938,-0.5303105314572653,0.22362667570511496,0.006713567456851367,-0.8353040218353271,1.043363889058431,-2.6253947019577026,1.6893054751445133e+18,11.304513142903646,2.6484558383623757,-9.58554776509603,2.8700910806655884
11.4,1.6893054752394179e+18,11.399417919921875,-1.4984220504760741,1.793561840057373,1.7005486011505127,1.6893054752394179e+18,11.399417919921875,2.3783461093902587,-6.756134700775147,4.655834770202636,1.6893054752394179e+18,11.399417919921875,3.8542985916137695,-8.524239349365235,2.9463204860687258,1.689305475239416e+18,11.399415974934897,0.30454179272055626,0.1606575548648834,0.6615670435130596,1.689305475239416e+18,11.399415974934897,0.3036254917581876,0.1648827095826467,0.6634505465626717,,,,,,,,,,,,1.6893054752445363e+18,11.404536425781249,-32.58741970062256,31.949359512329103,-18.774579811096192,1.6893054752445363e+18,11.404536425781249,-300.8776123046875,124.84015731811523,-161.57557830810546,1.6893054752394179e+18,11.399417919921875,0.4981996059417725,-0.31871398687362673,0.1010457783937454,0.00883599696680898,-0.6515531659126281,1.0524833917617797,-2.7364652156829834,1.6893054752394179e+18,11.399417919921875,2.3621944904327394,-6.746563529968261,4.593023061752319
11.5,1.6893054753345656e+18,11.4945654296875,0.38486119111378986,-0.5097080866495768,-1.1118546724319458,1.6893054753345656e+18,11.4945654296875,4.866303404172261,-8.659425576527914,2.1142581701278687,1.6893054753345656e+18,11.4945654296875,4.454871416091919,-8.124990463256836,3.2155929803848267,1.6893054753432159e+18,11.50321610514323,0.01585704678048691,0.20960315068562826,0.4201989372571309,1.6893054753432159e+18,11.50321610514323,0.014940745197236543,0.21382828801870346,0.4221078916452825,,,,,,,,,,,,1.689305475344533e+18,11.504533154296876,-34.35397911071777,29.10919895172119,-19.850619506835937,1.689305475344533e+18,11.504533154296876,-302.64417724609376,121.99999771118163,-162.65161590576173,1.6893054753345656e+18,11.4945654296875,-0.8527834614117941,0.4824944833914439,-0.19921364635229108,0.012449607253074584,-0.6245770653088888,0.9754049082597097,-2.8314301570256553,1.6893054753345656e+18,11.4945654296875,4.850151737531026,-8.64985450108846,2.0514466563860574
11.600000000000001,1.689305475438368e+18,11.598368204752603,-1.5764182011286418,0.6118353207906088,0.10530455907185872,1.689305475438368e+18,11.598368204752603,3.1229326327641806,-7.469993591308594,3.1905298630396524,1.689305475438368e+18,11.598368204752603,4.673077901204427,-8.05833641688029,3.0738625129063926,1.6893054754383683e+18,11.598368359375,0.05445863716304298,-0.4747033894062042,0.4456872880458832,1.6893054754383683e+18,11.598368359375,0.0535423373803496,-0.4704884052276611,0.4476115137338638,,,,,,,,,,,,1.6893054754445297e+18,11.604529663085938,-35.72037925720215,28.533359718322753,-19.567579460144042,1.6893054754445297e+18,11.604529663085938,-304.0105743408203,121.4241569519043,-162.3685760498047,1.689305475438368e+18,11.598368204752603,-0.8592181503772736,0.47356011470158893,-0.192430871228377,0.0184320750025411,-0.5808689097563425,0.9631241858005524,-2.8745824098587036,1.689305475438368e+18,11.598368204752603,3.1067811052004495,-7.460422118504842,3.1277183294296265
11.700000000000001,1.6893054755421734e+18,11.702173461914063,-0.9011776844660441,0.9622599283854166,1.022262414296468,1.6893054755421734e+18,11.702173461914063,3.881058613459269,-6.964908520380656,4.376572251319885,1.6893054755421734e+18,11.702173461914063,4.753212292989095,-7.904127995173137,3.3412272532780967,1.6893054755335227e+18,11.69352266438802,-0.05095634299019967,-0.2964987233281135,0.043218715737263345,1.6893054755335227e+18,11.69352266438802,-0.05187264053771887,-0.2922481118390957,0.04517857606212298,,,,,,,,,,,,1.6893054755445315e+18,11.704531249999999,-35.88751907348633,27.57809944152832,-21.47809944152832,1.6893054755445315e+18,11.704531249999999,-304.17771301269534,120.46889801025391,-164.2790969848633,1.6893054755421734e+18,11.702173461914063,-0.8612154722213745,0.4595163166522979,-0.21476288884878156,0.0318724829703569,-0.6118806600570679,0.9359713097413381,-2.898942788441976,1.6893054755421734e+18,11.702173461914063,3.8649071057637534,-6.955337206522624,4.3137608369191485
11.8,1.689305475645981e+18,11.80598103841146,-0.963781476020813,0.01681653658548993,-0.17066351572672525,1.689305475645981e+18,11.80598103841146,3.4969109296798706,-8.066504319508871,3.2498519817988076,1.689305475645981e+18,11.80598103841146,4.433016300201416,-8.05938752492269,3.406282901763916,1.6893054756373297e+18,11.79732958984375,-0.1544980021814505,0.3110322163750728,-0.652709518869718,1.6893054756373297e+18,11.79732958984375,-0.15541429569323856,0.3152573741972446,-0.6508514732122421,,,,,,,,,,,,1.6893054756445322e+18,11.804532373046875,-34.8846794128418,28.615099334716795,-21.69769992828369,1.6893054756445322e+18,11.804532373046875,-303.1748809814453,121.50589752197266,-164.49869689941406,1.689305475645981e+18,11.80598103841146,-0.852049708366394,0.4770408223072688,-0.21428562204043067,0.018949781699726918,-0.6544800798098246,0.963366836309433,-2.8345855474472046,1.689305475645981e+18,11.80598103841146,3.480759342511495,-8.056932926177979,3.187040328979492
11.9,1.6893054757411405e+18,11.9011404296875,-1.4897583961486816,0.06916112899780273,0.33046364784240717,1.6893054757411405e+18,11.9011404296875,2.4281167507171633,-8.22125997543335,3.915256071090698,1.6893054757411405e+18,11.9011404296875,3.891919422149658,-8.264837646484375,3.5693298816680907,1.6893054757411407e+18,11.901140665690106,-0.346513311068217,-0.37802377219001454,-0.6148104170958201,1.6893054757411407e+18,11.901140665690106,-0.34740416208902997,-0.37369682018955547,-0.6126723984877268,,,,,,,,,,,,1.689305475744538e+18,11.9045380859375,-32.722839164733884,30.170599365234374,-22.11005973815918,1.689305475744538e+18,11.9045380859375,-301.0130340576172,123.06139755249023,-164.9110580444336,1.6893054757411405e+18,11.9011404296875,0.49900158643722536,-0.3052336275577545,0.1335271149873733,0.0025754222646355,-0.7410943269729614,1.000904905796051,-2.719002389907837,1.6893054757411405e+18,11.9011404296875,2.4119652032852175,-8.211688709259032,3.8524444580078123
