seconds_elapsed_rounded,accelerometer_time,accelerometer_seconds_elapsed,accelerometer_z,accelerometer_y,accelerometer_x,accelerometeruncalibrated_time,accelerometeruncalibrated_seconds_elapsed,accelerometeruncalibrated_z,accelerometeruncalibrated_y,accelerometeruncalibrated_x,gravity_time,gravity_seconds_elapsed,gravity_z,gravity_y,gravity_x,gyroscope_time,gyroscope_seconds_elapsed,gyroscope_z,gyroscope_y,gyroscope_x,gyroscopeuncalibrated_time,gyroscopeuncalibrated_seconds_elapsed,gyroscopeuncalibrated_z,gyroscopeuncalibrated_y,gyroscopeuncalibrated_x,location_time,location_seconds_elapsed,location_bearingAccuracy,location_speedAccuracy,location_verticalAccuracy,location_horizontalAccuracy,location_speed,location_bearing,location_altitude,location_longitude,location_latitude,magnetometer_time,magnetometer_seconds_elapsed,magnetometer_z,magnetometer_y,magnetometer_x,magnetometeruncalibrated_time,magnetometeruncalibrated_seconds_elapsed,magnetometeruncalibrated_z,magnetometeruncalibrated_y,magnetometeruncalibrated_x,orientation_time,orientation_seconds_elapsed,orientation_qz,orientation_qy,orientation_qx,orientation_qw,orientation_roll,orientation_pitch,orientation_yaw
0.0,1.6886865889301957e+18,60.00419555664062,0.0475286444028218,-0.0008627573649088,-0.0381773312886556,1.6886865889301957e+18,60.00419555664062,-0.6552345951398214,-9.252646446228027,3.259024461110433,1.6886865889301957e+18,60.00419555664062,-0.7086092631022135,-9.234278996785482,3.2345143953959146,1.6886865889258714e+18,59.99987125651041,0.0083484918189544,0.0344629809260368,-0.0058541252898672,1.6886865889258714e+18,59.99987125651041,0.0074830992768207,0.0389426592737436,-0.0034106643094369,1.688686588926798e+18,60.000798095703125,0.0,0.4590366780757904,0.9002717137336731,13.36400032043457,0.0079803615808486,0.0,40.20000076293945,-122.7531531,49.1903752,1.6886865889288842e+18,60.00288413085938,20.586280059814452,38.30555877685547,-21.506159210205077,1.6886865889288842e+18,60.00288413085938,-234.7597137451172,133.33135986328125,-154.2299591064453,1.6886865889301957e+18,60.00419555664062,-0.2492175201574961,0.0275932208945352,-0.7316820820172628,0.6338536938031515,-1.7864864667256672,1.2264973322550456,2.186490615208944
0.05,1.6886865889821064e+18,60.056106282552086,-0.0111390749613443,0.0332218805948893,0.0029044946034749,1.6886865889821064e+18,60.056106282552086,-0.7126623392105103,-9.219146728515623,3.2987054189046225,1.6886865889821064e+18,60.056106282552086,-0.7073692878087362,-9.234863917032875,3.2331135272979736,1.688686588977786e+18,60.05178605143229,0.0001527162773224,0.0208203231062119,-0.0098247493927676,1.688686588977786e+18,60.05178605143229,-0.0007126760610844,0.0253000029673178,-0.0073812884899476,,,,,,,,,,,,1.688686588978888e+18,60.05288774414063,20.85467987060547,38.20551986694336,-21.61839942932129,1.688686588978888e+18,60.05288774414063,-234.49131469726564,133.23131713867187,-154.34219970703126,1.6886865889821064e+18,60.056106282552086,-0.2497543394565582,0.0283049829304217,-0.7316117485364279,0.6336923241615295,-1.7862112124760945,1.226674477259318,2.1880377928415933
0.1,1.6886865890253722e+18,60.099372192382816,0.0646010637283324,-0.0392994880676269,-0.068031907081604,1.6886865890253722e+18,60.099372192382816,-0.638883650302887,-9.290732383728027,3.230011463165283,1.6886865890253722e+18,60.099372192382816,-0.7093307375907898,-9.233928203582764,3.2353559732437134,1.6886865890297006e+18,60.10370043945312,-0.0029016098318,0.0034615696252634,0.0013235413935035,1.6886865890297006e+18,60.10370043945312,-0.0038179078449805,0.0078903431228051,0.0037670023545312,,,,,,,,,,,,1.688686589028884e+18,60.10288383789062,21.07915954589844,38.10792007446289,-21.686719512939455,1.688686589028884e+18,60.10288383789062,-234.26683349609377,133.1337158203125,-154.41051635742187,1.6886865890253722e+18,60.099372192382816,-0.2497848719358444,0.0281925844028591,-0.7316844165325165,0.6336013078689575,-1.7866449356079102,1.2263914942741394,2.1883617639541626
0.15,1.6886865890686298e+18,60.14262955729166,0.0377685825030008,0.0312747955322265,-0.0288562774658203,1.6886865890686298e+18,60.14262955729166,-0.6634100874265035,-9.220542589823404,3.2685957749684653,1.6886865890686298e+18,60.14262955729166,-0.7070246934890747,-9.234312693277994,3.234764655431112,1.688686589081611e+18,60.15561092122396,-0.0005599598031646,0.015577063236075,-0.0099774657282977,1.688686589081611e+18,60.15561092122396,-0.0014762576126183,0.0200058363843708,-0.0074321939803969,,,,,,,,,,,,1.6886865890788856e+18,60.152885595703125,20.791239166259764,37.94687957763672,-21.552519607543942,1.6886865890788856e+18,60.152885595703125,-234.55475158691405,132.97267456054686,-154.276318359375,1.6886865890686298e+18,60.14262955729166,-0.2500737905502319,0.0285377446562051,-0.731590727965037,0.6335801084836324,-1.7860031922658284,1.2265076239903767,2.1886447270711265
0.2,1.6886865891205448e+18,60.194544921875,0.0042765935262044,-0.0266106923421223,-0.0808892250061034,1.6886865891205448e+18,60.194544921875,-0.6981060107549032,-9.277571360270182,3.218745311101278,1.6886865891205448e+18,60.194544921875,-0.7082286278406779,-9.233455975850424,3.2369471391042075,1.6886865891335186e+18,60.20751847330729,-0.0088575459085403,-0.0379245510945717,0.0135408459852138,1.6886865891335186e+18,60.20751847330729,-0.0097738439217209,-0.0334957775970299,0.0160352122038602,,,,,,,,,,,,1.6886865891288837e+18,60.20288344726563,20.94251937866211,38.15671920776367,-21.62327919006348,1.6886865891288837e+18,60.20288344726563,-234.40347595214843,133.18251953125,-154.34707641601562,1.6886865891205448e+18,60.194544921875,-0.2500755737225215,0.0283853237827618,-0.7316385706265768,0.6335309346516927,-1.786217451095581,1.2262487411499023,2.188647508621216
0.25,1.6886865891724554e+18,60.246455647786455,0.1204403042793273,-0.0363054275512695,-0.0570109685262044,1.6886865891724554e+18,60.246455647786455,-0.580060084660848,-9.2877410252889,3.2416764895121255,1.6886865891724554e+18,60.246455647786455,-0.7063464124997457,-9.233930905659994,3.236000061035156,1.6886865891767834e+18,60.25078320312499,0.009162978734821,0.0035124756395816,0.0096211275085806,1.6886865891767834e+18,60.25078320312499,0.0082466807216405,0.00794124789536,0.0121409464627503,,,,,,,,,,,,1.6886865891788836e+18,60.2528833984375,21.130399703979492,38.14939880371094,-21.413439559936524,1.6886865891788836e+18,60.2528833984375,-234.21559448242184,133.17519836425782,-154.13723754882812,1.6886865891724554e+18,60.246455647786455,-0.2495478590329488,0.0278223045170306,-0.7315947810808817,0.6338145931561788,-1.78572412331899,1.226392428080241,2.186551253000895
0.3,1.688686589224364e+18,60.29836385091145,-0.1120282808939615,0.0628442764282226,0.0557457605997721,1.688686589224364e+18,60.29836385091145,-0.8007979790369669,-9.190632502237955,3.3511481285095215,1.688686589224364e+18,60.29836385091145,-0.6946157217025757,-9.23597208658854,3.2327149709065757,1.6886865892200435e+18,60.294043294270836,0.008399397212391,0.0430660005658864,0.0125227374956011,1.6886865892200435e+18,60.294043294270836,0.0074830992428662,0.0474947715799013,0.0149661982432007,,,,,,,,,,,,1.688686589228888e+18,60.302888085937504,21.062079620361327,38.35191879272461,-21.735519409179688,1.688686589228888e+18,60.302888085937504,-234.28391723632816,133.37771911621093,-154.45931701660157,1.688686589224364e+18,60.29836385091145,-0.2500934948523839,0.0285325646400451,-0.7311585744222006,0.6340711712837219,-1.782469391822815,1.2270087401072185,2.185114542643229
0.35,1.6886865892762775e+18,60.35027726236979,-0.0999996066093444,0.0370718638102212,0.0365183353424072,1.6886865892762775e+18,60.35027726236979,-0.7878368695576986,-9.215956370035808,3.333401362101237,1.6886865892762775e+18,60.35027726236979,-0.6936832865079244,-9.235523541768393,3.234195629755656,1.6886865892719542e+18,60.345954182942705,-0.006363179689894,-0.0465275694926579,0.0088575456757098,1.6886865892719542e+18,60.345954182942705,-0.0072285722320277,-0.0420987959951162,0.0113519119719663,,,,,,,,,,,,1.6886865892788833e+18,60.35288330078125,21.07183952331543,38.36411895751953,-21.898999786376955,1.6886865892788833e+18,60.35288330078125,-234.2741546630859,133.38992004394532,-154.62279663085937,1.6886865892762775e+18,60.35027726236979,-0.249795933564504,0.0280579260239998,-0.731144110361735,0.6342262625694275,-1.782097299893697,1.2268736759821577,2.1836159229278564
0.4,1.6886865893281925e+18,60.40219230143229,0.1017873088518778,0.0066070556640624,0.0197424888610839,1.6886865893281925e+18,60.40219230143229,-0.6027919054031372,-9.245068868001304,3.3168510595957437,1.6886865893281925e+18,60.40219230143229,-0.7104252378145853,-9.234171231587728,3.234421173731486,1.688686589323862e+18,60.39786181640625,-0.0016798794191951,-0.0298305864756305,-0.0340557365367809,1.688686589323862e+18,60.39786181640625,-0.0025961773159602,-0.0253509084383646,-0.031459559376041,,,,,,,,,,,,1.6886865893288832e+18,60.402883300781255,21.406119537353515,38.129878997802734,-21.103559494018555,1.6886865893288832e+18,60.402883300781255,-233.93987426757812,133.15567626953126,-153.82735595703124,1.6886865893281925e+18,60.40219230143229,-0.2490498224894205,0.0274344161152839,-0.731751004854838,0.6338469584782919,-1.787024935086568,1.226464827855428,2.1865519682566323
0.45,1.6886865893801044e+18,60.4541044921875,0.0908432006835936,-0.0273431142171223,-0.0652361710866291,1.6886865893801044e+18,60.4541044921875,-0.6199404795964559,-9.27796999613444,3.2335010369618735,1.6886865893801044e+18,60.4541044921875,-0.71662970383962,-9.233122189839682,3.2360498110453286,1.68868658937578e+18,60.44978011067709,-0.0069231394057471,-0.0082466808768609,0.0096211275085806,1.68868658937578e+18,60.44978011067709,-0.0078394372637072,-0.0038179078013248,0.012064588877062,,,,,,,,,,,,1.6886865893788838e+18,60.45288369140625,21.362199783325195,38.18599853515625,-21.64035987854004,1.6886865893788838e+18,60.45288369140625,-233.9837951660156,133.21179809570313,-154.36415405273436,1.6886865893801044e+18,60.4541044921875,-0.2489211459954579,0.0272510728488365,-0.7319739659627279,0.6336479981740316,-1.7887489398320515,1.226148207982381,2.187830130259196
0.5,1.688686589432016e+18,60.50601603190105,-0.0166495243708292,0.0194969177246093,0.0164219538370768,1.688686589432016e+18,60.50601603190105,-0.7096713185310364,-9.232107798258465,3.3162527879079184,1.688686589432016e+18,60.50601603190105,-0.6988678177197775,-9.234100023905436,3.2371434370676675,1.6886865894276923e+18,60.501692220052085,-0.0011708250676747,-0.0111991961797077,0.0419969850530226,1.6886865894276923e+18,60.501692220052085,-0.0020362174060816,-0.0067704230605158,0.0444404470423856,,,,,,,,,,,,1.6886865894288865e+18,60.502886474609376,21.16455993652344,38.28603897094727,-21.613519287109376,1.6886865894288865e+18,60.502886474609376,-234.18143310546876,133.31183471679688,-154.33731384277343,1.688686589432016e+18,60.50601603190105,-0.2487677832444509,0.0267181880772113,-0.7313749392827352,0.6344221433003744,-1.7834405501683552,1.2264435688654582,2.1815064748128257
0.55,1.6886865894752845e+18,60.54928454589844,-0.0083978474140167,0.0106196403503417,0.0337049961090087,1.6886865894752845e+18,60.54928454589844,-0.7016952335834503,-9.24108123779297,3.3332020044326782,1.6886865894752845e+18,60.54928454589844,-0.6991434097290039,-9.234196186065674,3.2368096113204956,1.688686589479601e+18,60.553600585937495,0.0041233403608202,0.0150171037918577,-0.0302378302440046,1.688686589479601e+18,60.553600585937495,0.0032070424252499,0.0194458772117892,-0.0277943682546416,,,,,,,,,,,,1.688686589478886e+18,60.552885839843746,21.32803955078125,38.25675888061524,-21.65743942260742,1.688686589478886e+18,60.552885839843746,-234.01795654296876,133.28255920410157,-154.38123779296876,1.6886865894752845e+18,60.54928454589844,-0.2487686425447463,0.0267498465254902,-0.7313834726810455,0.6344106495380402,-1.7835440635681152,1.226472556591034,2.1816564798355103
0.6,1.6886865895185367e+18,60.59253686523437,0.0053948760032653,0.0040324529012044,0.0043365160624186,1.6886865895185367e+18,60.59253686523437,-0.6969095865885416,-9.24766159057617,3.3018958568573,1.6886865895185367e+18,60.59253686523437,-0.7081504861513773,-9.23418935139974,3.2348719437917075,1.688686589531517e+18,60.60551684570313,0.0079412480505803,0.0305432629150648,-0.0160352125531062,1.688686589531517e+18,60.60551684570313,0.0070758558964977,0.0349720353260635,-0.0135408462568496,,,,,,,,,,,,1.6886865895288817e+18,60.60288178710938,21.286559295654296,38.28847961425781,-21.593999481201173,1.6886865895288817e+18,60.60288178710938,-234.05943298339844,133.31427917480468,-154.3177978515625,1.6886865895185367e+18,60.59253686523437,-0.249156226714452,0.027487232039372,-0.7316700220108032,0.6338962912559509,-1.7863277196884155,1.226470152537028,2.1860877672831216
0.65,1.6886865895704494e+18,60.64444946289063,0.0147435665130615,0.0354344050089518,0.0207568804423014,1.6886865895704494e+18,60.64444946289063,-0.687537690003713,-9.216355323791504,3.318047364552816,1.6886865895704494e+18,60.64444946289063,-0.7081272800763448,-9.234285036722818,3.2346030871073403,1.6886865895834284e+18,60.65742830403645,-0.0108428583480416,-0.0246382318437099,0.0197513094171881,1.6886865895834284e+18,60.65742830403645,-0.0116573449534673,-0.0202094583461681,0.0222456756358344,,,,,,,,,,,,1.6886865895788856e+18,60.65288569335937,21.59644012451172,38.18111877441406,-21.45491943359375,1.6886865895788856e+18,60.65288569335937,-233.7495544433594,133.20692138671876,-154.17872009277343,1.6886865895704494e+18,60.64444946289063,-0.249255155523618,0.027622357631723,-0.7316640615463257,0.6338585019111633,-1.7863375743230183,1.2264995574951172,2.186439355214437
0.7,1.6886865896223572e+18,60.696357421875,0.0092779000600178,-0.0255619684855143,-0.0526862939198811,1.6886865896223572e+18,60.696357421875,-0.6853442788124084,-9.276374816894531,3.2490543524424234,1.6886865896223572e+18,60.696357421875,-0.7004682024319967,-9.23330815633138,3.239053249359131,1.6886865896266888e+18,60.70068884277343,-0.0064140852773561,0.0048869218153412,0.0162642868235706,1.6886865896266888e+18,60.70068884277343,-0.0073303829412906,0.0093156949151306,0.0187077485024928,,,,,,,,,,,,1.6886865896288824e+18,60.70288232421875,21.298759841918944,38.21527938842773,-21.74527969360351,1.6886865896288824e+18,60.70288232421875,-234.0472381591797,133.24107666015624,-154.46907653808594,1.6886865896223572e+18,60.696357421875,-0.2491723050673802,0.0270577234526474,-0.7314184308052063,0.6341988245646158,-1.7837930123011272,1.2262046734491985,2.18295685450236
0.75,1.6886865896742738e+18,60.748273925781255,-0.0290304621060689,0.0141626993815104,0.010256290435791,1.6886865896742738e+18,60.748273925781255,-0.7238288323084513,-9.236893653869627,3.3112677733103433,1.6886865896742738e+18,60.748273925781255,-0.7006443937619528,-9.233551661173502,3.2383240858713784,1.6886865896699494e+18,60.74394946289062,0.0049887327477335,0.0012217304126048,-0.0120136833284049,1.6886865896699494e+18,60.74394946289062,0.0041233403608202,0.0056505034832904,-0.0095193164500718,,,,,,,,,,,,1.6886865896788864e+18,60.75288637695312,21.208480072021484,38.39583892822266,-21.418320083618163,1.6886865896788864e+18,60.75288637695312,-234.13751525878905,133.42163696289063,-154.14211730957032,1.6886865896742738e+18,60.748273925781255,-0.2492177287737528,0.0271705538034438,-0.7314203580220541,0.6341739296913147,-1.7838914394378662,1.2262778282165527,2.1832845211029053
0.8,1.6886865897261842e+18,60.80018391927083,0.0520474712053934,0.0155696868896483,-0.004115343093872,1.6886865897261842e+18,60.80018391927083,-0.6506483554840088,-9.235298792521158,3.2957143783569336,1.6886865897261842e+18,60.80018391927083,-0.7085418502489725,-9.23336378733317,3.237142324447632,1.688686589721861e+18,60.795861165364585,0.0008653924451209,-0.0019853121290604,-0.0116064395018231,1.688686589721861e+18,60.795861165364585,-5.0905437092266665e-05,0.0024943662962565,-0.0091629783467699,,,,,,,,,,,,1.6886865897288863e+18,60.80288662109375,21.206039810180663,38.27383880615234,-21.403680038452148,1.6886865897288863e+18,60.80288662109375,-234.13995361328125,133.2996398925781,-154.12747497558593,1.6886865897261842e+18,60.80018391927083,-0.2491010079781214,0.0272496299197275,-0.7316925724347433,0.633902351061503,-1.7862964471181233,1.2262214024861653,2.185636361440023
0.85,1.688686589778098e+18,60.85209790039062,0.0021347602208455,0.0036141077677409,-0.0103509426116943,1.688686589778098e+18,60.85209790039062,-0.6951149702072144,-9.24786059061686,3.2889347076416016,1.688686589778098e+18,60.85209790039062,-0.7030957539876302,-9.233970006306969,3.236598253250122,1.6886865897737746e+18,60.84777457682291,0.0020362174448867,0.0079921536768475,0.0156279690563678,1.6886865897737746e+18,60.84777457682291,0.0011199196063292,0.0124718323349952,0.0181223358958959,,,,,,,,,,,,1.6886865897788856e+18,60.85288559570313,20.9059196472168,38.12499923706055,-21.45735969543457,1.6886865897788856e+18,60.85288559570313,-234.44007568359376,133.15079650878906,-154.18115844726563,1.688686589778098e+18,60.85209790039062,-0.2492123792568842,0.0273383973787228,-0.7314995328585306,0.6340775092442831,-1.7847249110539751,1.226404309272766,2.1843515237172446
0.9,1.6886865898300116e+18,60.90401155598958,-0.0355760256449381,0.0025774637858072,-0.0315210024515787,1.6886865898300116e+18,60.90401155598958,-0.7270192702611288,-9.249256451924644,3.2679975827534995,1.6886865898300116e+18,60.90401155598958,-0.6972892681757609,-9.234329223632812,3.2368311882019043,1.6886865898256822e+18,60.89968221028645,-0.0032070425804703,-0.0114028177534539,0.0109446689796943,1.6886865898256822e+18,60.89968221028645,-0.0040215294963369,-0.0069231392117216,0.013439035664002,,,,,,,,,,,,1.688686589828886e+18,60.90288588867188,21.06695976257324,38.178679656982425,-21.55495948791504,1.688686589828886e+18,60.90288588867188,-234.2790374755859,133.20447692871093,-154.27875671386718,1.6886865898300116e+18,60.90401155598958,-0.2491416533788044,0.0271501255532105,-0.7313040693600973,0.6343388160069784,-1.782995065053304,1.226512869199117,2.1822385787963867
0.95,1.6886865898819218e+18,60.955921875,-0.0202011068662007,0.0253607432047525,0.0025287469228108,1.6886865898819218e+18,60.955921875,-0.7128617564837137,-9.22692362467448,3.30049999554952,1.6886865898819218e+18,60.955921875,-0.6985066731770834,-9.234779675801596,3.235283851623535,1.6886865898775982e+18,60.95159814453125,0.0051923546319205,-0.0084503028386582,-0.0052432599477469,1.6886865898775982e+18,60.95159814453125,0.0043269620897868,-0.0039197184960358,-0.0027488934962699,,,,,,,,,,,,1.6886865898788849e+18,60.952884765625,21.013279724121094,38.24700012207031,-21.63547973632813,1.6886865898788849e+18,60.952884765625,-234.33271484375,133.27279663085938,-154.3592742919922,1.6886865898819218e+18,60.955921875,-0.2489216327667236,0.0270373181750376,-0.7313504815101624,0.6343764662742615,-1.783451517422994,1.2266488075256348,2.1822028160095215
1.0,1.6886865899251845e+18,60.99918469238281,0.0009629726409911,-0.0287013053894042,-0.0212925672531127,1.6886865899251845e+18,60.99918469238281,-0.6963113844394684,-9.281160831451416,3.2751760482788086,1.6886865899251845e+18,60.99918469238281,-0.7031203806400299,-9.234954833984377,3.2337812185287476,1.688686589929511e+18,61.00351106770833,-0.0012217305193189,-0.0329358186572789,0.0088575461413711,1.688686589929511e+18,61.00351106770833,-0.002087122935336,-0.0284561390678087,0.0114028176176361,1.6886865899189212e+18,60.99292102050781,0.0,0.4596589058637619,0.8550091981887817,13.552000045776367,0.0100544309243559,0.0,40.20000076293945,-122.7531531,49.1903751,1.6886865899288837e+18,61.0028833984375,21.28167953491211,38.27627944946289,-21.48907928466797,1.6886865899288837e+18,61.0028833984375,-234.06431579589844,133.3020782470703,-154.21287536621094,1.6886865899251845e+18,60.99918469238281,-0.2485129833221435,0.0267550386488437,-0.731521725654602,0.6343512237071991,-1.784911036491394,1.2267020344734192,2.1826486587524414
1.05,1.6886865899684436e+18,61.04244368489583,0.0895943442980448,-0.0308879216512043,-0.0478380521138508,1.6886865899684436e+18,61.04244368489583,-0.6053841312726339,-9.284351348876951,3.246262709299723,1.6886865899684436e+18,61.04244368489583,-0.700824499130249,-9.235958735148111,3.2314133644104004,1.6886865899814254e+18,61.05542529296875,0.0124718318693339,-0.0038179075345396,0.0159843067328134,1.6886865899814254e+18,61.05542529296875,0.0116573451086878,0.0006617704057134,0.0184277681012947,,,,,,,,,,,,1.688686589978886e+18,61.05288627929688,21.56471977233887,38.46171951293945,-21.332919692993165,1.688686589978886e+18,61.05288627929688,-233.78127746582032,133.48751525878907,-154.0567199707031,1.6886865899684436e+18,61.04244368489583,-0.2480164070924122,0.0263353257129589,-0.7314568360646566,0.6346378525098165,-1.7843833367029829,1.2270052035649617,2.180768887201945
1.1,1.688686590020352e+18,61.09435188802083,-0.0348115563392638,0.0426959991455077,0.0183211962381998,1.688686590020352e+18,61.09435188802083,-0.7160521745681763,-9.214361190795898,3.3050862153371177,1.688686590020352e+18,61.09435188802083,-0.6870866417884827,-9.23955249786377,3.2240776220957437,1.688686590033335e+18,61.10733487955729,0.0152207255984345,0.0216857166960834,0.0324267633259296,1.688686590033335e+18,61.10733487955729,0.0143553329010803,0.0261653944229085,0.0348702240735292,,,,,,,,,,,,1.688686590028882e+18,61.10288193359374,21.30119934082031,37.98347930908203,-21.213359451293947,1.688686590028882e+18,61.10288193359374,-234.04479370117187,133.0092742919922,-153.9371551513672,1.688686590020352e+18,61.09435188802083,-0.2480297634998956,0.0267240380247433,-0.7309638063112894,0.6351841688156128,-1.7807800769805908,1.2280937830607097,2.1777162551879883
1.15,1.6886865900722688e+18,61.146268798828125,-0.0843290487925211,0.0521879196166991,0.1061015923817951,1.6886865900722688e+18,61.146268798828125,-0.7549355427424113,-9.206783930460611,3.3896327018737793,1.6886865900722688e+18,61.146268798828125,-0.6764525175094604,-9.241467157999674,3.22084371248881,1.6886865900765957e+18,61.15059582519531,0.0008399397484026,-0.0075594573281704,-0.0016035214066505,1.6886865900765957e+18,61.15059582519531,0.0,-0.0031306843739002,0.0009162977803498,,,,,,,,,,,,1.6886865900788833e+18,61.152883349609375,20.442319488525392,38.23967971801758,-21.237759399414063,1.6886865900788833e+18,61.152883349609375,-234.90367431640624,133.26547546386718,-153.96156005859376,1.6886865900722688e+18,61.146268798828125,-0.2480772833029428,0.0268742113063732,-0.7305874427159628,0.6355922222137451,-1.7778257926305134,1.228675127029419,2.1750311851501465
1.2,1.6886865901241805e+18,61.19818041992187,0.0155158837636311,0.0296068191528319,0.0314006010691324,1.6886865901241805e+18,61.19818041992187,-0.6588238477706909,-9.229116757710775,3.314857006072998,1.6886865901241805e+18,61.19818041992187,-0.6801857550938925,-9.24121888478597,3.220769008000692,1.688686590119858e+18,61.193857910156254,0.0069231394639548,0.045051312384506,-0.0212784732381502,1.688686590119858e+18,61.193857910156254,0.0060577470867428,0.0495309910426536,-0.0187841063986221,,,,,,,,,,,,1.6886865901288858e+18,61.202885742187505,20.947399139404297,38.38607940673828,-21.586679458618164,1.6886865901288858e+18,61.202885742187505,-234.39859619140623,133.41187438964843,-154.31047973632812,1.6886865901241805e+18,61.19818041992187,-0.2484478503465652,0.02736280610164,-0.7306994398434957,0.6352976759274801,-1.7789405584335327,1.2286001046498616,2.1774064699808755
1.25,1.6886865901760858e+18,61.25008577473958,-0.0365684231122334,0.0399583180745442,0.0611755847930908,1.6886865901760858e+18,61.25008577473958,-0.7128617366154989,-9.219545682271322,3.3419756094614663,1.6886865901760858e+18,61.25008577473958,-0.6821393370628357,-9.241999308268229,3.2181126276652017,1.688686590171766e+18,61.245766194661456,0.0102319926178703,0.065464391062657,-0.0287615718940893,1.688686590171766e+18,61.245766194661456,0.0093156949151306,0.0698931651810804,-0.0262162995835144,,,,,,,,,,,,1.6886865901788818e+18,61.252881738281246,20.79611930847168,38.38363952636719,-21.41831970214844,1.6886865901788818e+18,61.252881738281246,-234.54987487792968,133.40943908691406,-154.14212341308593,1.6886865901760858e+18,61.25008577473958,-0.2495403438806533,0.0288597798595825,-0.7307101090749105,0.6347907582918803,-1.7796895901362102,1.2288374503453572,2.181939204533895
1.3,1.688686590228006e+18,61.302005859374994,0.0805747906366983,0.0056441624959309,-0.0242364406585692,1.688686590228006e+18,61.302005859374994,-0.5996014674504598,-9.252646446228027,3.259223779042562,1.688686590228006e+18,61.302005859374994,-0.6860222816467285,-9.240785916646322,3.2207728226979575,1.6886865902236785e+18,61.29767838541667,-0.0067704231478273,0.0219911482806006,-0.0135408459852138,1.6886865902236785e+18,61.29767838541667,-0.0076358155347406,0.0264199214677015,-0.0110973852376142,,,,,,,,,,,,1.688686590228884e+18,61.302883837890626,20.852239990234377,38.25675964355469,-21.9087589263916,1.688686590228884e+18,61.302883837890626,-234.4937530517578,133.28255920410157,-154.63255615234374,1.688686590228006e+18,61.302005859374994,-0.2501895527044932,0.0294563565403222,-0.7308217485745748,0.6343792875607809,-1.7806751330693562,1.2284682989120483,2.184762477874756
1.35,1.6886865902799135e+18,61.353913655598966,0.076276143391927,-0.0286728541056314,-0.1214215755462646,1.6886865902799135e+18,61.353913655598966,-0.6019942959149679,-9.285547574361166,3.1665019194285073,1.6886865902799135e+18,61.353913655598966,-0.6841164628664652,-9.239370028177897,3.225236097971598,1.6886865902755914e+18,61.3495917154948,-0.0075340047478675,0.0653625801205634,-0.02295835254093,1.6886865902755914e+18,61.3495917154948,-0.0084503024506071,0.069893163939317,-0.0204639863222837,,,,,,,,,,,,1.688686590278885e+18,61.35288520507813,20.99863967895508,38.300679779052736,-21.508599853515623,1.688686590278885e+18,61.35288520507813,-234.34735412597655,133.32647705078125,-154.2324005126953,1.6886865902799135e+18,61.353913655598966,-0.2512621184190114,0.0303098124762375,-0.7307204405466715,0.6340315937995911,-1.779828707377116,1.2280385096867878,2.186753511428833
1.4,1.688686590331829e+18,61.405829101562496,-0.0399229923884073,-0.0607172648111979,-0.2602589130401611,1.688686590331829e+18,61.405829101562496,-0.7190432151158651,-9.316255569458006,3.0313074588775635,1.688686590331829e+18,61.405829101562496,-0.684966246287028,-9.238033612569174,3.228878974914551,1.6886865903275057e+18,61.40150577799479,-0.0121663993534941,-0.0424042288213968,0.0179696197931965,1.6886865903275057e+18,61.40150577799479,-0.0130317922060687,-0.0379754547029733,0.0204639853909611,,,,,,,,,,,,1.6886865903288868e+18,61.40288686523437,21.015719985961915,38.26407928466797,-21.70135917663574,1.6886865903288868e+18,61.40288686523437,-234.3302764892578,133.28987731933594,-154.42515869140624,1.688686590331829e+18,61.405829101562496,-0.2514588236808777,0.0302615544448295,-0.7307520111401876,0.6339195370674133,-1.7798510789871216,1.2276338338851929,2.1870079040527344
1.45,1.688686590375085e+18,61.44908520507812,0.1090836524963378,-0.0596919059753417,-0.0495449304580688,1.688686590375085e+18,61.44908520507812,-0.5667998492717743,-9.317053318023682,3.2374889850616455,1.688686590375085e+18,61.44908520507812,-0.6817295253276825,-9.239856719970703,3.2243465185165405,1.6886865903794132e+18,61.453413167317706,0.0123700212376812,-0.081499603887399,0.0245873260622223,1.6886865903794132e+18,61.453413167317706,0.011453722952865,-0.0770199274023373,0.0270307862277453,,,,,,,,,,,,1.6886865903788836e+18,61.452883544921875,20.625320053100587,38.3568000793457,-21.650119400024415,1.6886865903788836e+18,61.452883544921875,-234.72067565917968,133.38259887695312,-154.37391662597656,1.688686590375085e+18,61.44908520507812,-0.2499299347400664,0.028808869421482,-0.7306979596614838,0.634653776884079,-1.7791763544082642,1.228186309337616,2.181944966316223
1.5,1.6886865904183483e+18,61.492348225911456,0.1739368140697478,0.0455656051635742,0.161391258239746,1.6886865904183483e+18,61.492348225911456,-0.5046861867109934,-9.214361190795898,3.4404800732930503,1.6886865904183483e+18,61.492348225911456,-0.6844690442085266,-9.242422103881836,3.2164014180501304,1.6886865904313295e+18,61.50532950846355,0.0206167021145422,0.092189747840166,-0.0260635837912559,1.6886865904313295e+18,61.50532950846355,0.0195985930040478,0.0966694218417008,-0.023721933364868,,,,,,,,,,,,1.6886865904288837e+18,61.50288349609375,21.24751968383789,38.327519226074216,-21.464679718017575,1.6886865904288837e+18,61.50288349609375,-234.09847106933591,133.3533203125,-154.1884735107422,1.6886865904183483e+18,61.492348225911456,-0.249535580476125,0.0290250442922115,-0.7307848930358887,0.6346988479296366,-1.780491868654887,1.2289654811223347,2.1829721132914224
1.55,1.688686590470261e+18,61.544261067708334,-0.172509491443634,0.1035124460856119,0.0890671412150064,1.688686590470261e+18,61.544261067708334,-0.8424729704856873,-9.156933466593424,3.3684961001078286,1.688686590470261e+18,61.544261067708334,-0.6758095026016235,-9.2429412206014,3.2167415618896484,1.6886865904832422e+18,61.557242106119794,-0.014711671314823,0.0241800832251707,0.010181087302044,1.6886865904832422e+18,61.557242106119794,-0.0157806856247285,0.0286597615728775,0.0125227374956011,,,,,,,,,,,,1.6886865904788854e+18,61.55288520507812,20.793679428100585,38.02983856201172,-21.733079528808595,1.6886865904788854e+18,61.55288520507812,-234.55231323242188,133.0556396484375,-154.45687866210938,1.688686590470261e+18,61.544261067708334,-0.2512973447640736,0.0308931494752565,-0.7304062644640604,0.6343514919281006,-1.777893344561259,1.2291237513224285,2.1856857935587564
1.6,1.6886865905221737e+18,61.5961737467448,-0.0662878155708312,-0.0031169255574543,-0.0852676232655842,1.6886865905221737e+18,61.5961737467448,-0.7377869884173075,-9.260024388631184,3.2039895057678223,1.6886865905221737e+18,61.5961737467448,-0.6773451964060465,-9.239402770996094,3.226569732030233,1.6886865905264965e+18,61.60049609375,-0.0313068442046642,-0.1225548423826694,0.0187077480368315,1.6886865905264965e+18,61.60049609375,-0.0323758572340011,-0.1179733499884605,0.0209984928369521,,,,,,,,,,,,1.6886865905288822e+18,61.60288227539063,20.84247932434082,38.15427932739258,-21.62327919006348,1.6886865905288822e+18,61.60288227539063,-234.50351257324215,133.1800750732422,-154.34707641601562,1.6886865905221737e+18,61.5961737467448,-0.2508309483528137,0.0296029926588137,-0.7305126984914144,0.634474515914917,-1.777733047803243,1.2280489206314087,2.1829899152119956
1.65,1.6886865905740805e+18,61.64808024088541,0.2358503540356953,-0.0651137034098307,-0.0438044865926106,1.6886865905740805e+18,61.64808024088541,-0.4508476654688517,-9.319844881693522,3.248456080754598,1.6886865905740805e+18,61.64808024088541,-0.6925440629323324,-9.237226486206056,3.2295731703440347,1.688686590569762e+18,61.64376212565104,-0.0019344066580136,-0.0369064422945181,-0.0258090559703607,1.688686590569762e+18,61.64376212565104,-0.0029525152252366,-0.0323758584757645,-0.0235183115146355,,,,,,,,,,,,1.6886865905788805e+18,61.65288061523438,21.08891944885254,38.24455947875977,-21.806279373168945,1.6886865905788805e+18,61.65288061523438,-234.2570770263672,133.27035827636718,-154.530078125,1.6886865905740805e+18,61.64808024088541,-0.2495484054088591,0.0281212603052456,-0.7311017115910848,0.6343697905540466,-1.7820513645807905,1.2273889780044556,2.1832820574442544
1.7,1.688686590626e+18,61.69999975585937,0.0234911243120829,0.0182247161865234,0.0035953521728515,1.688686590626e+18,61.69999975585937,-0.6652047038078308,-9.23689333597819,3.294318596522013,1.688686590626e+18,61.69999975585937,-0.694541851679484,-9.237613360087076,3.228035847345988,1.6886865906216755e+18,61.695675455729166,0.0053450708898405,0.0872519190112749,-0.0169006052116553,1.6886865906216755e+18,61.695675455729166,0.0043269620897869,0.0918334101637203,-0.0145080499351024,,,,,,,,,,,,1.6886865906288837e+18,61.70288339843751,20.739999771118164,38.30555953979492,-21.86240005493164,1.6886865906288837e+18,61.70288339843751,-234.60599670410156,133.33135986328125,-154.58619689941406,1.688686590626e+18,61.69999975585937,-0.2506222824255625,0.029511605699857,-0.7311166922251383,0.6338656346003214,-1.7827425400416057,1.2275062799453735,2.187579075495402
1.75,1.6886865906779087e+18,61.75190877278646,-0.159726063410441,0.0047063827514648,-0.0623803138732909,1.6886865906779087e+18,61.75190877278646,-0.831904669602712,-9.250253677368164,3.232304652531942,1.6886865906779087e+18,61.75190877278646,-0.6780246297518412,-9.237455368041992,3.231997569402059,1.6886865906735828e+18,61.74758260091145,-0.0114028177534539,-0.0371100641787052,0.049734612305959,1.6886865906735828e+18,61.74758260091145,-0.0124209265535075,-0.0325794800495108,0.0520253566404183,,,,,,,,,,,,1.6886865906788836e+18,61.752883593750006,20.813199615478517,38.17867889404297,-22.016119384765624,1.6886865906788836e+18,61.752883593750006,-234.5327941894531,133.20447998046876,-154.7399139404297,1.6886865906779087e+18,61.75190877278646,-0.250949223836263,0.0293206920226414,-0.7305483818054199,0.634400208791097,-1.777600089708964,1.2274585167566936,2.182637612024943
1.8,1.688686590729824e+18,61.80382389322917,-0.0240556001663208,-0.0213136672973632,-0.0448140303293864,1.688686590729824e+18,61.80382389322917,-0.699701209863027,-9.27637513478597,3.248854955037435,1.688686590729824e+18,61.80382389322917,-0.6814916332562765,-9.23755677541097,3.2309815883636475,1.6886865907254958e+18,61.79949584960938,-0.0016798794191951,-0.0857247561216354,0.0053959762056668,1.6886865907254958e+18,61.79949584960938,-0.0027488937291006,-0.0812450796365737,0.0077376261663933,,,,,,,,,,,,1.6886865907288855e+18,61.80288549804688,20.72047996520996,38.342160034179685,-21.608639526367188,1.6886865907288855e+18,61.80288549804688,-234.62551574707032,133.36795654296876,-154.33243713378906,1.688686590729824e+18,61.80382389322917,-0.249464526772499,0.0277445645382006,-0.7307307720184326,0.6348463892936707,-1.7786900997161863,1.22748867670695,2.1792427698771157
1.85,1.688686590781736e+18,61.85573592122396,0.092774470647176,0.0475390752156575,0.0837690035502115,1.688686590781736e+18,61.85573592122396,-0.5986044605573019,-9.207382202148438,3.3744781017303467,1.688686590781736e+18,61.85573592122396,-0.6972249547640482,-9.23741658528646,3.2280217011769614,1.688686590777416e+18,61.851416015625006,0.0048869218832502,-0.0120645882561802,-0.0286088561018307,1.688686590777416e+18,61.851416015625006,0.0039197185978991,-0.0075849105293551,-0.0263181105256079,,,,,,,,,,,,1.6886865907788856e+18,61.852885546874994,21.12063980102539,38.405599212646486,-21.56471939086914,1.6886865907788856e+18,61.852885546874994,-234.22535400390623,133.431396484375,-154.28851928710938,1.688686590781736e+18,61.85573592122396,-0.2486645330985387,0.0272964611649512,-0.7312962015469869,0.6345287760098776,-1.7835362354914348,1.227446436882019,2.1822625001271567
1.9,1.6886865908336433e+18,61.90764306640625,0.0063643058141072,0.016707420349121,0.0606818199157714,1.6886865908336433e+18,61.90764306640625,-0.6843472520510355,-9.237092971801758,3.3547373612721763,1.6886865908336433e+18,61.90764306640625,-0.6965575814247131,-9.236295700073242,3.231368144353231,1.6886865908293235e+18,61.90332364908854,-0.0087557352768877,0.0148134821405012,0.0169006049012144,1.6886865908293235e+18,61.90332364908854,-0.0098247493927676,0.019293160488208,0.0192422556380431,,,,,,,,,,,,1.6886865908288837e+18,61.902883398437496,20.947399520874026,38.176239013671875,-21.679399490356445,1.6886865908288837e+18,61.902883398437496,-234.39859313964843,133.20203857421876,-154.4032012939453,1.6886865908336433e+18,61.90764306640625,-0.2489971816539764,0.027404682089885,-0.7312688231468201,0.6344251831372579,-1.783124844233195,1.2271074851353962,2.1825085481007895
1.95,1.6886865908769083e+18,61.95090856933594,-0.0396244525909423,0.067091941833496,0.0634853839874267,1.6886865908769083e+18,61.95090856933594,-0.7187440991401672,-9.18604612350464,3.361915826797486,1.6886865908769083e+18,61.95090856933594,-0.6849656701087952,-9.235633373260498,3.2357430458068848,1.688686590881236e+18,61.95523583984376,-0.0086030190189678,-0.0019344065415983,0.008144869779547,1.688686590881236e+18,61.95523583984376,-0.0096720329796273,0.0025961773159603,0.0104865208268165,,,,,,,,,,,,1.6886865908788818e+18,61.952881884765624,20.95227928161621,38.31775970458985,-21.567159271240236,1.6886865908788818e+18,61.952881884765624,-234.39371643066409,133.3435546875,-154.29095458984375,1.6886865908769083e+18,61.95090856933594,-0.2492153868079185,0.0271337879821657,-0.73087477684021,0.6348051428794861,-1.7794190645217896,1.2269068360328674,2.178732752799988
2.0,1.6886865909201644e+18,61.994164388020835,0.0369611382484435,0.0359586079915364,0.0469439029693602,1.6886865909201644e+18,61.994164388020835,-0.6494519313176473,-9.214959144592289,3.3501510620117188,1.6886865909201644e+18,61.994164388020835,-0.6922590931256613,-9.233413060506184,3.240519762039185,1.688686590933147e+18,62.007147135416666,-0.0119627776245275,0.0440841075032948,-0.04408410936594,1.688686590933147e+18,62.007147135416666,-0.013031791585187,0.0486146919429301,-0.0417933650314807,1.688686590926791e+18,62.000791015625,0.0,0.4630854427814483,0.869960367679596,13.54699993133545,0.0122122261673212,0.0,40.20000076293945,-122.7531531,49.1903749,1.6886865909288837e+18,62.00288364257813,21.37683982849121,38.23967971801758,-21.63547973632813,1.6886865909288837e+18,62.00288364257813,-233.9691589355469,133.26547546386718,-154.35927734375,1.6886865909201644e+18,61.994164388020835,-0.2495796432097753,0.0272861986110607,-0.7311231096585592,0.6343692342440287,-1.7812710205713909,1.226236621538798,2.1813650925954184
2.05,1.68868659097208e+18,62.04608015950521,0.0203715960184732,-0.0098711649576822,-0.0637776056925455,1.68868659097208e+18,62.04608015950521,-0.675773004690806,-9.257232666015623,3.247459173202514,1.68868659097208e+18,62.04608015950521,-0.7019906242688497,-9.229856808980308,3.2485493818918862,1.6886865909764086e+18,62.05040869140625,-0.0161115708760916,0.0279470840469002,-0.0177150918170808,1.6886865909764086e+18,62.05040869140625,-0.0171042270958423,0.0324522173032164,-0.0153479892760514,,,,,,,,,,,,1.688686590978881e+18,62.0528810546875,20.930319595336915,38.21039962768555,-21.65987968444824,1.688686590978881e+18,62.0528810546875,-234.415673828125,133.23619384765624,-154.38367614746093,1.68868659097208e+18,62.04608015950521,-0.2505967716375987,0.0279717314988374,-0.7314364115397135,0.6335768302281698,-1.783630609512329,1.2251646518707275,2.1862568855285645
2.1,1.688686591023994e+18,62.09799430338541,0.0635961890220641,-0.0394757588704426,-0.0626652240753173,1.688686591023994e+18,62.09799430338541,-0.6325027942657471,-9.284351030985514,3.2556345462799072,1.688686591023994e+18,62.09799430338541,-0.7019450068473816,-9.227370580037435,3.255612373352051,1.6886865910196687e+18,62.09366878255208,-0.0150680091852942,-0.0043778677160541,0.0069231395221625,1.6886865910196687e+18,62.09366878255208,-0.0161370234563946,0.000203621884187,0.0092138839730371,,,,,,,,,,,,1.6886865910288847e+18,62.10288452148437,21.049879455566405,38.193318939208986,-21.762359619140625,1.6886865910288847e+18,62.10288452148437,-234.29611206054688,133.2191162109375,-154.4861572265625,1.688686591023994e+18,62.09799430338541,-0.2508740524450938,0.027731359625856,-0.7314441005388895,0.6334688266118368,-1.783170739809672,1.2244174480438232,2.185877720514933
2.15,1.6886865910759035e+18,62.14990348307291,-0.0556549032529194,0.0002854665120442,-0.0995175043741861,1.6886865910759035e+18,62.14990348307291,-0.7457630435625712,-9.244071960449215,3.221536874771118,1.6886865910759035e+18,62.14990348307291,-0.695954163869222,-9.226852734883629,3.2583669821421304,1.6886865910715802e+18,62.14558015950521,-0.0008653924451209,0.0292197205126285,-0.0012726358448465,1.6886865910715802e+18,62.14558015950521,-0.0018835011481617,0.0337503049522637,0.0010181088776638,,,,,,,,,,,,1.688686591078883e+18,62.15288305664062,21.11819953918457,38.05667953491211,-21.730640029907228,1.688686591078883e+18,62.15288305664062,-234.2277984619141,133.0824768066406,-154.45443725585938,1.6886865910759035e+18,62.14990348307291,-0.2513910929361979,0.0280178834994633,-0.7312243978182474,0.6335048874219259,-1.781238317489624,1.2242618004480998,2.1851284503936768
2.2,1.6886865911278182e+18,62.20181803385416,-0.0495441555976867,-0.0028626124064127,0.0243640740712483,1.6886865911278182e+18,62.20181803385416,-0.7447660565376282,-9.248259544372557,3.3413774172465005,1.6886865911278182e+18,62.20181803385416,-0.7010679244995117,-9.22789223988851,3.2543259461720786,1.688686591123489e+18,62.19748901367188,0.0064140850833305,-0.049225558216373,-0.0008144870710869,1.688686591123489e+18,62.19748901367188,0.0053959763608872,-0.044694973155856,0.0014762577290336,,,,,,,,,,,,1.6886865911288858e+18,62.202885498046875,21.5281192779541,37.86147918701172,-21.789199447631837,1.6886865911288858e+18,62.202885498046875,-233.81787719726563,132.88727722167968,-154.51299743652345,1.6886865911278182e+18,62.20181803385416,-0.2508646647135416,0.0278087543944517,-0.7314104040463766,0.6335079073905945,-1.782993197441101,1.2245735724767048,2.1857943534851074
2.25,1.6886865911797302e+18,62.25373014322917,0.1307758688926696,0.0369237263997395,0.0890444119771321,1.6886865911797302e+18,62.25373014322917,-0.5762714544932047,-9.207381884256998,3.40658187866211,1.6886865911797302e+18,62.25373014322917,-0.7128933469454447,-9.226800918579102,3.2548500696818032,1.6886865911754084e+18,62.249408284505215,-0.0072794773926336,-0.0299323965640117,-0.0126245484376946,1.6886865911754084e+18,62.249408284505215,-0.0083484914309034,-0.0254527179834743,-0.0102319930059213,,,,,,,,,,,,1.6886865911788836e+18,62.25288359374999,20.957159805297852,38.100599670410155,-21.811159515380854,1.6886865911788836e+18,62.25288359374999,-234.38883361816409,133.12639770507812,-154.5349578857422,1.6886865911797302e+18,62.25373014322917,-0.2500546922286351,0.0270123245815435,-0.7318521936734518,0.6333524783452352,-1.786428968111674,1.22424578666687,2.1868881384531655
2.3,1.6886865912316403e+18,62.305640218098965,0.0205441912015278,-0.0001497268676757,-0.005834420522054,1.6886865912316403e+18,62.305640218098965,-0.6809574365615845,-9.243274370829266,3.3162527879079184,1.6886865912316403e+18,62.305640218098965,-0.7073476513226827,-9.225619951883951,3.2593998114267984,1.688686591227318e+18,62.30131803385416,-0.0049378272960893,0.0263181105256079,0.0161879289274413,1.688686591227318e+18,62.30131803385416,-0.0060068416253973,0.030848695586125,0.0185295793538291,,,,,,,,,,,,1.6886865912288845e+18,62.30288442382812,21.03036003112793,38.21283950805664,-21.67939987182617,1.6886865912288845e+18,62.30288442382812,-234.31563415527344,133.23863525390624,-154.4031951904297,1.6886865912316403e+18,62.305640218098965,-0.2504749993483225,0.0270523441334565,-0.7316576441129049,0.6334094603856405,-1.7845134735107422,1.2238917748133342,2.185659646987915
2.35,1.6886865912835525e+18,62.357552490234376,-0.0917850534121195,0.051319122314453,-0.0039303302764892,1.6886865912835525e+18,62.357552490234376,-0.7814559936523438,-9.191829045613607,3.320639689763387,1.6886865912835525e+18,62.357552490234376,-0.6955169637997946,-9.225643475850424,3.2618826230367026,1.68868659127923e+18,62.35322981770833,-0.0071776666833708,0.0004072434967383,0.0182241462171077,1.68868659127923e+18,62.35322981770833,-0.0082466808768609,0.0049887330581744,0.0205148911724487,,,,,,,,,,,,1.6886865912788805e+18,62.35288051757813,20.971799850463867,38.17867889404297,-21.64279975891113,1.6886865912788805e+18,62.35288051757813,-234.37419738769532,133.20447387695313,-154.3665985107422,1.6886865912835525e+18,62.357552490234376,-0.2507810294628143,0.0270280539989471,-0.7312463323275248,0.633764366308848,-1.7808889945348103,1.2238986889521282,2.182447671890259
2.4,1.6886865913268152e+18,62.40081506347656,-0.0809749364852905,-0.0283384323120117,-0.0575069189071654,1.6886865913268152e+18,62.40081506347656,-0.7755736410617828,-9.26919651031494,3.272484064102173,1.6886865913268152e+18,62.40081506347656,-0.7004447281360626,-9.223353385925291,3.267303586006165,1.688686591331143e+18,62.4051426595052,-0.0184786735723415,-0.0475456776718298,-0.0129808865798015,1.688686591331143e+18,62.4051426595052,-0.0195476884643236,-0.0430150938530762,-0.0106901417796809,,,,,,,,,,,,1.6886865913288842e+18,62.40288427734375,20.918119430541992,38.239678955078126,-21.803839492797852,1.6886865913288842e+18,62.40288427734375,-234.42787170410156,133.26547546386718,-154.52763671875,1.6886865913268152e+18,62.40081506347656,-0.2505553364753723,0.0264128288254141,-0.7314403653144836,0.6336555182933807,-1.781991183757782,1.2232117652893066,2.182342290878296
2.45,1.688686591370072e+18,62.44407185872396,0.0685460766156514,-0.0389874776204426,-0.1167490482330321,1.688686591370072e+18,62.44407185872396,-0.638883650302887,-9.277970631917318,3.215754270553589,1.688686591370072e+18,62.44407185872396,-0.7132757504781088,-9.221478462219238,3.2698159217834473,1.688686591383055e+18,62.45705493164062,-0.0001018107674705,-0.0327831017784773,-0.003003420929114,1.688686591383055e+18,62.45705493164062,-0.0011199196742381,-0.0282525170478038,-0.0007126760950389,,,,,,,,,,,,1.6886865913788805e+18,62.45288046875,21.103559494018555,38.0151985168457,-21.879479598999023,1.6886865913788805e+18,62.45288046875,-234.24243774414063,133.04099731445314,-154.6032745361328,1.688686591370072e+18,62.44407185872396,-0.2498279760281244,0.0255681977917749,-0.7319172620773315,0.6334267059961954,-1.7855827411015828,1.2226516405741374,2.183650811513265
2.5,1.688686591421987e+18,62.49598722330729,0.0453535914421081,-0.0077145894368489,0.0150725841522216,1.688686591421987e+18,62.49598722330729,-0.6602196296056112,-9.248259862263998,3.3435707887013755,1.688686591421987e+18,62.49598722330729,-0.7114192446072897,-9.223040580749512,3.26581080754598,1.688686591426321e+18,62.500320678710935,0.013820826075971,0.0363464830443262,0.0122173051349818,1.688686591426321e+18,62.500320678710935,0.0127518121153115,0.0408516135066747,0.0145080494694411,,,,,,,,,,,,1.6886865914288858e+18,62.50288554687499,20.925439834594727,38.19087905883789,-21.618399810791015,1.6886865914288858e+18,62.50288554687499,-234.420556640625,133.2166778564453,-154.34219360351562,1.688686591421987e+18,62.49598722330729,-0.2496241778135299,0.0256224044909079,-0.7318506439526876,0.6335817376772562,-1.7852944533030193,1.2231183449427288,2.1831268469492593
2.55,1.6886865914739013e+18,62.547901204427085,-0.098574936389923,0.0926262537638345,0.0472004413604736,1.6886865914739013e+18,62.547901204427085,-0.796411136786143,-9.14915657043457,3.373879909515381,1.6886865914739013e+18,62.547901204427085,-0.7036822239557902,-9.224278132120768,3.2639920711517334,1.68868659146957e+18,62.543570231119794,0.0027488934962699,0.0272853137770046,-0.0018325957159201,1.68868659146957e+18,62.543570231119794,0.0017307849290469,0.0318668039205173,0.000509054477637,,,,,,,,,,,,1.6886865914788838e+18,62.552883886718746,21.018159484863283,38.176238250732425,-21.620838928222657,1.6886865914788838e+18,62.552883886718746,-234.3278350830078,133.20203857421876,-154.34463500976562,1.6886865914739013e+18,62.547901204427085,-0.2502044240633647,0.026319288338224,-0.7315563559532166,0.6336642305056254,-1.783145745595296,1.223488966623942,2.182835817337036
2.6,1.6886865915258122e+18,62.59981217447916,-0.0738353331883748,-0.036177635192871,-0.0306580066680907,1.6886865915258122e+18,62.59981217447916,-0.7762715419133505,-9.27637513478597,3.2995030085245767,1.6886865915258122e+18,62.59981217447916,-0.7082822322845459,-9.222692807515465,3.2674736181894937,1.6886865915214835e+18,62.5954833984375,-0.0117591560507813,-0.0483601664503415,0.0040215294963369,1.6886865915214835e+18,62.5954833984375,-0.0128281700114408,-0.0437786749874551,0.0064140850057203,,,,,,,,,,,,1.688686591528881e+18,62.602880957031246,20.89859962463379,38.06643905639648,-21.772119522094727,1.688686591528881e+18,62.602880957031246,-234.44739379882813,133.092236328125,-154.49591369628905,1.6886865915258122e+18,62.59981217447916,-0.2499108562866846,0.0257739461958407,-0.7317359248797098,0.6335950295130411,-1.784271200497945,1.2230147123336792,2.1827492713928223
2.65,1.688686591577729e+18,62.65172892252605,0.1391872564951578,0.0086851119995117,0.0405438741048176,1.688686591577729e+18,62.65172892252605,-0.5730810364087423,-9.23111089070638,3.3696924845377603,1.688686591577729e+18,62.65172892252605,-0.7181143164634705,-9.222291310628256,3.266461213429769,1.6886865915734036e+18,62.647403808593744,0.0025961773159603,-0.0329867247492075,-0.0062104631991435,1.6886865915734036e+18,62.647403808593744,0.0015271631224701,-0.0284052329758802,-0.0039197185930484,,,,,,,,,,,,1.6886865915788856e+18,62.652885595703125,21.169439697265624,37.966400146484375,-21.92339973449707,1.6886865915788856e+18,62.652885595703125,-234.1765594482422,132.99219360351563,-154.6471954345703,1.688686591577729e+18,62.65172892252605,-0.2489279856284459,0.0248674098402261,-0.7321097254753113,0.6335865060488383,-1.7872087160746255,1.2228943904240923,2.182923634847006
2.7,1.6886865916296335e+18,62.703633300781256,0.0296979347864786,0.0454031626383462,0.0397732257843017,1.6886865916296335e+18,62.703633300781256,-0.6783652305603027,-9.194022496541342,3.370888868967692,1.6886865916296335e+18,62.703633300781256,-0.7139091889063517,-9.22192096710205,3.2684282461802163,1.688686591625311e+18,62.699310628255205,-0.0025961773159603,0.0618501069645086,-0.0072285722320277,1.688686591625311e+18,62.699310628255205,-0.0036651915094504,0.0664315956334272,-0.004886922019068,,,,,,,,,,,,1.6886865916288837e+18,62.70288369140625,21.31095962524414,38.1030387878418,-21.43539962768555,1.6886865916288837e+18,62.70288369140625,-234.0350372314453,133.12883911132812,-154.1592010498047,1.6886865916296335e+18,62.703633300781256,-0.2497176478306451,0.0255601791044075,-0.7319395343462626,0.6334446469942728,-1.7858558893203735,1.222783446311951,2.183746019999186
2.75,1.6886865916815493e+18,62.755549235026045,-0.1119090914726256,-0.023700714111328,-0.0365053017934162,1.6886865916815493e+18,62.755549235026045,-0.8127620816230774,-9.262018203735352,3.2993036111195884,1.6886865916815493e+18,62.755549235026045,-0.706699013710022,-9.220812797546383,3.2731215159098306,1.6886865916772247e+18,62.75122469075521,-0.0078903425795335,-0.0011199199167701,0.0131845079983273,1.6886865916772247e+18,62.75122469075521,-0.0089593570058543,0.0034615689267714,0.0154752526432275,,,,,,,,,,,,1.6886865916788836e+18,62.75288369140625,21.00839958190918,37.93223876953125,-21.7403995513916,1.6886865916788836e+18,62.75288369140625,-234.33759765625,132.95803833007812,-154.46419677734374,1.6886865916815493e+18,62.755549235026045,-0.2503580053647358,0.0258181759466727,-0.7316792408625284,0.6334823171297709,-1.7834514776865642,1.2224524815877278,2.182669242223104
2.8,1.688686591733459e+18,62.80745906575521,0.1015406648317972,-0.0019197463989257,-0.0191436608632405,1.688686591733459e+18,62.80745906575521,-0.607776939868927,-9.240084012349447,3.3152557214101157,1.688686591733459e+18,62.80745906575521,-0.7151636282602946,-9.220659573872885,3.271711985270182,1.6886865917291295e+18,62.803129475911454,0.0032579479739069,-0.0406225395078459,-0.0122682102955877,1.6886865917291295e+18,62.803129475911454,0.002188933858027,-0.036041049286723,-0.0098756549414246,,,,,,,,,,,,1.6886865917288837e+18,62.80288354492187,21.698919677734377,38.26408004760742,-21.781879425048828,1.6886865917288837e+18,62.80288354492187,-233.64707641601564,133.28987731933594,-154.50567932128905,1.688686591733459e+18,62.80745906575521,-0.2495796630779901,0.02515902929008,-0.731996754805247,0.6334490776062012,-1.786009351412455,1.2224067846934,2.1831231117248535
2.85,1.6886865917767153e+18,62.85071508789062,0.099502682685852,0.0450377464294433,0.0495585203170776,1.6886865917767153e+18,62.85071508789062,-0.6113661825656891,-9.193822860717772,3.3816566467285156,1.6886865917767153e+18,62.85071508789062,-0.7167148888111115,-9.22135591506958,3.269410729408264,1.688686591781046e+18,62.8550458984375,0.005854125212257,0.0507527217268943,-0.0083993971347807,1.688686591781046e+18,62.8550458984375,0.0047851111739873,0.0553342116375764,-0.0061086524898806,,,,,,,,,,,,1.6886865917788836e+18,62.85288354492187,21.332919311523437,38.042039489746095,-21.818479537963867,1.6886865917788836e+18,62.85288354492187,-234.01307373046876,133.06784057617188,-154.5422790527344,1.6886865917767153e+18,62.85071508789062,-0.2497453689575195,0.025556574575603,-0.7320369184017181,0.6333214640617371,-1.786608099937439,1.222614824771881,2.184539556503296
2.9,1.6886865918199828e+18,62.89398307291666,-0.0364182392756144,0.0287815729777017,0.0024881362915038,1.6886865918199828e+18,62.89398307291666,-0.7401797970136007,-9.2097749710083,3.336990515391032,1.6886865918199828e+18,62.89398307291666,-0.7096075812975565,-9.221051851908364,3.271814982096354,1.688686591832961e+18,62.90696118164062,-0.0072285720768073,0.030746883402268,0.0093156949927408,1.688686591832961e+18,62.90696118164062,-0.0082975863479077,0.03532837331295,0.0116573449534673,,,,,,,,,,,,1.6886865918288814e+18,62.90288134765625,20.64727935791016,38.10792007446289,-21.833119201660157,1.6886865918288814e+18,62.90288134765625,-234.69871520996097,133.1337158203125,-154.55691528320312,1.6886865918199828e+18,62.89398307291666,-0.2506067256132761,0.0262531209737062,-0.7317645947138468,0.6332673827807108,-1.7843791643778484,1.2225242058436077,2.184596141179403
2.95,1.6886865918718912e+18,62.94589119466146,-0.0655792752901713,-0.0113751093546548,-0.0489277839660644,1.6886865918718912e+18,62.94589119466146,-0.7635098099708557,-9.249256451924644,3.2887352307637534,1.6886865918718912e+18,62.94589119466146,-0.7037765582402548,-9.22037665049235,3.274975617726644,1.6886865918762158e+18,62.95021582031249,-0.0026725353382061,-0.0046578475448768,0.0006108651868999,1.6886865918762158e+18,62.95021582031249,-0.0037415496772154,-7.635797373950004e-05,0.0029779681935906,,,,,,,,,,,,1.6886865918788856e+18,62.95288559570313,20.874199295043944,38.23479995727539,-22.01367950439453,1.6886865918788856e+18,62.95288559570313,-234.47179565429687,133.260595703125,-154.73748168945312,1.6886865918718912e+18,62.94589119466146,-0.2509869436422984,0.0263526327908038,-0.7315577665964762,0.633351723353068,-1.7824764649073284,1.2223228613535564,2.183403491973877
3.0,1.6886865919238042e+18,62.99780419921874,0.0162901679674784,0.0329618453979491,-0.0553116798400878,1.6886865919238042e+18,62.99780419921874,-0.6905287305514017,-9.204590479532875,3.281357447306315,1.6886865919238042e+18,62.99780419921874,-0.7126649220784506,-9.22004763285319,3.273981730143229,1.688686591919483e+18,62.99348274739583,0.0018325957935302,-0.0023925555093834,-0.0227547306567429,1.688686591919483e+18,62.99348274739583,0.0007635815418325,0.0021380282317598,-0.0204639857014019,1.688686591926748e+18,63.000747802734374,0.0,0.4611015915870666,0.8803601264953613,13.552000045776367,0.0106696290895342,0.0,40.20000076293945,-122.7531532,49.1903749,1.688686591928886e+18,63.00288598632813,20.44475975036621,38.06887969970703,-22.023439025878908,1.688686591928886e+18,63.00288598632813,-234.90123901367187,133.094677734375,-154.7472381591797,1.6886865919238042e+18,62.99780419921874,-0.2508369088172912,0.0263940263539552,-0.7318658630053202,0.6330533822377523,-1.785132606824239,1.222224513689677,2.1859039465586343
3.05,1.688686591975719e+18,63.049719075520834,0.0432446201642353,-0.0458583831787109,-0.0292398929595947,1.688686591975719e+18,63.049719075520834,-0.6711867650349935,-9.283154805501304,3.3064820766448975,1.688686591975719e+18,63.049719075520834,-0.7202774087587992,-9.219791730244957,3.2730345726013184,1.6886865919713907e+18,63.0453907063802,0.0007126761095908,-0.0113010072964242,-0.0091120732637742,1.6886865919713907e+18,63.0453907063802,-0.0002545272000133,-0.0067704229149966,-0.0067195177543907,,,,,,,,,,,,1.6886865919788836e+18,63.05288349609375,20.6814395904541,38.24699935913086,-22.074679565429687,1.6886865919788836e+18,63.05288349609375,-234.66455688476563,133.27279663085938,-154.79847717285156,1.688686591975719e+18,63.049719075520834,-0.2507152060667674,0.0264445195595422,-0.7321291963259379,0.632794976234436,-1.787413239479065,1.222148338953654,2.1880829334259033
3.1,1.6886865920276278e+18,63.1016280110677,0.073545217514038,0.0049702326456705,0.0136229991912841,1.6886865920276278e+18,63.1016280110677,-0.6396812597910563,-9.23390261332194,3.345166047414144,1.6886865920276278e+18,63.1016280110677,-0.7190725008646647,-9.221368153889976,3.268855651219686,1.6886865920233057e+18,63.097305338541666,0.0148134818300603,0.0207694187605132,0.0012726359030542,1.6886865920233057e+18,63.097305338541666,0.013795373495668,0.0253509076622624,0.0036651915094504,,,,,,,,,,,,1.6886865920288845e+18,63.102884326171875,20.76439971923828,38.09083862304688,-21.93803939819336,1.6886865920288845e+18,63.102884326171875,-234.58159790039065,133.11663513183595,-154.66183776855468,1.6886865920276278e+18,63.1016280110677,-0.2506769001483917,0.0267135358105102,-0.7320774594942728,0.6328586935997009,-1.7873296737670898,1.2226190567016602,2.1883206367492676
3.15,1.6886865920795436e+18,63.15354378255208,-0.015690247217814,0.0714772542317707,0.1781123479207357,1.6886865920795436e+18,63.15354378255208,-0.7236294547716776,-9.169495582580566,3.504886945088705,1.6886865920795436e+18,63.15354378255208,-0.7137852311134338,-9.2234681447347,3.264087200164795,1.68868659207522e+18,63.14921997070312,0.0081957752505938,0.0216348102937141,-0.0013235413935035,1.68868659207522e+18,63.14921997070312,0.0072285719215869,0.0261653953542311,0.0009672033678119,,,,,,,,,,,,1.6886865920788833e+18,63.15288344726563,21.01571922302246,38.054239654541014,-21.713559341430663,1.6886865920788833e+18,63.15288344726563,-234.3302734375,133.08003845214844,-154.43735961914064,1.6886865920795436e+18,63.15354378255208,-0.25099511941274,0.0273794059952099,-0.7318689227104187,0.6329452792803446,-1.7860923210779829,1.2232468525568645,2.188502788543701
3.2,1.68868659213145e+18,63.205449869791664,-0.0473835666974385,0.031951904296875,-0.0148869355519612,1.68868659213145e+18,63.205449869791664,-0.7543373306592306,-9.204790115356444,3.324029445648194,1.68868659213145e+18,63.205449869791664,-0.7127997875213623,-9.219237327575684,3.276228984196981,1.6886865921271316e+18,63.20113159179687,-0.0351247520496447,0.0057014087215065,0.0028507045547788,1.6886865921271316e+18,63.20113159179687,-0.0361428589870531,0.0102319931611418,0.0052432601029674,,,,,,,,,,,,1.6886865921288852e+18,63.20288525390625,20.786359786987305,38.20307846069336,-21.781879043579103,1.6886865921288852e+18,63.20288525390625,-234.55963134765625,133.2288787841797,-154.50567321777345,1.68868659213145e+18,63.205449869791664,-0.2516296009222666,0.027134505410989,-0.7318437695503235,0.6327329079310099,-1.7850329081217449,1.2219831943511963,2.1880597273508706
3.25,1.6886865921833649e+18,63.25736490885416,-0.0423695047696431,-0.0918960571289062,-0.2282178401947021,1.6886865921833649e+18,63.25736490885416,-0.746361255645752,-9.324830055236816,3.1220354239145913,1.6886865921833649e+18,63.25736490885416,-0.7098377744356791,-9.215429306030272,3.2875658671061196,1.6886865921790464e+18,63.253046468098965,-0.0214820941910146,-0.0690277727941671,0.0313068435837824,1.6886865921790464e+18,63.253046468098965,-0.0225511083068946,-0.0644462816417216,0.0335975885391235,,,,,,,,,,,,1.688686592178885e+18,63.25288515625,20.979119491577148,38.312879180908205,-21.75747947692871,1.688686592178885e+18,63.25288515625,-234.36687622070312,133.33867797851562,-154.4812774658203,1.6886865921833649e+18,63.25736490885416,-0.2512096762657165,0.0257035121321677,-0.7317922115325928,0.6330188910166422,-1.7834552526474,1.2208491961161296,2.183810313542684
3.3,1.688686592226623e+18,63.300623046875,0.1205167174339293,0.0145258903503417,-0.1379631757736205,1.688686592226623e+18,63.300623046875,-0.5913262963294983,-9.218947410583496,3.2090742588043213,1.688686592226623e+18,63.300623046875,-0.717689037322998,-9.2159686088562,3.284350037574768,1.6886865922309527e+18,63.30495255533854,0.0088575460637608,-0.0485637883345285,-0.0148134824509421,1.6886865922309527e+18,63.30495255533854,0.0077885318702707,-0.0440332037396728,-0.012471832257385,,,,,,,,,,,,1.6886865922288837e+18,63.30288364257813,20.976679611206055,38.06643829345703,-21.93803939819336,1.6886865922288837e+18,63.30288364257813,-234.36931457519532,133.0922393798828,-154.66183776855468,1.688686592226623e+18,63.300623046875,-0.2500132992863654,0.0246948264539241,-0.7321004867553711,0.6331764757633209,-1.7859405279159546,1.2210091948509216,2.183058977127075
3.35,1.688686592269885e+18,63.343884602864584,0.0619425177574157,-0.0415376027425129,-0.0111851692199707,1.688686592269885e+18,63.343884602864584,-0.656829833984375,-9.276973406473797,3.32881506284078,1.688686592269885e+18,63.343884602864584,-0.7246183753013611,-9.217931111653646,3.2773128350575766,1.688686592282865e+18,63.35686490885416,0.0192422550171613,-0.0032579477410763,-0.0081448700899878,1.688686592282865e+18,63.35686490885416,0.0181732407460609,0.0013235413935035,-0.0058032196636,,,,,,,,,,,,1.6886865922788838e+18,63.35288383789062,21.193839645385744,38.176239013671875,-21.894119262695312,1.6886865922788838e+18,63.35288383789062,-234.15215759277345,133.20203857421876,-154.61791381835937,1.688686592269885e+18,63.343884602864584,-0.2495959798494974,0.0248759773870309,-0.7323355078697205,0.6330622235933939,-1.7884050210316975,1.2215936183929443,2.18515682220459
3.4,1.6886865923218017e+18,63.3958017578125,0.0732204715410868,0.0384092330932616,0.1281240781148274,1.6886865923218017e+18,63.3958017578125,-0.646660327911377,-9.199605305989584,3.460619846979777,1.6886865923218017e+18,63.3958017578125,-0.7257268230120341,-9.220509847005207,3.269808371861776,1.688686592326128e+18,63.40012829589844,0.0122936628758906,0.0110719325020909,0.0091629786184057,1.688686592326128e+18,63.40012829589844,0.0112246489152311,0.0156534223933704,0.0115300812758504,,,,,,,,,,,,1.688686592328882e+18,63.40288193359375,21.276799392700195,38.024959564208984,-21.79407958984375,1.688686592328882e+18,63.40288193359375,-234.06919555664064,133.05075378417968,-154.51788024902345,1.6886865923218017e+18,63.3958017578125,-0.2492883255084355,0.0251330410440762,-0.7323651909828186,0.6331389347712199,-1.789210597674052,1.2223625183105469,2.185861031214396
3.45,1.6886865923737068e+18,63.44770662434896,-0.1105115016301473,0.1115967432657876,0.1236520608266194,1.6886865923737068e+18,63.44770662434896,-0.8143573005994161,-9.127422014872232,3.456831137339274,1.6886865923737068e+18,63.44770662434896,-0.7096918225288391,-9.221514066060385,3.270491679509481,1.6886865923693888e+18,63.44338875325521,-0.0021380284063828,0.0170024158433079,0.0319686140865087,1.6886865923693888e+18,63.44338875325521,-0.00320704242525,0.0215839054435491,0.034259358420968,,,,,,,,,,,,1.6886865923788856e+18,63.45288569335937,21.389039611816408,38.205519104003905,-21.65987968444824,1.6886865923788856e+18,63.45288569335937,-233.9569580078125,133.23131713867187,-154.38368225097656,1.6886865923737068e+18,63.44770662434896,-0.2497161080439885,0.0253308210521936,-0.7318000793457031,0.6336157321929932,-1.7844880024592082,1.2226627667744954,2.182044188181559
3.5,1.6886865924256246e+18,63.49962451171874,-0.0219566822052002,-0.0407012303670247,-0.0019680658976236,1.6886865924256246e+18,63.49962451171874,-0.7302097082138062,-9.276973406473797,3.3379875818888345,1.6886865924256246e+18,63.49962451171874,-0.7140990495681763,-9.218767484029136,3.2772682507832847,1.6886865924213012e+18,63.49530118815104,-0.0150680091852942,-0.0100283708889036,-0.0260635839464763,1.6886865924213012e+18,63.49530118815104,-0.0160861182957887,-0.0054977870701501,-0.023721933364868,,,,,,,,,,,,1.6886865924288845e+18,63.502884374999994,21.03767967224121,38.13719940185547,-21.91363945007324,1.6886865924288845e+18,63.502884374999994,-234.30831298828124,133.16299743652343,-154.63743896484374,1.6886865924256246e+18,63.49962451171874,-0.2497793634732563,0.0249326769262551,-0.7319672306378683,0.6334134737650553,-1.7853429317474363,1.2218430439631145,2.1824374993642173
3.55,1.6886865924775383e+18,63.55153816731771,0.0508192380269368,-0.0911766688028971,-0.1887595653533935,1.6886865924775383e+18,63.55153816731771,-0.6719843745231628,-9.326823870340982,3.149752219518026,1.6886865924775383e+18,63.55153816731771,-0.72864963610967,-9.21814250946045,3.2758243878682456,1.688686592473215e+18,63.54721484375,0.0057523144253839,-0.0238746503018773,-0.0133881301929553,1.688686592473215e+18,63.54721484375,0.0046833002318938,-0.0193440662696957,-0.0110973846167325,,,,,,,,,,,,1.6886865924788884e+18,63.55288862304688,20.661919403076173,38.18111953735352,-21.762359619140625,1.6886865924788884e+18,63.55288862304688,-234.68407287597657,133.20691528320313,-154.4861572265625,1.6886865924775383e+18,63.55153816731771,-0.249495764573415,0.0249392526845136,-0.732473611831665,0.6329393784205118,-1.7896735270818074,1.2216565211613972,2.1863691012064614
3.6,1.6886865925294508e+18,63.60345068359376,0.122235357761383,0.0528011322021484,-0.0074007511138916,1.6886865925294508e+18,63.60345068359376,-0.5936194260915121,-9.186046282450356,3.3236306508382163,1.6886865925294508e+18,63.60345068359376,-0.7217008074124655,-9.221342722574873,3.268344004948934,1.6886865925251287e+18,63.59912866210937,0.009722938761115,-0.046171232437094,0.0457639880478382,1.6886865925251287e+18,63.59912866210937,0.0086539243347942,-0.0415897419055302,0.0481056384742259,,,,,,,,,,,,1.6886865925288863e+18,63.60288608398438,21.425639724731447,38.13475875854492,-21.767238998413085,1.6886865925288863e+18,63.60288608398438,-233.92035522460935,133.16055603027343,-154.49103698730468,1.6886865925294508e+18,63.60345068359376,-0.2483988006909687,0.0241605130334694,-0.7322578628857931,0.6336501638094584,-1.7881309191385906,1.2226113478342693,2.1820457776387534
3.65,1.6886865925813563e+18,63.65535628255208,-0.0070500969886779,0.0421260197957356,0.1584047476450602,1.6886865925813563e+18,63.65535628255208,-0.7024928530057272,-9.199605305989584,3.4857443968454995,1.6886865925813563e+18,63.65535628255208,-0.7012887795766195,-9.224226633707682,3.2646522521972656,1.688686592577034e+18,63.651033772786455,0.0157297799984613,0.0784452793498833,0.0088066399718324,1.688686592577034e+18,63.651033772786455,0.0147625766694545,0.0830267680188019,0.0110973846167325,,,,,,,,,,,,1.688686592578881e+18,63.6528810546875,21.20847969055176,38.376319122314456,-21.628159713745116,1.688686592578881e+18,63.6528810546875,-234.13751831054688,133.4021209716797,-154.35195922851562,1.6886865925813563e+18,63.65535628255208,-0.2489061802625655,0.0247325027982393,-0.7315278251965841,0.6342716415723165,-1.7824005683263142,1.2234735488891602,2.177865743637085
3.7,1.6886865926332764e+18,63.7072763671875,-0.1638904015223184,0.1133047739664713,0.1485902468363443,1.6886865926332764e+18,63.7072763671875,-0.8606185515721639,-9.129017194112144,3.473979632059733,1.6886865926332764e+18,63.7072763671875,-0.7025741736094157,-9.224817276000978,3.262701988220215,1.6886865926289518e+18,63.70295157877604,0.0126754539863516,0.1026253625750541,-0.0566068465511003,1.6886865926289518e+18,63.70295157877604,0.0116573451086878,0.1071559439102808,-0.0543161009748776,,,,,,,,,,,,1.6886865926288832e+18,63.702883203125,20.88151969909668,37.9737190246582,-21.945359420776366,1.6886865926288832e+18,63.702883203125,-234.4644775390625,132.99951782226563,-154.66915893554688,1.6886865926332764e+18,63.7072763671875,-0.2507781187693278,0.0270675259331861,-0.7314899762471517,0.6334820787111918,-1.7829001347223918,1.2236512502034504,2.184521277745565
3.75,1.6886865926765286e+18,63.75052856445312,-0.0974206328392028,-0.0037078857421875,0.016973853111267,1.6886865926765286e+18,63.75052856445312,-0.8114659786224365,-9.24317455291748,3.3466615676879883,1.6886865926765286e+18,63.75052856445312,-0.719891369342804,-9.221961975097656,3.2670003175735474,1.6886865926808607e+18,63.75486059570312,-0.0215839048226673,-0.0374664027864733,-0.0251981915983682,1.6886865926808607e+18,63.75486059570312,-0.0226529197146494,-0.0329867241283257,-0.0229074465266118,,,,,,,,,,,,1.6886865926788833e+18,63.75288334960938,21.496399307250975,38.34459915161133,-21.69403953552246,1.6886865926788833e+18,63.75288334960938,-233.8495971679687,133.37040100097656,-154.41783752441407,1.6886865926765286e+18,63.75052856445312,-0.2512895464897156,0.0275827096775174,-0.7320737540721893,0.6325826644897461,-1.7876880168914795,1.22279691696167,2.1908440589904785
3.8,1.688686592719796e+18,63.79379597981771,0.119898517926534,-0.0689287185668944,-0.161441961924235,1.688686592719796e+18,63.79379597981771,-0.6017949183781942,-9.305088996887209,3.1758738358815513,1.688686592719796e+18,63.79379597981771,-0.7275394598642985,-9.218655586242676,3.2746284008026123,1.6886865927327744e+18,63.80677449544271,-0.0223983920489747,-0.0751364255944887,0.0408770659317572,1.6886865927327744e+18,63.80677449544271,-0.023467406630516,-0.07055493692557,0.043218716358145,,,,,,,,,,,,1.688686592728881e+18,63.802881005859376,21.062079620361327,38.15915985107422,-21.535439682006835,1.688686592728881e+18,63.802881005859376,-234.2839141845703,133.18495483398436,-154.25923767089844,1.688686592719796e+18,63.79379597981771,-0.2503746151924133,0.0260347227255503,-0.732396403948466,0.6326372027397156,-1.7894260485967,1.2218097845713298,2.1890084743499756
3.85,1.6886865927717066e+18,63.84570654296875,0.066326101620992,-0.0461317698160807,-0.131846268971761,1.6886865927717066e+18,63.84570654296875,-0.638883630434672,-9.282755851745604,3.2077781359354653,1.6886865927717066e+18,63.84570654296875,-0.7110557556152344,-9.219119389851889,3.2769370079040527,1.688686592776039e+18,63.85003894042968,0.0029016098706051,-0.0035888333804905,0.0487928614020347,1.688686592776039e+18,63.85003894042968,0.0018325957935303,0.0009926562197506,0.0511599630117416,,,,,,,,,,,,1.6886865927788826e+18,63.852882617187504,20.77171974182129,38.04691848754883,-21.774559783935548,1.6886865927788826e+18,63.852882617187504,-234.57427368164065,133.07271728515624,-154.49835510253905,1.6886865927717066e+18,63.84570654296875,-0.249704544742902,0.0248264614492654,-0.731864849726359,0.6335653265317281,-1.7844767967859905,1.2219475905100503,2.181302547454834
3.9,1.6886865928236168e+18,63.89761702473958,-0.0490264097849527,0.0486141840616861,0.0317217508951822,1.6886865928236168e+18,63.89761702473958,-0.7435696522394816,-9.190831502278646,3.3657044569651284,1.6886865928236168e+18,63.89761702473958,-0.7003892660140991,-9.221940994262695,3.2712953090667725,1.688686592819296e+18,63.89329581705729,0.0150171040246883,0.0041233404384304,0.0033597590712209,1.688686592819296e+18,63.89329581705729,0.0139989952246347,0.0086030188637474,0.005701408876727,,,,,,,,,,,,1.688686592828883e+18,63.9028830078125,20.976679611206055,37.981038665771486,-21.862399291992187,1.688686592828883e+18,63.9028830078125,-234.36931457519532,133.0068389892578,-154.58619384765626,1.6886865928236168e+18,63.89761702473958,-0.2495637585719426,0.0249506551772355,-0.7314890821774801,0.6340497732162476,-1.781719406445821,1.222790241241455,2.1784911155700684
3.95,1.6886865928755292e+18,63.949529215494785,0.0417764981587727,0.0714804331461588,0.0890179475148518,1.6886865928755292e+18,63.949529215494785,-0.6658028960227966,-9.16889731089274,3.417548894882202,1.6886865928755292e+18,63.949529215494785,-0.7134254177411398,-9.222873051961264,3.2658435503641763,1.688686592871208e+18,63.945207845052074,0.0137953736508885,0.0298305867860714,-0.0471893399953841,1.688686592871208e+18,63.945207845052074,0.0127263590693472,0.0343102638920147,-0.0448985956609248,,,,,,,,,,,,1.6886865928788823e+18,63.95288227539063,21.320719909667968,38.11523971557617,-21.603759384155275,1.6886865928788823e+18,63.95288227539063,-234.02527465820313,133.1410369873047,-154.3275573730469,1.6886865928755292e+18,63.949529215494785,-0.249693324168523,0.0257300529628991,-0.7319160103797913,0.6334745486577352,-1.785873611768087,1.2230688730875652,2.183966795603434
4.0,1.6886865929274452e+18,64.00144523111979,0.0579654375712076,-0.0245771408081054,-0.0166870752970377,1.6886865929274452e+18,64.00144523111979,-0.6634100874265035,-9.264012336730955,3.311467170715332,1.6886865929274452e+18,64.00144523111979,-0.7272215485572815,-9.221930503845217,3.265466849009196,1.6886865929231206e+18,63.99712052408854,-0.0034106643870472,0.0014762574962029,-0.024536420435955,1.6886865929231206e+18,63.99712052408854,-0.0044287729542701,0.0060577463979522,-0.0222456760238855,1.688686592926763e+18,64.00076293945312,0.0,0.4614328742027282,0.8857741951942444,13.560999870300291,0.0084859710186719,0.0,40.20000076293945,-122.7531532,49.1903748,1.688686592928883e+18,64.00288276367186,21.132839965820313,38.1445198059082,-21.76967964172363,1.688686592928883e+18,64.00288276367186,-234.21315307617184,133.17031555175782,-154.49347839355468,1.6886865929274452e+18,64.00144523111979,-0.2500192870696385,0.0263462513685226,-0.732374389966329,0.6327906250953674,-1.789926489194234,1.2227870225906372,2.1894098917643228
4.05,1.688686592979354e+18,64.05335400390625,0.0622040033340453,-0.0110804239908854,-0.1174159049987792,1.688686592979354e+18,64.05335400390625,-0.6516453822453817,-9.249256451924644,3.2159536679585776,1.688686592979354e+18,64.05335400390625,-0.7196954091389974,-9.22067133585612,3.270682175954183,1.688686592975033e+18,64.04903287760418,-0.0184786729514598,-0.0481056372324625,0.0512617751955985,1.688686592975033e+18,64.04903287760418,-0.0194967823723951,-0.0436259607474008,0.0536034256219863,,,,,,,,,,,,1.688686592978885e+18,64.05288500976562,21.18163948059082,38.188438415527344,-22.167399597167968,1.688686592978885e+18,64.05288500976562,-234.16435546875,133.21423950195313,-154.89119873046874,1.688686592979354e+18,64.05335400390625,-0.2495689839124678,0.0252974461764096,-0.7321494619051615,0.6332710981369019,-1.7873960336049397,1.2224109172821045,2.184696674346924
4.1,1.6886865930312696e+18,64.10526993815104,-0.0265150864919026,-0.0099627176920573,-0.078808307647705,1.6886865930312696e+18,64.10526993815104,-0.7218348383903503,-9.249256451924644,3.2554352283477783,1.6886865930312696e+18,64.10526993815104,-0.701165775458018,-9.221789042154947,3.2715561389923096,1.6886865930269453e+18,64.1009453125,0.0013744469033554,-0.0128281700114409,0.038789943481485,1.6886865930269453e+18,64.1009453125,0.0003563383312818,-0.0083484919741749,0.0410806878159442,,,,,,,,,,,,1.68868659302888e+18,64.10287993164063,21.262160110473634,38.3543586730957,-21.85751953125,1.68868659302888e+18,64.10287993164063,-234.083837890625,133.38016052246093,-154.58131713867186,1.6886865930312696e+18,64.10526993815104,-0.2490518043438593,0.0243513640016316,-0.7315364877382914,0.6342196464538574,-1.7819307247797649,1.222744901974996,2.177076578140259
4.15,1.6886865930831798e+18,64.15717944335937,-0.1057755549748738,0.0312801996866861,0.0700338681538899,1.6886865930831798e+18,64.15717944335937,-0.805583635965983,-9.21017360687256,3.397209882736206,1.6886865930831798e+18,64.15717944335937,-0.7056541045506796,-9.223949114481607,3.264488617579142,1.6886865930788554e+18,64.15285530598958,0.0198022151986757,0.0130826974442849,-0.0391971850767731,1.6886865930788554e+18,64.15285530598958,0.0187841063986221,0.017664186307229,-0.0369064419840772,,,,,,,,,,,,1.6886865930788846e+18,64.15288447265625,21.074279403686525,38.40316009521485,-21.691599655151368,1.6886865930788846e+18,64.15288447265625,-234.27171630859377,133.428955078125,-154.41539916992187,1.6886865930831798e+18,64.15717944335937,-0.249039019147555,0.0249648044506708,-0.7316719094912211,0.6340445280075073,-1.7836878697077434,1.2233914931615193,2.1796905199686685
4.2,1.6886865931264425e+18,64.20044250488282,0.0531994402408599,0.0642437934875487,0.1094448566436767,1.6886865931264425e+18,64.20044250488282,-0.6711867451667786,-9.177073001861572,3.4316067695617676,1.6886865931264425e+18,64.20044250488282,-0.7302322089672089,-9.223812103271484,3.259474515914917,1.6886865931307686e+18,64.20476888020833,0.004174245831867,-0.0017307849872546,-0.0502436682581901,1.6886865931307686e+18,64.20476888020833,0.0031561370318134,0.0028507045159737,-0.0479020159691571,,,,,,,,,,,,1.6886865931288817e+18,64.20288168945312,21.264599609375,38.28603973388672,-21.73795967102051,1.6886865931288817e+18,64.20288168945312,-234.081396484375,133.31183776855468,-154.46175537109374,1.6886865931264425e+18,64.20044250488282,-0.2487909793853759,0.0254466999322175,-0.7325108051300049,0.63315349817276,-1.7911953926086426,1.2233501076698303,2.187541961669922
4.25,1.6886865931697062e+18,64.24370629882813,0.1266264915466308,0.1994047164916992,0.0206243991851806,1.6886865931697062e+18,64.24370629882813,-0.6059823234875997,-9.039286613464355,3.3483564853668213,1.6886865931697062e+18,64.24370629882813,-0.7384548385938009,-9.221186637878418,3.265044689178467,1.6886865931826824e+18,64.25668237304687,-0.0257072461148102,0.0767144914716481,-0.0098247490823268,1.6886865931826824e+18,64.25668237304687,-0.0267762597650288,0.0812450752904017,-0.0075340044374267,,,,,,,,,,,,1.6886865931788856e+18,64.25288559570313,21.364639663696288,38.0810791015625,-21.752599716186523,1.6886865931788856e+18,64.25288559570313,-233.98135681152343,133.10687561035155,-154.4763946533203,1.6886865931697062e+18,64.24370629882813,-0.2492869595686594,0.0257024535288412,-0.7327879071235657,0.6326271891593933,-1.7932291428248088,1.2225654522577922,2.190704584121704
4.3,1.6886865932216156e+18,64.29561539713542,-0.1686384081840515,-0.0130481719970702,0.0097211996714274,1.6886865932216156e+18,64.29561539713542,-0.8847461740175883,-9.246265411376951,3.356532017389933,1.6886865932216156e+18,64.29561539713542,-0.7219537893931071,-9.215712547302246,3.284123420715332,1.688686593225942e+18,64.29994189453126,-0.0336739476770162,0.1204931661486625,0.0045051312772556,1.688686593225942e+18,64.29994189453126,-0.0347429607063531,0.1249982975423335,0.0067958757281302,,,,,,,,,,,,1.6886865932288804e+18,64.30288037109375,20.920559692382813,38.024958801269534,-22.067359161376952,1.6886865932288804e+18,64.30288037109375,-234.42543334960936,133.0507598876953,-154.7911590576172,1.6886865932216156e+18,64.29561539713542,-0.2517894208431243,0.0268329555789629,-0.732173224290212,0.6323003768920898,-1.7871935764948528,1.220934311548869,2.1900506814320884
4.35,1.6886865932735242e+18,64.34752416992187,-0.1537818511327107,-0.1024719874064127,-0.0555016199747721,1.6886865932735242e+18,64.34752416992187,-0.8727820714314779,-9.330612500508629,3.304886817932129,1.6886865932735242e+18,64.34752416992187,-0.7248462438583374,-9.210635821024576,3.297701040903727,1.688686593269203e+18,64.34320288085938,-0.0164933617537219,0.0194967829932769,-0.0441859187558292,1.688686593269203e+18,64.34320288085938,-0.017511470010504,0.0239764607201019,-0.0418951753526925,,,,,,,,,,,,1.6886865932788805e+18,64.35288032226563,21.066959381103516,38.13719787597656,-21.916079330444337,1.6886865932788805e+18,64.35288032226563,-234.27903442382816,133.16300048828126,-154.63987731933594,1.6886865932735242e+18,64.34752416992187,-0.2532520890235901,0.0274933849771817,-0.7322491804758707,0.6315999229749044,-1.7871603568394978,1.2194273074467976,2.1931846936543784
4.4,1.6886865933254395e+18,64.39943969726562,0.154278020064036,-0.1603463490804035,0.0595826307932535,1.6886865933254395e+18,64.39943969726562,-0.6019942959149679,-9.38784090677897,3.4133614699045816,1.6886865933254395e+18,64.39943969726562,-0.7621183395385742,-9.209989865620932,3.2910914421081543,1.6886865933211116e+18,64.39511157226563,0.0204639853909611,-0.0281507062415281,-0.070300410191218,1.6886865933211116e+18,64.39511157226563,0.0193949714303016,-0.0235692175726095,-0.0679587585230668,,,,,,,,,,,,1.6886865933288822e+18,64.40288198242187,21.249959564208982,37.90051956176758,-21.84531936645508,1.6886865933288822e+18,64.40288198242187,-234.09603576660157,132.926318359375,-154.56911926269532,1.6886865933254395e+18,64.39943969726562,-0.2526011665662129,0.0278400182723998,-0.733532170454661,0.6303554177284241,-1.798359791437785,1.219236135482788,2.2039449214935303
4.45,1.6886865933773545e+18,64.45135457356771,0.2516925732294718,0.1224222183227538,0.1079742908477782,1.6886865933773545e+18,64.45135457356771,-0.5104688207308451,-9.104490598042808,3.4620156288146973,1.6886865933773545e+18,64.45135457356771,-0.7680074373881022,-9.209408124287924,3.291353940963745,1.6886865933730286e+18,64.44702856445313,-0.0131336025272806,0.0247400424753626,0.0123700207720199,1.6886865933730286e+18,64.44702856445313,-0.0141517120258261,0.0293215313868131,0.0146607651064792,,,,,,,,,,,,1.688686593378884e+18,64.45288403320312,21.08403968811035,38.02007904052734,-21.77699966430664,1.688686593378884e+18,64.45288403320312,-234.26195373535157,133.0458740234375,-154.50079956054688,1.6886865933773545e+18,64.45135457356771,-0.2526631951332092,0.0279823181529839,-0.7337315082550049,0.6300922632217407,-1.800041397412618,1.2190639177958171,2.205932378768921
4.5,1.6886865934292646e+18,64.5032646484375,-0.1546719074249266,-0.0359996159871419,-0.2070536613464355,1.6886865934292646e+18,64.5032646484375,-0.8807581464449564,-9.25942579905192,3.1649068196614585,1.6886865934292646e+18,64.5032646484375,-0.7319322625796,-9.205921490987144,3.30927308400472,1.6886865934249382e+18,64.4989383951823,-0.0406225385765234,-0.0029016101422409,0.0848593612511952,1.6886865934249382e+18,64.4989383951823,-0.0416915528476237,0.0016798799236615,0.0872519190112749,,,,,,,,,,,,1.6886865934288858e+18,64.50288569335937,21.071840286254883,37.94199905395508,-22.113719177246093,1.6886865934288858e+18,64.50288569335937,-234.2741546630859,132.9677978515625,-154.83751525878907,1.6886865934292646e+18,64.5032646484375,-0.2537459333737691,0.0272557108352581,-0.7325045665105184,0.6311155160268148,-1.7884736061096191,1.2180336316426594,2.1949246724446616
4.55,1.688686593481177e+18,64.55517700195313,-0.1126010417938232,-0.1138690312703449,-0.2609957059224446,1.688686593481177e+18,64.55517700195313,-0.826122005780538,-9.33739217122396,3.1134610970815024,1.688686593481177e+18,64.55517700195313,-0.719366987546285,-9.206018447875977,3.311769406000773,1.6886865934768476e+18,64.55084749348958,-0.0069740445663531,-0.1621847227215766,0.0522798846165338,1.6886865934768476e+18,64.55084749348958,-0.0080430588374535,-0.1577050487200419,0.0546215325593948,,,,,,,,,,,,1.688686593478882e+18,64.55288212890625,20.95959930419922,38.0591178894043,-22.252799606323244,1.688686593478882e+18,64.55288212890625,-234.3863983154297,133.0849182128906,-154.97659606933593,1.688686593481177e+18,64.55517700195313,-0.2518283625443776,0.0246409097065527,-0.7321597536404928,0.6323888897895813,-1.7846941153208415,1.2180622418721516,2.184499184290568
4.6,1.68868659353309e+18,64.60709025065104,0.242912729581197,0.042616844177246,-0.0537172158559162,1.68868659353309e+18,64.60709025065104,-0.4917250573635101,-9.184849739074709,3.305086294809977,1.68868659353309e+18,64.60709025065104,-0.740483820438385,-9.209961891174316,3.2961161136627197,1.688686593528765e+18,64.60276472981771,0.0274380308886368,-0.0736092605317632,-0.0210748505778609,1.688686593528765e+18,64.60276472981771,0.0263690166175365,-0.0690786764025688,-0.0187332012380162,,,,,,,,,,,,1.6886865935288858e+18,64.60288559570313,20.81075973510742,37.86635894775391,-22.099079513549803,1.6886865935288858e+18,64.60288559570313,-234.53523864746097,132.89215393066405,-154.8228759765625,1.68868659353309e+18,64.60709025065104,-0.2490358601013818,0.0229708719998597,-0.7329492767651876,0.6326442360877991,-1.7917877038319905,1.2192269961039226,2.1850127379099527
4.65,1.6886865935763497e+18,64.650349609375,0.0204017162322998,0.0519871711730956,0.0035629272460937,1.6886865935763497e+18,64.650349609375,-0.7166503965854645,-9.17886734008789,3.352344512939453,1.6886865935763497e+18,64.650349609375,-0.7428981363773346,-9.21334981918335,3.2860941886901855,1.6886865935806728e+18,64.65467268880208,0.0267762597650288,0.0527889393270014,-0.0006617703087006,1.6886865935806728e+18,64.65467268880208,0.025758151585857,0.0572686145702997,0.0016289741421739,,,,,,,,,,,,1.6886865935788826e+18,64.65288266601563,21.288999557495117,37.97127914428711,-21.945359420776366,1.6886865935788826e+18,64.65288266601563,-234.05699462890624,132.99707641601563,-154.66915893554688,1.6886865935763497e+18,64.650349609375,-0.2491530701518058,0.0239402959123253,-0.733002245426178,0.6325008273124695,-1.7931379079818726,1.220230996608734,2.187918782234192
4.7,1.6886865936196116e+18,64.69361181640625,-0.082743485768636,0.0578072865804036,0.1296910444895426,1.6886865936196116e+18,64.69361181640625,-0.8107680678367615,-9.177073160807293,3.469194014867147,1.6886865936196116e+18,64.69361181640625,-0.7338706056276957,-9.21737575531006,3.27681557337443,1.688686593632586e+18,64.70658601888022,0.0264199214677015,0.0047851110187669,0.0064649906319876,1.688686593632586e+18,64.70658601888022,0.0254018132885296,0.009366600230957,0.0087557351216673,,,,,,,,,,,,1.6886865936288906e+18,64.7028904296875,21.027919387817384,38.10303955078125,-21.87459945678711,1.6886865936288906e+18,64.7028904296875,-234.31807556152344,133.12883605957032,-154.59840087890626,1.6886865936196116e+18,64.69361181640625,-0.2492272108793257,0.0246281772851943,-0.732665479183197,0.632835308710734,-1.7911242246627808,1.2214282353719077,2.186978816986084
4.75,1.6886865936715185e+18,64.7455186360677,0.0118382970492045,0.0959444046020507,0.2674704392751058,1.6886865936715185e+18,64.7455186360677,-0.7192426323890686,-9.141379992167158,3.599403460820516,1.6886865936715185e+18,64.7455186360677,-0.7369269529978434,-9.219819704691568,3.2692456245422363,1.6886865936758497e+18,64.74984985351563,0.017638734076172,0.071471232920885,-0.0491746515035629,1.6886865936758497e+18,64.74984985351563,0.0165697196498512,0.0760527234524488,-0.0468839071691035,,,,,,,,,,,,1.688686593678882e+18,64.75288208007814,21.530559921264647,38.08839950561523,-21.58423957824707,1.688686593678882e+18,64.75288208007814,-233.8154327392578,133.11419677734375,-154.30803527832032,1.6886865936715185e+18,64.7455186360677,-0.2494260867436726,0.025506529957056,-0.732741634051005,0.6326337456703186,-1.792508641878764,1.222157001495361,2.1899152596791587
4.8,1.6886865937234327e+18,64.7974326171875,-0.1297366619110107,0.0509780248006184,0.1422851085662841,1.6886865937234327e+18,64.7974326171875,-0.8681958119074503,-9.184849739074709,3.476771275202433,1.6886865937234327e+18,64.7974326171875,-0.7443051735560099,-9.21832307179769,3.271798769632975,1.6886865937191063e+18,64.7931063639323,-0.0009672032416953,0.0924442733327547,-0.0366519136975208,1.6886865937191063e+18,64.7931063639323,-0.0020362175807046,0.0970257620016733,-0.0343611693630615,,,,,,,,,,,,1.688686593728886e+18,64.80288588867188,20.87175941467285,38.04935913085937,-21.83311958312988,1.688686593728886e+18,64.80288588867188,-234.47423095703124,133.07515563964844,-154.55691833496093,1.6886865937234327e+18,64.7974326171875,-0.2511129677295685,0.0273714798192182,-0.732930858929952,0.631668488184611,-1.7944854100545249,1.221710244814555,2.1971123218536377
4.85,1.688686593775346e+18,64.84934611002605,-0.0484283367792765,0.0222403208414713,-0.0359092553456624,1.688686593775346e+18,64.84934611002605,-0.791027307510376,-9.209376335144045,3.3094731171925864,1.688686593775346e+18,64.84934611002605,-0.7484449942906698,-9.214111963907875,3.2826949755350747,1.6886865937710177e+18,64.84501741536458,-0.0312050326416889,-0.0545197239456076,0.0050905437237815,1.6886865937710177e+18,64.84501741536458,-0.0322231408208608,-0.0499891399328285,0.0073812881795067,,,,,,,,,,,,1.688686593778884e+18,64.85288413085938,20.86931953430176,37.92247924804688,-21.886799621582032,1.688686593778884e+18,64.85288413085938,-234.47667846679687,132.94827880859376,-154.610595703125,1.688686593775346e+18,64.84934611002605,-0.2514119148254394,0.0269153403739134,-0.7330914934476217,0.6313827633857727,-1.794965346654256,1.2204581499099731,2.197406768798828
4.9,1.6886865938272594e+18,64.90125935872396,0.1257226467132568,-0.0748535792032877,-0.1139310201009114,1.6886865938272594e+18,64.90125935872396,-0.6229315002759298,-9.301898638407389,3.242872873942057,1.6886865938272594e+18,64.90125935872396,-0.754500170548757,-9.209540367126465,3.294116497039795,1.6886865938229358e+18,64.8969356282552,-0.0230601628621418,-0.0157297793775796,-0.0046832998438427,1.6886865938229358e+18,64.8969356282552,-0.0241291768228013,-0.0111482905534406,-0.002341649805506,,,,,,,,,,,,1.688686593828889e+18,64.90288930664062,21.315839767456055,37.99323959350586,-21.77699966430664,1.688686593828889e+18,64.90288930664062,-234.0301544189453,133.01903686523437,-154.50079650878905,1.6886865938272594e+18,64.90125935872396,-0.2509951988855998,0.0256150215864181,-0.7333488265673319,0.6313040455182394,-1.7959623734156291,1.2191028197606404,2.1959362030029297
4.95,1.688686593879174e+18,64.95317358398438,0.0675257444381713,-0.0639626185099283,-0.1450904210408528,1.688686593879174e+18,64.95317358398438,-0.6849454840024313,-9.29053274790446,3.212165037790934,1.688686593879174e+18,64.95317358398438,-0.758317252000173,-9.209065437316896,3.2945680618286133,1.6886865938748465e+18,64.94884619140625,0.0051414491608738,0.020209458656609,-0.0147116712323622,1.6886865938748465e+18,64.94884619140625,0.0040724351226041,0.0247909482568502,-0.0124209261654565,,,,,,,,,,,,1.6886865938788836e+18,64.95288349609375,21.218239974975585,37.96639862060547,-21.928279876708984,1.6886865938788836e+18,64.95288349609375,-234.12775573730468,132.99219665527343,-154.6520782470703,1.688686593879174e+18,64.95317358398438,-0.2513502140839894,0.0260497288157541,-0.7334662874539694,0.631008505821228,-1.7970341841379802,1.218962033589681,2.1981705029805503
5.0,1.6886865939310804e+18,65.00508056640625,0.0266050895055135,0.0025037129720051,-0.0232139428456624,1.6886865939310804e+18,65.00508056640625,-0.7158527771631876,-9.227322260538736,3.3272198836008706,1.6886865939310804e+18,65.00508056640625,-0.7483038902282715,-9.212321281433104,3.2877464294433594,1.6886865939267594e+18,65.00075935872395,0.0175114702433346,0.022551108462115,0.023671028514703,1.6886865939267594e+18,65.00075935872395,0.0164424562826752,0.0270816919704277,0.0259617728491623,1.688686593926774e+18,65.00077392578125,0.0,0.4488812088966369,0.8961329460144043,12.501999855041504,0.0047792661935091,0.0,40.20000076293945,-122.7531532,49.1903749,1.6886865939288837e+18,65.00288369140625,21.545199584960937,38.012759399414065,-21.884359741210936,1.6886865939288837e+18,65.00288369140625,-233.8007995605469,133.03855895996094,-154.6081573486328,1.6886865939310804e+18,65.00508056640625,-0.2514517803986867,0.0265575932959714,-0.7331000169118246,0.6313722928365072,-1.7945925792058308,1.219926357269287,2.196587403615316
5.05,1.6886865939829965e+18,65.05699650065104,-0.0618977745374043,0.0435374577840169,0.0753692785898843,1.6886865939829965e+18,65.05699650065104,-0.7946165204048157,-9.189236323038736,3.4197423458099365,1.6886865939829965e+18,65.05699650065104,-0.7385647694269816,-9.215269088745115,3.2816856702168784,1.6886865939786678e+18,65.05266764322916,0.0115555344770351,0.0105374254441509,0.0038179080002009,1.6886865939786678e+18,65.05266764322916,0.0105374252113202,0.0150680098061759,0.0061086524898807,,,,,,,,,,,,1.6886865939788856e+18,65.05288569335937,21.237759399414063,38.056678771972656,-21.923399353027342,1.6886865939788856e+18,65.05288569335937,-234.10823669433591,133.0824768066406,-154.64719848632814,1.6886865939829965e+18,65.05699650065104,-0.2515932222207387,0.0270547146598497,-0.7327431241671244,0.6317091385523478,-1.7921700080235798,1.220801790555318,2.195069154103597
5.1,1.6886865940262538e+18,65.10025366210937,0.0049611926078796,0.0253043174743652,0.004637598991394,1.6886865940262538e+18,65.10025366210937,-0.7328019440174103,-9.207581520080566,3.347558856010437,1.6886865940262538e+18,65.10025366210937,-0.7436091601848602,-9.215381145477297,3.280233860015869,1.68868659403058e+18,65.1045801595052,0.0042760566963503,0.0032579479059979,-0.013998994603753,1.68868659403058e+18,65.1045801595052,0.0032579479739069,0.0077376263216136,-0.0116064393272001,,,,,,,,,,,,1.68868659402888e+18,65.10287998046874,21.598879623413087,37.946878814697264,-21.842879486083984,1.68868659402888e+18,65.10287998046874,-233.7471160888672,132.97267456054686,-154.56667785644532,1.6886865940262538e+18,65.10025366210937,-0.2515648901462554,0.0272147972136735,-0.7329126298427582,0.6315169334411621,-1.793727993965149,1.2208353281021118,2.1968190670013428
5.15,1.6886865940695137e+18,65.14351350911458,-0.0193999608357747,0.0231631596883137,0.0289324919382731,1.6886865940695137e+18,65.14351350911458,-0.760917584101359,-9.20997428894043,3.370290756225586,1.6886865940695137e+18,65.14351350911458,-0.7473636468251547,-9.215632756551107,3.278670867284139,1.6886865940824973e+18,65.15649739583334,-0.0036651915870606,-0.040062578395009,0.0049378274319072,1.6886865940824973e+18,65.15649739583334,-0.0047342056253303,-0.0355829015995064,0.0072794774702439,,,,,,,,,,,,1.6886865940788854e+18,65.15288559570313,20.9059196472168,37.976158905029294,-21.923399353027342,1.6886865940788854e+18,65.15288559570313,-234.44007873535156,133.00195922851563,-154.6471954345703,1.6886865940695137e+18,65.14351350911458,-0.2513674894968668,0.0271674934774636,-0.7330447236696879,0.6314441959063212,-1.794918139775594,1.2209103107452393,2.19764773050944
5.2,1.6886865941214298e+18,65.1954295247396,0.0680408676465352,0.0122782389322916,0.0068426132202148,1.6886865941214298e+18,65.1954295247396,-0.6749753952026367,-9.219545682271322,3.3515469233194985,1.6886865941214298e+18,65.1954295247396,-0.7488622864087423,-9.214319229125977,3.28201691309611,1.6886865941257562e+18,65.19975622558593,-0.0153479892760514,-0.0278707272373139,0.0188604639843105,1.6886865941257562e+18,65.19975622558593,-0.0164170032367109,-0.023289238102734,0.0211512083187698,,,,,,,,,,,,1.6886865941288822e+18,65.20288203125,20.85223960876465,38.08351974487304,-21.706239318847658,1.6886865941288822e+18,65.20288203125,-234.4937530517578,133.10931701660155,-154.43003540039064,1.6886865941214298e+18,65.1954295247396,-0.2507678568363189,0.0262280075500408,-0.7331309715906779,0.6316221157709757,-1.7951308488845823,1.2205195824305215,2.195618947347006
5.25,1.688686594173338e+18,65.24733797200521,-0.0208530624707539,-0.0255743662516275,-0.0808579126993814,1.688686594173338e+18,65.24733797200521,-0.755533754825592,-9.257232348124186,3.266202926635742,1.688686594173338e+18,65.24733797200521,-0.7405267159144083,-9.214153289794922,3.2843734423319497,1.688686594169016e+18,65.24301586914062,0.000712676187201,0.0073812883347272,0.014049900540461,1.688686594169016e+18,65.24301586914062,-0.0002545272194159,0.0119627776245275,0.0163406450301408,,,,,,,,,,,,1.688686594178888e+18,65.25288784179688,20.964479064941408,37.71751937866211,-21.835559463500974,1.688686594178888e+18,65.25288784179688,-234.3815155029297,132.74331665039062,-154.55935363769532,1.688686594173338e+18,65.24733797200521,-0.2508213321367899,0.0259754757086435,-0.7328503330548605,0.6319369872411092,-1.792562206586202,1.2204702695210774,2.192760388056437
5.3,1.6886865942252536e+18,65.29925382486978,-0.0322379867235819,0.0302158991495768,0.0371735890706379,1.6886865942252536e+18,65.29925382486978,-0.7657032211621603,-9.203593571980797,3.3784662087758384,1.6886865942252536e+18,65.29925382486978,-0.7393112579981486,-9.216304779052734,3.2786052227020264,1.688686594220927e+18,65.29492683919271,0.0156279690563678,0.0219402428095538,-0.0098247493927676,1.688686594220927e+18,65.29492683919271,0.0145589550957083,0.0264708269387483,-0.0074830994708463,,,,,,,,,,,,1.6886865942288812e+18,65.30288115234376,21.115759658813477,38.05179901123047,-21.898999404907222,1.6886865942288812e+18,65.30288115234376,-234.23023681640623,133.07759704589844,-154.62279663085937,1.6886865942252536e+18,65.29925382486978,-0.2508729199568429,0.0264754618207613,-0.7327900727589926,0.6319655577341715,-1.7925865650177002,1.2211098670959473,2.1935699780782065
5.35,1.688686594277156e+18,65.35115600585938,-0.0146556496620178,0.022505760192871,0.0139697392781575,1.688686594277156e+18,65.35115600585938,-0.7559325695037842,-9.211569468180338,3.35274330774943,1.688686594277156e+18,65.35115600585938,-0.7471229434013367,-9.216570536295572,3.276086171468099,1.688686594272838e+18,65.346837890625,0.0029525152688922,-0.0058032193531592,-0.0166460777012009,1.688686594272838e+18,65.346837890625,0.0018835011481617,-0.001272635689626,-0.0143044278180847,,,,,,,,,,,,1.6886865942788854e+18,65.35288540039062,21.335359573364254,37.976158905029294,-21.63303985595703,1.6886865942788854e+18,65.35288540039062,-234.01063842773436,133.00195922851563,-154.3568359375,1.688686594277156e+18,65.35115600585938,-0.2509320676326751,0.0268639766921599,-0.7330477039019266,0.6316269040107727,-1.795020262400309,1.2211892207463582,2.1966567834218345
5.4,1.688686594329073e+18,65.40307291666666,0.0509338378906249,0.0225547154744465,0.0032292207082112,1.688686594329073e+18,65.40307291666666,-0.6923233469327291,-9.211370468139648,3.341975688934326,1.688686594329073e+18,65.40307291666666,-0.7491032083829244,-9.21642049153646,3.276059071222941,1.6886865943247547e+18,65.39875472005208,-0.0026470826705917,-0.0094684113282709,0.0048869218444451,1.6886865943247547e+18,65.39875472005208,-0.0037160969368414,-0.0048869218444451,0.0072285718439767,,,,,,,,,,,,1.6886865943288827e+18,65.40288261718749,21.09135971069336,37.94687957763672,-21.90632019042969,1.6886865943288827e+18,65.40288261718749,-234.2546356201172,132.9726776123047,-154.63011779785157,1.688686594329073e+18,65.40307291666666,-0.2507111430168152,0.0266399923712014,-0.7331245541572571,0.6316349506378174,-1.7955952882766724,1.2211446364720662,2.1965814431508384
5.45,1.6886865943809884e+18,65.4549883626302,0.0130096475283304,-0.0262076059977213,-0.0635066827138264,1.6886865943809884e+18,65.4549883626302,-0.7234300573666891,-9.260423024495443,3.275973637898763,1.6886865943809884e+18,65.4549883626302,-0.7422857284545898,-9.216710726420084,3.2767929236094155,1.6886865943766633e+18,65.45066333007811,0.0001018108644833,-0.0039706241805105,0.0167987939591208,1.6886865943766633e+18,65.45066333007811,-0.00091629785796,0.0005599597498076,0.0190895389144618,,,,,,,,,,,,1.688686594378884e+18,65.45288408203126,21.298759841918944,38.217718505859374,-21.723319625854497,1.688686594378884e+18,65.45288408203126,-234.04723510742187,133.24351806640624,-154.44711608886718,1.6886865943809884e+18,65.4549883626302,-0.250692347685496,0.0264556072652339,-0.7328941623369852,0.6319174567858378,-1.7935678958892822,1.2212309837341309,2.194253206253052
5.5,1.688686594432899e+18,65.50689916992188,0.0354728301366169,0.0038299560546874,0.0231000582377115,1.688686594432899e+18,65.50689916992188,-0.6985048055648804,-9.232307434082031,3.3577284018198648,1.688686594432899e+18,65.50689916992188,-0.7398236592610677,-9.218632698059084,3.2719409465789795,1.688686594428579e+18,65.50257893880207,0.0124209265535075,0.0131336030705521,-0.0024434609804302,1.688686594428579e+18,65.50257893880207,0.0114028180638948,0.0177150928260137,-0.0001018108450807,,,,,,,,,,,,1.6886865944288865e+18,65.50288623046875,21.196279525756836,38.176239013671875,-21.80871925354004,1.6886865944288865e+18,65.50288623046875,-234.14971618652345,133.20203857421876,-154.5325134277344,1.688686594432899e+18,65.50689916992188,-0.2505803902943929,0.0266741725305715,-0.7328007022539774,0.6320610245068868,-1.7931726376215618,1.2218035856882732,2.19399364789327
5.55,1.688686594476163e+18,65.55016320800782,-0.0253811478614807,0.0177812576293945,-0.0045949220657348,1.688686594476163e+18,65.55016320800782,-0.7567301690578461,-9.21924638748169,3.328117251396179,1.688686594476163e+18,65.55016320800782,-0.7371950447559357,-9.219522953033447,3.27002477645874,1.6886865944804913e+18,65.5544912109375,0.0035124751545177,0.0264199223990241,0.0021380283530258,1.6886865944804913e+18,65.5544912109375,0.0024434608931187,0.03089960043629,0.004479678425317,,,,,,,,,,,,1.6886865944788844e+18,65.55288447265625,21.206039428710938,37.917599487304685,-21.845319747924805,1.6886865944788844e+18,65.55288447265625,-234.13995666503905,132.94339599609376,-154.5691162109375,1.688686594476163e+18,65.55016320800782,-0.2509684562683105,0.027236078865826,-0.7326886355876923,0.6320130228996277,-1.7925339341163635,1.222068965435028,2.1947375535964966
5.6,1.6886865945194245e+18,65.59342423502603,-0.0568515261014302,0.016888936360677,-0.0131216049194335,1.6886865945194245e+18,65.59342423502603,-0.7830512126286825,-9.220742225646974,3.319044431050618,1.6886865945194245e+18,65.59342423502603,-0.7320457100868225,-9.220126469930014,3.2694786389668784,1.6886865945323963e+18,65.60639632161458,0.0026470827676044,-0.0106901417796809,0.0123191159994651,1.6886865945323963e+18,65.60639632161458,0.0016798794482989,-0.0061595578833172,0.0146607661930222,,,,,,,,,,,,1.688686594528884e+18,65.60288383789063,20.869319915771484,38.02983856201172,-21.835559463500974,1.688686594528884e+18,65.60288383789063,-234.4766815185547,133.05563354492188,-154.55935668945312,1.6886865945194245e+18,65.59342423502603,-0.2510226567586263,0.0272632086028655,-0.7325084209442139,0.6321991682052612,-1.791069706281026,1.2222489913304646,2.1933861573537192
5.65,1.6886865945713329e+18,65.6453330078125,-0.0083184639612833,0.0519959131876627,0.0491371154785155,1.6886865945713329e+18,65.6453330078125,-0.7339983383814493,-9.186046282450356,3.380260785420736,1.6886865945713329e+18,65.6453330078125,-0.7315258979797363,-9.220537503560385,3.2684362729390464,1.6886865945756657e+18,65.64966552734376,0.0031306843739002,0.0300087556242941,-0.0155007052235304,1.6886865945756657e+18,65.64966552734376,0.00206167018041,0.0345138851553201,-0.013133602682501,,,,,,,,,,,,1.6886865945788846e+18,65.65288452148437,20.903479385375977,37.97615966796875,-21.842879486083984,1.6886865945788846e+18,65.65288452148437,-234.44251098632813,133.001953125,-154.5666748046875,1.6886865945713329e+18,65.6453330078125,-0.2510205606619516,0.0273356040318806,-0.7324875593185425,0.632221003373464,-1.790985743204753,1.2223715782165527,2.1934007008870444
5.7,1.6886865946232474e+18,65.69724739583334,-0.0468352635701497,-0.0028495788574218,-0.0197381178538004,1.6886865946232474e+18,65.69724739583334,-0.7794619997342428,-9.239884694417318,3.3126635551452637,1.6886865946232474e+18,65.69724739583334,-0.7384727597236633,-9.21953042348226,3.26971427599589,1.6886865946189243e+18,65.69292447916666,-0.0034106642124242,0.0008144874397354,-0.0194458772117892,1.6886865946189243e+18,65.69292447916666,-0.0044796784253169,0.0053959763608872,-0.0171042267854014,,,,,,,,,,,,1.6886865946288827e+18,65.70288256835939,20.949839782714843,37.981039428710936,-21.73795928955078,1.6886865946288827e+18,65.70288256835939,-234.39615173339843,133.0068389892578,-154.46175842285157,1.6886865946232474e+18,65.69724739583334,-0.2513591845830281,0.0277331452816724,-0.7327142159144083,0.631806472937266,-1.7929240862528484,1.2220712900161743,2.1964287757873535
5.75,1.68868659467516e+18,65.74915999348958,0.123317003250122,-0.0350042978922525,-0.0596825281778971,1.68868659467516e+18,65.74915999348958,-0.6149554252624512,-9.271988232930502,3.271586815516154,1.68868659467516e+18,65.74915999348958,-0.7441184520721436,-9.219479242960611,3.2685819466908774,1.6886865946708293e+18,65.74482918294271,0.0009672033290068,-0.0376700237393379,0.0079412481669956,1.6886865946708293e+18,65.74482918294271,-0.0001018108644832,-0.0330885344495375,0.0102319929283111,,,,,,,,,,,,1.6886865946788836e+18,65.75288364257813,21.38415985107422,37.95663909912109,-21.801399612426756,1.6886865946788836e+18,65.75288364257813,-233.9618377685547,132.98243713378906,-154.5251953125,1.68868659467516e+18,65.74915999348958,-0.2507153451442718,0.0271630448599656,-0.7329319914182028,0.6318343679110209,-1.7946422497431438,1.2220553557078044,2.196368455886841
5.8,1.6886865947270746e+18,65.80107462565104,0.0727565685907999,-0.002516746520996,-0.0004496574401855,1.6886865947270746e+18,65.80107462565104,-0.6570292115211487,-9.241878827412924,3.3260234196980796,1.6886865947270746e+18,65.80107462565104,-0.7356318036715189,-9.221857388814293,3.2637856801350913,1.6886865947227492e+18,65.7967490234375,0.0129808864245811,0.0232128792752821,0.0164424562826752,1.6886865947227492e+18,65.7967490234375,0.0119118724639216,0.0277943682546416,0.0187332006171344,,,,,,,,,,,,1.6886865947288837e+18,65.8028833984375,21.176759719848633,38.21527862548828,-21.850199508666993,1.6886865947288837e+18,65.8028833984375,-234.16923828125,133.24107971191407,-154.5739990234375,1.6886865947270746e+18,65.80107462565104,-0.2506266037623087,0.0273112443586189,-0.7326314051946005,0.6322116653124491,-1.792487104733785,1.2227654854456584,2.19427490234375
5.85,1.6886865947789862e+18,65.85298608398438,-0.1343904534975687,0.073499043782552,0.0257393519083658,1.6886865947789862e+18,65.85298608398438,-0.8486544291178385,-9.168100039164225,3.349353472391764,1.6886865947789862e+18,65.85298608398438,-0.7201099991798401,-9.224094390869142,3.2609267234802246,1.6886865947746614e+18,65.84866145833332,0.0046833003871142,0.0180714308905105,0.0265726385017235,1.6886865947746614e+18,65.84866145833332,0.0036651912766198,0.0226529197825584,0.0288633828361828,,,,,,,,,,,,1.688686594778886e+18,65.85288623046874,21.46711959838867,38.20307998657226,-21.872159957885746,1.688686594778886e+18,65.85288623046874,-233.87887573242188,133.22887573242187,-154.59595642089843,1.6886865947789862e+18,65.85298608398438,-0.2510250310103099,0.0277619045227765,-0.7320743600527445,0.6326791445414225,-1.7881415287653606,1.2234348853429158,2.191149632136027
5.9,1.6886865948308902e+18,65.90489013671875,-0.0736806392669677,-0.0132115681966146,-0.0124054749806721,1.6886865948308902e+18,65.90489013671875,-0.7904290755589803,-9.254241625467936,3.3122647603352866,1.6886865948308902e+18,65.90489013671875,-0.7225944598515829,-9.223525365193684,3.2619828383127847,1.6886865948265738e+18,65.90057381184896,-0.0079921536768475,-0.0755945742130279,0.0036651918198913,1.6886865948265738e+18,65.90057381184896,-0.0090611679479479,-0.0710130830605824,0.0059559362319608,,,,,,,,,,,,1.6886865948288837e+18,65.90288354492188,20.988879776000974,38.05179901123047,-21.752599716186523,1.6886865948288837e+18,65.90288354492188,-234.35711669921875,133.07759704589844,-154.47640075683594,1.6886865948308902e+18,65.90489013671875,-0.2502510547637939,0.026820429911216,-0.7321957349777222,0.6328855951627096,-1.7887988487879436,1.2232648928960164,2.1892995039621987
5.95,1.688686594882811e+18,65.95681095377604,0.1243860125541686,0.0054750442504883,0.036992073059082,1.688686594882811e+18,65.95681095377604,-0.6029913028081259,-9.235896428426107,3.3583265940348306,1.688686594882811e+18,65.95681095377604,-0.7332233389218649,-9.22386678059896,3.2586471239725747,1.6886865948784858e+18,65.95248575846354,0.0105374255993713,-0.0162897398695349,-0.0034106642318268,1.6886865948784858e+18,65.95248575846354,0.0095193167023049,-0.0117082512006163,-0.0010690141934901,,,,,,,,,,,,1.688686594878888e+18,65.95288779296875,21.19384002685547,38.09571990966797,-21.708679580688475,1.688686594878888e+18,65.95288779296875,-234.1521545410156,133.12151489257812,-154.43247985839844,1.688686594882811e+18,65.95681095377604,-0.2492610315481821,0.0261013464381296,-0.7325917482376099,0.6328483621279398,-1.7921225627263386,1.2233670552571614,2.1901158491770425
6.0,1.6886865949260713e+18,66.0000711669922,-0.0061990022659301,0.0871520042419433,0.1291720867156982,1.6886865949260713e+18,66.0000711669922,-0.7265207767486572,-9.155537605285645,3.448356509208679,1.6886865949260713e+18,66.0000711669922,-0.7261677980422974,-9.225184917449951,3.256497025489807,1.6886865949303923e+18,66.00439241536458,-0.0004581488901748,0.0259617731596032,0.0085521133927006,1.6886865949303923e+18,66.00439241536458,-0.0015271629672497,0.0305432627598444,0.0108937633534271,,,,,,,,,,,,1.6886865949288822e+18,66.00288208007812,21.35487937927246,38.15183868408203,-21.686719512939455,1.6886865949288822e+18,66.00288208007812,-233.99111633300785,133.17763977050782,-154.41051635742187,1.6886865949260713e+18,66.0000711669922,-0.2496171742677688,0.0265772501006722,-0.7323291301727295,0.6329920887947083,-1.79020094871521,1.22376149892807,2.189399003982544
6.05,1.6886865949693317e+18,66.04333154296874,-0.041965623696645,-0.0068842569986978,0.0601822535196939,1.6886865949693317e+18,66.04333154296874,-0.7561319470405579,-9.24825954437256,3.384448210398356,1.6886865949693317e+18,66.04333154296874,-0.720012346903483,-9.223870595296225,3.2615785598754883,1.688686594982311e+18,66.05631087239584,-0.0097738439993311,0.0038688132481183,0.0184277681012947,1.688686594982311e+18,66.05631087239584,-0.010791952566554,0.0083484915085136,0.0208203233778476,1.688686594976e+18,66.05,0.0,0.4488812088966369,0.8509153127670288,15.571000099182127,0.0047080386430025,0.0,40.30000305175781,-122.7531532,49.1903749,1.688686594978886e+18,66.05288583984375,21.145039367675786,37.98835906982422,-21.718439483642577,1.688686594978886e+18,66.05288583984375,-234.20095520019532,133.0141571044922,-154.442236328125,1.6886865949693317e+18,66.04333154296874,-0.2499189774195353,0.0264294371008872,-0.7321200966835022,0.6331209937731425,-1.7880702018737793,1.2233685652414956,2.1875078678131104
6.1,1.6886865950212442e+18,66.09524405924479,0.0249180992444356,0.0512825647989908,0.0351872444152831,1.6886865950212442e+18,66.09524405924479,-0.6845466693242391,-9.189236323038736,3.362912813822428,1.6886865950212442e+18,66.09524405924479,-0.715310792128245,-9.223014195760092,3.265038172403971,1.6886865950255708e+18,66.09957092285157,-0.0029016099870204,0.0154243474826216,-0.0140499009285121,1.6886865950255708e+18,66.09957092285157,-0.0039706240640952,0.0199294788762926,-0.011682798154652,,,,,,,,,,,,1.6886865950288814e+18,66.10288125,21.001079559326172,37.97859954833984,-21.776999282836915,1.6886865950288814e+18,66.10288125,-234.3449157714844,133.0043975830078,-154.50079345703125,1.6886865950212442e+18,66.09524405924479,-0.2501719594001769,0.0263757314532994,-0.731958250204722,0.6332104404767355,-1.786472201347351,1.2231117884318037,2.186210791269938
6.15,1.688686595073158e+18,66.14715779622396,0.0493718783060709,0.0056508382161458,-0.0213072299957275,1.688686595073158e+18,66.14715779622396,-0.6618148684501648,-9.232307434082031,3.3132617473602295,1.688686595073158e+18,66.14715779622396,-0.717032770315806,-9.22045358022054,3.271881580352783,1.6886865950688284e+18,66.1428282063802,-0.0156279693668086,0.0419460795819759,-0.0137953734180579,1.6886865950688284e+18,66.1428282063802,-0.0166460778564214,0.0465275682508945,-0.0114028179959859,,,,,,,,,,,,1.6886865950788836e+18,66.15288349609375,21.291439819335935,38.18111953735352,-21.850199127197264,1.6886865950788836e+18,66.15288349609375,-234.05455322265624,133.20691528320313,-154.5739990234375,1.688686595073158e+18,66.14715779622396,-0.2509868244330088,0.0268010267366965,-0.7320027947425842,0.6328184207280477,-1.7865378856658936,1.222346822420756,2.1881210009256997
6.2,1.6886865951250683e+18,66.1990684407552,-0.022156556447347,-0.0532312393188476,-0.120190143585205,1.6886865951250683e+18,66.1990684407552,-0.7248258789380392,-9.288738250732422,3.2231321334838867,1.6886865951250683e+18,66.1990684407552,-0.7085153460502625,-9.218002319335938,3.280634880065918,1.6886865951207437e+18,66.19474365234375,-0.0187332003066936,0.0055486930844684,0.0192422550171613,1.6886865951207437e+18,66.19474365234375,-0.0197513097276289,0.0100283709665139,0.0215329999725023,,,,,,,,,,,,1.688686595128882e+18,66.20288193359374,20.81563949584961,38.23967819213867,-21.5939998626709,1.688686595128882e+18,66.20288193359374,-234.5303527832031,133.2654815673828,-154.3177978515625,1.6886865951250683e+18,66.1990684407552,-0.2517222464084625,0.0268261202921469,-0.7317051688830057,0.63286954164505,-1.7834999163945515,1.221615433692932,2.1862236658732095
6.25,1.6886865951769812e+18,66.25098120117188,0.0261257688204446,-0.0350545247395832,-0.1730343500773111,1.6886865951769812e+18,66.25098120117188,-0.6675975124041239,-9.26939614613851,3.1754750410715737,1.6886865951769812e+18,66.25098120117188,-0.699569304784139,-9.216836929321287,3.2858219941457114,1.6886865951726592e+18,66.24665901692708,-0.0135408459852138,-0.0265726375704009,0.0304923560470341,1.6886865951726592e+18,66.24665901692708,-0.0146098602563142,-0.0220420542173087,0.0327831010023752,,,,,,,,,,,,1.688686595178885e+18,66.25288505859376,21.2328800201416,38.10303955078125,-22.10395965576172,1.688686595178885e+18,66.25288505859376,-234.1131164550781,133.12883605957032,-154.8277557373047,1.6886865951769812e+18,66.25098120117188,-0.2514759699503581,0.0259929293145735,-0.7314236362775167,0.6333274046579996,-1.78057066599528,1.2212683359781902,2.181725025177002
6.3,1.6886865952288883e+18,66.30288818359375,0.0133302807807922,-0.0132741928100585,-0.0865126450856526,1.6886865952288883e+18,66.30288818359375,-0.6709873477617899,-9.249456087748207,3.2588250637054443,1.6886865952288883e+18,66.30288818359375,-0.6901636521021525,-9.218677202860514,3.2826503117879233,1.688686595224565e+18,66.29856486002605,0.0127263593797881,0.0026470827676044,0.0088066405927141,1.688686595224565e+18,66.29856486002605,0.0116573450310776,0.007177666760981,0.0111991961797078,,,,,,,,,,,,1.6886865952288878e+18,66.30288774414062,20.99131965637207,38.03227920532227,-21.857519149780273,1.6886865952288878e+18,66.30288774414062,-234.35467529296875,133.05807800292968,-154.5813201904297,1.6886865952288883e+18,66.30288818359375,-0.2513005932172139,0.0258984671284755,-0.7310992280642191,0.6337754130363464,-1.7780252695083618,1.221816460291545,2.1787644227345786
6.35,1.688686595280806e+18,66.35480623372395,0.0410788257916768,0.0254144668579101,0.0655744870503743,1.688686595280806e+18,66.35480623372395,-0.6448657115300497,-9.215158780415852,3.398206949234009,1.688686595280806e+18,66.35480623372395,-0.6917905608812968,-9.223068555196129,3.2699450651804605,1.6886865952764813e+18,66.35048111979167,0.0364991979052622,0.064293565849463,-0.0224492978304624,1.6886865952764813e+18,66.35048111979167,0.0354810903469721,0.0688241496682166,-0.0201585534960031,,,,,,,,,,,,1.6886865952788836e+18,66.35288359375,20.759519577026367,38.16403884887696,-21.935599517822265,1.6886865952788836e+18,66.35288359375,-234.5864776611328,133.18983764648436,-154.6593994140625,1.688686595280806e+18,66.35480623372395,-0.2515234351158142,0.0271876013527312,-0.7311088641484579,0.6336215337117513,-1.7792831261952715,1.223128040631612,2.182191133499146
6.4,1.6886865953327145e+18,66.40671459960937,-0.1295671264330545,0.0617313385009765,0.1890664895375569,1.6886865953327145e+18,66.40671459960937,-0.8059824307759603,-9.183453877766928,3.5106696287790933,1.6886865953327145e+18,66.40671459960937,-0.682261327902476,-9.227680524190268,3.258915742238363,1.688686595328389e+18,66.40238916015625,0.025758151585857,0.0887790819009144,-0.0074830991216003,1.688686595328389e+18,66.40238916015625,0.0246891373147566,0.093309665719668,-0.0051923546319205,,,,,,,,,,,,1.6886865953288858e+18,66.40288569335937,20.805879974365233,38.056678771972656,-22.042959213256836,1.6886865953288858e+18,66.40288569335937,-234.5401153564453,133.08248291015624,-154.76676025390626,1.6886865953327145e+18,66.40671459960937,-0.2527906397978465,0.0293762466559807,-0.7306919892628988,0.6335004766782125,-1.777168234189351,1.2245105902353923,2.1850918928782144
6.45,1.6886865953759734e+18,66.44997338867188,-0.1426840722560882,0.0558204650878906,0.0754071474075317,1.6886865953759734e+18,66.44997338867188,-0.8192426562309265,-9.188438892364502,3.399602770805359,1.6886865953759734e+18,66.44997338867188,-0.6824046075344086,-9.226754665374756,3.2615082263946533,1.6886865953803067e+18,66.454306640625,-0.0217875270172953,-0.0475965836085379,0.0083484917413443,1.6886865953803067e+18,66.454306640625,-0.0228565409779548,-0.0430659996345639,0.010690141779681,,,,,,,,,,,,1.688686595378884e+18,66.45288427734374,20.805879592895508,38.16403884887696,-21.889239501953124,1.688686595378884e+18,66.45288427734374,-234.5401153564453,133.18983764648436,-154.613037109375,1.6886865953759734e+18,66.44997338867188,-0.2531361430883407,0.0295718209818005,-0.7306890487670898,0.6333570182323456,-1.7770498394966123,1.224232852458954,2.185776948928833
6.5,1.6886865954192392e+18,66.49323901367187,0.0395925641059875,0.0054814020792643,-0.0575261116027831,1.6886865954192392e+18,66.49323901367187,-0.6392824649810791,-9.235098838806152,3.276571830113729,1.6886865954192392e+18,66.49323901367187,-0.684721052646637,-9.22307554880778,3.2714105447133384,1.6886865954322145e+18,66.50621427408855,-0.0274889363596836,-0.0757472912470499,0.0284561396886904,1.6886865954322145e+18,66.50621427408855,-0.0285579500099022,-0.0712167049447694,0.0307468840231497,,,,,,,,,,,,1.688686595428886e+18,66.50288583984374,20.783919906616212,38.28603897094727,-21.92583923339844,1.688686595428886e+18,66.50288583984374,-234.56207580566405,133.31183776855468,-154.64963989257814,1.6886865954192392e+18,66.49323901367187,-0.2522567609945933,0.0278090474506218,-0.730838934580485,0.6336144407590231,-1.7771228949228923,1.2231308619181316,2.182016293207804
6.55,1.688686595471151e+18,66.54515096028645,0.163335621356964,-0.0196135838826496,-0.0443469683329263,1.688686595471151e+18,66.54515096028645,-0.5150550802548727,-9.257830937703451,3.2965118885040283,1.688686595471151e+18,66.54515096028645,-0.6842367251714071,-9.220712661743164,3.2781714598337808,1.6886865954754734e+18,66.54947338867188,-0.0058795781224034,-0.0012217303737998,-0.0038179078255779,1.6886865954754734e+18,66.54947338867188,-0.0069485922576859,0.0032834000885486,-0.0014508048770949,,,,,,,,,,,,1.6886865954788836e+18,66.55288349609376,20.820519638061523,38.32019882202148,-22.089319229125977,1.6886865954788836e+18,66.55288349609376,-234.52547607421872,133.34599914550782,-154.8131134033203,1.688686595471151e+18,66.54515096028645,-0.2516552805900574,0.0265721641480922,-0.730868379275004,0.6338729858398438,-1.776568055152893,1.222423791885376,2.1787925561269126
6.6,1.6886865955230648e+18,66.59706494140624,-0.0495189627011616,-0.013927141825358,-0.0106398264567057,1.6886865955230648e+18,66.59706494140624,-0.7174479961395264,-9.252845764160156,3.3304103215535483,1.6886865955230648e+18,66.59706494140624,-0.6737750569979349,-9.221413930257162,3.27836275100708,1.6886865955187392e+18,66.59273885091146,0.0077885317926604,0.080074251939853,0.0027488935738801,1.6886865955187392e+18,66.59273885091146,0.0067704231478273,0.084655741850535,0.0050905436219181,,,,,,,,,,,,1.688686595528888e+18,66.60288813476562,20.474040222167968,38.146958923339845,-22.289399719238283,1.688686595528888e+18,66.60288813476562,-234.87195434570313,133.17275695800782,-155.01319580078126,1.6886865955230648e+18,66.59706494140624,-0.2527110576629638,0.0276129848013321,-0.7304648160934448,0.633873462677002,-1.7734962304433186,1.2226334015528362,2.178786198298136
6.65,1.6886865955749755e+18,66.64897599283854,-0.0560638507207234,0.0332040786743164,-0.0003898938496908,1.6886865955749755e+18,66.64897599283854,-0.7194420099258423,-9.206783930460611,3.3385857741038003,1.6886865955749755e+18,66.64897599283854,-0.6692241827646891,-9.222483317057293,3.2762882709503174,1.688686595570651e+18,66.64465087890625,0.0022398391738533,-0.033597587821229,0.0101810873796541,1.688686595570651e+18,66.64465087890625,0.0012217304611112,-0.0290670050308108,0.0124718320245543,,,,,,,,,,,,1.6886865955788815e+18,66.6528814453125,20.77171936035156,38.31775970458985,-21.945359802246095,1.6886865955788815e+18,66.6528814453125,-234.57427368164065,133.34355773925782,-154.66915893554688,1.6886865955749755e+18,66.64897599283854,-0.2527644336223602,0.0277688552935917,-0.7303001880645752,0.6340351502100626,-1.7722886006037395,1.2229530811309814,2.177873690923055
