seconds_elapsed_rounded,accelerometer_time,accelerometer_seconds_elapsed,accelerometer_z,accelerometer_y,accelerometer_x,accelerometeruncalibrated_time,accelerometeruncalibrated_seconds_elapsed,accelerometeruncalibrated_z,accelerometeruncalibrated_y,accelerometeruncalibrated_x,gravity_time,gravity_seconds_elapsed,gravity_z,gravity_y,gravity_x,gyroscope_time,gyroscope_seconds_elapsed,gyroscope_z,gyroscope_y,gyroscope_x,gyroscopeuncalibrated_time,gyroscopeuncalibrated_seconds_elapsed,gyroscopeuncalibrated_z,gyroscopeuncalibrated_y,gyroscopeuncalibrated_x,location_time,location_seconds_elapsed,location_bearingAccuracy,location_speedAccuracy,location_verticalAccuracy,location_horizontalAccuracy,location_speed,location_bearing,location_altitude,location_longitude,location_latitude,magnetometer_time,magnetometer_seconds_elapsed,magnetometer_z,magnetometer_y,magnetometer_x,magnetometeruncalibrated_time,magnetometeruncalibrated_seconds_elapsed,magnetometeruncalibrated_z,magnetometeruncalibrated_y,magnetometeruncalibrated_x,orientation_time,orientation_seconds_elapsed,orientation_qz,orientation_qy,orientation_qx,orientation_qw,orientation_roll,orientation_pitch,orientation_yaw
0.0,1.6886862925166144e+18,89.99261450195313,-0.4959771037101745,0.111276626586914,-0.1233378251393635,1.688686292525268e+18,90.00126798502605,-1.3846466938654582,-9.623334566752115,-0.6885347366333008,1.6886862925166144e+18,89.99261450195313,-0.8592214783032736,-9.752400716145834,-0.6232980291048685,1.6886862925295951e+18,90.00559521484375,0.1595376382271448,1.5150985320409138,0.0826704303423563,1.6886862925295951e+18,90.00559521484375,0.1585195312897364,1.5196799834569297,0.0851647953192392,,,,,,,,,,,,1.6886862925238477e+18,89.99984765625,-12.785599708557127,41.28235931396485,7.40295991897583,1.6886862925238477e+18,89.99984765625,-268.131591796875,136.30815734863282,-125.32083892822266,1.6886862925166144e+18,89.99261450195313,0.6736840804417928,-0.7306718826293945,-0.0992159495751062,0.048005645473798,2.5140610535939536,1.4623831113179524,0.8364336689313253
0.05,1.6886862925685258e+18,90.04452587890626,-0.4008677204449971,0.1948582331339518,-0.291047712167104,1.68868629257718e+18,90.05318001302084,-1.2662019729614258,-9.611170768737791,-0.9050851662953696,1.6886862925685258e+18,90.04452587890626,-0.8763647278149923,-9.750439008076986,-0.630064845085144,1.6886862925815094e+18,90.05750952148436,0.0932078560193379,1.321250597635905,0.02448551558579,1.6886862925815094e+18,90.05750952148436,0.0922406514485676,1.3258321285247805,0.0269798818044363,,,,,,,,,,,,1.688686292573849e+18,90.0498490234375,-12.583079719543456,40.948079681396486,8.654679870605468,1.688686292573849e+18,90.0498490234375,-267.92906494140624,135.973876953125,-124.0691177368164,1.6886862925685258e+18,90.04452587890626,0.6707738041877747,-0.7269371946652731,-0.1271882429718971,0.0731865788499514,2.5182205041249595,1.4605544805526731,0.9081518650054932
0.1,1.6886862926204403e+18,90.09644010416666,-0.2613386511802673,0.0491034189860025,-0.4656985799471537,1.6886862926290957e+18,90.10509594726562,-1.2095718383789062,-9.696514765421549,-1.0376874208450315,1.6886862926204403e+18,90.09644010416666,-0.912404239177704,-9.747654914855955,-0.6219145258267721,1.6886862926247698e+18,90.10076977539065,0.0975857228040694,1.2421944737434387,0.0219911490567028,1.6886862926247698e+18,90.10076977539065,0.0965167097747325,1.2467759251594543,0.0244346107356249,,,,,,,,,,,,1.688686292623843e+18,90.09984311523438,-11.838879776000976,40.92123947143555,9.718519973754884,1.688686292623843e+18,90.09984311523438,-267.18488159179685,135.94703979492186,-123.00527801513672,1.6886862926204403e+18,90.09644010416666,0.6665854652722677,-0.7235851685206095,-0.1512676974137623,0.0955451478560765,2.543256600697835,1.4580073356628418,0.9497591455777488
0.15,1.6886862926723543e+18,90.14835408528648,-0.3459249933560689,0.1462876001993814,-0.5562696059544882,1.688686292681004e+18,90.15700398763022,-1.2171490987141926,-9.652846336364746,-1.133400321006775,1.6886862926723543e+18,90.14835408528648,-0.9396823048591614,-9.744938850402832,-0.6238660017649332,1.688686292668033e+18,90.14403312174478,0.1040507132808367,1.094314177831014,0.0228056358949591,1.688686292668033e+18,90.14403312174478,0.1029816965262094,1.0988956689834597,0.0253000015509314,,,,,,,,,,,,1.688686292673851e+18,90.14985078125,-11.409439659118652,40.81631927490234,10.818959808349607,1.688686292673851e+18,90.14985078125,-266.75543212890625,135.8421173095703,-121.90483703613282,1.6886862926723543e+18,90.14835408528648,0.6623977025349935,-0.7195849617322286,-0.1733630001544952,0.1153959458072979,2.555441697438558,1.4555753469467163,0.9981165130933126
0.2,1.688686292724272e+18,90.20027189127605,-0.1055128971735635,-0.0867487589518229,-0.4113139708836873,1.688686292724272e+18,90.20027185058592,-1.0546365976333618,-9.856934070587158,-1.009771168231964,1.688686292724272e+18,90.20027189127605,-0.9798949559529624,-9.739619572957356,-0.6445942521095276,1.688686292719948e+18,90.19594799804686,0.1579086656371751,1.0640254418055215,-0.0115046290059884,1.688686292719948e+18,90.19594799804686,0.1568905611832936,1.068606932957967,-0.0090102626321216,,,,,,,,,,,,1.6886862927238446e+18,90.19984477539064,-10.740879821777344,40.3478385925293,11.70955982208252,1.6886862927238446e+18,90.19984477539064,-266.0868713378906,135.3736358642578,-121.0142379760742,1.688686292724272e+18,90.20027189127605,0.6576556166013082,-0.7157172362009684,-0.1940363148848215,0.1323898434638976,2.559739430745443,1.4509567022323608,1.048558473587036
0.25,1.688686292776186e+18,90.25218627929688,-0.0310554107030232,-0.027231216430664,-0.1073876420656839,1.688686292767527e+18,90.24352701822916,-1.0554341872533162,-9.76411215464274,-0.7736793160438538,1.688686292776186e+18,90.25218627929688,-1.017662525177002,-9.73233731587728,-0.6940837502479553,1.6886862927718618e+18,90.24786189778644,0.2238821138938267,1.1651236613591511,0.0067195178320009,1.6886862927718618e+18,90.24786189778644,0.2229149093230565,1.1697051127751668,0.0091629785796005,,,,,,,,,,,,1.6886862927738496e+18,90.249849609375,-9.977159690856933,40.13311920166016,12.761199760437012,1.6886862927738496e+18,90.249849609375,-265.3231567382812,135.15891723632814,-119.9625961303711,1.688686292776186e+18,90.25218627929688,0.6524105469385783,-0.7103111743927002,-0.2174316694339116,0.1499018271764119,2.543061097462972,1.4449033339818318,1.125133991241455
0.3,1.6886862928281006e+18,90.30410083007814,-0.0770845413208008,0.0449161529541015,0.110866367816925,1.688686292819448e+18,90.2954482421875,-1.070189913113912,-9.778070449829102,-0.5790630678335825,1.6886862928281006e+18,90.30410083007814,-1.0424209833145142,-9.72552172342936,-0.750622828801473,1.688686292823776e+18,90.29977579752604,0.2486221442619959,1.2051353057225545,0.0704531259834765,1.688686292823776e+18,90.29977579752604,0.2476040472586949,1.2096658945083618,0.0729983982940514,,,,,,,,,,,,1.6886862928238523e+18,90.29985239257812,-9.25979995727539,40.00379867553711,14.000719833374024,1.6886862928238523e+18,90.29985239257812,-264.6057922363281,135.02959899902345,-118.72307739257812,1.6886862928281006e+18,90.30410083007814,0.6470011671384176,-0.7032897075017294,-0.241782675186793,0.1680370271205902,2.5175580978393555,1.4394782384236653,1.2133743365605671
0.35,1.68868629288001e+18,90.356009765625,-0.2852634986241658,0.2969894409179687,0.1029688914616902,1.6886862928713592e+18,90.347359375,-1.3260225852330525,-9.408977190653482,-0.5784648855527242,1.68868629288001e+18,90.356009765625,-1.0400247971216838,-9.723158200581867,-0.7840015292167664,1.68868629287569e+18,90.35168986002604,0.143400619427363,1.100575566291809,0.0937678130964437,1.68868629287569e+18,90.35168986002604,0.1424334123730659,1.1051570177078247,0.0962112757066885,,,,,,,,,,,,1.688686292873847e+18,90.34984697265624,-8.65955982208252,39.418199920654295,15.325639724731444,1.688686292873847e+18,90.34984697265624,-264.00556030273435,134.44399719238282,-117.39815673828124,1.68868629288001e+18,90.356009765625,0.6420079270998637,-0.6950995326042175,-0.2642092009385426,0.1865423967440922,2.4955685138702393,1.4376474221547444,1.2963148355484009
0.4,1.6886862929232758e+18,90.39927575683596,-0.0013108849525452,-0.0897717475891113,-0.3426659703254699,1.6886862929232724e+18,90.3992725423177,-1.0747761726379397,-9.802197774251304,-1.0422736605008442,1.6886862929232758e+18,90.39927575683596,-1.0546851754188538,-9.723037242889404,-0.765684962272644,1.6886862929276006e+18,90.40360050455728,0.0306959779312212,0.9110546112060548,0.0352265629917382,1.6886862929276006e+18,90.40360050455728,0.0296778703729311,0.9156361023585,0.0377209279686212,1.688686292923164e+18,90.39916381835936,0.0,0.4515147805213928,0.96516215801239,10.288000106811523,0.024873474612832,0.0,40.20000076293945,-122.7531668,49.1902096,1.688686292923846e+18,90.39984619140624,-8.313079833984375,39.384039306640624,15.533039855957032,1.688686292923846e+18,90.39984619140624,-263.65907592773436,134.4098358154297,-117.19075622558594,1.6886862929232758e+18,90.39927575683596,0.6371609270572662,-0.690027505159378,-0.2785737514495849,0.2006717696785926,2.513563394546509,1.4375540614128113,1.321083962917328
0.45,1.6886862929665362e+18,90.44253629557294,-0.1182208855946858,0.0302130381266276,-0.6954335570335388,1.6886862929751892e+18,90.45118953450522,-1.2594223419825237,-9.65105120340983,-1.4035898844401042,1.6886862929665362e+18,90.44253629557294,-1.066887895266215,-9.7231814066569,-0.7467160820960999,1.6886862929795177e+18,90.45551790364584,0.0441350142161051,0.7483099301656088,0.0289651937782764,1.6886862929795177e+18,90.45551790364584,0.0431169060369331,0.7528914014498392,0.031408654525876,,,,,,,,,,,,1.6886862929738488e+18,90.44984877929689,-7.319999885559082,39.188839721679685,16.538319778442382,1.6886862929738488e+18,90.44984877929689,-262.66599731445314,134.21463928222656,-116.18547973632812,1.6886862929665362e+18,90.44253629557294,0.6326332092285156,-0.6853468616803488,-0.2909550865491231,0.2130434860785802,2.530878702799479,1.4376644293467205,1.341203014055888
0.5,1.688686293018448e+18,90.49444832356772,-0.176190972328186,0.1288270950317382,-0.7527770002683004,1.6886862930271048e+18,90.5031046549479,-1.1748759349187214,-9.67358366648356,-1.3936197757720947,1.688686293018448e+18,90.49444832356772,-1.081101298332214,-9.722094535827637,-0.7404195666313171,1.688686293031426e+18,90.50742610677082,0.0389935647447903,0.4969897766908009,0.020413080540796,1.688686293031426e+18,90.50742610677082,0.0380263614157835,0.5015712678432465,0.0228565412883956,,,,,,,,,,,,1.688686293023849e+18,90.49984897460936,-6.8295598983764645,39.159559631347655,16.93603973388672,1.688686293023849e+18,90.49984897460936,-262.17554931640626,134.18535766601562,-115.78775787353516,1.688686293018448e+18,90.49444832356772,0.6283039450645447,-0.6807977358500162,-0.3026635845502217,0.2238966971635817,2.541076342264811,1.436832348505656,1.3653725385665894
0.55,1.6886862930703675e+18,90.5463674316406,0.0510454575220743,-0.0681257247924804,-0.2602132161458333,1.6886862930790185e+18,90.5550184733073,-1.021535873413086,-9.76989491780599,-0.8725826541582743,1.6886862930703675e+18,90.5463674316406,-1.0923854907353718,-9.720555305480955,-0.7440498868624369,1.6886862930746952e+18,90.55069519042968,0.0647517181932925,0.3941607922315597,0.0078648900962434,1.6886862930746952e+18,90.55069519042968,0.0636827014386653,0.3987423032522201,0.0103083509602583,,,,,,,,,,,,1.6886862930738458e+18,90.54984594726564,-6.236639976501465,39.02779922485352,17.30203971862793,1.6886862930738458e+18,90.54984594726564,-261.5826354980469,134.0535919189453,-115.42175903320312,1.6886862930703675e+18,90.5463674316406,0.6250705718994141,-0.677221417427063,-0.3115138113498687,0.2315326432387033,2.5436855951944985,1.435662031173706,1.3880459864934285
0.6,1.6886862931222815e+18,90.59828173828124,-0.0547153155008951,-0.051004409790039,-0.1352605223655699,1.688686293130928e+18,90.60692814127606,-1.190229852994283,-9.782457033793133,-0.8291130463282267,1.6886862931222815e+18,90.59828173828124,-1.0984891653060913,-9.71893310546875,-0.7561411062876383,1.688686293117956e+18,90.59395621744792,0.0594066443542639,0.3332269887129465,0.0101301815981666,1.688686293117956e+18,90.59395621744792,0.058439441025257,0.3378084699312846,0.0126245484376947,,,,,,,,,,,,1.688686293123846e+18,90.5998459472656,-6.351319789886475,39.16443939208985,17.30935935974121,1.688686293123846e+18,90.5998459472656,-261.69732055664065,134.190234375,-115.41443939208985,1.6886862931222815e+18,90.59828173828124,0.6227100292841593,-0.6741392413775126,-0.3186231056849162,0.2371546477079391,2.5387912591298423,1.4344404141108196,1.4125670591990154
0.65,1.6886862931741962e+18,90.65019612630208,-0.0656211376190185,0.229312260945638,-0.0826674103736876,1.6886862931741962e+18,90.6501964111328,-1.1730813384056091,-9.451051235198976,-0.771087110042572,1.6886862931741962e+18,90.65019612630208,-1.1103151241938274,-9.717096010843912,-0.7624730070432028,1.688686293169871e+18,90.64587125651042,0.0268780707071224,0.2729040483633677,0.0034615697804838,1.688686293169871e+18,90.64587125651042,0.025961772383501,0.2774346421162287,0.0059559361543506,,,,,,,,,,,,1.6886862931738468e+18,90.64984682617188,-5.892599868774414,39.010719299316406,17.799799728393555,1.6886862931738468e+18,90.64984682617188,-261.23859252929685,134.03651733398436,-114.9239990234375,1.6886862931741962e+18,90.65019612630208,0.6203727920850118,-0.6717216571172079,-0.3246208230654398,0.2419594178597131,2.539902369181315,1.433068116505941,1.4281857808430989
0.7,1.688686293226107e+18,90.70210677083332,-0.0236897468566894,-0.2112836837768554,-0.0915902256965636,1.6886862932174523e+18,90.69345247395836,-1.161515990893046,-9.840283711751304,-0.7844470342000326,1.688686293226107e+18,90.70210677083332,-1.1191458304723103,-9.716979026794435,-0.7509579459826151,1.688686293221786e+18,90.6977859700521,-0.0123191157666345,0.0898990022639433,-0.00442877287666,1.688686293221786e+18,90.6977859700521,-0.0132354140514507,0.0943786781281232,-0.0018835011093566,,,,,,,,,,,,1.6886862932238492e+18,90.69984912109376,-5.5753999710083,39.00339965820312,17.636320114135742,1.6886862932238492e+18,90.69984912109376,-260.92139892578126,134.0291961669922,-115.0874771118164,1.688686293226107e+18,90.70210677083332,0.6186451514561971,-0.6704872250556946,-0.3278552591800689,0.2454299976428349,2.5506811141967773,1.432981014251709,1.4277984698613484
0.75,1.6886862932780234e+18,90.7540234375,0.2059070269266764,0.0923201243082681,0.0369326670964558,1.6886862932693722e+18,90.7453721516927,-0.8709874550501505,-9.755537986755373,-0.6749753952026367,1.6886862932780234e+18,90.7540234375,-1.1252131064732869,-9.715696970621744,-0.7584438920021057,1.688686293273699e+18,90.7496990559896,0.0459167050818601,0.2051998153328894,-0.0131336029153316,1.688686293273699e+18,90.7496990559896,0.0448476895689963,0.2097813089688618,-0.0105883305271465,,,,,,,,,,,,1.688686293273849e+18,90.74984916992187,-5.821839904785156,39.100999450683595,17.76563949584961,1.688686293273849e+18,90.74984916992187,-261.16783447265624,134.12679748535157,-114.95815887451172,1.6886862932780234e+18,90.7540234375,0.6175989309946696,-0.6693102518717448,-0.3307172159353891,0.2474213540554046,2.5486114819844565,1.432032545407613,1.437434474627177
0.8,1.6886862933299425e+18,90.80594238281247,-0.0736486315727234,0.2950112024943034,0.2452472647031148,1.6886862933212795e+18,90.79727970377604,-1.2803595066070557,-9.395218849182127,-0.479162722826004,1.6886862933299425e+18,90.80594238281247,-1.142168045043945,-9.714599609375,-0.7470176418622335,1.688686293325615e+18,90.8016153157552,-0.0346156964078545,0.0755945742130279,-0.0058032199740409,1.688686293325615e+18,90.8016153157552,-0.0356847109893957,0.0801760653654734,-0.0033088536001741,,,,,,,,,,,,1.688686293323845e+18,90.79984521484374,-5.2411199569702145,38.89115905761719,17.814439392089845,1.688686293323845e+18,90.79984521484374,-260.5871154785156,133.91695861816407,-114.90935668945312,1.6886862933299425e+18,90.80594238281247,0.615554690361023,-0.6682882905006409,-0.3340754508972168,0.2507518728574117,2.5625037352244058,1.431228081385295,1.433973391850789
0.85,1.688686293373201e+18,90.84920092773436,0.420769453048706,-0.3224258422851562,-0.1315759718418121,1.6886862933731973e+18,90.8491971842448,-0.7928218841552734,-9.980264027913412,-0.7527421315511068,1.688686293373201e+18,90.84920092773436,-1.1318999528884888,-9.717701435089111,-0.7219392955303192,1.6886862933775286e+18,90.8535284016927,-0.0363973874288299,0.0541633839408556,-0.0006108651092896,1.6886862933775286e+18,90.8535284016927,-0.0373645923100411,0.0586939677596092,0.0018325956819656,,,,,,,,,,,,1.6886862933738532e+18,90.84985302734376,-5.336279773712159,38.888719177246095,17.68511962890625,1.6886862933738532e+18,90.84985302734376,-260.682275390625,133.91452026367188,-115.03867645263672,1.688686293373201e+18,90.84920092773436,0.6155301332473755,-0.668325275182724,-0.3332188427448272,0.2518514543771744,2.5739591121673584,1.4335175156593325,1.4228243231773376
0.9,1.6886862934164644e+18,90.89246443684895,-0.2264373699824015,0.1407829920450846,-0.2728464404741922,1.6886862934251154e+18,90.9011153971354,-1.3369896411895752,-9.518648465474447,-0.876171886920929,1.6886862934164644e+18,90.89246443684895,-1.147505005200704,-9.71630350748698,-0.7160627444585165,1.6886862934294395e+18,90.90543969726563,0.0033597589160005,0.1099557441969712,-0.0289142876863479,1.6886862934294395e+18,90.90543969726563,0.0024434613684813,0.1144863304992516,-0.02647082755963,,,,,,,,,,,,1.6886862934238484e+18,90.8998484375,-5.30699987411499,38.98631973266602,17.463079833984374,1.6886862934238484e+18,90.8998484375,-260.6530029296875,134.01211242675782,-115.2607177734375,1.6886862934164644e+18,90.89246443684895,0.6140331824620565,-0.6677529215812683,-0.3355518380800883,0.2539152900377909,2.5838319460550943,1.4324812491734822,1.4198402563730876
0.95,1.6886862934683758e+18,90.94437565104164,0.3530699412027995,-0.1262092590332031,-0.0870647629102071,1.6886862934770286e+18,90.95302856445312,-0.8536394834518433,-9.88415241241455,-0.7812565763791403,1.6886862934683758e+18,90.94437565104164,-1.1575205326080322,-9.715313275655111,-0.7134096225102743,1.688686293481354e+18,90.95735375976562,0.0400116729239622,0.1164207359155019,-0.0147116710431873,1.688686293481354e+18,90.95735375976562,0.0390444686636328,0.1210022245844205,-0.0122173052902022,,,,,,,,,,,,1.6886862934738447e+18,90.94984477539064,-5.465599822998047,39.05707931518555,17.67779960632324,1.6886862934738447e+18,90.94984477539064,-260.8115966796875,134.08287658691407,-115.0459976196289,1.6886862934683758e+18,90.94437565104164,0.6130736470222473,-0.667350689570109,-0.3371113141377767,0.2552238802115122,2.5894266764322915,1.4317488272984822,1.418745716412862
1.0,1.6886862935202926e+18,90.99629239908852,-0.2417191267013549,0.0651149749755858,-0.3140885631243388,1.6886862935289413e+18,91.0049413248698,-1.3866407076517742,-9.662816047668455,-0.992423176765442,1.6886862935202926e+18,90.99629239908852,-1.1824725071589153,-9.710226694742838,-0.7410220503807068,1.6886862935246167e+18,91.00061669921874,0.0785725452005862,0.0685696247965097,-0.0765108726918697,1.6886862935246167e+18,91.00061669921874,0.0775798857212066,0.0731511134654283,-0.0739910528063774,,,,,,,,,,,,1.6886862935238456e+18,90.99984580078124,-5.136199951171875,39.037559509277344,17.885199737548827,1.6886862935238456e+18,90.99984580078124,-260.48219604492186,134.0633575439453,-114.8385986328125,1.6886862935202926e+18,90.99629239908852,0.6117497682571411,-0.6665572921435038,-0.3405511180559794,0.2559053301811218,2.5820058981577554,1.428065299987793,1.4327302773793538
1.05,1.6886862935722022e+18,91.04820222981772,0.324443240960439,0.0036964416503905,0.3192172348499298,1.6886862935808543e+18,91.0568545735677,-0.8219345808029175,-9.746365547180176,-0.165304155399402,1.6886862935722022e+18,91.04820222981772,-1.2026725212732952,-9.70703411102295,-0.7503993312517802,1.6886862935678804e+18,91.04388053385416,-0.0275907466808954,-0.0393499042838811,-0.0090102624769011,1.6886862935678804e+18,91.04388053385416,-0.0286088573435942,-0.034768414373199,-0.0065668004875381,,,,,,,,,,,,1.688686293573844e+18,91.0498439453125,-5.099599933624267,38.98631973266602,17.90471954345703,1.688686293573844e+18,91.0498439453125,-260.4455932617187,134.01212158203126,-114.81907806396484,1.6886862935722022e+18,91.04820222981772,0.611148993174235,-0.6669902006785074,-0.3412165443102519,0.2553272048632304,2.5839770634969077,1.4257880449295044,1.4309715429941814
1.1,1.68868629362412e+18,91.10011995442709,0.0169368584950764,-0.0952587127685546,0.4767893552780151,1.6886862936241157e+18,91.10011572265624,-1.134497046470642,-9.842875957489014,-0.1360917873680591,1.68868629362412e+18,91.10011995442709,-1.1801114082336426,-9.712565104166666,-0.7137539982795715,1.6886862936197962e+18,91.09579630533854,-0.0679078536729017,-0.0550796833510199,0.0291179101914167,1.6886862936197962e+18,91.09579630533854,-0.0688241521517435,-0.0505490993770459,0.0316631818811098,,,,,,,,,,,,1.688686293623848e+18,91.09984794921876,-5.277719783782959,39.07171859741211,18.012079620361327,1.688686293623848e+18,91.09984794921876,-260.62371215820315,134.0975128173828,-114.71171722412107,1.68868629362412e+18,91.10011995442709,0.6117950876553854,-0.6673863530158997,-0.3387448290983835,0.2560349305470784,2.5978244145711265,1.4297429323196411,1.4142331679662068
1.15,1.688686293676038e+18,91.15203792317708,-0.4028937419255574,0.1657606760660807,-0.4028033812840779,1.688686293667381e+18,91.14338102213542,-1.64027996857961,-9.569894790649414,-0.9643075267473856,1.688686293676038e+18,91.15203792317708,-1.1923847198486328,-9.713165918986002,-0.6846103072166443,1.6886862936717028e+18,91.14770296223958,-0.0633263625204562,-0.027285313544174,-0.0262672050545612,1.6886862936717028e+18,91.14770296223958,-0.064344473183155,-0.0227038245648145,-0.023721933364868,,,,,,,,,,,,1.688686293673844e+18,91.1498439453125,-5.141079902648926,39.20835952758789,17.790039443969725,1.688686293673844e+18,91.1498439453125,-260.48707275390626,134.23415832519532,-114.93375701904296,1.688686293676038e+18,91.15203792317708,0.6110741098721822,-0.66839067141215,-0.3376851181189219,0.2565364738305409,2.620537598927816,1.430177927017212,1.3906336625417073
1.2,1.688686293727943e+18,91.20394303385416,0.178160806496938,-0.0601539611816405,-0.1449106534322102,1.688686293719297e+18,91.19529711914062,-1.031306544939677,-9.760522842407228,-0.8422735730806986,1.688686293727943e+18,91.20394303385416,-1.1963702042897542,-9.71377182006836,-0.6689236362775167,1.6886862937236237e+18,91.19962377929689,-0.0305432615180809,-0.0537561414142449,-0.0079412482058007,1.6886862937236237e+18,91.19962377929689,-0.0316122770309447,-0.0491746527453263,-0.0054468818319339,,,,,,,,,,,,1.6886862937238508e+18,91.19985083007812,-4.845839977264404,39.13271865844727,17.80712013244629,1.6886862937238508e+18,91.19985083007812,-260.19183349609375,134.15851440429688,-114.91667785644532,1.688686293727943e+18,91.20394303385416,0.61095263560613,-0.6690858403841654,-0.3366109132766723,0.2564258476098378,2.631953557332357,1.430617372194926,1.3773518403371174
1.25,1.6886862937798628e+18,91.25586295572916,0.0235761801401773,0.0697994232177734,0.1743770043055216,1.6886862937712074e+18,91.2472071940104,-1.1525429089864094,-9.705488204956056,-0.4291128615538279,1.6886862937798628e+18,91.25586295572916,-1.1965214411417644,-9.714711825052897,-0.6548113822937012,1.6886862937755348e+18,91.25153483072916,-0.0538579535981018,-0.1172352234522501,-0.0073812883735323,1.6886862937755348e+18,91.25153483072916,-0.0548251563062269,-0.1126537322998046,-0.0048869219220553,,,,,,,,,,,,1.6886862937738432e+18,91.24984326171874,-4.848279857635498,39.08635940551758,17.363039779663087,1.6886862937738432e+18,91.24984326171874,-260.19427490234375,134.112158203125,-115.36075897216796,1.6886862937798628e+18,91.25586295572916,0.6111477613449097,-0.6698418458302816,-0.3351152141888936,0.2559438447157541,2.641059160232544,1.43130362033844,1.365134874979655
1.3,1.6886862938231247e+18,91.29912475585938,-0.077347993850708,0.0230369567871094,-0.1198403537273406,1.6886862938231247e+18,91.29912475585938,-1.2488540013631184,-9.708479245503744,-0.668993333975474,1.6886862938231247e+18,91.29912475585938,-1.1883191466331482,-9.717999458312988,-0.6200158298015594,1.6886862938274468e+18,91.30344677734377,-0.1340340177218118,-0.2767728666464488,0.0115046286955475,1.6886862938274468e+18,91.30344677734377,-0.1350521271427472,-0.2722422778606415,0.0139480897535879,,,,,,,,,,,,1.688686293823849e+18,91.29984897460938,-5.509520053863525,39.34743957519531,17.255680084228516,1.688686293823849e+18,91.29984897460938,-260.855517578125,134.37323303222655,-115.4681182861328,1.6886862938231247e+18,91.29912475585938,0.6120166182518005,-0.6715402603149414,-0.3310669958591461,0.2546807825565337,2.660902261734009,1.4337351322174072,1.336930811405182
1.35,1.6886862938663872e+18,91.34238712565104,0.0097318490346273,-0.051315943400065,-0.3462236722310384,1.6886862938750392e+18,91.35103930664064,-1.137787143389384,-9.771490097045898,-0.8412765463193258,1.6886862938663872e+18,91.34238712565104,-1.1770938634872437,-9.721413294474283,-0.5870523850123087,1.688686293879367e+18,91.35536718750002,-0.0847575515508651,-0.3099123040835062,0.0151698203020107,1.688686293879367e+18,91.35536718750002,-0.0857756609718004,-0.3053308228651682,0.0177150920499115,,,,,,,,,,,,1.6886862938738468e+18,91.34984672851564,-5.416799831390381,39.310839080810545,17.128799438476562,1.6886862938738468e+18,91.34984672851564,-260.7627868652344,134.33663940429688,-115.5949966430664,1.6886862938663872e+18,91.34238712565104,0.6136645674705505,-0.6739350159962972,-0.3252858817577362,0.2518160045146942,2.6792017618815103,1.4363027811050415,1.305103103319804
1.4,1.688686293918301e+18,91.39430102539062,-0.0486112833023071,0.0097885131835937,-0.1753642360369364,1.688686293926949e+18,91.4029491373698,-1.2566306988398237,-9.7403834660848,-0.6727819641431173,1.688686293918301e+18,91.39430102539062,-1.1580328941345217,-9.724491755167644,-0.5738638639450073,1.6886862939312753e+18,91.40727530924478,-0.0512108703454335,-0.3072143097718556,0.0252490962545076,1.6886862939312753e+18,91.40727530924478,-0.0521780724326769,-0.3026837309201558,0.0276925576229889,1.688686293923183e+18,91.39918310546877,0.0,0.510794460773468,0.9747514128684998,11.319000244140623,0.0242071207612752,0.0,40.20000076293945,-122.7531665,49.1902095,1.688686293923851e+18,91.399851171875,-5.392399787902832,39.459679412841794,16.743279266357423,1.688686293923851e+18,91.399851171875,-260.7383972167969,134.4854766845703,-115.9805191040039,1.688686293918301e+18,91.39430102539062,0.6159821152687073,-0.6759112278620402,-0.3196487526098887,0.2480545242627461,2.681772549947103,1.4386608997980754,1.287887771924337
1.45,1.688686293970212e+18,91.44621215820312,-0.1029521624247232,0.0260690053304036,-0.0454601844151814,1.6886862939788654e+18,91.4548653971354,-1.1964113314946492,-9.749356587727863,-0.5286144117514292,1.688686293970212e+18,91.44621215820312,-1.1361945470174153,-9.72741190592448,-0.5679752230644226,1.6886862939745444e+18,91.45054443359376,-0.0465784762054681,-0.3211624026298522,0.0222202227450906,1.6886862939745444e+18,91.45054443359376,-0.047647489234805,-0.3165809214115143,0.024740042630583,,,,,,,,,,,,1.6886862939738447e+18,91.44984487304689,-6.158559799194336,39.46211929321289,16.38704032897949,1.6886862939738447e+18,91.44984487304689,-261.5045593261719,134.4879150390625,-116.33675842285156,1.688686293970212e+18,91.44621215820312,0.6185686389605204,-0.6777639190355936,-0.3139337599277496,0.243822877605756,2.678297758102417,1.4409393072128296,1.275925914446513
1.5,1.6886862940221325e+18,91.49813248697916,0.08431871732076,-0.1794198354085286,-0.0330571134885152,1.6886862940307853e+18,91.5067852376302,-1.007378339767456,-9.901300748189293,-0.5553342501322428,1.6886862940221325e+18,91.49813248697916,-1.124462326367696,-9.728304545084637,-0.5759914517402649,1.6886862940178053e+18,91.49380533854166,-0.0037160970581074,-0.2900591790676116,-0.0003563380499447,1.6886862940178053e+18,91.49380533854166,-0.0046833000766734,-0.2854776879151662,0.0022398392514635,,,,,,,,,,,,1.6886862940238484e+18,91.4998486328125,-6.497719764709473,39.45235824584961,16.32359962463379,1.6886862940238484e+18,91.4998486328125,-261.8437194824219,134.47815856933593,-116.4001968383789,1.6886862940221325e+18,91.49813248697916,0.6209399898846945,-0.6796663602193197,-0.3088296155134836,0.2389718244473139,2.6684791247049966,1.441641529401143,1.2703911463419597
1.55,1.6886862940740442e+18,91.55004410807292,0.0375622113545735,0.1542396545410155,-0.0744320352872212,1.6886862940740442e+18,91.55004418945312,-1.101296603679657,-9.543174743652344,-0.617946445941925,1.6886862940740442e+18,91.55004410807292,-1.1068185170491536,-9.729760169982912,-0.5854640007019043,1.6886862940697193e+18,91.54571931966149,-0.0422515127186973,-0.3635666370391845,0.0289651943215479,1.6886862940697193e+18,91.54571931966149,-0.0432696224500735,-0.3590360482533772,0.0315104660888512,,,,,,,,,,,,1.6886862940738488e+18,91.549848828125,-6.8197998046875,39.53043899536133,16.41387939453125,1.6886862940738488e+18,91.549848828125,-262.1657958984375,134.55624084472657,-116.30991821289062,1.6886862940740442e+18,91.55004410807292,0.6236257155736288,-0.6814830700556437,-0.303318053483963,0.2337992042303085,2.655325253804525,1.4428006410598757,1.2671149969100952
1.6,1.6886862941259548e+18,91.60195483398438,-0.0181854963302612,-0.0536301930745442,-0.1765511631965637,1.6886862941173046e+18,91.59330476888022,-1.0207382639249163,-9.779067357381184,-0.6540381908416748,1.6886862941259548e+18,91.60195483398438,-1.0638325214385986,-9.734851837158203,-0.58045361439387,1.6886862941216338e+18,91.59763387044272,-0.0647517157097656,-0.4499022563298543,0.0601702270408471,1.6886862941216338e+18,91.59763387044272,-0.065769825130701,-0.4453207552433014,0.0627155005931854,,,,,,,,,,,,1.6886862941238426e+18,91.59984252929688,-6.941799831390381,39.48407897949219,15.9112398147583,1.6886862941238426e+18,91.59984252929688,-262.2877990722656,134.50987548828124,-116.81255645751952,1.6886862941259548e+18,91.60195483398438,0.6276461482048035,-0.6835168798764547,-0.295017272233963,0.2276393324136733,2.642420450846354,1.446932832400004,1.2578065395355225
1.65,1.6886862941778726e+18,91.65387255859372,-0.1376157999038696,0.1018946965535481,-0.3738355636596679,1.6886862941692265e+18,91.64522672526044,-1.2307084401448567,-9.702496846516928,-0.8462616205215454,1.6886862941778726e+18,91.65387255859372,-1.0353294610977173,-9.739030838012695,-0.5616339047749838,1.6886862941735455e+18,91.64954581705727,-0.1202386394143104,-0.6239988406499227,0.0043269616241256,1.6886862941735455e+18,91.64954581705727,-0.1212567538022994,-0.6194173494974772,0.0068213284636536,,,,,,,,,,,,1.688686294173849e+18,91.64984936523436,-8.064199829101563,39.57435913085938,15.249999809265136,1.688686294173849e+18,91.64984936523436,-263.4101989746094,134.60015869140625,-117.4737991333008,1.6886862941778726e+18,91.65387255859372,0.6316056052843729,-0.6869852741559347,-0.2842923601468404,0.2197285642226536,2.6449190775553384,1.450425664583842,1.226884643236796
1.7,1.688686294229786e+18,91.70578613281248,0.0363422433535257,0.075148582458496,-0.6738616824150085,1.688686294221137e+18,91.69713696289062,-0.962712307771047,-9.647462209065756,-1.0839486519495647,1.688686294229786e+18,91.70578613281248,-1.044382135073344,-9.739802042643229,-0.530600925286611,1.6886862942254615e+18,91.70146166992188,-0.1707877417405446,-0.8355109492937723,-0.0794124826788902,1.6886862942254615e+18,91.70146166992188,-0.1717040389776229,-0.8309803406397501,-0.0768672091265519,,,,,,,,,,,,1.688686294223847e+18,91.69984653320311,-8.02515983581543,39.66707916259766,14.586319732666016,1.688686294223847e+18,91.69984653320311,-263.37115478515625,134.69288024902343,-118.13747863769532,1.688686294229786e+18,91.70578613281248,0.6352031628290812,-0.6932435035705566,-0.2695166071256001,0.2079697201649347,2.671938339869181,1.451073209444682,1.159760514895121
1.75,1.688686294273049e+18,91.74904895019532,-0.0884345769882202,0.0698676109313964,-0.9017747938632964,1.688686294273049e+18,91.74904931640629,-1.138186017672221,-9.69631576538086,-1.3439687490463257,1.688686294273049e+18,91.74904895019532,-1.0387479662895205,-9.74150037765503,-0.5101654231548309,1.688686294277378e+18,91.75337825520832,-0.1726203362147013,-1.1908818085988362,-0.0173587541406352,1.688686294277378e+18,91.75337825520832,-0.1735875407854715,-1.1863003174463909,-0.0148643873011071,,,,,,,,,,,,1.6886862942738488e+18,91.74984897460938,-8.444839668273925,39.95255966186524,13.771359825134278,1.6886862942738488e+18,91.74984897460938,-263.79083862304685,134.97835693359374,-118.95243682861329,1.688686294273049e+18,91.74904895019532,0.6396747827529907,-0.6991627812385559,-0.2532265558838844,0.1945166662335395,2.6855337619781494,1.452526032924652,1.10152930021286
1.8,1.6886862943163154e+18,91.7923154296875,-0.1188577413558959,0.0933300654093424,-0.896433969338735,1.6886862943249674e+18,91.80096752929688,-1.1080762545267742,-9.691729227701822,-1.3150554498036702,1.6886862943163154e+18,91.7923154296875,-1.0221832195917766,-9.743427276611328,-0.5068323016166687,1.6886862943292877e+18,91.80528759765626,-0.1711440781752268,-1.5395331382751465,-0.0463748537003993,1.6886862943292877e+18,91.80528759765626,-0.172162190079689,-1.535002589225769,-0.0438804862399895,,,,,,,,,,,,1.6886862943238477e+18,91.79984770507812,-9.71851978302002,40.06235961914062,12.526959800720215,1.6886862943238477e+18,91.79984770507812,-265.06451416015625,135.0881561279297,-120.19683685302736,1.6886862943163154e+18,91.7923154296875,0.645686129728953,-0.7058097124099731,-0.2321596046288808,0.1758123785257338,2.681802749633789,1.454194148381551,1.046128551165263
1.85,1.688686294368218e+18,91.84421761067706,-0.1903514266014098,-0.0068038304646809,-0.7263957659403483,1.6886862943768763e+18,91.85287654622395,-1.2769697109858196,-9.748160044352211,-1.161515990893046,1.688686294368218e+18,91.84421761067706,-1.001537064711253,-9.744788805643717,-0.5215364297231039,1.6886862943812017e+18,91.85720174153646,-0.1199332103133201,-1.68313733736674,-0.012726359690229,1.6886862943812017e+18,91.85720174153646,-0.1209004124005635,-1.6785558859507244,-0.0101810880005359,,,,,,,,,,,,1.6886862943738511e+18,91.84985107421876,-10.404159927368164,40.21363906860351,11.385039901733398,1.6886862943738511e+18,91.84985107421876,-265.750146484375,135.23943786621095,-121.33875732421876,1.688686294368218e+18,91.84421761067706,0.6533182263374329,-0.7140401005744934,-0.2028716405232747,0.1484162658452987,2.662024656931559,1.4553854862848918,0.982512096563975
1.9,1.6886862944201398e+18,91.89613956705728,-0.6501834988594055,0.2103996276855468,-0.4609984358151753,1.6886862944287885e+18,91.90478841145834,-1.5629119873046875,-9.52243677775065,-0.917448083559672,1.6886862944201398e+18,91.89613956705728,-0.9562614957491556,-9.747036933898926,-0.562606672445933,1.688686294424467e+18,91.90046704101562,-0.0872773714363574,-1.8393152356147768,0.0173333017155527,1.688686294424467e+18,91.90046704101562,-0.0882700271904468,-1.834733724594116,0.0197767624631523,,,,,,,,,,,,1.688686294423847e+18,91.89984682617188,-11.319159698486327,40.71627960205078,10.10403995513916,1.688686294423847e+18,91.89984682617188,-266.6651550292969,135.74207458496093,-122.61975860595705,1.6886862944201398e+18,91.89613956705728,0.6613093614578247,-0.720629612604777,-0.1714129149913787,0.1175237074494361,2.6102188428243003,1.4573954343795776,0.9435982505480448
1.95,1.6886862944720484e+18,91.94804817708332,-0.3145902355511983,0.0261926651000976,-0.0477334062258402,1.6886862944807068e+18,91.95670694986978,-1.1834502220153809,-9.762118021647137,-0.545962373415629,1.6886862944720484e+18,91.94804817708332,-0.925752858320872,-9.746280034383137,-0.6235285600026449,1.6886862944677225e+18,91.9437225748698,-0.0368555365130304,-1.724014441172282,-0.0809396430850028,1.6886862944677225e+18,91.9437225748698,-0.0379245501632491,-1.7194329500198364,-0.0784452787290016,,,,,,,,,,,,1.688686294473848e+18,91.94984809570312,-12.309799766540529,40.97247848510742,8.698599815368652,1.688686294473848e+18,91.94984809570312,-267.6557983398437,135.99827880859374,-124.02519836425782,1.6886862944720484e+18,91.94804817708332,0.6674967805544535,-0.7263891696929932,-0.1396731436252593,0.0846183250347772,2.549414078394572,1.4567227363586426,0.9112648566563925
2.0,1.6886862945239662e+18,91.99996614583334,-0.3866172432899475,0.0637067159016926,0.3459222813447316,1.688686294523968e+18,91.9999678955078,-1.3331013321876526,-9.705288887023926,-0.2703889533877373,1.6886862945239662e+18,91.99996614583334,-0.9524297912915548,-9.739327112833658,-0.688569962978363,1.6886862945196434e+18,91.99564339192708,0.0148643873011071,-1.195208748181661,-0.1425861244400341,1.6886862945196434e+18,91.99564339192708,0.0138971845153718,-1.1906272967656453,-0.1400408595800399,1.688686294512e+18,91.988,0.0,0.510794460773468,0.9259783625602722,11.618000030517578,0.0240733791142702,0.0,40.20000076293945,-122.7531663,49.1902095,1.688686294523847e+18,91.999846875,-12.370799827575684,41.336038970947264,7.654279804229736,1.688686294523847e+18,91.999846875,-267.7167907714844,136.36183471679686,-125.06951751708984,1.6886862945239662e+18,91.99996614583334,0.6693328022956848,-0.7314916451772054,-0.1160332933068275,0.0582121722400187,2.5160721143086753,1.4506665865580242,0.8730254173278809
2.05,1.688686294575879e+18,92.05187874348955,-0.7171507080396017,0.1320066452026366,0.5735619266827902,1.6886862945672274e+18,92.04322745768228,-1.6448661883672078,-9.588040033976238,-0.135792685051759,1.688686294575879e+18,92.05187874348955,-0.9955754478772482,-9.731056849161783,-0.7423311471939087,1.688686294571558e+18,92.04755802408852,-0.0003563384525478,-1.0612765351931257,-0.1689551422993342,1.688686294571558e+18,92.04755802408852,-0.0013235409278422,-1.0566950639088948,-0.1665116796890894,,,,,,,,,,,,1.6886862945738468e+18,92.04984672851565,-12.339079666137696,41.36775894165039,6.819799900054932,1.6886862945738468e+18,92.04984672851565,-267.68507690429686,136.3935577392578,-125.90399780273438,1.688686294575879e+18,92.05187874348955,0.6691579818725586,-0.7355972727139791,-0.098127340277036,0.0378462858498096,2.501116355260214,1.4438377618789673,0.8334654172261556
2.1,1.6886862946277998e+18,92.10379980468753,-0.2539195617039998,0.0267572402954101,0.7978876034418741,1.6886862946191442e+18,92.09514420572916,-1.3916257619857788,-9.711470286051432,0.0821535776679713,1.6886862946277998e+18,92.10379980468753,-1.084728717803955,-9.719326655069986,-0.7700465718905131,1.6886862946234757e+18,92.09947574869793,-0.0914770700037479,-1.2911146481831868,-0.3151555657386779,1.6886862946234757e+18,92.09947574869793,-0.0923933709661165,-1.2865839799245198,-0.3126611957947413,,,,,,,,,,,,1.688686294623849e+18,92.09984907226564,-11.997479820251463,41.80451889038086,6.134159946441651,1.688686294623849e+18,92.09984907226564,-267.3434753417969,136.83031616210937,-126.58963928222656,1.6886862946277998e+18,92.10379980468753,0.6666590174039205,-0.7413193384806315,-0.0754758690794308,0.0149592927967507,2.524090131123861,1.434742530186971,0.7457862297693888
2.15,1.688686294679711e+18,92.15571093750002,-0.1967572371164957,0.0528815587361653,0.5545162657896677,1.688686294671057e+18,92.14705688476565,-1.3992030223210652,-9.659226735432943,-0.09670991753228,1.688686294679711e+18,92.15571093750002,-1.19553009668986,-9.707166035970053,-0.7597760359446207,1.6886862946753864e+18,92.15138639322916,-0.2047925740480422,-1.4521284500757854,-0.2944879631201426,1.6886862946753864e+18,92.15138639322916,-0.2058106859525044,-1.447597901026408,-0.2919935832420984,,,,,,,,,,,,1.6886862946738478e+18,92.14984794921877,-11.81935977935791,42.49503860473633,4.628679847717285,1.6886862946738478e+18,92.14984794921877,-267.16535034179685,137.52084045410157,-128.0951187133789,1.688686294679711e+18,92.15571093750002,-0.6625144879023234,0.7473572293917338,0.048269232114156,0.0090037130285054,2.575422207514445,1.4258675972620647,0.6218568285306295
2.2,1.6886862947316252e+18,92.2076250813802,0.0301893552144368,-0.0620142618815103,0.078695793946584,1.6886862947229727e+18,92.1989725748698,-1.2009975512822468,-9.784650802612305,-0.5048855741818746,1.6886862947316252e+18,92.2076250813802,-1.2495952447255452,-9.702938079833984,-0.726228932539622,1.688686294727293e+18,92.2032927246094,-0.2906191448370615,-1.6671530803044636,-0.204283520579338,1.688686294727293e+18,92.2032927246094,-0.2915863494078318,-1.6625715891520183,-0.2018400579690933,,,,,,,,,,,,1.6886862947238487e+18,92.1998485839844,-11.50459976196289,42.607279205322264,2.6693598985672,1.6886862947238487e+18,92.1998485839844,-266.8505920410156,137.6330810546875,-130.0544403076172,1.6886862947316252e+18,92.2076250813802,-0.6595009366671244,0.7505891521771749,0.0150207463496674,0.0361033746351798,2.6151796181996665,1.4229049285252888,0.4965130686759949
2.25,1.6886862947748844e+18,92.25088415527344,-0.0421530008316039,0.1402492523193358,-0.2871749699115753,1.6886862947748872e+18,92.25088712565103,-1.3282159566879272,-9.609177271525065,-0.9148558775583904,1.6886862947748844e+18,92.25088415527344,-1.2594064474105835,-9.704204559326172,-0.6916643977165222,1.688686294779215e+18,92.25521516927084,-0.2848159174124399,-1.6638441880544026,-0.1209004124005635,1.688686294779215e+18,92.25521516927084,-0.2858849267164866,-1.6593136390050252,-0.1184060474236806,,,,,,,,,,,,1.688686294773846e+18,92.24984609375,-11.028799629211424,42.71463928222656,1.254159939289093,1.688686294773846e+18,92.24984609375,-266.3747924804687,137.74043884277344,-131.46964111328126,1.6886862947748844e+18,92.25088415527344,-0.6575013399124146,0.7509852647781372,-0.0136902700178324,0.0589275620877742,2.6394119262695312,1.4237850308418274,0.3991584628820419
2.3,1.688686294818149e+18,92.29414900716148,-0.2546212673187256,0.0189476013183593,-0.4772122502326965,1.6886862948268024e+18,92.30280240885416,-1.5256238381067913,-9.725627581278482,-1.092522939046224,1.688686294818149e+18,92.29414900716148,-1.2597000201543171,-9.704936981201172,-0.6807896892229716,1.688686294831129e+18,92.30712931315104,-0.2055052518844603,-1.626683235168457,-0.1011491020520527,1.688686294831129e+18,92.30712931315104,-0.206574261188507,-1.6221017440160117,-0.0986547370751698,,,,,,,,,,,,1.68868629482385e+18,92.29985004882812,-10.740879821777344,43.24899978637696,-0.3464799884706735,1.68868629482385e+18,92.29985004882812,-266.0868774414063,138.27479553222656,-133.07027893066407,1.688686294818149e+18,92.29414900716148,-0.6549320816993713,0.7499465147654215,-0.0413925610482692,0.0824128513534863,2.646143674850464,1.424298644065857,0.3196532328923543
2.35,1.6886862948700623e+18,92.34606266276042,-0.2814627091089884,0.10028870900472,-0.3807122707366943,1.6886862948787095e+18,92.35470930989582,-1.573280890782674,-9.58744208017985,-0.9818548758824668,1.6886862948700623e+18,92.34606266276042,-1.2623700300852458,-9.703526178995768,-0.6957343419392904,1.6886862948743823e+18,92.35038220214844,-0.1509600728750228,-1.4085025787353516,-0.133397702127695,1.6886862948743823e+18,92.35038220214844,-0.1520290821790695,-1.4039210081100464,-0.1309542395174503,,,,,,,,,,,,1.688686294873848e+18,92.34984809570312,-10.291919898986816,43.063558959960936,-1.588439989089966,1.688686294873848e+18,92.34984809570312,-265.6379150390625,138.08935546875,-134.31224060058594,1.6886862948700623e+18,92.34606266276042,-0.6508710781733195,0.7478043039639791,-0.0712625545759995,0.1094374979535738,2.6378923257191977,1.4233256975809734,0.2467360198497772
2.4,1.688686294921972e+18,92.39797216796876,-0.5909043550491333,0.2273238499959309,-0.1777957081794738,1.68868629493063e+18,92.40663004557292,-1.964906175931295,-9.495118776957192,-0.8077770471572876,1.688686294921972e+18,92.39797216796876,-1.3030781348546343,-9.696763038635256,-0.7146029273668925,1.6886862949176532e+18,92.3936532389323,-0.1324559450149535,-1.2341005404790242,-0.1790853242079416,1.6886862949176532e+18,92.3936532389323,-0.1334231495857238,-1.229519009590149,-0.1765909641981124,1.688686294923179e+18,92.39917895507811,0.0,0.5155206322669983,0.930773138999939,11.02299976348877,0.0224721450358629,0.0,40.20000076293945,-122.7531662,49.1902095,1.688686294923844e+18,92.399844140625,-10.238240051269532,43.18067855834961,-2.7742799520492554,1.688686294923844e+18,92.399844140625,-265.5842346191406,138.20647888183595,-135.49807434082032,1.688686294921972e+18,92.39797216796876,-0.6451268990834554,0.746427079041799,-0.096012882888317,0.1317646553119023,2.6399522622426352,1.418721318244934,0.1771457990010579
2.45,1.6886862949738918e+18,92.44989200846356,-0.7311268250147501,0.0507078170776366,-0.1020451386769612,1.6886862949738875e+18,92.44988769531253,-2.0934207439422607,-9.676275730133057,-0.7707880139350891,1.6886862949738918e+18,92.44989200846356,-1.3608617385228474,-9.687644322713217,-0.7303335467974345,1.6886862949695672e+18,92.4455672200521,-0.1684969961643218,-1.413949449857076,-0.2123774836460749,1.6886862949695672e+18,92.4455672200521,-0.1694642007350921,-1.409367918968201,-0.2099340210358301,,,,,,,,,,,,1.6886862949738476e+18,92.44984750976562,-9.279319763183594,43.519839477539065,-3.8625199794769287,1.6886862949738476e+18,92.44984750976562,-264.62531127929685,138.54563598632814,-136.58631896972656,1.6886862949738918e+18,92.44989200846356,-0.6377843419710795,0.7446047862370809,-0.1218789840737978,0.1543631752332051,2.648991664250692,1.4127204020818074,0.0981366485357284
2.5,1.6886862950258025e+18,92.50180257161458,-0.0829584995905558,0.0312910079956054,0.1287871996561685,1.6886862950171538e+18,92.49315397135418,-1.6171493132909138,-9.658429145812988,-0.5992026925086975,1.6886862950258025e+18,92.50180257161458,-1.4511035680770874,-9.672614097595217,-0.7549843192100525,1.688686295021482e+18,92.49748185221354,-0.172925775249799,-1.5555683771769206,-0.3237076699733733,1.688686295021482e+18,92.49748185221354,-0.1738420625527699,-1.5509868462880452,-0.3212642073631286,,,,,,,,,,,,1.6886862950238474e+18,92.49984736328123,-8.037359809875488,43.66135940551758,-4.84095983505249,1.6886862950238474e+18,92.49984736328123,-263.38335571289065,138.687158203125,-137.56475830078125,1.6886862950258025e+18,92.50180257161458,-0.6273096005121866,0.7421638369560242,-0.1519053479035695,0.1802101929982502,2.661766290664673,1.4032935698827107,0.0039839632033059
2.55,1.6886862950777203e+18,92.5537204589844,-0.0593720277150471,-0.0371230443318684,0.3264976739883422,1.6886862950690644e+18,92.54506453450522,-1.5078770716985066,-9.690333684285482,-0.4037888248761495,1.6886862950777203e+18,92.5537204589844,-1.5147698322931926,-9.661229133605955,-0.7760247588157654,1.6886862950733957e+18,92.54939575195311,-0.1590794920921325,-1.28963836034139,-0.1629992102583249,1.6886862950733957e+18,92.54939575195311,-0.1600976039965947,-1.2850568294525146,-0.1605557476480801,,,,,,,,,,,,1.6886862950738455e+18,92.5498455078125,-6.688039875030517,44.11519927978516,-6.0097198486328125,1.6886862950738455e+18,92.5498455078125,-262.034033203125,139.14099731445313,-138.73351440429687,1.6886862950777203e+18,92.5537204589844,-0.6176892320315043,0.7383870085080465,-0.1787082105875014,0.2030496696631113,2.6681554317474365,1.396442214647929,-0.0753918302555878
2.6,1.6886862951296348e+18,92.6056349283854,-0.2929701407750447,-0.160556157430013,0.5596698125203451,1.6886862951209825e+18,92.5969825032552,-1.779861251513163,-9.842277526855469,-0.2163510471582412,1.6886862951296348e+18,92.6056349283854,-1.4959275722503662,-9.663219769795736,-0.7876613934834799,1.6886862951253066e+18,92.6013068033854,-0.1235474944114684,-0.981558620929718,-0.011810061832269,1.6886862951253066e+18,92.6013068033854,-0.1245146989822387,-0.9769771496454874,-0.0093156949151307,,,,,,,,,,,,1.688686295123847e+18,92.5998466796875,-5.682759857177734,43.80044021606445,-6.68071985244751,1.688686295123847e+18,92.5998466796875,-261.02875366210935,138.82623901367188,-139.4045166015625,1.6886862951296348e+18,92.6056349283854,-0.6121981938680013,0.7324901024500529,-0.1991736938556035,0.2212667365868885,2.6569302876790366,1.3976157506306963,-0.1214122424523035
2.65,1.6886862951815483e+18,92.65754833984374,-0.30716073513031,-0.0146770477294921,0.919844170411428,1.6886862951728968e+18,92.64889689127608,-1.7752749919891355,-9.72024408976237,0.1355932873363296,1.6886862951815483e+18,92.65754833984374,-1.485724965731303,-9.664532661437988,-0.7909064094225565,1.6886862951772275e+18,92.6532276204427,-0.0729983945687611,-0.5953390896320343,-0.0552833061665296,1.6886862951772275e+18,92.6532276204427,-0.0739656016230583,-0.5907576084136963,-0.0528398435562848,,,,,,,,,,,,1.6886862951738488e+18,92.64984892578124,-5.990199947357178,43.94683837890625,-7.441999816894532,1.6886862951738488e+18,92.64984892578124,-261.33619995117186,138.97263793945314,-140.1657958984375,1.6886862951815483e+18,92.65754833984374,-0.6082738240559896,0.7283316055933634,-0.212701658407847,0.2329794913530349,2.652410984039306,1.3983885844548545,-0.1545159618059794
2.7,1.6886862952248105e+18,92.70081066894532,-0.4695376753807068,0.0370302200317382,1.0972327589988708,1.6886862952248082e+18,92.70080826822915,-1.9535402456919353,-9.654241879781088,0.376071959733963,1.6886862952248105e+18,92.70081066894532,-1.5053023099899292,-9.662600994110107,-0.7773676216602325,1.688686295229141e+18,92.70514111328124,-0.0982983981569607,-0.3979278008143107,-0.0826195254921913,1.688686295229141e+18,92.70514111328124,-0.099265602727731,-0.3933972219626109,-0.0801251580317814,,,,,,,,,,,,1.688686295223846e+18,92.69984584960936,-5.677879905700683,44.06396026611328,-8.130080032348634,1.688686295223846e+18,92.69984584960936,-261.02387084960935,139.08975524902343,-140.8538787841797,1.6886862952248105e+18,92.70081066894532,-0.6054313480854034,0.7267112135887146,-0.2204675823450088,0.2381907403469085,2.664889931678772,1.3972392082214355,-0.1864750385284423
2.75,1.6886862952680727e+18,92.74407283528645,-0.2429310878117879,-0.0400066375732421,0.9205093185106912,1.6886862952767237e+18,92.75272355143233,-1.6243277788162231,-9.7158571879069,0.1320040474335352,1.6886862952680727e+18,92.74407283528645,-1.5469636122385662,-9.658744176228842,-0.7423192461331686,1.6886862952810455e+18,92.75704532877604,-0.2097813040018081,-0.8204938371976217,-0.2415972004334131,1.6886862952810455e+18,92.75704532877604,-0.2108503182729084,-0.8159632484118143,-0.239051933089892,,,,,,,,,,,,1.688686295273846e+18,92.74984599609374,-4.762879848480225,44.124959564208986,-8.437519836425782,1.688686295273846e+18,92.74984599609374,-260.10886840820314,139.1507568359375,-141.16131896972655,1.6886862952680727e+18,92.74407283528645,-0.6016544500986735,0.7251195708910624,-0.2302707781394322,0.2432292699813842,2.6940852801005044,1.3949787219365437,-0.2380760262409846
2.8,1.6886862953199823e+18,92.79598250325522,0.7728814681371053,-0.1870867411295572,0.220672200123469,1.6886862953286377e+18,92.8046376139323,-0.7467600703239441,-9.88016414642334,-0.4851447939872741,1.6886862953199823e+18,92.79598250325522,-1.6213998794555664,-9.650049209594728,-0.6953239242235819,1.6886862953243167e+18,92.80031677246096,-0.2815325260162353,-1.1125383377075195,-0.1257618833333253,1.6886862953243167e+18,92.80031677246096,-0.282601535320282,-1.107956886291504,-0.1231657024472951,,,,,,,,,,,,1.6886862953238446e+18,92.79984458007814,-3.662439966201782,44.17375869750977,-9.29883975982666,1.6886862953238446e+18,92.79984458007814,-259.008447265625,139.19955749511718,-142.02263793945312,1.6886862953199823e+18,92.79598250325522,-0.5929302175839742,0.720522940158844,-0.2518781324227651,0.2564584414164225,2.7364563941955566,1.3899680376052856,-0.3334024349848429
2.85,1.6886862953719017e+18,92.84790152994792,0.5321385463078816,-0.1161645253499348,-0.1656440297762552,1.68868629538055e+18,92.8565498860677,-1.2911272446314497,-9.753942807515465,-0.7704888979593912,1.6886862953719017e+18,92.84790152994792,-1.5647048950195312,-9.662546793619793,-0.6499848961830139,1.6886862953675768e+18,92.8435770670573,-0.1718567560116449,-0.5487606227397919,0.1067487001419066,1.6886862953675768e+18,92.8435770670573,-0.1728748654325802,-0.5441791117191315,0.1092939724524815,,,,,,,,,,,,1.6886862953738511e+18,92.84985122070312,-3.301319885253906,43.788239288330075,-9.96983985900879,1.6886862953738511e+18,92.84985122070312,-258.6473083496094,138.81403503417968,-142.69363708496093,1.6886862953719017e+18,92.84790152994792,-0.5902668436368307,0.7128625909487406,-0.2675309578577677,0.2680067320664723,2.747838338216146,1.397199630737305,-0.386087288459142
2.9,1.6886862954238157e+18,92.89981583658852,-0.5533223152160645,0.1006212234497069,-0.0460037191708882,1.6886862954238167e+18,92.89981689453126,-2.0946170687675476,-9.562018394470217,-0.6382854282855988,1.6886862954238157e+18,92.89981583658852,-1.5013781388600669,-9.67335033416748,-0.6388175884882609,1.6886862954194885e+18,92.8954883626302,-0.0568104684352874,-0.3180062671502431,0.099265602727731,1.6886862954194885e+18,92.8954883626302,-0.0577267656723657,-0.3134247759977976,0.1017090628544489,,,,,,,,,,,,1.688686295423846e+18,92.89984614257811,-3.506279850006103,43.81263885498047,-10.218719673156738,1.688686295423846e+18,92.89984614257811,-258.8522705078125,138.83843994140625,-142.94252014160156,1.6886862954238157e+18,92.89981583658852,-0.5901498198509216,0.7081735134124756,-0.2738822102546692,0.2742207447687784,2.739254872004191,1.403691252072652,-0.3965910573800404
2.95,1.6886862954757263e+18,92.9517264811198,-0.4762736161549886,0.0250031153361003,0.3377879460652669,1.6886862954670769e+18,92.94307690429687,-1.9142581621805828,-9.699705441792808,-0.2564308295647303,1.6886862954757263e+18,92.9517264811198,-1.5144187609354656,-9.672108968098955,-0.6265971064567566,1.688686295471402e+18,92.9474020996094,-0.0087557345007856,0.0801760653654734,-0.0845030241956313,1.688686295471402e+18,92.9474020996094,-0.0097738436112801,0.084655741850535,-0.0819577518850564,,,,,,,,,,,,1.6886862954738452e+18,92.94984516601562,-3.110999917984009,44.049319458007815,-10.308999824523926,1.6886862954738452e+18,92.94984516601562,-258.4570007324219,139.07511291503906,-143.03279724121094,1.6886862954757263e+18,92.9517264811198,-0.5892929832140604,0.7078419725100199,-0.2759468853473663,0.2748547395070393,2.7491992314656577,1.4029368162155151,-0.4107196927070617
3.0,1.6886862955276444e+18,93.0036446940104,0.1954136292139689,-0.0463158289591471,0.1895370185375213,1.6886862955189926e+18,92.99499283854168,-1.5846468210220337,-9.647462209065756,-0.341774841149648,1.6886862955276444e+18,93.0036446940104,-1.5879003604253132,-9.660610834757486,-0.6219155391057333,1.6886862955233196e+18,92.99931949869791,-0.0244346099595228,-0.1425861256817976,-0.1669698332746823,1.6886862955233196e+18,92.99931949869791,-0.0253509068861603,-0.1380555431048075,-0.1644754658142725,,,,,,,,,,,,1.6886862955238497e+18,92.99984946289064,-3.0670798778533936,44.03467864990235,-10.245559692382812,1.6886862955238497e+18,92.99984946289064,-258.4130798339844,139.06047668457032,-142.9693572998047,1.6886862955276444e+18,93.0036446940104,-0.5865766207377116,0.7099185585975647,-0.277390996615092,0.2738479375839233,2.7682027022043862,1.3960662682851157,-0.4306502044200897
3.05,1.6886862955795612e+18,93.05556119791667,0.3487128019332885,-0.0723460515340169,-0.1481225887934367,1.6886862955709002e+18,93.04690047200522,-1.168893814086914,-9.78405221303304,-0.6131607989470164,1.6886862955795612e+18,93.05556119791667,-1.5872612794240315,-9.661499659220375,-0.6094803810119629,1.6886862955752305e+18,93.0512306315104,-0.0642935670912265,-0.167835222557187,0.0981456798811753,1.6886862955752305e+18,93.0512306315104,-0.0652607704202333,-0.1633046362549066,0.1006909571588039,,,,,,,,,,,,1.6886862955738465e+18,93.04984667968748,-3.003639984130859,43.96391906738281,-10.333399772644045,1.6886862955738465e+18,93.04984667968748,-258.34962768554686,138.98971862792968,-143.05719604492188,1.6886862955795612e+18,93.05556119791667,-0.5850297411282858,0.7079498171806335,-0.2823266685009002,0.2771942317485809,2.774887959162394,1.3965894381205242,-0.4501074552536011
3.1,1.6886862956314693e+18,93.10746940104168,-0.257025678952535,0.083661397298177,-0.3067046205202738,1.688686295622817e+18,93.09881697591145,-1.7519449790318806,-9.603593826293944,-0.8887342015902201,1.6886862956314693e+18,93.10746940104168,-1.5262887875239055,-9.671544710795084,-0.6064318219820658,1.6886862956271473e+18,93.1031474609375,-0.0024943665290871,-0.0402661996583143,0.0672460831701755,1.6886862956271473e+18,93.1031474609375,-0.0035633806449671,-0.0357356161500016,0.0697404476037869,,,,,,,,,,,,1.6886862956238487e+18,93.09984887695312,-3.137839984893799,43.8833984375,-10.777479934692384,1.6886862956238487e+18,93.09984887695312,-258.48383178710935,138.90919799804686,-143.50127563476562,1.6886862956314693e+18,93.10746940104168,-0.5869422753651937,0.7056877414385477,-0.2824856440226237,0.2787564496199289,2.763358195622762,1.4025837580362956,-0.4410167634487152
3.15,1.688686295674735e+18,93.1507352294922,0.1851260066032409,-0.0485386848449706,0.1596657633781432,1.6886862956747292e+18,93.15072908528646,-1.3643076817194622,-9.725826899210611,-0.3970091591278711,1.688686295674735e+18,93.1507352294922,-1.5378320813179016,-9.66945457458496,-0.6105886697769165,1.6886862956790633e+18,93.15506355794273,0.0181732413669426,0.0898990033504863,-0.0549269678692022,1.6886862956790633e+18,93.15506355794273,0.0171551321012277,0.0944804897687087,-0.0524326004087924,,,,,,,,,,,,1.6886862956738486e+18,93.14984868164063,-3.025599956512451,43.65891876220703,-10.667679786682127,1.6886862956738486e+18,93.14984868164063,-258.3715881347656,138.684716796875,-143.3914764404297,1.688686295674735e+18,93.1507352294922,-0.5864001512527466,0.7060360312461853,-0.2826559245586395,0.278842881321907,2.763604760169983,1.4013172388076782,-0.4417070895433426
3.2,1.6886862957179963e+18,93.1939962565104,0.2612078189849853,-0.104445457458496,0.4139554997285207,1.688686295726649e+18,93.20264916992188,-1.3028919299443562,-9.778668721516928,-0.1493520140647888,1.6886862957179963e+18,93.1939962565104,-1.5492079655329387,-9.668084144592283,-0.6034625172615051,1.6886862957309747e+18,93.206974609375,-0.0270816919704278,0.0282016120230158,0.0526871268327037,1.6886862957309747e+18,93.206974609375,-0.0280488956874856,0.0327831010023752,0.0552323985223968,,,,,,,,,,,,1.6886862957238474e+18,93.19984750976565,-3.1768799304962156,43.746759033203126,-10.577400016784669,1.6886862957238474e+18,93.19984750976565,-258.52288208007815,138.7725616455078,-143.3011932373047,1.6886862957179963e+18,93.1939962565104,-0.5867380698521932,0.7069424986839294,-0.2814176678657532,0.2770824035008748,2.770103931427002,1.4004855155944824,-0.443598876396815
3.25,1.6886862957699113e+18,93.24591113281252,-0.0844569206237793,0.0809981028238932,0.0403134127457936,1.6886862957785592e+18,93.25455908203124,-1.6767704486846924,-9.593225161234535,-0.5274179776509603,1.6886862957699113e+18,93.24591113281252,-1.504440704981486,-9.676459312438965,-0.5819641550381979,1.6886862957742387e+18,93.25023889160155,-0.048945577815175,-0.0511599648743867,0.1081231497228145,1.6886862957742387e+18,93.25023889160155,-0.0499382335692643,-0.0465784762054681,0.1105666123330592,,,,,,,,,,,,1.688686295773846e+18,93.2498458496094,-3.3476799964904784,43.84435958862305,-10.589599800109864,1.688686295773846e+18,93.2498458496094,-258.6936767578125,138.87015686035156,-143.31339416503906,1.6886862957699113e+18,93.24591113281252,-0.5885447263717651,0.7051347692807516,-0.2819003363450368,0.2773652871449788,2.7724315325419107,1.4056012630462646,-0.4469242294629414
3.3,1.6886862958218253e+18,93.2978253580729,-0.1981757879257202,0.05573304494222,-0.0870734850565592,1.688686295830475e+18,93.30647509765625,-1.5934204657872515,-9.655438423156738,-0.5864409406979879,1.6886862958218253e+18,93.2978253580729,-1.4840418895085652,-9.680505752563477,-0.5670399069786072,1.688686295817497e+18,93.29349739583331,-0.0488183150688806,-0.1613193278511364,-0.0070249512791633,1.688686295817497e+18,93.29349739583331,-0.049734612305959,-0.1567378391822178,-0.0045814892898003,,,,,,,,,,,,1.6886862958238474e+18,93.29984736328126,-3.0451200008392334,43.89071960449219,-10.60911979675293,1.6886862958238474e+18,93.29984736328126,-258.39111328125,138.91651611328126,-143.33291931152343,1.6886862958218253e+18,93.2978253580729,-0.5885698994000753,0.7033448219299316,-0.2845118045806885,0.2791821161905924,2.776565710703532,1.4081250031789143,-0.4578198293844859
3.35,1.6886862958737326e+18,93.34973282877604,0.2585427363713581,-0.0312554041544596,0.0340707699457804,1.68868629587374e+18,93.34973999023438,-1.2053844332695007,-9.733105182647703,-0.4615156650543213,1.6886862958737326e+18,93.34973282877604,-1.4992846250534058,-9.678661982218424,-0.5583735505739847,1.688686295869414e+18,93.34541389973958,-0.0219911489790925,-0.0548760624757657,-0.0299323968744525,1.688686295869414e+18,93.34541389973958,-0.0230092575463155,-0.0502945710904896,-0.0274380306170011,,,,,,,,,,,,1.6886862958738476e+18,93.34984750976562,-3.0036399364471436,43.834599304199216,-10.826279830932616,1.6886862958738476e+18,93.34984750976562,-258.34962768554686,138.8603973388672,-143.55007629394532,1.6886862958737326e+18,93.34973282877604,-0.5872644782066345,0.702784518400828,-0.2872508664925893,0.2805373768011729,2.785026788711548,1.4069674809773762,-0.4726643562316894
3.4,1.6886862959256517e+18,93.40165144856768,0.0597925186157226,-0.0372673670450845,0.2931652466456095,1.688686295916998e+18,93.3929978027344,-1.3742777903874714,-9.740981419881184,-0.242073893547058,1.6886862959256517e+18,93.40165144856768,-1.4909632205963137,-9.680227597554524,-0.5534599423408508,1.6886862959213268e+18,93.39732682291668,-0.0015271630448599,0.0313068435837824,0.027743462473154,1.6886862959213268e+18,93.39732682291668,-0.0025452719952833,0.0358374280234177,0.030237829312682,1.68868629592322e+18,93.39921997070311,0.0,0.5262075662612915,0.9411537647247314,10.529999732971191,0.0257604606449604,0.0,40.20000076293945,-122.7531657,49.1902095,1.6886862959238487e+18,93.399848828125,-3.0597599506378175,43.88095932006836,-10.901919746398926,1.6886862959238487e+18,93.399848828125,-258.40576171875,138.9067596435547,-143.62572021484374,1.6886862959256517e+18,93.40165144856768,-0.5876997510592142,0.702525814374288,-0.287148376305898,0.2803788284460703,2.7860845724741616,1.407946268717448,-0.4732822974522908
3.45,1.6886862959775675e+18,93.45356770833332,-0.0336473782857259,0.0088408788045247,0.1986956000328064,1.6886862959689167e+18,93.44491666666666,-1.5098710854848223,-9.695916493733725,-0.24745774269104,1.6886862959775675e+18,93.45356770833332,-1.4804745117823284,-9.682467142740885,-0.5423402786254883,1.6886862959732398e+18,93.44923982747396,-0.0260635837912559,-0.0340048323074976,0.0159843070432543,1.6886862959732398e+18,93.44923982747396,-0.0270816925913095,-0.0294742481783032,0.0184786732619006,,,,,,,,,,,,1.6886862959738465e+18,93.44984658203124,-3.152479934692382,43.81019897460938,-10.928759574890137,1.6886862959738465e+18,93.44984658203124,-258.49847412109375,138.83599853515625,-143.65255737304688,1.6886862959775675e+18,93.45356770833332,-0.5881084402402242,0.7019084294637045,-0.2877284189065297,0.2804731925328572,2.7903725306193032,1.4093568722407024,-0.4785654246807098
3.5,1.6886862960294802e+18,93.50548014322916,0.1568649212519327,-0.0430402755737304,0.0969601869583129,1.688686296020826e+18,93.496826171875,-1.372483213742574,-9.72602653503418,-0.3571287790934244,1.6886862960294802e+18,93.50548014322916,-1.4697902997334795,-9.684823671976725,-0.5291393200556437,1.688686296025158e+18,93.5011580403646,-0.0358883328735828,-0.0709621782104173,0.0154752529536683,1.688686296025158e+18,93.5011580403646,-0.036906442294518,-0.0663806895414987,0.0180205249538023,,,,,,,,,,,,1.6886862960238454e+18,93.49984536132813,-3.137839984893799,43.75651931762695,-11.038559913635254,1.6886862960238454e+18,93.49984536132813,-258.48383178710935,138.78231811523438,-143.76235961914062,1.6886862960294802e+18,93.50548014322916,-0.5881355007489523,0.7008225719134012,-0.2894253830115,0.2813840011755625,2.795950174331665,1.4108570019404094,-0.4881344536940256
3.55,1.6886862960813937e+18,93.5573935546875,0.1143986781438191,0.0217275619506835,-0.0482649604479471,1.6886862960727416e+18,93.54874161783852,-1.2781660954157512,-9.711071332295736,-0.4953142801920573,1.6886862960813937e+18,93.5573935546875,-1.4542433420817058,-9.687776565551758,-0.5179121891657511,1.688686296077071e+18,93.55307112630209,-0.0068213286140235,0.0694859201709428,0.0383317942420641,1.688686296077071e+18,93.55307112630209,-0.0078903430063897,0.0740674088398615,0.0407752543687819,,,,,,,,,,,,1.6886862960738486e+18,93.5498486816406,-3.015839958190918,43.78579940795898,-10.657919883728027,1.6886862960738486e+18,93.5498486816406,-258.36183471679686,138.8115997314453,-143.38171997070313,1.6886862960813937e+18,93.5573935546875,-0.5889798800150553,0.7003068526585897,-0.2893065611521403,0.2810238401095072,2.79936949412028,1.412757396697998,-0.4907437960306803
3.6,1.6886862961246548e+18,93.60065478515624,-0.1730630993843078,0.0822939872741699,-0.1488665044307708,1.6886862961246515e+18,93.6006513671875,-1.569492260615031,-9.64267635345459,-0.5988038579622904,1.6886862961246548e+18,93.60065478515624,-1.4374696016311646,-9.690516471862791,-0.5135220885276794,1.6886862961289812e+18,93.60498128255207,-0.0116573452639082,0.0028507045547788,0.0335466830680767,1.6886862961289812e+18,93.60498128255207,-0.0126754542191822,0.0073812879466762,0.0360410499076047,,,,,,,,,,,,1.688686296123843e+18,93.59984311523438,-3.264719915390015,43.83947906494141,-10.967799949645997,1.688686296123843e+18,93.59984311523438,-258.6107116699219,138.8652770996094,-143.69159545898438,1.6886862961246548e+18,93.60065478515624,-0.589846670627594,0.6999325752258301,-0.2887331694364548,0.2807285040616989,2.798399567604065,1.4145419597625732,-0.4883641600608825
3.65,1.6886862961679217e+18,93.64392163085938,0.1297919352849324,-0.0090510050455729,-0.1244316697120666,1.6886862961765765e+18,93.65257641601562,-1.2638091246287029,-9.702896118164062,-0.5381856858730316,1.6886862961679217e+18,93.64392163085938,-1.4389286835988362,-9.690298080444336,-0.5135301748911539,1.6886862961808978e+18,93.65689778645832,0.0168496997406084,0.0669915551940599,-0.0383317936211823,1.6886862961808978e+18,93.65689778645832,0.0158315909405548,0.071573045104742,-0.0357865213106075,,,,,,,,,,,,1.6886862961738445e+18,93.64984443359376,-3.357439947128296,43.55887908935547,-10.982439994812012,1.6886862961738445e+18,93.64984443359376,-258.70343627929685,138.58468017578124,-143.70623474121095,1.6886862961679217e+18,93.64392163085938,-0.5898934801419576,0.7000784476598104,-0.2885069549083709,0.2804983953634898,2.798720677693685,1.4144014120101929,-0.4879825512568156
3.7,1.6886862962198351e+18,93.69583512369792,0.2746704816818237,-0.0414663950602213,0.011952002843221,1.6886862962284792e+18,93.70447941080728,-1.1649058262507122,-9.738788286844889,-0.4550351003805796,1.6886862962198351e+18,93.69583512369792,-1.4438271125157671,-9.689388275146484,-0.5169127980868021,1.6886862962241628e+18,93.70016271972656,0.0042760567739605,-0.0051923545252065,0.0403934642672538,1.6886862962241628e+18,93.70016271972656,0.0033597588480915,-0.0006108653033152,0.042836925946176,,,,,,,,,,,,1.688686296223847e+18,93.69984682617186,-3.5331199169158936,43.85167922973633,-10.8604398727417,1.688686296223847e+18,93.69984682617186,-258.8791076660156,138.87747802734376,-143.58423461914063,1.6886862962198351e+18,93.69583512369792,-0.5899457136789957,0.7005654176076254,-0.2877582708994547,0.2799414892991383,2.797706445058187,1.41380508740743,-0.4849650661150614
3.75,1.688686296271747e+18,93.74774739583334,-0.1543252070744832,0.0866975784301757,-0.1844277580579121,1.688686296280399e+18,93.75639925130208,-1.6105690399805703,-9.63430150349935,-0.6566304167111715,1.688686296271747e+18,93.74774739583334,-1.4226082960764568,-9.692527453104654,-0.51694389184316,1.688686296267421e+18,93.74342114257811,-0.002188933790118,0.0161370237668354,0.0338521152734755,1.688686296267421e+18,93.74342114257811,-0.0031052317547921,0.0207185127461949,0.0363973869631687,,,,,,,,,,,,1.6886862962738468e+18,93.74984667968752,-3.3964799880981444,43.800438690185544,-10.86531982421875,1.6886862962738468e+18,93.74984667968752,-258.7424682617187,138.82623596191405,-143.58911743164063,1.688686296271747e+18,93.74774739583334,-0.5907379786173502,0.6999460657437643,-0.2873859604199727,0.2802026569843292,2.7929691473642984,1.4158648252487185,-0.4799848198890686
3.8,1.6886862963236636e+18,93.79966357421876,0.1474576791127523,0.0554424921671549,-0.0202571153640747,1.6886862963236582e+18,93.799658203125,-1.2397812008857727,-9.639486312866213,-0.4612165689468384,1.6886862963236636e+18,93.79966357421876,-1.4382494688034058,-9.689985911051432,-0.5211942195892334,1.6886862963193388e+18,93.7953389485677,0.0056505034056801,-0.0240782716621954,-0.0604756598671277,1.6886862963193388e+18,93.7953389485677,0.004632394760847,-0.0194967822171747,-0.0579303887983162,,,,,,,,,,,,1.6886862963238472e+18,93.79984711914062,-3.245199918746948,43.71991958618164,-10.977559661865234,1.6886862963238472e+18,93.79984711914062,-258.5911926269531,138.74571838378907,-143.70135498046875,1.6886862963236636e+18,93.79966357421876,-0.5899666746457418,0.7003353039423624,-0.2878229121367137,0.2804060777028401,2.7938547929128013,1.414199908574422,-0.4819201827049255
3.85,1.6886862963755717e+18,93.85157145182292,-0.0042081673940022,-0.0462843577067056,0.0210260053475698,1.6886862963669248e+18,93.8429246419271,-1.394417405128479,-9.73998483022054,-0.4275176425774892,1.6886862963755717e+18,93.85157145182292,-1.446703354517619,-9.688558578491213,-0.5243915915489197,1.688686296371248e+18,93.8472479654948,0.0122173049797613,0.0341575474788744,0.0070249502702305,1.688686296371248e+18,93.8472479654948,0.0112501013403136,0.0386881319185097,0.0095193165664871,,,,,,,,,,,,1.6886862963738473e+18,93.84984716796876,-3.333039951324463,43.878519439697264,-10.75551986694336,1.6886862963738473e+18,93.84984716796876,-258.6790283203125,138.90431518554686,-143.47931823730468,1.6886862963755717e+18,93.85157145182292,-0.5896376371383667,0.7006648381551107,-0.2877709666887919,0.2803286711374918,2.7937782605489097,1.4132655064264934,-0.4816753566265106
3.9,1.68868629642749e+18,93.9034900716146,0.072132666905721,-0.0358689626057942,0.0760202507177988,1.6886862964188406e+18,93.89484065755208,-1.4297115008036296,-9.730612754821776,-0.3894318838914235,1.68868629642749e+18,93.9034900716146,-1.458238522211711,-9.686810493469238,-0.52474973599116,1.6886862964231672e+18,93.89916707356772,-0.0045814892703977,-0.023671028514703,-0.0364482936759789,1.6886862964231672e+18,93.89916707356772,-0.0055486925411968,-0.0190895384488005,-0.0339030213654041,,,,,,,,,,,,1.6886862964238487e+18,93.899848828125,-3.110999917984009,43.695518493652344,-10.787239837646483,1.6886862964238487e+18,93.899848828125,-258.4570007324219,138.7213165283203,-143.51103820800782,1.68868629642749e+18,93.9034900716146,-0.5891151825586954,0.7009183764457703,-0.2881748676300049,0.2803781727949778,2.796096086502075,1.412132700284322,-0.484735647837321
3.95,1.6886862964794038e+18,93.95540364583331,0.1480764547983805,0.0176687240600586,0.1332210699717203,1.6886862964707546e+18,93.94675447591146,-1.273779273033142,-9.7022975285848,-0.3593222002188365,1.6886862964794038e+18,93.95540364583331,-1.4582102298736572,-9.686708768208822,-0.5267162322998047,1.6886862964750794e+18,93.95107934570314,0.023721933364868,0.102574457724889,0.0121154938824474,1.6886862964750794e+18,93.95107934570314,0.0227038248752553,0.1071050390601157,0.0146607660378018,,,,,,,,,,,,1.6886862964738455e+18,93.9498455078125,-3.3940399169921873,43.69795913696289,-10.955599784851074,1.6886862964738455e+18,93.9498455078125,-258.7400390625,138.7237579345703,-143.67939453125,1.6886862964794038e+18,93.95540364583331,-0.5894448757171631,0.7013159592946371,-0.2872049709161122,0.2796841164429982,2.7948907216389975,1.4120627244313555,-0.4809539119402568
4.0,1.6886862965313134e+18,94.00731323242188,-0.192861239115397,-0.0079828898111978,0.1277507940928141,1.688686296522668e+18,93.99866813151044,-1.6163516839345295,-9.712865511576334,-0.3282154997189839,1.6886862965313134e+18,94.00731323242188,-1.4562557538350422,-9.68717892964681,-0.523439367612203,1.6886862965269957e+18,94.00299584960938,0.0039706240252901,0.0793615778287251,0.0109955745283513,1.6886862965269957e+18,94.00299584960938,0.0029525154580672,0.0839430664976437,0.0135408466060955,,,,,,,,,,,,1.6886862965238472e+18,93.99984716796877,-3.6526798725128176,43.74431991577149,-10.975119972229004,1.6886862965238472e+18,93.99984716796877,-258.99867553710936,138.7701171875,-143.69891662597655,1.6886862965313134e+18,94.00731323242188,-0.5902904669443766,0.7019561926523844,-0.2854639689127604,0.2780735691388448,2.796452363332113,1.4123664299647014,-0.4773147106170654
4.05,1.6886862965745843e+18,94.05058435058594,0.0520789623260498,-0.0170063972473144,0.2580751180648803,1.688686296574582e+18,94.05058219401042,-1.4241282939910889,-9.717253049214682,-0.2231307079394658,1.6886862965745843e+18,94.05058435058594,-1.4699894785881042,-9.685433387756348,-0.5172730982303619,1.6886862965789082e+18,94.0549082845052,-0.0116573452639082,0.0035633804897467,-0.0512108703454335,1.6886862965789082e+18,94.0549082845052,-0.0126754537535209,0.0081448696243266,-0.0487165028850236,,,,,,,,,,,,1.688686296573846e+18,94.04984614257812,-3.555079984664917,43.74919891357422,-10.809199714660645,1.688686296573846e+18,94.04984614257812,-258.90107421875,138.77499389648438,-143.53299560546876,1.6886862965745843e+18,94.05058435058594,-0.5899446606636047,0.702349841594696,-0.2857225984334945,0.2775474637746811,2.803147315979004,1.411242425441742,-0.4836346954107284
4.1,1.6886862966178445e+18,94.09384448242186,0.3347235520680745,-0.0858701070149739,0.2196235954761505,1.6886862966264975e+18,94.10249763997396,-1.1112667322158811,-9.814361254374186,-0.1756730594982703,1.6886862966178445e+18,94.09384448242186,-1.4773597319920857,-9.68466567993164,-0.5106261769930521,1.688686296630823e+18,94.10682283528644,0.0328340074047445,0.2640465001265208,0.0343611696735024,1.688686296630823e+18,94.10682283528644,0.0317649928232033,0.2686279912789662,0.0368555362025896,,,,,,,,,,,,1.6886862966238454e+18,94.09984550781247,-3.2891198635101317,43.86143951416015,-10.738439750671386,1.6886862966238454e+18,94.09984550781247,-258.63511352539064,138.88723754882812,-143.4622375488281,1.6886862966178445e+18,94.09384448242186,-0.5902761022249857,0.702998697757721,-0.2847837706406911,0.2761576771736145,2.808718204498291,1.4107461373011272,-0.4856214225292206
4.15,1.6886862966697526e+18,94.14575252278644,0.1706546545028686,-0.169713020324707,0.611392060915629,1.688686296678406e+18,94.15440592447918,-1.3367902437845869,-9.858628908793133,0.1615155264735221,1.6886862966697526e+18,94.14575252278644,-1.4588542381922405,-9.68796157836914,-0.5011980136235555,1.688686296674089e+18,94.15008898925782,0.0580321978777646,0.4933500438928604,0.0728456787765026,1.688686296674089e+18,94.15008898925782,0.0570395421236753,0.4979315400123596,0.0752891413867473,,,,,,,,,,,,1.6886862966738463e+18,94.14984658203124,-3.6795199394226072,44.063958740234376,-10.621319770812988,1.6886862966738463e+18,94.14984658203124,-259.0255187988281,139.08975219726562,-143.3451171875,1.6886862966697526e+18,94.14575252278644,-0.5936765074729919,0.7049752871195475,-0.2781624396642049,0.270502080519994,2.8105578422546387,1.412859598795573,-0.4684472282727559
4.2,1.6886862967216694e+18,94.19766943359376,-0.0806692441304524,0.0283241271972656,0.245739201704661,1.6886862967303212e+18,94.2063212890625,-1.5274184942245483,-9.676973660786947,-0.2490529616673787,1.6886862967216694e+18,94.19766943359376,-1.419693907101949,-9.694572766621908,-0.4854955077171325,1.6886862967173486e+18,94.1933485514323,0.0580831033488114,0.5570072929064432,0.113671839237213,1.6886862967173486e+18,94.1933485514323,0.0570649951696395,0.5615887840588888,0.1161662091811497,,,,,,,,,,,,1.68868629672385e+18,94.19985004882813,-4.321239948272705,43.668679809570314,-10.118679809570311,1.68868629672385e+18,94.19985004882813,-259.667236328125,138.69447631835936,-142.84248046875,1.6886862967216694e+18,94.19766943359376,-0.5990416010220846,0.7073715527852377,-0.2683181365331014,0.2622280816237132,2.8119606177012124,1.417201240857442,-0.441891610622406
4.25,1.688686296773582e+18,94.24958219401042,-0.2249748309453328,0.0322113037109374,-0.0795694490273793,1.6886862967735887e+18,94.2495887451172,-1.6450655460357666,-9.693324565887451,-0.4926223456859588,1.688686296773582e+18,94.24958219401042,-1.4000145196914673,-9.697861671447754,-0.477036436398824,1.6886862967692564e+18,94.24525634765624,0.0721839095155397,0.5465207695960999,0.0514653958380222,1.6886862967692564e+18,94.24525634765624,0.0712167061865329,0.5511022607485453,0.0539088584482669,,,,,,,,,,,,1.6886862967738524e+18,94.24985244140623,-4.750679969787598,43.69063949584961,-10.113799858093262,1.6886862967738524e+18,94.24985244140623,-260.0966796875,138.71643981933593,-142.83759460449218,1.688686296773582e+18,94.24958219401042,-0.603610614935557,0.7104589343070984,-0.2580960988998413,0.2535230020682016,2.813079039255778,1.4194060564041138,-0.4140515426794688
4.3,1.688686296825505e+18,94.3015048828125,0.0914545059204101,0.0810445149739583,-0.1284263233343759,1.6886862968168486e+18,94.2928485514323,-1.369093378384908,-9.616355578104654,-0.5720840096473694,1.688686296825505e+18,94.3015048828125,-1.409165581067403,-9.696046829223633,-0.4868037203947703,1.6886862968211735e+18,94.29717350260417,0.1046615789333978,0.549218753973643,-0.0095193170321484,1.6886862968211735e+18,94.29717350260417,0.1035925621787706,0.5537493427594503,-0.0070249503478407,,,,,,,,,,,,1.6886862968238487e+18,94.29984873046874,-5.038599872589112,43.866320037841795,-9.476959609985352,1.6886862968238487e+18,94.29984873046874,-260.3845947265625,138.89211730957032,-142.2007598876953,1.688686296825505e+18,94.3015048828125,-0.6066974600156149,0.7144692341486613,-0.2477162381013234,0.2450975279013315,2.8088834285736084,1.41818900903066,-0.3813474178314209
4.35,1.6886862968774157e+18,94.35341593424478,0.0885372956593831,-0.0390354792277018,0.0033618807792663,1.6886862968687634e+18,94.34476334635416,-1.2524432738622029,-9.762516975402832,-0.4442674120267232,1.6886862968774157e+18,94.35341593424478,-1.4010638793309529,-9.696405410766602,-0.502739429473877,1.688686296873088e+18,94.349087890625,0.1411607787013053,0.7452046871185303,0.0904080557326475,1.688686296873088e+18,94.349087890625,0.1401426667968432,0.7497861981391907,0.0929024231930573,,,,,,,,,,,,1.6886862968738463e+18,94.3498466308594,-5.404599857330322,43.79555892944336,-9.086559867858886,1.6886862968738463e+18,94.3498466308594,-260.75059814453124,138.82135925292968,-141.81036071777345,1.6886862968774157e+18,94.35341593424478,-0.6109651923179626,0.7185942729314169,-0.2345843017101287,0.2351200679937998,2.7969630559285483,1.4184281428654988,-0.3345553477605184
4.4,1.6886862969293268e+18,94.40532674153646,-0.321039080619812,0.0466101964314778,-0.1268798112869262,1.688686296920678e+18,94.39667805989582,-1.6634105443954468,-9.682756423950195,-0.5371886889139811,1.6886862969293268e+18,94.40532674153646,-1.3783271710077922,-9.69870122273763,-0.5210521221160889,1.6886862969250058e+18,94.40100569661458,0.1343394468228021,0.6978117227554321,0.0662788785994052,1.6886862969250058e+18,94.40100569661458,0.1332704350352287,0.7023932337760925,0.0688241496682166,1.688686296923225e+18,94.39922509765626,0.0,0.4648849964141845,0.950739324092865,10.56700038909912,0.0252652745693922,0.0,40.20000076293945,-122.7531655,49.1902097,1.6886862969238497e+18,94.39984970703128,-6.082919883728027,43.75407943725586,-8.478999710083007,1.6886862969238497e+18,94.39984970703128,-261.4289184570313,138.77987976074218,-141.20279541015626,1.6886862969293268e+18,94.40532674153646,-0.6161027749379476,0.7225502332051595,-0.2194888740777969,0.2239225407441456,2.780107657114665,1.4199782609939575,-0.2782402833302815
4.45,1.6886862969812416e+18,94.45724153645834,0.0358813206354777,-0.0096524556477864,-0.0257639090220133,1.688686296972593e+18,94.44859277343753,-1.4418750206629436,-9.703893025716146,-0.5714858074982961,1.6886862969812416e+18,94.45724153645834,-1.3819074233373003,-9.696476618448893,-0.5519785682360331,1.6886862969769216e+18,94.45292171223956,0.1491020272175471,0.5460626284281412,0.0119627779349684,1.6886862969769216e+18,94.45292171223956,0.1480839202801386,0.5506440997123718,0.0145080496246616,,,,,,,,,,,,1.6886862969738432e+18,94.44984316406251,-7.08819990158081,43.87363891601562,-7.842159843444824,1.6886862969738432e+18,94.44984316406251,-262.43419189453124,138.89944152832032,-140.56595764160156,1.6886862969812416e+18,94.45724153645834,-0.6189011136690775,0.7261904080708822,-0.2075686007738113,0.215656355023384,2.761563539505005,1.4184823036193848,-0.2296443432569503
4.5,1.688686297024506e+18,94.50050610351562,0.3220322132110595,-0.0928974151611327,0.204940989613533,1.688686297024506e+18,94.50050577799476,-1.0807582139968872,-9.800602595011393,-0.3172484040260314,1.688686297024506e+18,94.50050610351562,-1.3926843404769895,-9.693291187286375,-0.5801908671855927,1.688686297028829e+18,94.50482869466146,0.1797980020443598,0.8141815463701884,0.0438295819767517,1.688686297028829e+18,94.50482869466146,0.1788307974735895,0.8186612526575724,0.0463748537780095,,,,,,,,,,,,1.688686297023846e+18,94.49984619140623,-7.239479732513428,43.93951950073242,-6.792959785461425,1.688686297023846e+18,94.49984619140623,-262.5854736328125,138.96531677246094,-139.51675720214843,1.688686297024506e+18,94.50050610351562,-0.6213059425354004,0.7298060059547424,-0.1958934292197227,0.2073023840785026,2.746829032897949,1.416351497173309,-0.1852453127503394
4.55,1.688686297067769e+18,94.54376936848958,0.1030351320902506,-0.0474494298299153,0.1992515623569488,1.6886862970764173e+18,94.5524170735677,-1.3326027790705364,-9.751749038696287,-0.3503491183121999,1.688686297067769e+18,94.54376936848958,-1.3712944984436035,-9.69497044881185,-0.6025174061457316,1.6886862970807478e+18,94.55674772135416,0.1801034361124038,0.8808167775472006,0.1656462947527567,1.6886862970807478e+18,94.55674772135416,0.1791362315416335,0.885398288567861,0.1682424694299697,,,,,,,,,,,,1.6886862970738478e+18,94.54984775390623,-7.493239879608154,43.82971954345703,-6.590439796447754,1.6886862970738478e+18,94.54984775390623,-262.8392395019531,138.8555145263672,-139.31423950195312,1.688686297067769e+18,94.54376936848958,-0.6258147358894348,0.7330035169919332,-0.1805295646190643,0.1960319330294926,2.72753898302714,1.417466441790263,-0.1266267175475756
4.6,1.6886862971196836e+18,94.59568367513022,-0.1944141387939452,-0.039783477783203,0.2834437588850656,1.68868629712833e+18,94.604330078125,-1.4953147172927856,-9.753743171691896,-0.2460619310537974,1.6886862971196836e+18,94.59568367513022,-1.3049520254135132,-9.702437082926432,-0.6288830637931824,1.6886862971240102e+18,94.60001025390623,0.177532710134983,0.8799513876438141,0.2036471962928771,1.6886862971240102e+18,94.60001025390623,0.1765400618314742,0.8845328688621521,0.2060906589031219,,,,,,,,,,,,1.6886862971238446e+18,94.59984453125,-8.349679851531983,43.91999893188476,-5.304559898376465,1.6886862971238446e+18,94.59984453125,-263.6956787109375,138.9457977294922,-138.02835693359376,1.6886862971196836e+18,94.59568367513022,-0.6324073672294617,0.735005776087443,-0.1620828956365585,0.1830695221821467,2.692411581675211,1.4225401878356934,-0.0453156574318805
4.65,1.6886862971716e+18,94.64760001627604,-0.3090945879618327,0.0523373285929361,0.3424507975578308,1.688686297180249e+18,94.65624943033856,-1.583450396855672,-9.648060162862144,-0.2779662311077118,1.6886862971716e+18,94.64760001627604,-1.2624550660451253,-9.706821123758951,-0.648009717464447,1.6886862971672742e+18,94.64327425130207,0.163355549176534,0.9551896254221598,0.1240565528472264,1.6886862971672742e+18,94.64327425130207,0.1623883446057637,0.9597710967063904,0.1266527275244394,,,,,,,,,,,,1.6886862971738445e+18,94.64984448242188,-9.476959609985352,43.62231903076171,-4.61403980255127,1.6886862971738445e+18,94.64984448242188,-264.8229553222656,138.6481170654297,-137.33783569335938,1.6886862971716e+18,94.64760001627604,-0.63814244667689,0.7374935944875082,-0.142964685956637,0.1684951980908711,2.667377154032389,1.4255913496017456,0.0289004421792924
4.7,1.6886862972235108e+18,94.6995109049479,-0.1532805363337198,0.0330050786336262,0.1170094509919483,1.688686297223511e+18,94.69951098632812,-1.392024576663971,-9.713065147399902,-0.4914259314537048,1.6886862972235108e+18,94.6995109049479,-1.240801453590393,-9.708625475565592,-0.6626482208569845,1.6886862972191864e+18,94.69518644205728,0.1351030344764391,0.8102618455886841,0.0984511151909827,1.6886862972191864e+18,94.69518644205728,0.1340849250555038,0.8148433367411295,0.1009963875015576,,,,,,,,,,,,1.6886862972238464e+18,94.69984658203124,-9.61847972869873,43.71747817993164,-3.8137198448181153,1.6886862972238464e+18,94.69984658203124,-264.9644714355469,138.74327697753907,-136.53751525878906,1.6886862972235108e+18,94.6995109049479,-0.6425618131955465,0.7399685184160868,-0.1252502252658207,0.1544109930594761,2.651108662287394,1.4268721739451091,0.0913064281145731
4.75,1.688686297275422e+18,94.751421875,0.0895429054896036,0.0001525878906249,0.095176080862681,1.6886862972667712e+18,94.7427714029948,-1.1202398141225178,-9.711270650227863,-0.5232305427392324,1.688686297275422e+18,94.751421875,-1.2126377423604329,-9.711466153462728,-0.6729185581207275,1.6886862972710986e+18,94.7470988769531,0.1258891448378562,0.8479827642440796,0.139837235212326,1.6886862972710986e+18,94.7470988769531,0.1248201330502827,0.852564255396525,0.1423316001892089,,,,,,,,,,,,1.6886862972738442e+18,94.74984438476562,-9.894199752807618,43.56619873046875,-3.108559989929199,1.6886862972738442e+18,94.74984438476562,-265.2401916503906,138.5919982910156,-135.8323547363281,1.688686297275422e+18,94.751421875,-0.6466436982154846,0.741539458433787,-0.1091741000612576,0.1414540211359659,2.6349756717681885,1.428910533587138,0.1493768940369287
4.8,1.6886862973273362e+18,94.80333626302082,-0.0514190991719563,-0.031085968017578,0.1351727644602457,1.6886862973186908e+18,94.79469083658854,-1.1740783055623372,-9.794620513916016,-0.4793621400992076,1.6886862973273362e+18,94.80333626302082,-1.1622041463851929,-9.717116673787435,-0.6804127295811971,1.688686297323014e+18,94.79901432291666,0.1395318061113357,1.0110328793525696,0.1553633958101272,1.688686297323014e+18,94.79901432291666,0.1385136942068735,1.0156143705050151,0.1579086631536483,,,,,,,,,,,,1.688686297323847e+18,94.79984672851565,-10.428559684753418,43.55399856567383,-2.1667199611663817,1.688686297323847e+18,94.79984672851565,-265.77455444335936,138.57979736328124,-134.89051818847656,1.6886862973273362e+18,94.80333626302082,-0.6519559224446615,0.7424513101577759,-0.0893919443090756,0.1252053081989288,2.6119934717814126,1.4330404202143352,0.2241982618967691
4.85,1.688686297379254e+18,94.85525390624998,-0.1450819571812946,0.0016606648763021,0.1041750907897948,1.6886862973706028e+18,94.84660270182292,-1.2797613143920898,-9.710872014363607,-0.5128616491953532,1.688686297379254e+18,94.85525390624998,-1.1148025194803874,-9.722146352132162,-0.6877002318700155,1.6886862973749317e+18,94.85093180338542,0.125940054655075,0.950251797835032,0.1820887525876362,1.6886862973749317e+18,94.85093180338542,0.1249219402670859,0.9548332889874775,0.1845831175645191,,,,,,,,,,,,1.6886862973738468e+18,94.84984672851564,-10.914119911193849,43.32951889038086,-1.2980799913406371,1.6886862973738468e+18,94.84984672851564,-266.26011352539064,138.35531616210938,-134.021875,1.688686297379254e+18,94.85525390624998,-0.6567022204399109,0.7429120739301046,-0.069953791797161,0.1090118413170178,2.588874419530233,1.4368343750635784,0.2983629504839579
4.9,1.688686297431165e+18,94.90716455078126,-0.095880111058553,0.0228322347005208,0.0675040086110432,1.6886862974225183e+18,94.89851814778643,-1.1633106470108032,-9.725428263346354,-0.5523432493209839,1.688686297431165e+18,94.90716455078126,-1.0637052456537883,-9.727365811665852,-0.6948975523312887,1.6886862974268357e+18,94.9028359375,0.119475059211254,0.9431759516398112,0.1580104778210321,1.6886862974268357e+18,94.9028359375,0.1184569547573724,0.9477574229240416,0.1605048427979151,,,,,,,,,,,,1.688686297423843e+18,94.89984311523438,-11.631479835510254,43.27095947265625,-0.4855599910020828,1.688686297423843e+18,94.89984311523438,-266.97747192382815,138.2967559814453,-133.20935668945313,1.688686297431165e+18,94.90716455078126,-0.6611078182856241,0.7426941196123759,-0.0511126841108003,0.0931823775172233,2.5629916985829673,1.44087815284729,0.373743196328481
4.95,1.6886862974744305e+18,94.95043029785155,-0.0932851433753967,0.0498495101928711,-0.1557135283946991,1.6886862974744302e+18,94.95043041992189,-1.1433704296747844,-9.688738187154136,-0.7946165005366007,1.6886862974744305e+18,94.95043029785155,-1.038383960723877,-9.729856967926024,-0.6983999609947205,1.6886862974787592e+18,94.95475895182292,0.0979420592387516,0.881274938583374,0.0946841115752855,1.6886862974787592e+18,94.95475895182292,0.09692395478487,0.8858564098676046,0.0971784790356953,,,,,,,,,,,,1.6886862974738473e+18,94.94984721679688,-11.707119750976563,43.000118255615234,0.1024799957871437,1.6886862974738473e+18,94.94984721679688,-267.05311279296876,138.02591552734376,-132.6213165283203,1.6886862974744305e+18,94.95043029785155,-0.6638360321521759,0.7427379488945007,-0.0356945525854825,0.0798298083245753,2.549632430076599,1.4428530931472778,0.4280651658773422
5.0,1.6886862975176922e+18,94.99369205729168,-0.1439740856488545,0.059149424235026,-0.4914315541585286,1.6886862975263416e+18,95.0023416341146,-1.0939187407493591,-9.730812390645346,-1.185843030611674,1.6886862975176922e+18,94.99369205729168,-1.0327598253885906,-9.729784965515137,-0.7076472043991089,1.688686297530672e+18,95.0066716308594,0.0955495039621988,0.5827654401461283,0.058846687277158,1.688686297530672e+18,95.0066716308594,0.0945823043584823,0.5873469511667887,0.0613410497705141,,,,,,,,,,,,1.6886862975238484e+18,94.99984829101562,-11.94867992401123,42.80491943359375,1.051639986038208,1.6886862975238484e+18,94.99984829101562,-267.2946716308594,137.83072204589843,-131.67215881347656,1.6886862975176922e+18,94.99369205729168,-0.6652311285336813,0.7430364688237509,-0.0232175216078757,0.0693270588914553,2.540999492009481,1.4427996476491292,0.4693524340788523
5.05,1.6886862975696064e+18,95.0456062825521,0.376570463180542,-0.0246426264444986,-0.477137804031372,1.6886862975782607e+18,95.05426090494792,-0.653439978758494,-9.723035176595053,-1.0887343088785808,1.6886862975696064e+18,95.0456062825521,-1.023892362912496,-9.728545188903809,-0.7368961175282797,1.688686297573934e+18,95.04993395996094,0.1422552466392516,0.6996697783470154,0.0737619772553443,1.688686297573934e+18,95.04993395996094,0.1411862261593341,0.7042512595653534,0.0762817971408366,,,,,,,,,,,,1.6886862975738486e+18,95.04984868164064,-12.300039672851565,42.63411865234375,1.7519199848175049,1.6886862975738486e+18,95.04984868164064,-267.6460388183594,137.65992126464843,-130.9718780517578,1.6886862975696064e+18,95.0456062825521,-0.6664814949035645,0.7430185874303182,-0.0104495276076098,0.0599196640153725,2.517931858698527,1.4418129126230876,0.5238943696022034
5.1,1.6886862976215204e+18,95.0975205891927,-0.0726635257403055,0.1321630477905273,-0.0552859107653299,1.688686297630169e+18,95.10616902669273,-1.1152547399202983,-9.634899775187174,-0.7525427341461182,1.6886862976215204e+18,95.0975205891927,-0.9654860496520996,-9.730216026306152,-0.7912503083546957,1.6886862976171963e+18,95.0931962076823,0.2115630010763804,0.9834930300712584,0.2376774847507476,1.6886862976171963e+18,95.0931962076823,0.2104939818382263,0.988074541091919,0.240171859661738,,,,,,,,,,,,1.688686297623847e+18,95.09984692382812,-12.714839744567872,42.54383926391601,3.1280799388885496,1.688686297623847e+18,95.09984692382812,-268.06083984375,137.56964111328125,-129.59571838378906,1.6886862976215204e+18,95.0975205891927,-0.6697897513707479,0.74101855357488,0.0090819611214101,0.0461996582647164,2.4550863107045493,1.44314702351888,0.6338993708292643
5.15,1.6886862976734351e+18,95.14943505859377,-0.5023571054140726,0.0753876368204752,0.0695665876070658,1.688686297673435e+18,95.14943493652342,-1.4273187518119812,-9.690333366394045,-0.6999006271362305,1.6886862976734351e+18,95.14943505859377,-0.9102692405382792,-9.732264518737791,-0.8309582074483236,1.68868629766911e+18,95.14511002604168,0.1319468940297762,0.7628688812255859,0.1407535324494044,1.68868629766911e+18,95.14511002604168,0.1309287846088409,0.7674503723780314,0.1432478999098141,,,,,,,,,,,,1.688686297673849e+18,95.14984936523436,-13.15159969329834,42.31692047119141,3.847879934310913,1.688686297673849e+18,95.14984936523436,-268.4975891113281,137.34271545410155,-128.87591857910155,1.6886862976734351e+18,95.14943505859377,-0.6727184454600016,0.7386660774548849,0.0277037229388951,0.0321019329130649,2.4018846352895102,1.444801648457845,0.7334757844607035
5.2,1.6886862977253448e+18,95.20134464518227,-0.2537522117296854,0.1121505101521809,0.0429642399152119,1.688686297716697e+18,95.19269702148438,-1.227318604787191,-9.594820022583008,-0.7178467909495035,1.6886862977253448e+18,95.20134464518227,-0.89606245358785,-9.732735633850098,-0.8408463795979818,1.6886862977210248e+18,95.19702482096352,0.0426587555557489,0.4136575758457184,0.0708603685100873,1.6886862977210248e+18,95.19702482096352,0.0416406467556952,0.4181881546974182,0.0734056383371353,,,,,,,,,,,,1.6886862977238482e+18,95.1998482421875,-13.290679550170898,42.11927871704101,4.504240036010742,1.6886862977238482e+18,95.1998482421875,-268.6366760253906,137.14507751464845,-128.2195556640625,1.6886862977253448e+18,95.20134464518227,-0.6736143430074056,0.7377346952756246,0.0377606451511382,0.0236106769492227,2.3881086508433023,1.4451908667882285,0.7735357284545898
5.25,1.6886862977772644e+18,95.25326432291666,0.1379193862279256,-0.0252285003662109,-0.12801855802536,1.6886862977686075e+18,95.244607421875,-0.7667002479235331,-9.780064264933268,-0.8807581265767416,1.6886862977772644e+18,95.25326432291666,-0.904084821542104,-9.732545534769692,-0.8343701759974161,1.6886862977729385e+18,95.24893872070312,0.0325285742680231,0.5362378656864166,-0.0115046283851067,1.6886862977729385e+18,95.24893872070312,0.0314595599969227,0.5408193667729696,-0.0090611676375071,,,,,,,,,,,,1.6886862977738465e+18,95.249846484375,-12.82707977294922,42.153439331054685,4.840959930419922,1.6886862977738465e+18,95.249846484375,-268.17307739257814,137.17923889160156,-127.88283996582032,1.6886862977772644e+18,95.25326432291666,-0.6735525925954183,0.7375017603238424,0.0466222614049911,0.0150836563358703,2.396374225616455,1.445038477579753,0.7899143695831299
5.3,1.688686297829181e+18,95.30518090820313,0.0216033260027567,-0.0627581278483072,-0.0655254920323689,1.6886862978205256e+18,95.29652555338542,-0.8907282551129659,-9.808379491170248,-0.871785044670105,1.688686297829181e+18,95.30518090820313,-0.921567420164744,-9.73011080423991,-0.8436229030291239,1.6886862978248468e+18,95.30084684244792,0.0987565492590267,0.6458881696065267,0.0648535257981468,1.6886862978248468e+18,95.30084684244792,0.0978402520219484,0.650418778260549,0.0672969878651201,,,,,,,,,,,,1.6886862978238438e+18,95.29984379882812,-12.939319801330566,42.0411994934082,5.443639850616455,1.6886862978238438e+18,95.29984379882812,-268.2853149414062,137.06699829101564,-127.28015747070312,1.688686297829181e+18,95.30518090820313,-0.6730454365412394,0.7372086842854818,0.0590946140388647,0.0043687324505299,2.400467872619629,1.4430720408757527,0.8186977903048197
5.35,1.688686297881094e+18,95.35709391276042,-0.1596925457318623,0.0191844304402668,0.1783810456593831,1.6886862978724396e+18,95.34843969726562,-1.009771168231964,-9.74417209625244,-0.6630112727483114,1.688686297881094e+18,95.35709391276042,-0.88164750734965,-9.731694221496582,-0.8675891757011414,1.6886862978767667e+18,95.35276684570312,0.1009963875015576,0.5961535771687826,0.154039849837621,1.6886862978767667e+18,95.35276684570312,0.1000291829307873,0.600735068321228,0.1565342197815577,,,,,,,,,,,,1.6886862978738473e+18,95.349847265625,-12.927119636535645,41.882599639892575,6.265919780731201,1.6886862978738473e+18,95.349847265625,-268.2731201171875,136.9083984375,-126.45787658691408,1.688686297881094e+18,95.35709391276042,0.6745452284812927,-0.7346842885017395,-0.0719365005691845,0.0058673958604534,2.364314874013265,1.4443499247233074,0.887586752573649
5.4,1.6886862979243535e+18,95.4003536376953,-0.1797790229320526,0.0356388092041015,0.3088481426239013,1.6886862979243492e+18,95.4003495279948,-1.023330489794413,-9.72602685292562,-0.5082754194736481,1.6886862979243535e+18,95.4003536376953,-0.8406238257884979,-9.73448944091797,-0.8770193159580231,1.6886862979286735e+18,95.4046737467448,0.0558432651062806,0.574722409248352,0.1267036373416582,1.6886862979286735e+18,95.4046737467448,0.0548251544435818,0.5793038606643677,0.1291470925013223,1.68868629792322e+18,95.39921997070311,0.0,0.4217528104782104,0.961112916469574,10.56700038909912,0.0202712006866931,0.0,40.20000076293945,-122.7531654,49.1902098,1.6886862979238492e+18,95.39984921875,-13.498079681396485,41.68495864868164,6.844199848175049,1.6886862979238492e+18,95.39984921875,-268.8440734863281,136.71075744628905,-125.87959899902344,1.6886862979243535e+18,95.4003536376953,0.6759759485721588,-0.7322750389575958,-0.0813914723694324,0.0140952011570333,2.335130453109741,1.4466310739517212,0.9418657124042512
5.45,1.6886862979676155e+18,95.44361572265623,-0.2213133374849955,0.0166902542114257,0.2981089750925699,1.6886862979762657e+18,95.452265625,-1.0199406544367473,-9.732207616170248,-0.5162514845530192,1.6886862979676155e+18,95.44361572265623,-0.8252111474672953,-9.73637866973877,-0.8706670006116232,1.688686297980596e+18,95.45659578450518,0.0427096622685591,0.6148867805798849,0.0841975932319958,1.688686297980596e+18,95.45659578450518,0.0417933637897173,0.6194682518641154,0.0866410533587137,,,,,,,,,,,,1.688686297973849e+18,95.44984907226562,-12.834399795532226,41.46779937744141,7.32731990814209,1.688686297973849e+18,95.44984907226562,-268.1803894042969,136.49359741210938,-125.39647827148436,1.6886862979676155e+18,95.44361572265623,0.6763062477111816,-0.7306549151738485,-0.0905628850062687,0.0230960063636302,2.3295134703318277,1.4481992721557615,0.9732964237531028
5.5,1.68868629801953e+18,95.49553019205727,-0.0159000356992085,-0.032724380493164,0.2772258321444193,1.6886862980281784e+18,95.50417846679689,-0.7916254798571268,-9.807781219482422,-0.5264209906260172,1.68868629801953e+18,95.49553019205727,-0.8104847470919291,-9.738409360249838,-0.8617479801177979,1.6886862980238577e+18,95.49985778808592,0.0478002056479454,0.7709883153438568,0.0960585586726665,1.6886862980238577e+18,95.49985778808592,0.046807549893856,0.7754934132099152,0.0986547358334064,,,,,,,,,,,,1.6886862980238505e+18,95.49985063476564,-12.922239875793457,41.04079895019531,7.61767988204956,1.6886862980238505e+18,95.49985063476564,-268.2682373046875,136.06659851074218,-125.10611877441406,1.68868629801953e+18,95.49553019205727,0.6763275861740112,-0.7284828225771586,-0.1030198608835537,0.0353581191351015,2.325653394063314,1.4499049584070842,1.012312928835551
5.55,1.6886862980714406e+18,95.54744083658854,-0.1401429375012715,-0.0267295837402343,0.3103129863739013,1.6886862980800965e+18,95.55609667968751,-0.9944172104199728,-9.761320432027182,-0.4731806814670563,1.6886862980714406e+18,95.54744083658854,-0.8026925524075826,-9.73961861928304,-0.8553535540898641,1.6886862980671153e+18,95.54311547851562,0.0749328012267748,0.9015862147013346,0.0983493054906526,1.6886862980671153e+18,95.54311547851562,0.0740165064732233,0.9061676859855652,0.1008436679840087,,,,,,,,,,,,1.6886862980738445e+18,95.54984443359372,-13.04911994934082,41.21159896850586,8.566839790344238,1.6886862980738445e+18,95.54984443359372,-268.3951171875,136.23739624023438,-124.1569580078125,1.6886862980714406e+18,95.54744083658854,0.6756283442179362,-0.7257359226544698,-0.1191746095816293,0.0508821656306584,2.3245369593302407,1.4509320656458538,1.0585767428080242
5.6,1.6886862981233551e+18,95.59935506184895,-0.2697451909383138,0.1074085235595703,0.3932893176873525,1.6886862981233585e+18,95.59935852050782,-1.0250254273414612,-9.647861003875732,-0.3831507265567779,1.6886862981233551e+18,95.59935506184895,-0.766609768072764,-9.743348121643066,-0.8458074331283569,1.688686298119035e+18,95.59503483072916,0.0468839077899853,0.8704320788383484,0.1743002186218896,1.688686298119035e+18,95.59503483072916,0.0458657989899316,0.875013550122579,0.1768454859654108,,,,,,,,,,,,1.6886862981238523e+18,95.59985258789062,-13.276039505004883,40.9822395324707,9.703879928588869,1.6886862981238523e+18,95.59985258789062,-268.6220397949219,136.00803833007814,-123.01991729736328,1.6886862981233551e+18,95.59935506184895,0.6755783557891846,-0.7216057181358337,-0.1354334255059559,0.0670645808180172,2.307119369506836,1.4541653792063396,1.1223355531692505
5.65,1.688686298175273e+18,95.65127294921876,-0.1775562167167663,-0.0691293080647786,0.3871201773484548,1.6886862981666214e+18,95.64262174479168,-0.9294122060139974,-9.814959843953451,-0.3517449299494425,1.688686298175273e+18,95.65127294921876,-0.7429462671279907,-9.74746799468994,-0.8190999031066895,1.688686298170953e+18,95.6469530436198,0.0217366215462485,0.9850202202796936,0.0976366264124711,1.688686298170953e+18,95.6469530436198,0.0207185130566358,0.9896016915639242,0.1000800865391889,,,,,,,,,,,,1.6886862981738478e+18,95.64984780273436,-13.078399658203123,40.75531997680664,10.277279472351074,1.6886862981738478e+18,95.64984780273436,-268.4243957519531,135.78111267089844,-122.44651794433594,1.688686298175273e+18,95.65127294921876,0.6744904319445292,-0.7174655993779501,-0.1519428292910257,0.084657294054826,2.307549317677816,1.4578276872634888,1.1707791487375896
5.7,1.6886862982271864e+18,95.70318644205727,-0.1983617544174194,0.0634832382202148,0.0249995787938435,1.68868629821853e+18,95.69453027343752,-0.9812566836675009,-9.720642725626629,-0.6085745493570963,1.6886862982271864e+18,95.70318644205727,-0.7743840217590332,-9.748675028483072,-0.7742276589075724,1.6886862982228636e+18,95.69886360677084,-0.0160861181405682,1.021010339260101,-0.000152715947479,1.6886862982228636e+18,95.69886360677084,-0.0171551322564482,1.0255918502807615,0.0023925557422141,,,,,,,,,,,,1.6886862982238487e+18,95.69984858398438,-12.478159713745118,40.42103805541992,10.987319755554198,1.6886862982238487e+18,95.69984858398438,-267.82415161132815,135.44684143066405,-121.7364776611328,1.6886862982271864e+18,95.70318644205727,0.6705581148465475,-0.7145548860232035,-0.1698773503303527,0.104190170764923,2.356309175491333,1.458924134572347,1.1759698390960691
5.75,1.6886862982791025e+18,95.75510229492188,-0.0890813867251077,-0.1074813206990559,-0.3110697865486144,1.6886862982704494e+18,95.7464493001302,-0.8885348041852316,-9.869994481404625,-0.9617153008778891,1.6886862982791025e+18,95.75510229492188,-0.8210521936416626,-9.748199144999186,-0.7310796777407328,1.688686298274777e+18,95.75077709960938,-0.006974044876794,0.8456920385360718,-0.0132863192508618,1.688686298274777e+18,95.75077709960938,-0.0079412482058008,0.8502735098203024,-0.0107410469402869,,,,,,,,,,,,1.6886862982738412e+18,95.74984125976562,-11.955999755859375,40.64551849365235,11.709559631347656,1.6886862982738412e+18,95.74984125976562,-267.3019958496094,135.67131652832032,-121.0142379760742,1.6886862982791025e+18,95.75510229492188,0.6659592390060425,-0.7123732964197794,-0.1853526731332142,0.1209687069058417,2.414090553919474,1.4584911266962688,1.164876898129781
5.8,1.6886862983310154e+18,95.807015625,-0.0126072565714518,0.1859814325968423,-0.2978424032529194,1.688686298322361e+18,95.798361328125,-0.8378867308298746,-9.576873461405436,-0.9565308491388956,1.6886862983310154e+18,95.807015625,-0.8133787314097086,-9.749936739603678,-0.7163908282915751,1.688686298326687e+18,95.80268725585938,0.0547233459850151,0.8660032947858175,0.1130609760681787,1.688686298326687e+18,95.80268725585938,0.0537561401724815,0.8705847859382629,0.1155553410450617,,,,,,,,,,,,1.688686298323847e+18,95.79984667968748,-11.41675968170166,40.23803939819336,12.28783950805664,1.688686298323847e+18,95.79984667968748,-266.76275634765625,135.2638366699219,-120.4359573364258,1.6886862983310154e+18,95.807015625,0.6633313496907552,-0.7080394228299459,-0.2002843817075093,0.1360749155282973,2.4194931983947754,1.4600848356882732,1.203149398167928
5.85,1.6886862983742776e+18,95.85027770996092,-0.0634515285491942,-0.0433025360107421,-0.4105195701122284,1.688686298374278e+18,95.85027783203128,-0.8472586075464884,-9.794620831807457,-1.0568300088246665,1.6886862983742776e+18,95.85027770996092,-0.7990249991416931,-9.750662803649902,-0.7226568162441254,1.6886862983786015e+18,95.85460196940105,0.1006909534335136,1.011694649855296,0.0825177133083343,1.6886862983786015e+18,95.85460196940105,0.0997237513462702,1.0162761410077412,0.0850120807687441,,,,,,,,,,,,1.6886862983738445e+18,95.84984438476562,-11.314279747009277,40.025759887695315,12.963719749450684,1.6886862983738445e+18,95.84984438476562,-266.6602783203125,135.0515563964844,-119.76007843017578,1.6886862983742776e+18,95.85027770996092,0.660892903804779,-0.7031174898147583,-0.215266115963459,0.1499568298459053,2.406355857849121,1.4607555866241455,1.2584779262542725
5.9,1.688686298417539e+18,95.89353938802084,-0.1895924011866251,0.1287943522135416,-0.4422266880671183,1.688686298426192e+18,95.90219181315103,-1.026321490605672,-9.610173861185707,-1.128814061482747,1.688686298417539e+18,95.89353938802084,-0.8108702500661215,-9.748781522115072,-0.7347184419631958,1.6886862984305193e+18,95.9065194498698,0.0816014160712559,0.7856235901514689,0.0326303845892349,1.6886862984305193e+18,95.9065194498698,0.0805833066503206,0.7902051011721293,0.0350738465785979,,,,,,,,,,,,1.6886862984238505e+18,95.89985043945312,-10.601799964904783,39.72807846069336,13.5712797164917,1.6886862984238505e+18,95.89985043945312,-265.9477905273437,134.75387573242188,-119.15251770019532,1.688686298417539e+18,95.89353938802084,0.6572702129681905,-0.6986932953198751,-0.2305120726426442,0.1632504860560099,2.405439535776774,1.4590238332748413,1.3013944625854492
5.95,1.6886862984694538e+18,95.94545377604167,-0.0433837970097859,0.1592912673950195,-0.4403534531593323,1.6886862984781056e+18,95.95410563151042,-0.7826523979504904,-9.6396853129069,-1.11146612962087,1.6886862984694538e+18,95.94545377604167,-0.8105184435844421,-9.747772852579752,-0.7483564416567484,1.6886862984737792e+18,95.949779296875,0.0692568458616733,0.5930738151073456,0.0869719386100768,1.6886862984737792e+18,95.949779296875,0.0682641901075839,0.5975789129734039,0.0894154012203216,,,,,,,,,,,,1.688686298473849e+18,95.9498490234375,-10.128439903259276,39.77931900024414,14.515559577941897,1.688686298473849e+18,95.9498490234375,-265.47443237304685,134.80511474609375,-118.20823822021484,1.6886862984694538e+18,95.94545377604167,0.6543731292088827,-0.6942683259646097,-0.243500679731369,0.1745745887358983,2.3960817654927573,1.458104411760966,1.3467190265655518
6.0,1.6886862985213612e+18,95.99736100260417,0.1408575177192687,0.1536842981974283,-0.3723268906275431,1.688686298530021e+18,96.00602099609377,-0.7258228460947672,-9.59043312072754,-1.117248773574829,1.6886862985213612e+18,95.99736100260417,-0.8105124235153198,-9.746154149373371,-0.769124706586202,1.68868629851704e+18,95.99304020182292,0.102167211472988,0.7373652458190918,0.0217366218566894,1.68868629851704e+18,95.99304020182292,0.1012000093857446,0.741895854473114,0.0242309874544541,,,,,,,,,,,,1.688686298523847e+18,95.99984677734376,-9.652639770507813,39.552399444580075,14.625359725952148,1.688686298523847e+18,95.99984677734376,-264.99863891601564,134.57819519042968,-118.0984375,1.6886862985213612e+18,95.99736100260417,0.6513447165489197,-0.6895299156506857,-0.2565995454788207,0.185540571808815,2.382460594177246,1.456649978955587,1.3961596488952637
6.05,1.6886862985732826e+18,96.04928247070312,-0.1948676904042562,-0.0032316843668619,-0.552985946337382,1.6886862985732823e+18,96.04928247070312,-1.1090733408927915,-9.78754186630249,-1.313958764076233,1.6886862985732826e+18,96.04928247070312,-0.8376986583073934,-9.741580963134766,-0.7974388599395752,1.6886862985689582e+18,96.04495833333333,0.0718275718390941,0.3258966157833735,-0.0043778674056132,1.6886862985689582e+18,96.04495833333333,0.0708603685100873,0.3304781094193458,-0.0018835011869668,,,,,,,,,,,,1.6886862985738437e+18,96.0498436035156,-9.479399871826171,39.447479248046875,15.35247974395752,1.6886862985738437e+18,96.0498436035156,-264.825390625,134.47327575683593,-117.37131805419922,1.6886862985732826e+18,96.04928247070312,0.6480761965115865,-0.6864840984344482,-0.2672783235708872,0.1931237032016118,2.380923271179199,1.452623724937439,1.4250682989756267
6.1,1.6886862986252004e+18,96.10120052083332,0.308587630589803,-0.2056366602579752,-0.089663287003835,1.6886862986165404e+18,96.09254052734376,-0.5423731406529745,-9.953942934672035,-0.9537392457326254,1.6886862986252004e+18,96.10120052083332,-0.8300869464874268,-9.739575386047363,-0.8292558193206787,1.68868629862087e+18,96.0968701171875,0.087608257929484,0.2652682289481162,0.0320704262703656,1.68868629862087e+18,96.0968701171875,0.0865392411748568,0.2698497275511423,0.0345647918681303,,,,,,,,,,,,1.6886862986238495e+18,96.099849609375,-9.657519721984864,39.24251937866211,15.777039527893066,1.6886862986238495e+18,96.099849609375,-265.003515625,134.26831665039063,-116.94675903320312,1.6886862986252004e+18,96.10120052083332,0.6476510167121887,-0.6843912601470947,-0.2718765338261922,0.195532480875651,2.3568502267201743,1.4509021838506062,1.459690531094869
6.15,1.68868629867711e+18,96.15310994466148,0.0868836442629495,0.0259319941202799,0.1414987246195474,1.6886862986684588e+18,96.14445857747394,-0.6865407029787699,-9.772287368774414,-0.6277171572049459,1.68868629867711e+18,96.15310994466148,-0.8480640053749084,-9.735849380493164,-0.8544356822967529,1.6886862986727852e+18,96.1487850748698,0.0823649975160757,0.5357288320859274,-0.0086030190965781,1.6886862986727852e+18,96.1487850748698,0.0813977941870689,0.5403103133042654,-0.0061595581937581,,,,,,,,,,,,1.6886862986738437e+18,96.14984360351562,-9.14755973815918,38.96679916381836,15.986879539489744,1.6886862986738437e+18,96.14984360351562,-264.4935607910156,133.9925994873047,-116.7369171142578,1.68868629867711e+18,96.15310994466148,0.6446628173192342,-0.6809959808985392,-0.2818977832794189,0.2029152413209279,2.3525580565134683,1.4477698008219402,1.490247130393982
6.2,1.6886862987290263e+18,96.20502612304688,-0.3127716382344563,0.0915241241455077,-0.0648337602615356,1.6886862987203697e+18,96.19636962890624,-1.1052846511205037,-9.653244972229006,-0.8309076627095541,1.6886862987290263e+18,96.20502612304688,-0.8396352529525757,-9.736835161844889,-0.8514931201934814,1.688686298724697e+18,96.20069710286458,-0.0065668017293016,0.1773036395510037,0.0819068476557731,1.688686298724697e+18,96.20069710286458,-0.0075340047478675,0.1818851282199224,0.0844012151161829,,,,,,,,,,,,1.6886862987238487e+18,96.19984887695313,-8.708359718322754,38.83015823364258,16.418759536743163,1.6886862987238487e+18,96.19984887695313,-264.0543579101562,133.8559600830078,-116.30503540039062,1.6886862987290263e+18,96.20502612304688,0.64327339331309,-0.6784730156262716,-0.2871815860271454,0.2083247949679692,2.3492600123087564,1.448593338330587,1.5096782843271892
6.25,1.6886862987809329e+18,96.25693286132814,-0.161607285340627,0.1358083089192708,-0.1552908221880594,1.6886862987722885e+18,96.2482880045573,-1.062413255373637,-9.619545618693031,-0.9022935231526692,1.6886862987809329e+18,96.25693286132814,-0.8237008055051168,-9.739644368489584,-0.8348147670427958,1.688686298776614e+18,96.25261393229168,-0.029474248488744,0.1086322044332822,0.0063631806212166,1.688686298776614e+18,96.25261393229168,-0.0303905463467041,0.1132136906186739,0.0088066402822732,,,,,,,,,,,,1.6886862987738468e+18,96.24984672851562,-8.579040050506592,38.99607925415039,16.6798397064209,1.6886862987738468e+18,96.24984672851562,-263.9250244140625,134.02187805175782,-116.04395751953123,1.6886862987809329e+18,96.25693286132814,0.6430572072664896,-0.677379846572876,-0.2883448302745819,0.2109265724817911,2.349592685699463,1.450960357983907,1.514991005261739
6.3,1.6886862988242012e+18,96.30020104980468,0.1582877337932586,-0.0388894081115722,-0.3969073295593261,1.6886862988241994e+18,96.3001994628906,-0.724427064259847,-9.776873906453451,-1.1439686218897502,1.6886862988242012e+18,96.30020104980468,-0.8532666862010956,-9.738027572631836,-0.8239061832427979,1.6886862988285212e+18,96.30452107747396,0.0138462791219353,0.3410155276457469,-0.0444404470423856,1.6886862988285212e+18,96.30452107747396,0.0128281698562204,0.3455970088640849,-0.0419460802028575,,,,,,,,,,,,1.6886862988238464e+18,96.29984658203124,-8.210599899291992,39.08879928588867,16.413879776000975,1.6886862988238464e+18,96.29984658203124,-263.556591796875,134.114599609375,-116.30991821289062,1.6886862988242012e+18,96.30020104980468,0.6406472325325012,-0.6767952740192413,-0.2923033088445663,0.2146517857909202,2.3738054037094116,1.4495906233787537,1.5024616122245789
6.35,1.688686298867459e+18,96.34345963541666,-0.0953900416692097,0.06709353129069,-0.3474362293879191,1.6886862988761167e+18,96.35211669921875,-0.9531410137812296,-9.68096160888672,-1.0600204070409138,1.688686298867459e+18,96.34345963541666,-0.8663886189460754,-9.73653252919515,-0.8279137214024862,1.6886862988804396e+18,96.35643961588544,0.0199040256751079,0.1389209367334842,0.0150171038888704,1.6886862988804396e+18,96.35643961588544,0.0188859170302748,0.143451524277528,0.0175114707866062,,,,,,,,,,,,1.6886862988738455e+18,96.34984555664064,-8.23255968093872,39.04487915039063,16.909200286865236,1.6886862988738455e+18,96.34984555664064,-263.57855224609375,134.0706756591797,-115.8145965576172,1.688686298867459e+18,96.34345963541666,0.6388043959935507,-0.6752198934555054,-0.2970543305079142,0.2185495843489964,2.379047711690267,1.4483348925908406,1.510396162668864
6.4,1.688686298919378e+18,96.39537801106768,0.1060629884401957,0.0186599095662434,-0.1679307222366332,1.688686298928027e+18,96.40402693684896,-0.7316055099169413,-9.74138037363688,-0.9457631508509318,1.688686298919378e+18,96.39537801106768,-0.8692373633384705,-9.736154874165852,-0.8293533126513163,1.688686298923705e+18,96.39970520019531,-0.0161879290826617,0.0500909481197595,-0.0185550320893525,1.688686298923705e+18,96.39970520019531,-0.0172569435089826,0.0546724405139684,-0.0160352131351828,1.688686298923212e+18,96.3992119140625,0.0,0.4666872918605804,0.9707106947898864,10.552000045776367,0.0149097749963402,0.0,40.20000076293945,-122.7531654,49.1902099,1.6886862989238487e+18,96.39984873046876,-7.9104798316955565,38.89603881835937,16.967759704589845,1.6886862989238487e+18,96.39984873046876,-263.2564758300781,133.92183532714844,-115.75603637695312,1.688686298919378e+18,96.39537801106768,0.6382056474685669,-0.674591859181722,-0.298724244038264,0.2199612806240717,2.3798348903656006,1.448019822438558,1.5143073399861653
6.45,1.6886862989712896e+18,96.44728955078124,0.0512236754099528,0.0096343358357747,-0.2953226367632548,1.688686298979938e+18,96.45593790690104,-0.8825527429580688,-9.729216893513998,-1.0534401734670005,1.6886862989712896e+18,96.44728955078124,-0.8839893142382304,-9.736102104187012,-0.8142246603965759,1.6886862989669663e+18,96.44296638997396,-0.0378736456235249,0.0482583520933985,-0.029321531454722,1.6886862989669663e+18,96.44296638997396,-0.038789943481485,0.0528398460398117,-0.0267762603859106,,,,,,,,,,,,1.6886862989738468e+18,96.44984663085935,-7.98367977142334,38.96191864013672,16.677399826049804,1.6886862989738468e+18,96.44984663085935,-263.3296813964844,133.9877166748047,-116.04639892578123,1.6886862989712896e+18,96.44728955078124,0.6371041337649027,-0.6747424205144247,-0.2996437648932138,0.2214373846848805,2.3974501291910806,1.4479754368464153,1.5003451903661091
6.5,1.6886862990232023e+18,96.4992023111979,-0.0169316331545511,0.1373478571573892,-0.0780563553174336,1.688686299023206e+18,96.4992059326172,-0.8901300430297852,-9.5760760307312,-0.8057830035686493,1.6886862990232023e+18,96.4992023111979,-0.8874192833900452,-9.73739528656006,-0.7948009371757507,1.6886862990188823e+18,96.49488232421876,-0.059610266238451,-0.2037235597769419,-0.0098247493927676,1.6886862990188823e+18,96.49488232421876,-0.0606283756593862,-0.1991420686244964,-0.0073303830189008,,,,,,,,,,,,1.688686299023846e+18,96.49984584960936,-8.01051959991455,38.94240036010742,16.63347930908203,1.688686299023846e+18,96.49984584960936,-263.35651245117185,133.96819458007812,-116.09031524658204,1.6886862990232023e+18,96.4992023111979,0.6374545892079672,-0.6760847767194113,-0.2968952159086863,0.2200264185667037,2.411415179570516,1.4490566651026409,1.4800177812576294
6.55,1.6886862990751168e+18,96.55111678059896,0.0778731703758239,-0.0455617904663085,-0.011675198872884,1.688686299066468e+18,96.54246801757812,-0.7930213014284769,-9.78265635172526,-0.6955137650171915,1.6886862990751168e+18,96.55111678059896,-0.890499214331309,-9.73853333791097,-0.7772338589032491,1.6886862990707968e+18,96.54679679361978,-0.049887329339981,-0.1972585717837015,-0.0317649922023216,1.6886862990707968e+18,96.54679679361978,-0.0508036265770593,-0.1927279829978942,-0.029270626604557,,,,,,,,,,,,1.6886862990738486e+18,96.5498486328125,-7.94219970703125,38.932640075683594,16.733519744873046,1.6886862990738486e+18,96.5498486328125,-263.28818969726564,133.95843811035155,-115.99027709960936,1.6886862990751168e+18,96.55111678059896,0.6382818818092346,-0.6779793302218119,-0.2928140858809152,0.2172527213891346,2.424230416615804,1.450011968612671,1.4567519426345823
6.6,1.688686299127035e+18,96.60303483072916,-0.0338345567385355,-0.0033626556396484,0.182276318470637,1.688686299118377e+18,96.5943770345052,-0.917448103427887,-9.789436340332031,-0.6149554153283437,1.688686299127035e+18,96.60303483072916,-0.8964386185010275,-9.738658587137856,-0.768792470296224,1.6886862991227095e+18,96.59870955403646,-0.0130826970562338,-0.071063986668984,-0.0165442672247687,1.6886862991227095e+18,96.59870955403646,-0.0140499008509019,-0.0664825001731514,-0.0139989949141938,,,,,,,,,,,,1.6886862991238502e+18,96.59985034179688,-8.066639709472657,39.28399887084961,16.3187198638916,1.6886862991238502e+18,96.59985034179688,-263.4126342773437,134.30979614257814,-116.405078125,1.688686299127035e+18,96.60303483072916,0.6385801633199056,-0.6791087587674459,-0.2907087604204814,0.2156735310951868,2.4329225222269693,1.4501179854075117,1.442461649576823
6.65,1.6886862991789486e+18,96.65494864908852,-0.0241107145945231,0.057069460550944,0.1499884724617004,1.6886862991702966e+18,96.64629654947916,-0.918843905131022,-9.669197082519531,-0.4448656141757965,1.6886862991789486e+18,96.65494864908852,-0.9111474951108296,-9.738472620646158,-0.7536532084147135,1.6886862991746245e+18,96.65062443033857,-0.0479529214402039,-0.0629191206147272,-0.0381281735996404,1.6886862991746245e+18,96.65062443033857,-0.0489710308611392,-0.0583885366407532,-0.0356338061392307,,,,,,,,,,,,1.688686299173848e+18,96.64984809570312,-8.044679927825928,39.16199951171875,16.328479766845703,1.688686299173848e+18,96.64984809570312,-263.390673828125,134.18779907226562,-116.39531707763672,1.6886862991789486e+18,96.65494864908852,0.6380852460861206,-0.6800645788510641,-0.2897600928942362,0.2154020170370737,2.4507296085357666,1.4499609470367432,1.422807494799296
