seconds_elapsed_rounded,accelerometer_time,accelerometer_seconds_elapsed,accelerometer_z,accelerometer_y,accelerometer_x,accelerometeruncalibrated_time,accelerometeruncalibrated_seconds_elapsed,accelerometeruncalibrated_z,accelerometeruncalibrated_y,accelerometeruncalibrated_x,gravity_time,gravity_seconds_elapsed,gravity_z,gravity_y,gravity_x,gyroscope_time,gyroscope_seconds_elapsed,gyroscope_z,gyroscope_y,gyroscope_x,gyroscopeuncalibrated_time,gyroscopeuncalibrated_seconds_elapsed,gyroscopeuncalibrated_z,gyroscopeuncalibrated_y,gyroscopeuncalibrated_x,location_time,location_seconds_elapsed,location_bearingAccuracy,location_speedAccuracy,location_verticalAccuracy,location_horizontalAccuracy,location_speed,location_bearing,location_altitude,location_longitude,location_latitude,magnetometer_time,magnetometer_seconds_elapsed,magnetometer_z,magnetometer_y,magnetometer_x,magnetometeruncalibrated_time,magnetometeruncalibrated_seconds_elapsed,magnetometeruncalibrated_z,magnetometeruncalibrated_y,magnetometeruncalibrated_x,orientation_time,orientation_seconds_elapsed,orientation_qz,orientation_qy,orientation_qx,orientation_qw,orientation_roll,orientation_pitch,orientation_yaw
0.1,,,,,,1.6886865290409856e+18,0.114985595703125,7.815855979919434,4.115654945373535,-0.2913261651992798,,,,,,1.6886865290193283e+18,0.093328125,0.23396138846874234,0.4138102928797404,0.37201693654060364,1.6886865290323308e+18,0.10633056640625,0.14095715060830116,0.4005748778581619,0.28069258481264114,,,,,,,,,,,,1.688686529033881e+18,0.10788122558593749,-47.711148262023926,-5.255149960517883,12.010899782180786,1.688686529033881e+18,0.10788122558593749,-303.05714416503906,89.77064895629883,-120.71290016174316,,,,,,,,,
0.15000000000000002,1.688686529092901e+18,0.166901123046875,-0.4165897369384765,-0.4084992408752441,0.1305402815341949,1.688686529075602e+18,0.14960205078125,8.062017440795898,4.088735818862915,-0.3233301490545273,1.688686529092901e+18,0.166901123046875,8.706660270690918,4.501579284667969,-0.4073853194713592,1.688686529071274e+18,0.14527392578125,-0.010181087379654232,0.05762495783468088,0.03456478938460351,1.6886865290755965e+18,0.149596435546875,-0.015068009340514665,0.034208452484260035,0.009264788745592,,,,,,,,,,,,1.6886865290788808e+18,0.152880908203125,-47.32135925292969,-5.692519855499268,12.792919921875,1.6886865290788808e+18,0.152880908203125,-302.6673583984375,89.33327941894531,-119.93087768554688,1.688686529092901e+18,0.166901123046875,0.2564594149589538,0.0829646289348602,0.2221539169549942,0.9370128512382508,0.0467597655951976,-0.4767300188541412,-0.5229485630989075
0.2,1.6886865291275128e+18,0.20151269531250002,0.015765508015950502,-0.43869860967000324,0.1284073094526926,1.6886865291188534e+18,0.19285351562499997,8.663812319437662,4.0362928708394366,-0.19461624324321738,1.6886865291275128e+18,0.20151269531250002,8.736717542012533,4.441250006357829,-0.42399614055951435,1.6886865291231834e+18,0.19718318684895833,0.010435614734888,0.09621127570668853,-0.21090122560660043,1.6886865291275128e+18,0.20151269531250002,0.012217304824540934,0.12828170601278535,-0.21823160847028092,,,,,,,,,,,,1.6886865291288835e+18,0.20288339843749997,-47.44091873168945,-5.463159847259521,12.973479652404786,1.6886865291288835e+18,0.20288339843749997,-302.7869140625,89.56264038085938,-119.7503173828125,1.6886865291275128e+18,0.20151269531250002,0.25709160168965656,0.08300030976533886,0.21865648031234738,0.9376567403475443,0.04849259803692493,-0.4698236286640167,-0.5236125389734904
0.25,1.6886865291794207e+18,0.25342049153645835,0.4593340555826823,-0.7792503833770752,-0.20193137725194296,1.688686529170774e+18,0.24477416992187498,9.203393936157227,3.585844119389852,-0.6141578058401743,1.6886865291794207e+18,0.25342049153645835,8.788263638814291,4.3239749272664385,-0.5498889485994974,1.6886865291750945e+18,0.2490945638020833,0.015831590630114,0.34921129544576,-0.2682207524776458,1.6886865291794207e+18,0.25342049153645835,0.012319115533803833,0.35929057002067566,-0.26374106109142303,,,,,,,,,,,,1.6886865291788823e+18,0.25288232421875,-47.62147827148438,-4.936119937896729,13.466359710693359,1.6886865291788823e+18,0.25288232421875,-302.96747436523435,90.08967895507813,-119.25743865966797,1.6886865291794207e+18,0.25342049153645835,0.25970455010732013,0.08812234799067174,0.21047787865002945,0.9383371671040853,0.062483612447977004,-0.45646239320437115,-0.5255155364672343
0.30000000000000004,1.6886865292313354e+18,0.305335205078125,0.28380839029947913,-0.8014538288116455,-0.18639824787775672,1.688686529222684e+18,0.2966839192708333,9.140183766682943,3.4071799914042153,-0.8344968954722086,1.6886865292313354e+18,0.305335205078125,8.818425496419271,4.246676762898763,-0.6611349980036417,1.6886865292270113e+18,0.30101155598958335,-0.03441207514454914,0.11692979310949643,-0.08480845950543876,1.6886865292313354e+18,0.305335205078125,-0.04235332272946827,0.0867428630590439,-0.05747224017977714,,,,,,,,,,,,1.6886865292288835e+18,0.302883349609375,-47.162759399414064,-4.387119960784912,14.186159896850587,1.6886865292288835e+18,0.302883349609375,-302.5087646484375,90.63867950439453,-118.53763732910156,1.6886865292313354e+18,0.305335205078125,0.260990043481191,0.09281761199235912,0.20475289722283677,0.9387998183568319,0.07483549167712526,-0.44769948720932007,-0.5252690315246582
0.35000000000000003,1.6886865292832458e+18,0.35724568684895835,0.1663106282552083,-0.47391120592753094,0.45805461208025616,1.688686529274594e+18,0.3485940755208334,8.9623171488444,3.731208165486654,-0.25702902736763156,1.6886865292832458e+18,0.35724568684895835,8.800529479980469,4.280849138895671,-0.678468922773997,1.6886865292789225e+18,0.35292236328125,-0.1144354219237963,0.03527747094631197,0.12736540287733075,1.6886865292832458e+18,0.35724568684895835,-0.11810061087210966,0.07803803185621896,0.12863804151614502,,,,,,,,,,,,1.6886865292788844e+18,0.352884521484375,-47.418959045410155,-4.450559902191162,13.95679988861084,1.6886865292788844e+18,0.352884521484375,-302.76495361328125,90.57523803710937,-118.76699829101562,1.6886865292832458e+18,0.35724568684895835,0.2585510512193044,0.09370621293783186,0.2065638303756714,0.9389886458714803,0.0769476716717084,-0.4515679677327474,-0.5196986397107443
0.4,1.688686529326507e+18,0.4005068359375,0.0045886039733887,-0.5406686067581177,0.8282394111156464,1.6886865293265042e+18,0.4005042317708334,8.790432929992676,3.7497525215148926,0.12542378716170785,1.688686529326507e+18,0.4005068359375,8.776309490203857,4.305333375930786,-0.8215349912643433,1.6886865293308303e+18,0.4048304036458334,-0.08323038990298903,0.5025384724140167,0.0114537227588395,1.688686529326507e+18,0.4005068359375,-0.09109527617692945,0.4835761934518814,0.021532999118790048,,,,,,,,,,,,1.6886865293288822e+18,0.4028823242187499,-47.23351898193359,-4.523759937286377,14.513119506835938,1.6886865293288822e+18,0.4028823242187499,-302.5795166015625,90.50203704833984,-118.21067657470704,1.688686529326507e+18,0.4005068359375,0.25764054059982294,0.10116809979081146,0.20602444559335703,0.9385817348957062,0.09334010630846021,-0.4543430805206299,-0.5142109394073486
0.45,1.6886865293697667e+18,0.4437666829427083,-0.4542096455891927,-0.7580725351969401,1.3496634562810261,1.688686529378419e+18,0.4524189453125,8.16770076751709,3.4498520692189536,0.34496525923411053,1.6886865293697667e+18,0.4437666829427083,8.754050572713217,4.298410097757976,-1.0582131544748943,1.688686529382746e+18,0.45674609375,-0.14813482016324994,0.5417865514755249,0.011402817986284666,1.6886865293697667e+18,0.4437666829427083,-0.10120000814398127,0.6006332437197367,0.0016798796132206663,,,,,,,,,,,,1.6886865293788823e+18,0.45288237304687495,-46.80895919799805,-4.445680046081543,15.874639701843261,1.6886865293788823e+18,0.45288237304687495,-302.1549499511719,90.58011779785156,-116.84915771484376,1.6886865293697667e+18,0.4437666829427083,0.25866859157880145,0.1133476172884305,0.2023717314004898,0.9376940528551737,0.12030252814292904,-0.45355774958928424,-0.5105323592821757
0.5,1.6886865294216786e+18,0.495678466796875,-0.5981369018554688,-1.1121069590250652,1.0702206095059712,1.6886865294303311e+18,0.5043311360677083,8.288737614949545,3.092125097910563,-0.38305102040370304,1.6886865294216786e+18,0.495678466796875,8.725495020548502,4.28773848215739,-1.308979908625285,1.6886865294260065e+18,0.5000064697265625,-0.39698605239391327,0.29382617771625513,-0.0020616706460713993,1.6886865294216786e+18,0.495678466796875,-0.3650428851445516,0.32253684600194293,-0.008857545753320067,,,,,,,,,,,,1.6886865294288824e+18,0.502882421875,-46.542999267578125,-4.355399894714355,16.591999435424803,1.6886865294288824e+18,0.502882421875,-301.8889892578125,90.67039794921875,-116.13179779052734,1.6886865294216786e+18,0.495678466796875,0.25488043824831647,0.12520377089579895,0.19897930324077598,0.9379525581995646,0.14890817304452256,-0.4523480335871379,-0.49634505311648053
0.55,1.6886865294735864e+18,0.547586669921875,0.3214718500773112,-0.7909576098124186,-0.4414093097050984,1.688686529482507e+18,0.5565069986979166,9.356135686238607,3.800600051879883,-2.743969440460205,1.6886865294735864e+18,0.547586669921875,8.737292607625326,4.181544462839763,-1.550291935602824,1.6886865294764672e+18,0.5504673461914062,-0.4723515585064888,0.30779972299933434,-0.14805846475064754,1.6886865294735864e+18,0.547586669921875,-0.5121087034543356,0.32935818036397296,-0.19685132553180054,,,,,,,,,,,,1.6886865294788808e+18,0.552881005859375,-46.36487884521485,-3.9088799953460693,17.663159561157226,1.6886865294788808e+18,0.552881005859375,-301.71087646484375,91.1169189453125,-115.06063690185547,1.6886865294735864e+18,0.547586669921875,0.24549235900243116,0.1339927067359288,0.19159020483493805,0.9407709042231241,0.17559371888637534,-0.44035098950068147,-0.4711355169614156
0.6000000000000001,1.6886865295254996e+18,0.5994995117187499,0.3703482945760091,0.5236523946126302,-3.74029541015625,1.6886865295254958e+18,0.5994959716796875,8.903693199157715,4.533501625061035,-5.360521078109741,1.6886865295254996e+18,0.5994995117187499,8.659303347269693,4.287274201711019,-1.6908889214197795,1.688686529529824e+18,0.6038241373697916,0.9572258492310842,0.4061235884825389,0.5329290131727854,1.6886865295211766e+18,0.5951767578125,0.7378743079801401,0.4057672421137492,0.5041165550549825,,,,,,,,,,,,1.688686529528884e+18,0.602883984375,-45.97691879272461,-4.043079900741577,18.324399566650392,1.688686529528884e+18,0.602883984375,-301.3229064941406,90.98271789550782,-114.39939880371094,1.6886865295254996e+18,0.5994995117187499,0.24971646070480344,0.14384655157725013,0.19476215541362754,0.9375129540761312,0.19284235437711075,-0.4523267249266307,-0.4761518637339274
0.65,1.6886865295774136e+18,0.6514137369791667,-0.025921185811360676,0.8619038263956705,-1.3807697693506877,1.6886865295687626e+18,0.6427623697916667,8.441678682963053,5.432106177012126,-3.472583850224813,1.6886865295774136e+18,0.6514137369791667,8.584785143534342,4.467068990071614,-1.6067444880803425,1.6886865295817408e+18,0.6557408040364584,0.6785185635089874,0.30650163690249127,-0.2851722588141759,1.688686529573088e+18,0.647087890625,0.8171850045522054,0.2855286002159118,-0.11372274160385132,,,,,,,,,,,,1.688686529578882e+18,0.65288203125,-45.4083984375,-5.948719882965088,18.895359420776366,1.688686529578882e+18,0.65288203125,-300.75439453125,89.0770767211914,-113.82843933105468,1.6886865295774136e+18,0.6514137369791667,0.2748574713865916,0.14783912897109983,0.20146025220553077,0.9284290273984274,0.18502613902091972,-0.47277838985125215,-0.5309534470240275
0.7000000000000001,1.6886865296293256e+18,0.7033257649739584,-0.0251468022664388,-0.14483896891276038,0.7441868782043457,1.6886865296206743e+18,0.6946741536458333,8.769296328226725,4.207778612772624,-1.1194421847661336,1.6886865296293256e+18,0.7033257649739584,8.645227114359537,4.299135049184163,-1.734292467435201,1.6886865296336515e+18,0.7076515299479166,0.6144286195437113,0.8177449504534403,-0.45260024070739746,1.6886865296250012e+18,0.6990010579427084,0.6048584083716074,0.7783950368563334,-0.498211532831192,,,,,,,,,,,,1.6886865296288845e+18,0.702884326171875,-44.74716033935547,-5.087399864196778,20.181239318847656,1.6886865296288845e+18,0.702884326171875,-300.09315185546876,89.93839721679687,-112.54255981445313,1.6886865296293256e+18,0.7033257649739584,0.29349090655644733,0.15521568556626633,0.18773413201173142,0.9243680636088053,0.1979676137367884,-0.45364485184351605,-0.5690570871035258
0.75,1.6886865296812372e+18,0.7552373046874999,0.4989964167277019,-1.521702766418457,1.2011550267537434,1.68868652967259e+18,0.746590087890625,9.157332420349121,3.094717184702555,-0.6253243237733841,1.6886865296812372e+18,0.7552373046874999,8.628960609436035,4.202219486236572,-2.0275516510009766,1.6886865296769108e+18,0.7509108886718749,0.24961480498313904,1.0464121401309967,-0.1567632928490638,1.6886865296769108e+18,0.7509109700520833,0.2995784928401311,0.8212573925654093,-0.23630304634571075,1.688686529696e+18,0.77,0.0,0.0,0.9003691673278809,11.58199977874756,0.0,0.0,40.30000305175781,-122.7532002,49.1903854,1.6886865296788805e+18,0.7528805664062499,-43.99319839477539,-5.014199924468994,21.686719512939455,1.6886865296788805e+18,0.7528805664062499,-299.3391906738281,90.01159973144532,-111.03707733154297,1.6886865296812372e+18,0.7552373046874999,0.3089824914932251,0.1714510371287664,0.17542077104250584,0.9188706477483114,0.23077808817227682,-0.4426797032356262,-0.5966302355130514
0.8,1.6886865297331459e+18,0.8071458333333333,1.8039353688557942,-1.6790198882420857,-0.44411206245422363,1.688686529724498e+18,0.7984978841145834,10.159725507100424,2.566701054573059,-2.042274077733358,1.6886865297331459e+18,0.8071458333333333,8.725218454996744,3.9098852475484214,-2.19085963567098,1.6886865297201723e+18,0.794172119140625,-0.13607022662957508,0.17765996356805167,-0.77264271179835,1.6886865297288274e+18,0.8028272298177083,-0.1459458867708842,0.41890085736910504,-0.7194465398788452,,,,,,,,,,,,1.6886865297288822e+18,0.8028822265625001,-44.0127197265625,-3.9845199584960938,22.628559494018553,1.6886865297288822e+18,0.8028822265625001,-299.3587158203125,91.04127807617188,-110.0952377319336,1.6886865297331459e+18,0.8071458333333333,0.3124767442544301,0.17469904323418936,0.15720388789971662,0.9203615585962931,0.24597259859244028,-0.4099639256795247,-0.6032681465148926
0.8500000000000001,1.6886865297764035e+18,0.8504035644531249,1.298841953277588,-1.4601147174835205,1.2663017511367798,1.6886865297764063e+18,0.8504060872395834,9.476375261942545,2.0492531855901084,-1.436291774113973,1.6886865297764035e+18,0.8504035644531249,8.516054153442383,3.9634628295898438,-2.8203158378601074,1.68868652977208e+18,0.846080078125,0.7572692732016245,2.5723026593526206,0.3744094843665759,1.6886865297807388e+18,0.8547388509114584,0.9331984917322794,2.922532002131144,0.5603161603212357,,,,,,,,,,,,1.68868652977888e+18,0.852880126953125,-41.9802001953125,-3.862519931793213,25.78835983276367,1.68868652977888e+18,0.852880126953125,-297.3261962890625,91.16327667236328,-106.93543853759766,1.6886865297764035e+18,0.8504035644531249,0.32680200040340424,0.210686020553112,0.14633750170469279,0.9095086455345154,0.3198903799057007,-0.41592343151569366,-0.6217728853225708
0.9,1.6886865298196692e+18,0.8936691080729166,0.35404475529988605,-2.4177745978037515,1.3488507270812988,1.6886865298283205e+18,0.9023206380208334,8.021738529205322,2.4462623596191406,-2.8143583138783774,1.6886865298196692e+18,0.8936691080729166,7.841110070546468,4.493505318959554,-3.789405584335327,1.6886865298239967e+18,0.8979966634114583,1.845983902613322,3.5697946548461914,1.200553834438324,1.6886865298326467e+18,0.9066466471354167,2.020233154296875,3.4697655042012534,1.3995941082636516,,,,,,,,,,,,1.688686529828884e+18,0.9028838378906251,-36.258399200439456,-8.17643985748291,32.47151985168457,1.688686529828884e+18,0.9028838378906251,-291.60439453125,86.84935760498047,-100.25227813720703,1.6886865298196692e+18,0.8936691080729166,0.36001989245414734,0.28031270702679945,0.14570838212966913,0.8773250579833984,0.45075365900993347,-0.4759833812713623,-0.6672775944073995
0.9500000000000001,1.688686529871578e+18,0.9455782063802083,-1.3088107109069824,0.4940807024637858,-1.480603535970052,1.688686529880234e+18,0.9542340494791667,5.514658610026042,6.796413898468018,-5.515057404836019,1.688686529871578e+18,0.9455782063802083,6.770963191986084,5.606577237447103,-4.3348282178243,1.6886865298759045e+18,0.9499046223958333,1.7480926911036174,1.7063502470652263,1.8848246733347576,1.6886865298759076e+18,0.94990771484375,1.842674970626831,1.569923758506775,2.0905336141586304,,,,,,,,,,,,1.6886865298788849e+18,0.9528849609375,-29.997359466552734,-15.596479988098144,36.24619903564453,1.6886865298788849e+18,0.9528849609375,-285.3433532714844,79.4293197631836,-96.47759857177735,1.688686529871578e+18,0.9455782063802083,0.40253205100695294,0.35248981912930805,0.174154907464981,0.8263654311498007,0.5699518521626791,-0.6088733275731405,-0.7227033575375875
1.0,1.6886865299234885e+18,0.9974885253906249,-1.6767322222391765,-0.15403683980305985,0.36916430791219074,1.6886865299321413e+18,1.0061411132812499,4.1351964473724365,5.519045352935791,-2.8849465449651084,1.6886865299234885e+18,0.9974885253906249,6.439183394114177,6.038144429524739,-4.278513590494792,1.6886865299278185e+18,1.0018186035156251,0.5898412863413492,-0.31098132332166034,-0.25742879572014016,1.6886865299191677e+18,0.993167724609375,0.5214752952257792,0.1266018276413282,-0.14248431225617728,,,,,,,,,,,,1.688686529928883e+18,1.002882958984375,-28.69683952331543,-17.497239685058595,36.86352005004883,1.688686529928883e+18,1.002882958984375,-284.04283447265624,77.52855834960937,-95.8602783203125,1.6886865299234885e+18,0.9974885253906249,0.4195198913415273,0.3685448964436849,0.18964758018652594,0.8075800736745199,0.5864895780881246,-0.6630345384279887,-0.7510523597399393
1.05,1.6886865299753974e+18,1.0493972167968748,1.4577562014261882,-0.6840998331705729,0.4662094116210937,1.688686529975405e+18,1.0494049072265623,7.545766115188599,5.484349489212036,-3.444169044494629,1.6886865299753974e+18,1.0493972167968748,6.618156274159749,6.214069525400798,-3.7141425609588623,1.688686529979732e+18,1.0537320963541668,1.4969762166341145,-0.266540873174866,-0.34717507908741635,1.6886865299710774e+18,1.045077392578125,1.4958053827285767,-0.5709044635295868,-0.1537853293120861,,,,,,,,,,,,1.6886865299788787e+18,1.0528787597656248,-30.22915916442871,-19.156439971923827,34.75780029296875,1.6886865299788787e+18,1.0528787597656248,-285.5751647949219,75.86935729980469,-97.96599884033203,1.6886865299753974e+18,1.0493972167968748,0.4416528840859731,0.34830724199612934,0.20333148539066315,0.8013431429862976,0.5113012393315634,-0.686016301314036,-0.8213287591934204
1.1,1.6886865300273152e+18,1.101315185546875,-1.1400829950968425,-2.0957611401875815,1.0009641647338867,1.6886865300186644e+18,1.09266455078125,6.63350264231364,3.78404966990153,-2.813161770502726,1.6886865300273152e+18,1.101315185546875,6.924668312072754,6.049459139506022,-3.4130045572916665,1.6886865300316347e+18,1.1056348470052084,0.6652831534544627,-0.03929899136225379,-1.725541591644287,1.688686530022992e+18,1.0969919433593749,0.7944811681906382,0.22123503684997559,-1.4727451801300049,,,,,,,,,,,,1.6886865300288814e+18,1.102881298828125,-30.499999237060546,-19.6224796295166,34.4161994934082,1.6886865300288814e+18,1.102881298828125,-285.8459899902344,75.40331726074218,-98.30759735107422,1.6886865300273152e+18,1.101315185546875,0.4742380678653717,0.3330394625663757,0.1898359010616938,0.7924469113349915,0.45811712741851807,-0.6646201213200887,-0.9177614649136862
1.1500000000000001,1.6886865300792246e+18,1.1532245279947917,-0.9900056521097819,-4.593744119008382,3.3019889990488687,1.68868653007057e+18,1.14456982421875,6.279165426890056,1.1734801046550276,0.19700906674067178,1.6886865300792246e+18,1.1532245279947917,7.852358182271321,5.139464060465495,-2.805553595225016,1.688686530083553e+18,1.1575528157552082,-0.06414085129896796,-2.220800598462423,-2.984534819920858,1.6886865300748992e+18,1.1488990071614584,0.06582072377204894,-2.076483726501465,-2.9191723664601645,,,,,,,,,,,,1.6886865300788823e+18,1.1528822265624998,-34.26491928100586,-15.901479530334473,31.80539894104004,1.6886865300788823e+18,1.1528822265624998,-289.6109130859375,79.12431945800782,-100.91839752197265,1.6886865300792246e+18,1.1532245279947917,0.4946763614813487,0.2728059987227121,0.15705727537473038,0.8095917105674744,0.3442436158657074,-0.5519557396570841,-0.9975510636965433
1.2000000000000002,1.6886865301311357e+18,1.205135986328125,-0.5946993827819824,-5.847828229268392,2.4329057137171426,1.6886865301224855e+18,1.1964855143229167,8.21595573425293,-1.4733805656433105,0.5902295907338461,1.6886865301311357e+18,1.205135986328125,8.722256978352865,3.9642351468404136,-2.0824323892593384,1.6886865301268147e+18,1.2008145751953125,-0.7260133326053619,-1.5639677047729492,-2.1573469042778015,1.6886865301268155e+18,1.2008154296875,-0.7175630529721578,-1.5247196555137634,-2.190410057703654,,,,,,,,,,,,1.688686530128883e+18,1.2028830078125001,-39.06195983886719,-10.057679748535156,27.847719192504883,1.688686530128883e+18,1.2028830078125001,-294.4079528808594,84.9681167602539,-104.8760772705078,1.6886865301311357e+18,1.205135986328125,0.4931138157844543,0.19970535735289252,0.12368840227524436,0.8374646703402201,0.23457952837149298,-0.41619450847307843,-1.0143425464630127
1.25,1.6886865301830513e+18,1.2570513509114585,-2.66666841506958,-5.829787890116374,0.6878592371940613,1.6886865301743916e+18,1.2483916015625,6.726025104522705,-2.746561606725057,-1.075972596804301,1.6886865301830513e+18,1.2570513509114585,9.09073575337728,2.9918572902679443,-2.1276160875956216,1.688686530170073e+18,1.2440730794270831,-1.1562151710192363,-0.032019523282845776,-1.7766506671905518,1.6886865301787277e+18,1.2527274576822915,-1.2801190217336018,0.30863967537879944,-1.8551977078119914,,,,,,,,,,,,1.6886865301788854e+18,1.252885498046875,-40.72359924316406,-5.180119848251342,26.664319610595705,1.6886865301788854e+18,1.252885498046875,-296.06959838867186,89.8456787109375,-106.05947723388672,1.6886865301830513e+18,1.2570513509114585,0.4767724871635437,0.17218110958735144,0.082146156579256,0.8578852812449137,0.22976751128832498,-0.3100849489370982,-0.9786761800448099
1.3,1.6886865302263112e+18,1.3003110351562501,-2.4260542392730713,-4.0863635540008545,-0.10689401626586914,1.6886865302263073e+18,1.3003072916666667,6.678168614705403,-2.437289237976074,-2.9413771629333496,1.6886865302263112e+18,1.3003110351562501,9.157499313354492,1.8127402067184448,-2.9869014024734497,1.6886865302219866e+18,1.2959864908854166,-2.4299710988998413,2.376469453175863,-2.6803749402364097,1.6886865302306312e+18,1.3046310221354167,-2.752100626627604,2.8522826035817466,-2.806823968887329,,,,,,,,,,,,1.6886865302288832e+18,1.302883251953125,-38.78623962402344,1.7592399805784225,29.128719329833984,1.6886865302288832e+18,1.302883251953125,-294.1322326660156,96.78503875732422,-103.59507751464844,1.6886865302263112e+18,1.3003110351562501,0.45034122467041016,0.18085949867963785,0.01264608465135095,0.8739897310733795,0.31512586772441864,-0.18594843894243235,-0.9223822355270386
1.35,1.6886865302695708e+18,1.34357080078125,-3.372915426890055,-4.778335730234782,-1.2218217849731445,1.688686530278224e+18,1.3522240397135417,4.581457773844401,-5.369095325469971,-6.781857490539551,1.6886865302695708e+18,1.34357080078125,8.627889315287272,0.14957691232363382,-4.596999804178874,1.6886865302738985e+18,1.3478985188802082,-3.7258707682291665,4.002287308375041,-2.419179121653239,1.6886865302825503e+18,1.35655029296875,-3.7181331316630044,3.7045923868815103,-2.2722150484720864,,,,,,,,,,,,1.6886865302788808e+18,1.352880810546875,-31.19783935546875,11.216679954528809,33.884280395507815,1.6886865302788808e+18,1.352880810546875,-286.54383544921876,106.24247741699219,-98.83951873779297,1.6886865302695708e+18,1.34357080078125,0.39264463384946185,0.22507394353548685,-0.09061033899585401,0.8860402305920919,0.4894913931687673,-0.015274551386634501,-0.8319002787272135
1.4000000000000001,1.688686530321482e+18,1.3954820149739584,-2.500456174214681,-5.050962766011556,-6.560003280639648,1.6886865303301376e+18,1.4041374511718752,6.220142364501953,-6.835297425587972,-12.868400891621908,1.688686530321482e+18,1.3954820149739584,7.823625564575195,-1.7821838855743408,-5.616548856099446,1.6886865303258104e+18,1.399810302734375,-2.767270485560099,1.2500848372777302,-2.715041478474935,1.6886865303258104e+18,1.3998104248046874,-2.7294222116470337,1.0979539155960083,-2.778138756752014,,,,,,,,,,,,1.688686530328881e+18,1.40288095703125,-24.500039672851564,20.232479858398438,35.375119018554685,1.688686530328881e+18,1.40288095703125,-279.8460327148438,115.2582794189453,-97.34867706298829,1.688686530321482e+18,1.3954820149739584,0.320465346177419,0.25214198728402454,-0.19242702921231583,0.8921177983283997,0.6227809389432272,0.18295577168464658,-0.7491173148155212
1.4500000000000002,1.6886865303733852e+18,1.4473851725260418,2.6209864616394043,-3.0078469117482505,-9.772137641906738,1.688686530382046e+18,1.4560459798177083,9.932607014973959,-6.594419797261556,-15.783058166503906,1.6886865303733852e+18,1.4473851725260418,7.032593568166097,-3.606954495112101,-5.783278783162435,1.6886865303777208e+18,1.4517207845052085,-2.1775310039520264,1.790649652481079,-3.0137545267740884,1.688686530369065e+18,1.4430650227864585,-2.1904101371765137,1.5328136285146077,-2.9746592044830322,,,,,,,,,,,,1.6886865303788856e+18,1.4528856445312501,-19.073479461669923,27.41339988708496,34.150238800048825,1.6886865303788856e+18,1.4528856445312501,-274.4194763183594,122.43919677734375,-98.57355804443361,1.6886865303733852e+18,1.4473851725260418,0.2780232032140096,0.24425407250722245,-0.28499605258305866,0.8837252060572306,0.6887823939323425,0.3770481248696645,-0.7469769318898519
1.5,1.6886865304253059e+18,1.4993058268229167,3.4168640772501626,-1.2290911674499512,-9.343571345011393,1.6886865304253076e+18,1.499307861328125,9.032307147979736,-6.584748983383179,-15.442080974578857,1.6886865304253059e+18,1.4993058268229167,5.553964296976726,-5.216617425282796,-6.149431864420573,1.6886865304296323e+18,1.5036323242187501,-1.4965180555979412,2.8794151147206626,-2.888730843861898,1.688686530420979e+18,1.4949790852864584,-1.6666949192682903,2.7951666514078775,-3.0481158097585044,,,,,,,,,,,,1.6886865304288824e+18,1.502882373046875,-7.493240022659302,33.99651870727539,32.86679916381836,1.6886865304288824e+18,1.502882373046875,-262.8392333984375,129.0223175048828,-99.85699768066407,1.6886865304253059e+18,1.4993058268229167,0.23319068551063535,0.26288321614265436,-0.3835439483324687,0.853495200475057,0.837620735168457,0.5612538655598959,-0.790004312992096
1.55,1.6886865304772178e+18,1.5512176920572915,3.5059080918629966,1.3498891194661458,-7.273934841156006,1.6886865304685658e+18,1.5425655110677081,7.517451127370198,-5.041079044342041,-13.943775177001953,1.6886865304772178e+18,1.5512176920572915,3.930123726526896,-6.110851128896077,-6.576396465301514,1.6886865304815442e+18,1.5555441080729169,-0.7090618213017782,3.0206268628438315,-1.5218180418014526,1.6886865304728914e+18,1.546891357421875,-0.8100582361221313,2.985196669896444,-1.743867556254069,,,,,,,,,,,,1.688686530478884e+18,1.5528840332031248,1.2199999630451202,36.212039184570315,31.871279144287108,1.688686530478884e+18,1.5528840332031248,-254.1259979248047,131.2378387451172,-100.8525177001953,1.6886865304772178e+18,1.5512176920572915,0.19402047991752622,0.3036864797274272,-0.4550740619500478,0.8139146169026693,1.0329378445943196,0.6726127862930298,-0.860691765944163
1.6,1.6886865305291256e+18,1.6031255696614586,2.2482550541559854,1.9526373545328777,-5.063571453094482,1.6886865305204754e+18,1.5944751790364584,5.631906986236572,-4.415954113006592,-12.386246999104818,1.6886865305291256e+18,1.6031255696614586,2.4595600366592407,-6.400737921396892,-7.003309408823649,1.6886865305334577e+18,1.6074576009114583,0.03802635706961153,3.304424603780111,-0.6650795340538025,1.688686530524801e+18,1.5988011067708332,-0.12003502249717711,3.3991087277730307,-0.7293730974197388,,,,,,,,,,,,1.6886865305288837e+18,1.6028836914062499,8.603439712524414,36.48043975830078,30.656159973144533,1.6886865305288837e+18,1.6028836914062499,-246.7425567626953,131.50623779296876,-102.06763763427735,1.6886865305291256e+18,1.6031255696614586,0.1546400338411331,0.36239563425381977,-0.49288370211919147,0.7753883401552836,1.2331658601760864,0.7108422915140787,-0.9084532856941223
1.6500000000000001,1.688686530581038e+18,1.6550381673177084,2.610938549041748,2.9130646387736,-2.790088494618734,1.688686530572389e+18,1.6463889973958334,3.5134612719217935,-3.7050864696502686,-10.467402776082357,1.688686530581038e+18,1.6550381673177084,1.267364760239919,-6.2556813557942705,-7.443491141001384,1.6886865305767142e+18,1.6507144775390625,0.7764860987663269,2.361146926879883,-0.39370264112949366,1.6886865305767145e+18,1.6507145182291667,0.7340054909388224,2.4089979330698648,-0.378634641567866,,,,,,,,,,,,1.68868653057888e+18,1.652880126953125,13.57615966796875,35.80699920654297,30.47559928894043,1.68868653057888e+18,1.652880126953125,-241.76983337402345,130.83279724121093,-102.24819946289062,1.688686530581038e+18,1.6550381673177084,0.13360235591729477,0.42161158720652253,-0.5073832273483276,0.7393636306126913,1.401818831761678,0.691542903582255,-0.9476902286211649
1.7000000000000002,1.6886865306329508e+18,1.7069506835937502,5.226569414138794,3.979528268178304,0.7493651707967123,1.6886865306242952e+18,1.6982953287760418,6.093322833379109,-2.045065760612488,-7.072186787923177,1.6886865306329508e+18,1.7069506835937502,0.2858323653539022,-6.082064628601074,-7.687030951182048,1.6886865306199764e+18,1.6939763997395836,0.22841269771258035,3.148704926172892,0.7716245974103609,1.6886865306286223e+18,1.70262255859375,0.027692561348279316,3.4090353647867837,1.1277081271012623,,,,,,,,,,,,1.688686530628889e+18,1.702888916015625,17.616799926757814,35.196998596191406,29.570359420776366,1.688686530628889e+18,1.702888916015625,-237.72919616699218,130.22279663085936,-103.15343933105468,1.6886865306329508e+18,1.7069506835937502,0.09802096088727313,0.48231812318166095,-0.50241819024086,0.7102657357851664,1.5337458848953247,0.6687437693277994,-0.9200243353843689
1.75,1.6886865306762063e+18,1.7502062988281248,2.098747134208679,1.4549357891082764,-0.33946990966796875,1.6886865306762117e+18,1.7502116699218748,1.4626128276189168,-4.5409791469573975,-7.979265848795573,1.6886865306762063e+18,1.7502062988281248,-0.35424333810806274,-6.055578947067261,-7.708964109420776,1.6886865306718917e+18,1.7458917643229166,0.4487823297580083,2.7291423082351685,1.4606297413508098,1.6886865306805425e+18,1.7545425618489583,0.7687229961156845,2.334828734397888,1.3513866265614827,,,,,,,,,,,,1.6886865306788818e+18,1.7528817382812503,19.178399276733398,36.29255905151367,27.06447982788086,1.6886865306788818e+18,1.7528817382812503,-236.16759643554687,131.3183563232422,-105.65932006835938,1.6886865306762063e+18,1.7502062988281248,0.04776575975120061,0.5340677499771118,-0.4824315011501312,0.6925427317619324,1.6166921854019165,0.6653299033641815,-0.8318178057670593
1.8,1.688686530719473e+18,1.7934730631510416,0.07732991377512614,0.7398202419281006,-0.1256429354349772,1.6886865307281203e+18,1.8021204427083333,-0.9166504622747501,-4.265405813852946,-7.92163880666097,1.688686530719473e+18,1.7934730631510416,-0.47639646132787067,-5.538469314575195,-8.077626705169678,1.688686530723797e+18,1.797796956380208,2.04013721148173,0.489455779393514,1.271006981531779,1.688686530732452e+18,1.8064521484375,2.079385280609131,0.14803302784760794,1.2007574439048767,,,,,,,,,,,,1.6886865307288806e+18,1.8028807128906252,18.085280227661134,35.16283950805664,28.835919189453126,1.6886865307288806e+18,1.8028807128906252,-237.26071472167968,130.18863525390626,-103.88787994384765,1.688686530719473e+18,1.7934730631510416,0.04294069111347193,0.5703309178352356,-0.4457659622033437,0.6883617043495178,1.6298930247624714,0.6002392967542013,-0.7592159907023112
1.85,1.6886865307713846e+18,1.8453846842447916,-1.7919243574142456,3.1227614879608154,2.675090471903483,1.6886865307800374e+18,1.854037353515625,-2.0350956122080484,-1.893719752629598,-5.574479103088379,1.6886865307713846e+18,1.8453846842447916,-0.05519869178533554,-4.796982606252034,-8.554330825805664,1.688686530775712e+18,1.8497121582031248,1.1247556408246357,-1.0687596599260967,0.3735950017968814,1.6886865307757082e+18,1.8497080078125,1.0606911480426788,-1.0737484097480774,0.37453676760196686,,,,,,,,,,,,1.6886865307788844e+18,1.852884375,16.04299964904785,33.35479888916016,32.244599151611325,1.6886865307788844e+18,1.852884375,-239.30299682617186,128.3805938720703,-100.4791976928711,1.6886865307713846e+18,1.8453846842447916,0.0655230010549227,0.5835539301236471,-0.40279421210289,0.7020021279652914,1.5774342616399128,0.5110262533028921,-0.7005797028541565
1.9000000000000001,1.6886865308232973e+18,1.8972974446614586,-0.3293418685595195,2.0824153423309326,1.9534845352172852,1.688686530831952e+18,1.9059517415364582,0.7688936591148376,-2.417548497517904,-6.859026114145915,1.6886865308232973e+18,1.8972974446614586,0.5408438940842947,-4.485450426737468,-8.70610523223877,1.688686530827619e+18,1.9016189778645833,0.419104461868604,-1.439707597096761,-0.3450370530287425,1.6886865308189686e+18,1.892968424479167,0.5076290170351664,-1.52105446656545,-0.36412658790747326,,,,,,,,,,,,1.6886865308288842e+18,1.9028841796875,13.737199783325195,31.93471908569336,34.396680450439455,1.6886865308288842e+18,1.9028841796875,-241.60879516601562,126.96051788330078,-98.32711944580078,1.6886865308232973e+18,1.8972974446614586,0.0951813235878944,0.5645056565602621,-0.3920928438504537,0.7200032869974772,1.5088412761688232,0.47491992513338727,-0.7102024753888448
1.9500000000000002,1.6886865308752095e+18,1.9492093098958332,0.5560568968454996,1.5009136994679768,1.623703161875407,1.688686530875205e+18,1.9492050781249999,1.625324785709381,-3.225823998451233,-7.053741931915283,1.6886865308752095e+18,1.9492093098958332,0.9090847969055176,-4.481217225392659,-8.678816477457682,1.688686530879535e+18,1.9535352376302082,-0.5266167496641477,-0.16305012007554373,-0.011606442431608863,1.6886865308708803e+18,1.9448801269531248,-0.31322115163008374,-0.3965533673763275,0.041844268639882394,,,,,,,,,,,,1.6886865308788823e+18,1.9528824707031252,12.163399696350098,31.900559616088866,35.07255935668945,1.6886865308788823e+18,1.9528824707031252,-243.1825958251953,126.92635803222656,-97.65123748779297,1.6886865308752095e+18,1.9492093098958332,0.10543077687422431,0.5482691129048666,-0.3912486235300699,0.7315688530604044,1.46646253267924,0.4744478265444438,-0.7151218056678772
2.0,1.6886865309271155e+18,2.0011158040364583,-0.7652837236722311,-0.9089239438374838,1.8953483899434407,1.6886865309184653e+18,1.992465087890625,0.31764721870422363,-5.128616491953532,-6.464409828186035,1.6886865309271155e+18,2.0011158040364583,0.6549511353174845,-5.085538387298584,-8.356842358907064,1.6886865309314437e+18,2.0054436848958335,-2.1115574836730957,0.5561418831348419,-0.526464025179545,1.688686530922795e+18,1.996795166015625,-1.8819739818572998,0.6074036955833435,-0.5046765009562174,,,,,,,,,,,,1.6886865309288847e+18,2.002884814453125,13.70547981262207,33.72568054199219,32.50079917907715,1.6886865309288847e+18,2.002884814453125,-241.64051513671876,128.75148010253906,-100.222998046875,1.6886865309271155e+18,2.0011158040364583,0.0811540360252062,0.540359357992808,-0.41771968205769855,0.7257108092308044,1.4928573767344158,0.545323888460795,-0.7291245857874552
2.0500000000000003,1.688686530979029e+18,2.0530289713541667,-0.6589961349964142,-4.291760603586833,1.287571907043457,1.6886865309703795e+18,2.044379801432292,-0.3776671687761943,-10.159326553344727,-6.340780576070149,1.688686530979029e+18,2.0530289713541667,0.4409865041573842,-6.025934060414632,-7.724539438883464,1.6886865309833572e+18,2.0573572591145832,-1.6996307373046875,-0.17221309244632718,-0.5702427128950754,1.688686530974707e+18,2.048707194010417,-1.9802724123001099,-0.08618290225664772,-0.4994332393010457,,,,,,,,,,,,1.688686530978884e+18,2.0528841796875,14.627799606323242,36.56827926635742,28.572399520874022,1.688686530978884e+18,2.0528841796875,-240.71819458007812,131.59407958984374,-104.15139770507812,1.688686530979029e+18,2.0530289713541667,0.04627185563246403,0.516447921593984,-0.4589919447898865,0.7213146487871805,1.5138227144877117,0.6617002884546915,-0.7556170225143433
2.1,1.6886865310309384e+18,2.104938313802083,-0.7621148029963175,-1.216887950897217,0.23528639475504554,1.6886865310222902e+18,2.0962903645833335,-0.5603193243344625,-7.959924062093099,-7.050651391347249,1.6886865310309384e+18,2.104938313802083,0.4280532399813333,-6.3841552734375,-7.435763835906982,1.6886865310266179e+18,2.100617919921875,-0.3461315259337425,-1.2446379363536835,-1.0554988086223602,1.6886865310266191e+18,2.1006189778645834,-0.3853541538119316,-1.1520918607711792,-1.0477866133054097,,,,,,,,,,,,1.6886865310288847e+18,2.102884619140625,15.674559783935546,37.67359924316406,26.359319305419923,1.6886865310288847e+18,2.102884619140625,-239.671435546875,132.69939575195312,-106.3644790649414,1.6886865310309384e+18,2.104938313802083,0.050658671806255905,0.4917592803637187,-0.4860338071982066,0.7205536365509033,1.5132350126902263,0.7085931698481241,-0.8122408787409464
2.15,1.6886865310828554e+18,2.1568553873697915,-0.7801716725031534,-3.539279301961263,0.3839990297953288,1.688686531074204e+18,2.1482039388020833,-0.07258228460947676,-9.744371096293131,-6.941578547159831,1.6886865310828554e+18,2.1568553873697915,0.7635579109191895,-6.388784090677897,-7.403618971506755,1.6886865310698752e+18,2.1438750813802083,0.15180001532038048,-1.7017178535461426,-0.7768678764502207,1.6886865310785303e+18,2.1525305989583337,0.27035877279316384,-1.6472490628560383,-0.5599598065018654,,,,,,,,,,,,1.6886865310788874e+18,2.152887548828125,15.118239402770996,36.98307876586914,27.55247917175293,1.6886865310788874e+18,2.152887548828125,-240.22775573730468,132.00887756347657,-105.17131805419922,1.6886865310828554e+18,2.1568553873697915,0.0834788531064987,0.4603513479232788,-0.49907780687014264,0.7293017307917277,1.4680460691452026,0.7092014153798422,-0.8726995587348938
2.2,1.688686531126115e+18,2.2001151123046876,-0.6586196422576904,-1.4968163967132568,-0.9313361644744873,1.6886865311261105e+18,2.2001104329427084,0.2899303436279297,-7.775277932484944,-8.316853046417236,1.688686531126115e+18,2.2001151123046876,1.01199609041214,-6.185184001922607,-7.546610116958618,1.688686531121789e+18,2.195788818359375,0.7402159571647644,-0.5207626273234685,-0.21115575109918908,1.688686531130442e+18,2.2044419759114584,0.7197010715802511,-0.3358740657567978,-0.3105740658938884,,,,,,,,,,,,1.6886865311288837e+18,2.20288369140625,14.842519569396973,36.03635864257812,29.375159454345702,1.6886865311288837e+18,2.20288369140625,-240.50347595214845,131.0621551513672,-103.34863739013672,1.688686531126115e+18,2.2001151123046876,0.1055168285965919,0.4523593485355377,-0.4937160164117813,0.7351648509502411,1.4373962879180908,0.6821549832820892,-0.8872264623641968
2.25,1.6886865311693714e+18,2.243371337890625,-1.8956478039423625,-0.10044813156127934,-1.491652011871338,1.688686531178027e+18,2.252027099609375,-0.4251248240470887,-5.938387552897136,-9.035298347473145,1.6886865311693714e+18,2.243371337890625,0.9966807762781779,-6.05513064066569,-7.6535922686258955,1.6886865311736996e+18,2.2476996256510415,0.16025031606356302,-0.6086763044198354,-0.6375905871391296,1.6886865311823542e+18,2.2563541666666667,0.03609195475776993,-0.6003787318865458,-0.673529843489329,,,,,,,,,,,,1.6886865311788844e+18,2.2528843261718747,14.603399658203125,35.31167907714844,30.253559494018553,1.6886865311788844e+18,2.2528843261718747,-240.7425964355469,130.3374755859375,-102.4702377319336,1.6886865311693714e+18,2.243371337890625,0.12248364587624867,0.4497890869776408,-0.4968172311782837,0.7319935162862142,1.4411945343017578,0.6651634375254313,-0.9205665787061056
2.3000000000000003,1.6886865312212828e+18,2.2952827148437502,-1.442491352558136,1.0097448031107585,-0.2945841153462727,1.6886865312299395e+18,2.303939453125,-0.7196413973967234,-4.989633401234944,-7.35613489151001,1.6886865312212828e+18,2.2952827148437502,0.9971635341644287,-6.1615346272786455,-7.567708174387614,1.6886865312256123e+18,2.299612223307292,-0.47851109504699707,-0.7904596229394277,-0.5942700703938802,1.6886865312256143e+18,2.2996142578125003,-0.4712825268507004,-0.6773732006549835,-0.6227007508277893,,,,,,,,,,,,1.68868653122888e+18,2.302879931640625,15.533039474487305,35.04327926635742,30.131559371948242,1.68868653122888e+18,2.302879931640625,-239.81295471191407,130.06907653808594,-102.59223785400391,1.6886865312212828e+18,2.2952827148437502,0.13448950151602426,0.43443532784779865,-0.510236402352651,0.7299183408419291,1.4396421511967976,0.6790477832158407,-0.965008060137431
2.35,1.6886865312732037e+18,2.3472035319010414,0.16244296232859293,-2.329565684000651,0.7732418378194174,1.688686531281848e+18,2.3558479817708333,2.1964117685953775,-8.903892517089844,-6.796812852223714,1.6886865312732037e+18,2.3472035319010414,1.406786561012268,-6.441169102986653,-7.262053966522217,1.688686531277525e+18,2.351525146484375,-0.7337000568707784,-1.167821596066157,-0.0529925605903069,1.6886865312688724e+18,2.3428726399739586,-0.7516187826792399,-1.448565125465393,-0.10786862174669902,,,,,,,,,,,,1.6886865312788823e+18,2.3528823242187498,13.45171947479248,36.207159423828124,29.619159317016603,1.6886865312788823e+18,2.3528823242187498,-241.89427795410157,131.2329528808594,-103.104638671875,1.6886865312732037e+18,2.3472035319010414,0.14248034854729966,0.3990088601907094,-0.5185905893643697,0.7425934672355652,1.3791183233261108,0.7162538766860962,-0.9777466456095377
2.4000000000000004,1.688686531325112e+18,2.399112060546875,0.3017855882644653,-0.8268485069274902,-0.8250506718953451,1.6886865313251054e+18,2.3991053466796872,1.726122409105301,-7.472785234451294,-7.770691633224487,1.688686531325112e+18,2.399112060546875,1.3531866470972698,-6.732120990753174,-7.003742059071858,1.6886865313294336e+18,2.4034334309895833,-0.9180286725362142,1.1810570160547893,-0.019191350166996298,1.688686531320791e+18,2.3947911783854168,-0.8655960361162821,1.0111855864524841,0.008399396513899135,,,,,,,,,,,,1.6886865313288786e+18,2.4028785156250003,14.283759689331054,37.09043960571289,27.979479217529295,1.6886865313288786e+18,2.4028785156250003,-241.0622344970703,132.11623840332032,-104.74431915283203,1.688686531325112e+18,2.399112060546875,0.12462720523277913,0.391693909962972,-0.5267977913220724,0.7439041137695312,1.3799902995427449,0.7563188274701437,-0.9657315611839294
2.45,1.688686531377022e+18,2.4510218098958334,-1.2366746266682942,-0.2554206848144531,-0.14619890848795578,1.6886865313683704e+18,2.442370524088542,-0.3525425245364507,-7.530212879180908,-7.204789002736409,1.688686531377022e+18,2.4510218098958334,1.030030886332194,-7.060876528422038,-6.731047948201497,1.688686531381349e+18,2.455348876953125,-0.7124216159184774,-0.46960268417994183,-0.632958193620046,1.6886865313726968e+18,2.44669677734375,-0.7839437325795492,-0.05696318298578262,-0.4753549595673879,,,,,,,,,,,,1.6886865313788864e+18,2.452886474609375,15.284159660339355,38.0810791015625,25.673679733276366,1.6886865313788864e+18,2.452886474609375,-240.06183471679688,133.10687866210938,-107.05011901855468,1.688686531377022e+18,2.4510218098958334,0.10213657220204668,0.39065364996592206,-0.5429170529047648,0.73629762729009,1.4187650680541992,0.803432842095693,-0.9750800728797913
2.5,1.6886865314289336e+18,2.5029337565104166,0.16524473826090494,0.1503149668375651,2.1786979039510093,1.6886865314202778e+18,2.4942776692708333,1.1228320002555847,-7.2470622062683105,-4.472783803939819,1.6886865314289336e+18,2.5029337565104166,1.0522398153940837,-7.322644233703613,-6.441785971323649,1.6886865314332567e+18,2.507256591796875,-0.5536984403928121,-1.2320643067359924,-1.0343475540479024,1.6886865314246052e+18,2.4986053059895834,-0.5623014569282532,-1.3286319176355998,-1.1065824031829834,,,,,,,,,,,,1.688686531428882e+18,2.502881982421875,16.06007957458496,38.15183944702149,25.236919403076172,1.688686531428882e+18,2.502881982421875,-239.2859130859375,133.17763671875,-107.48687896728515,1.6886865314289336e+18,2.5029337565104166,0.11658083647489544,0.35720228155454,-0.5644107063611349,0.7349104881286621,1.4086292187372844,0.8426802754402161,-1.0423497358957927
2.5500000000000003,1.6886865314808456e+18,2.5548454589843748,0.41336993376413983,1.0079919497172039,1.9611660639444988,1.6886865314721933e+18,2.546193115234375,1.353141188621521,-6.701498667399089,-4.046661853790283,1.6886865314808456e+18,2.5548454589843748,1.1259492635726929,-7.530270894368489,-6.1849721272786455,1.688686531476521e+18,2.5505209960937503,-0.5659666508436203,-0.15561791555956,0.20639609545469284,1.6886865314765202e+18,2.5505204264322914,-0.6024149556954702,-0.1958841234445572,0.14233159522215524,,,,,,,,,,,,1.6886865314788818e+18,2.5528817382812496,15.867319488525391,38.39339981079102,24.626919174194335,1.6886865314788818e+18,2.5528817382812496,-239.47867736816406,133.41919555664063,-108.09687805175781,1.6886865314808456e+18,2.5548454589843748,0.11810113986333205,0.3356226483980815,-0.5743551452954611,0.7372203469276428,1.3904016017913818,0.8750596443812052,-1.0617033243179321
2.6,1.6886865315327532e+18,2.6067532552083335,-0.38904003302256274,3.3845152060190835,2.0387951532999673,1.6886865315241004e+18,2.5981004231770832,1.1310075024763744,-4.823730945587158,-3.8530426820119223,1.6886865315327532e+18,2.6067532552083335,1.1323468685150146,-7.818857192993164,-5.812551021575928,1.6886865315197755e+18,2.5937755533854165,-1.1535681088765461,0.8266024986902872,0.5098179578781128,1.6886865315284326e+18,2.6024326171875,-1.2779810031255086,1.016530692577362,0.4994841516017914,,,,,,,,,,,,1.6886865315288847e+18,2.6028847167968747,15.328079795837402,39.80615921020508,22.767639923095704,1.6886865315288847e+18,2.6028847167968747,-240.01791687011718,134.8319580078125,-109.95615844726562,1.6886865315327532e+18,2.6067532552083335,0.08472960193951921,0.3336859146753947,-0.5752075513203939,0.7419068018595377,1.378260652224223,0.9224992394447327,-1.0046993891398113
2.6500000000000004,1.6886865315760118e+18,2.6500115966796876,-1.1684677004814148,5.427311420440674,1.2667797803878784,1.6886865315760177e+18,2.650017578125,-0.19302102923393247,-2.8660032749176025,-3.764707644780477,1.6886865315760118e+18,2.6500115966796876,0.9828608334064483,-8.218083381652832,-5.26296854019165,1.6886865315716936e+18,2.6456935221354168,-2.1047362089157104,1.2590951124827068,0.45692721009254456,1.6886865315803443e+18,2.654344401041667,-2.364099383354187,1.183704098065694,0.41864630579948425,,,,,,,,,,,,1.6886865315788864e+18,2.652886279296875,15.213399696350098,41.93628005981445,17.819320106506346,1.6886865315788864e+18,2.652886279296875,-240.13259582519532,136.9620788574219,-114.90447692871093,1.6886865315760118e+18,2.6500115966796876,0.03684788476675745,0.3332490175962448,-0.582040548324585,0.7407354712486267,1.3859177827835083,0.9932819902896881,-0.9450840950012208
2.7,1.6886865316192727e+18,2.6932727864583335,-1.1837513049443562,7.224205017089844,0.8750198682149252,1.6886865316279293e+18,2.7019293619791664,-0.29032915333906806,-1.336590866247813,-2.628515640894572,1.6886865316192727e+18,2.6932727864583335,0.8726209402084351,-8.845983187357584,-4.114378770192464,1.6886865316235988e+18,2.6975987141927082,-4.037259340286255,0.7835873961448669,0.10257445834577084,1.688686531632255e+18,2.7062552083333333,-4.365955670674642,0.7681630452473959,0.048360167692104966,,,,,,,,,,,,1.688686531628882e+18,2.702881982421875,15.389079666137695,44.695919036865234,9.186599826812744,1.688686531628882e+18,2.702881982421875,-239.9569122314453,139.7217224121094,-123.53719635009766,1.6886865316192727e+18,2.6932727864583335,-0.027682392004256432,0.30736157298088074,-0.6006334821383158,0.7370047569274902,1.3596259752909343,1.1268358230590823,-0.8688608407974243
2.75,1.6886865316711854e+18,2.745185465494792,-1.270553966363271,5.7770077387491865,1.3681323130925496,1.6886865316798444e+18,2.753844156901042,-0.6701897283395132,-5.886942028999329,0.0919242799282074,1.6886865316711854e+18,2.745185465494792,0.7000017960866293,-9.59001350402832,-1.7715975642204285,1.6886865316755156e+18,2.7495155436197916,-5.937864780426025,0.694197436173757,-0.2493857343991597,1.6886865316755118e+18,2.74951171875,-5.771225690841675,0.6717990636825562,-0.2664135992527008,,,,,,,,,,,,1.688686531678882e+18,2.752881982421875,15.313439750671387,45.3059196472168,-3.174439884722233,1.688686531678882e+18,2.752881982421875,-240.03255920410157,140.33171691894532,-135.8982391357422,1.6886865316711854e+18,2.745185465494792,-0.13218870759010312,0.24277681608994794,-0.6361610293388367,0.7191451191902161,1.1311102509498596,1.3726805448532104,-0.5913296838601431
2.8000000000000003,1.688686531723099e+18,2.7970988769531253,-3.093128760655721,-18.700450261433918,11.196842511494955,1.6886865317317548e+18,2.8057547200520836,-2.5966113408406577,-32.4201545715332,16.81197150548299,1.688686531723099e+18,2.7970988769531253,0.5602626800537109,-9.473883310953775,2.1446640690167746,1.6886865317274273e+18,2.801427327473958,-7.861377557118733,-0.037568215280771255,0.13377948105335238,1.688686531718772e+18,2.7927718912760415,-8.799361228942871,0.21741711099942526,-0.0691295862197876,,,,,,,,,,,,1.6886865317288878e+18,2.8028879394531248,15.791679573059081,39.9452392578125,-21.26947937011719,1.6886865317288878e+18,2.8028879394531248,-239.5543182373047,134.97103881835938,-153.99328002929687,1.688686531723099e+18,2.7970988769531253,-0.2791227797667185,0.11750986675421393,-0.6749619841575623,0.6697807113329569,-1.1805723309516907,1.3368171453475952,1.7542187372843425
2.85,1.6886865317750065e+18,2.84900634765625,-1.9578813314437866,-5.19410769144694,3.673876245816549,1.6886865317836618e+18,2.857661783854167,-1.1128619213898976,-9.608379046122232,3.9714874625205994,1.6886865317750065e+18,2.84900634765625,0.6455540756384531,-9.283708890279135,3.0787933667500815,1.6886865317793354e+18,2.853335611979167,2.4574600060780845,-3.305951793988546,0.3045672178268433,1.6886865317706857e+18,2.8446857910156247,1.9800179104010265,-2.335643251736959,0.6670648654301962,,,,,,,,,,,,1.6886865317788805e+18,2.852880517578125,16.028359603881835,39.03023986816406,-23.83391990661621,1.6886865317788805e+18,2.852880517578125,-239.31763305664063,134.05603637695313,-156.55771484375,1.6886865317750065e+18,2.84900634765625,-0.28893837332725525,0.059323613842328336,-0.6807484030723572,0.6697738567988077,-1.3635889689127605,1.244006355603536,1.86847980817159
2.9000000000000004,1.6886865318269235e+18,2.900923502604167,1.3083261499802272,4.9331644376118975,-0.1437466144561767,1.688686531826919e+18,2.9009190673828122,0.7184450030326843,-4.44377064704895,2.388336181640625,1.6886865318269235e+18,2.900923502604167,-0.4714998050282399,-9.487147331237793,2.422635555267334,1.6886865318312497e+18,2.905249755859375,0.4427245905001958,-6.129879951477051,-1.0892745455106099,1.688686531822599e+18,2.896598958333333,0.674089789390564,-6.418615659077962,-1.142012596130371,,,,,,,,,,,,1.688686531828885e+18,2.902884912109375,23.280039978027343,39.6939193725586,-16.221119689941407,1.688686531828885e+18,2.902884912109375,-232.06595458984376,134.71971740722657,-148.94491882324218,1.6886865318269235e+18,2.900923502604167,-0.16211435198783872,-0.010115110004941568,-0.7231673995653788,0.6697954138120016,-1.7638734579086304,1.3136571645736694,1.9812715848286946
2.95,1.6886865318788355e+18,2.95283544921875,6.732241113980611,1.281683127085368,0.039579312006632485,1.6886865318701875e+18,2.9441875,6.344768524169922,-7.21595557530721,2.203989108403524,1.6886865318788355e+18,2.95283544921875,-0.9644054770469666,-9.449625651041666,2.4436965783437095,1.6886865318831616e+18,2.9571617024739587,-0.7196501692136129,1.481042742729187,0.4317799111207326,1.6886865318745108e+18,2.948510986328125,-0.6034330427646637,0.0800742506980896,0.12044226129849751,,,,,,,,,,,,1.688686531878881e+18,2.9528810546875,27.425599670410158,38.79599838256836,-12.65139980316162,1.688686531878881e+18,2.9528810546875,-227.92039794921874,133.82179565429686,-145.3751983642578,1.6886865318788355e+18,2.95283544921875,-0.11622897287209823,-0.05864338080088294,-0.7386591633160909,0.6611974040667216,-1.9481463034947712,1.299050768216451,2.0303872426350913
3.0,1.688686531930745e+18,3.0047451171875004,-0.9291695455710093,-2.083207130432129,1.6597297191619873,1.6886865319220943e+18,2.996094319661458,-0.8285148665308952,-11.478569348653158,4.592823664347331,1.688686531930745e+18,3.0047451171875004,-0.12154237056771912,-9.39620304107666,2.809788465499878,1.688686531926417e+18,3.0004168701171876,-0.2985604028217495,3.589596748352051,0.8907942473888397,1.6886865319264195e+18,3.0004192708333335,-0.29850947856903076,3.3444363276163735,0.7331401215245327,,,,,,,,,,,,1.688686531928882e+18,3.002881982421875,23.060439682006837,39.47187881469726,-17.282519721984862,1.688686531928882e+18,3.002881982421875,-232.28555297851562,134.4976776123047,-150.00631713867188,1.688686531930745e+18,3.0047451171875004,-0.18482032914956403,-0.017585959324302732,-0.7110726634661356,0.6778135895729065,-1.613982081413269,1.2793416182200115,1.8536467949549358
3.0500000000000003,1.6886865319826593e+18,3.056659261067708,-1.245414137840271,0.4439700444539388,0.2647161483764648,1.6886865319740035e+18,3.0480033365885415,-1.1130613485972087,-9.134002367655436,3.15334145228068,1.6886865319826593e+18,3.056659261067708,0.028600487237175298,-9.409719785054525,2.7734951972961426,1.6886865319696822e+18,3.0436819661458334,0.1254309962193171,1.3557645082473755,-0.42699480056762695,1.6886865319783342e+18,3.0523343912760414,0.09672032793362934,1.2125166257222493,-0.41976624727249146,,,,,,,,,,,,1.6886865319788854e+18,3.052885400390625,21.062079238891602,39.62071914672852,-19.107639694213866,1.6886865319788854e+18,3.052885400390625,-234.2839141845703,134.64651794433593,-151.83143615722656,1.6886865319826593e+18,3.056659261067708,-0.2154514094193776,0.0159253176922599,-0.7058339317639669,0.6745799978574117,-1.5601446628570557,1.2841848929723103,1.8922840754191081
3.1,1.6886865320259164e+18,3.0999163818359374,-1.609109342098236,0.3295578956604004,0.09650051593780509,1.6886865320259146e+18,3.0999147949218746,-1.5405790011088054,-9.12502924601237,2.925624450047811,1.6886865320259164e+18,3.0999163818359374,0.0703613050282001,-9.416145324707031,2.7507835626602173,1.688686532021593e+18,3.0955930989583336,0.03721187422828127,0.82415904601415,-0.005599599642058167,1.6886865320302405e+18,3.104240315755208,0.02122756714622177,0.7456628282864889,0.08699738979339595,,,,,,,,,,,,1.6886865320288865e+18,3.10288642578125,19.981159591674803,39.27667922973633,-19.93967971801758,1.6886865320288865e+18,3.10288642578125,-235.36483764648438,134.30247802734374,-152.6634765625,1.6886865320259164e+18,3.0999163818359374,-0.22888283431529993,0.031133615411818,-0.7038293778896332,0.6717566251754761,-1.5447659492492676,1.2865219712257385,1.9184022545814514
3.1500000000000004,1.688686532069175e+18,3.143174967447917,-1.7418952385584514,0.0682592391967773,-0.005326032638549837,1.6886865320778268e+18,3.1518269042968754,-1.4079767068227131,-9.357531865437826,2.795813878377279,1.688686532069175e+18,3.143174967447917,0.2357494135697682,-9.414268493652344,2.747425635655721,1.6886865320735045e+18,3.1475044759114588,0.00015271633553009972,0.1840740628540516,0.41727187236150104,1.6886865320821583e+18,3.1561581217447916,-0.0060068417030076674,0.07584910094738007,0.44450627764066053,,,,,,,,,,,,1.688686532078882e+18,3.1528820312500003,19.18327941894531,39.64755859375,-20.251999664306645,1.688686532078882e+18,3.1528820312500003,-236.1627166748047,134.67335815429686,-152.97579650878907,1.688686532069175e+18,3.143174967447917,-0.23585591713587437,0.03629473100105917,-0.6975550651550293,0.6756194035212199,-1.484650731086731,1.2858461141586301,1.8759615023930867
3.2,1.6886865321210867e+18,3.1950867513020835,-1.2118752002716064,0.04907576243082679,0.25694807370503736,1.6886865321297428e+18,3.203743001302083,-0.6959125995635986,-9.350353240966799,3.1417760848999023,1.6886865321210867e+18,3.1950867513020835,0.4179928998152414,-9.403659184773764,2.7625195185343423,1.6886865321254185e+18,3.1994185384114586,-0.034768413131435666,-0.3083851436773936,0.33404147624969477,1.6886865321254106e+18,3.1994105224609375,-0.0416915528476238,-0.3023782968521118,0.34735324978828425,,,,,,,,,,,,1.688686532128886e+18,3.2028859863281247,18.14871940612793,39.898878479003905,-20.02263984680176,1.688686532128886e+18,3.2028859863281247,-237.19727783203126,134.9246826171875,-152.7464385986328,1.6886865321210867e+18,3.1950867513020835,-0.23475339015324906,0.03145387396216386,-0.6910902857780457,0.6828508377075195,-1.4199803670247395,1.2820237477620442,1.802746097246806
3.25,1.6886865321730076e+18,3.247007649739583,-0.8042653401692709,0.2312335968017578,0.44364213943481445,1.6886865321816538e+18,3.255653971354167,-0.3523431320985158,-9.193025271097818,3.3190444310506186,1.6886865321730076e+18,3.247007649739583,0.3858567972977956,-9.398180007934572,2.7853968938191733,1.6886865321773322e+18,3.25133203125,-0.018631389675040966,-0.6835073033968607,-0.1724676222850879,1.6886865321686774e+18,3.2426771647135415,-0.015169820049777566,-0.6255260209242502,-0.07625634719928102,,,,,,,,,,,,1.688686532178884e+18,3.25288408203125,18.873400115966795,39.735399627685545,-19.700559997558592,1.688686532178884e+18,3.25288408203125,-236.47259521484375,134.76119689941407,-152.4243591308594,1.6886865321730076e+18,3.247007649739583,-0.2261955837408701,0.021525829409559532,-0.6926384766896566,0.6845414638519287,-1.4323644240697224,1.28006911277771,1.7883098125457764
3.3000000000000003,1.6886865322249096e+18,3.298909749348958,-0.294601559638977,0.06921672821044916,0.4466751416524251,1.6886865322335593e+18,3.3075594075520836,-0.19521445035934448,-9.31884765625,3.272982597351074,1.6886865322249096e+18,3.298909749348958,0.1061033817629019,-9.398077328999838,2.8096818923950195,1.6886865322292388e+18,3.303238688151042,-0.031764993444085066,-0.5041674474875132,-0.4533638258775075,1.6886865322205878e+18,3.2945875651041665,-0.028608856101830768,-0.5804746945699056,-0.44567711154619843,,,,,,,,,,,,1.6886865322288812e+18,3.30288125,20.31299934387207,39.613398742675784,-19.419959259033202,1.6886865322288812e+18,3.30288125,-235.03299560546876,134.63919677734376,-152.1437561035156,1.6886865322249096e+18,3.298909749348958,-0.21451259156068167,0.011277821225424567,-0.7030915021896362,0.6778614123662313,-1.5322152773539226,1.2800521850585938,1.856353720029195
3.35,1.6886865322768223e+18,3.350822265625,-0.15628135701020557,0.07908789316813149,0.19572250048319498,1.688686532276826e+18,3.350826171875,-0.3355933725833893,-9.31884765625,3.0837501287460327,1.6886865322768223e+18,3.350822265625,-0.16661369055509564,-9.390201886494955,2.8331169287363687,1.6886865322811538e+18,3.3551539713541665,-0.04571308319767311,-0.27631471554438275,-0.48451794187227887,1.6886865322725e+18,3.346500162760417,-0.0493273685375849,-0.26969701051712036,-0.4671592017014821,,,,,,,,,,,,1.6886865322788813e+18,3.3528813476562496,21.55007972717285,39.235198974609375,-19.134479522705078,1.6886865322788813e+18,3.3528813476562496,-233.79591674804686,134.26099853515626,-151.8582763671875,1.6886865322768223e+18,3.350822265625,-0.20912510156631467,0.007070063458134667,-0.7129626274108887,0.6692419648170471,-1.628640055656433,1.2772878011067708,1.9389520486195881
3.4000000000000004,1.6886865323287375e+18,3.402737467447917,0.18414460122585294,-0.0026591618855794676,0.13859113057454422,1.6886865323200827e+18,3.3940825195312505,-0.2701895584662755,-9.41775099436442,3.0416763623555503,1.6886865323287375e+18,3.402737467447917,-0.42668070395787555,-9.380239168802897,2.839400847752889,1.6886865323330621e+18,3.4070620117187502,0.011759156206001833,-0.11015936825424431,-0.3868813216686249,1.6886865323244137e+18,3.3984137369791667,0.002494365908205467,-0.16269377991557119,-0.41986804207166034,,,,,,,,,,,,1.6886865323288852e+18,3.4028852050781255,22.823759460449217,38.720359802246094,-18.939279556274414,1.6886865323288852e+18,3.4028852050781255,-232.52223510742186,133.74615783691405,-151.66307678222657,1.6886865323287375e+18,3.402737467447917,-0.20510578155517575,0.005218248193462633,-0.7222178181012472,0.6605286002159119,-1.7191569407780964,1.273815433184306,2.0210549036661782
3.45,1.6886865323806495e+18,3.454649332682292,0.3439774215221405,-0.025810241699218733,0.09987330436706542,1.6886865323719954e+18,3.4459954427083335,-0.1489532093207041,-9.429316520690918,3.0313074588775635,1.6886865323806495e+18,3.454649332682292,-0.5480289459228516,-9.374436060587565,2.83823831876119,1.6886865323763308e+18,3.450330810546875,0.0005345069803297502,0.22777638584375381,-0.22136228531599045,1.6886865323763172e+18,3.4503171386718754,0.0021889337804168667,0.22902356584866837,-0.21135937670866647,,,,,,,,,,,,1.6886865323788815e+18,3.4528815429687496,23.68507957458496,38.464158630371095,-19.080799865722657,1.6886865323788815e+18,3.4528815429687496,-231.66091613769532,133.48995971679688,-151.80459594726562,1.6886865323806495e+18,3.454649332682292,-0.20669163763523102,0.0084394396593173,-0.7264605363210043,0.6553292870521545,-1.7608222961425781,1.27180810769399,2.069722811381022
3.5,1.688686532432561e+18,3.506560791015625,-0.3194497724374135,-0.017802556355794266,-0.0665775934855143,1.6886865324239066e+18,3.497906656901042,-0.7314061125119528,-9.375278155008951,2.8221348921457925,1.688686532432561e+18,3.506560791015625,-0.5083308319250742,-9.3752654393514,2.8427748680114746,1.688686532419581e+18,3.4935810546874997,0.0128790754824876,0.3369939923286438,0.031001413861910503,1.6886865324282327e+18,3.50223291015625,0.018122335275014164,0.30263282855351764,0.08404487743973733,,,,,,,,,,,,1.688686532428884e+18,3.502884033203125,23.49475975036621,38.34947967529297,-19.27599983215332,1.688686532428884e+18,3.502884033203125,-231.85123596191406,133.37527770996093,-151.9997985839844,1.688686532432561e+18,3.506560791015625,-0.21269994974136344,0.014270812273025466,-0.7249765992164612,0.6549504001935323,-1.7470168670018513,1.2720956802368164,2.0730579694112143
3.5500000000000003,1.6886865324758208e+18,3.5498208007812497,-0.3851737976074219,-0.0331158638000488,0.28071033954620356,1.688686532475815e+18,3.549815022786458,-0.7611170013745626,-9.404789924621582,3.1682965755462646,1.6886865324758208e+18,3.5498208007812497,-0.39744228124618525,-9.385176181793213,2.8276904821395874,1.688686532471496e+18,3.545495849609375,0.05940664559602734,0.09560041129589077,0.28975374996662134,1.6886865324801482e+18,3.5541483561197915,0.0640899464488029,0.09855292489131286,0.31159218152364093,,,,,,,,,,,,1.688686532478886e+18,3.552885791015625,22.879879760742188,38.50319900512695,-19.371159744262695,1.688686532478886e+18,3.552885791015625,-232.46611633300782,133.52900085449218,-152.09495544433594,1.6886865324758208e+18,3.5498208007812497,-0.2143178358674049,0.015858916565775802,-0.7210336923599243,0.658729612827301,-1.7096610069274902,1.2755433320999146,2.040263295173645
3.6,1.6886865325190787e+18,3.5930787760416667,-0.19156886637210843,0.253719965616862,0.6816978454589844,1.688686532527733e+18,3.6017330729166663,-0.41256249944369,-9.151549657185873,3.607977787653605,1.6886865325190787e+18,3.5930787760416667,-0.24877389768759406,-9.395341873168945,2.810551643371582,1.6886865325234025e+18,3.5974025065104165,0.03502293986578777,0.38148534297943115,0.26842437187830603,1.688686532532056e+18,3.6060559082031247,0.02891428830722963,0.47448957959810895,0.24439699947834015,,,,,,,,,,,,1.6886865325288852e+18,3.602885302734375,21.901439666748047,38.96191940307617,-19.529759216308594,1.6886865325288852e+18,3.602885302734375,-233.4445556640625,133.9877197265625,-152.25355834960936,1.6886865325190787e+18,3.5930787760416667,-0.21693872908751166,0.018157890066504468,-0.7156998515129089,0.6636041005452474,-1.6582554578781128,1.2791163921356201,1.9959021011988323
3.6500000000000004,1.6886865325709888e+18,3.6449887695312504,-0.5201146999994913,0.2968037923177083,0.7057402928670248,1.6886865325796452e+18,3.65364501953125,-0.676770011583964,-9.124430974324545,3.5120654106140137,1.6886865325709888e+18,3.6449887695312504,-0.07675854985912638,-9.399542490641275,2.8066487312316895,1.6886865325753147e+18,3.6493144531249997,0.021634810681765232,0.7694865862528483,0.0752382340530554,1.6886865325753208e+18,3.6493209228515626,0.0219911490567028,0.7877107560634613,0.07276932150125501,,,,,,,,,,,,1.688686532578883e+18,3.6528831542968754,20.627759552001955,39.24251937866211,-20.007999420166016,1.688686532578883e+18,3.6528831542968754,-234.71823120117188,134.26831665039063,-152.73179931640624,1.6886865325709888e+18,3.6449887695312504,-0.22809215386708573,0.028143047665556236,-0.7092125217119852,0.6664598981539408,-1.5972847143809001,1.2806066274642944,1.9655875364939372
3.7,1.6886865326229005e+18,3.696900472005208,-1.1549516121546428,0.1322072347005208,0.3229662577311197,1.6886865326315528e+18,3.7055525716145836,-1.1754741271336873,-9.302696228027344,3.1296125253041587,1.6886865326229005e+18,3.696900472005208,0.0352466281813879,-9.39885425567627,2.8099610010782876,1.6886865326272315e+18,3.701231282552083,-0.009213884205867768,0.5826127231121063,0.022042054100893434,1.688686532618584e+18,3.692584065755208,-0.007584910063693833,0.66375599304835,0.0141517120258261,,,,,,,,,,,,1.688686532628886e+18,3.7028859375000005,19.812799835205077,39.188839721679685,-20.78391914367676,1.688686532628886e+18,3.7028859375000005,-235.53319702148437,134.21463928222656,-153.50772094726562,1.6886865326229005e+18,3.696900472005208,-0.241551399230957,0.040576302756865766,-0.7045699755350748,0.6660108764966329,-1.5573457876841228,1.280368725458781,1.9633653163909912
3.75,1.6886865326748122e+18,3.748812255859375,-1.4496792952219646,0.0428937276204427,-0.0110764503479004,1.688686532683473e+18,3.7574730631510413,-1.3204392592112224,-9.393224716186523,2.863211711247762,1.6886865326748122e+18,3.748812255859375,0.10704303532838816,-9.39448610941569,2.8227672576904297,1.6886865326791427e+18,3.753142903645833,-0.0443895409504572,-0.11774427940448123,0.17155132442712784,1.6886865326704904e+18,3.744490397135417,-0.039298997571070936,0.019904021173715574,0.14767667402823761,,,,,,,,,,,,1.68868653267888e+18,3.7528799804687503,19.117399597167967,39.21079940795899,-20.881519317626953,1.68868653267888e+18,3.7528799804687503,-236.2285949707031,134.2365966796875,-153.60531921386718,1.6886865326748122e+18,3.748812255859375,-0.24659518897533414,0.043850085387627226,-0.7017678022384644,0.6669238805770874,-1.5319066445032756,1.2788259983062744,1.9501156012217205
3.8000000000000003,1.6886865327267264e+18,3.8007263997395833,-1.0210168560345967,-0.0052452087402343655,0.09310968716939294,1.688686532726722e+18,3.8007220458984374,-0.8859425485134124,-9.417551517486572,3.0029923915863037,1.6886865327267264e+18,3.8007263997395833,0.13062407324711475,-9.386825561523438,2.847195307413737,1.6886865327310426e+18,3.8050426432291666,-0.024740041815675767,-0.6836091081301371,0.19206621746222174,1.6886865327224036e+18,3.7964035644531253,-0.035328373002509204,-0.6363179485003153,0.21146118640899655,,,,,,,,,,,,1.6886865327288835e+18,3.8028833496093752,19.376039505004883,39.401119232177734,-20.72535934448242,1.6886865327288835e+18,3.8028833496093752,-235.96995544433594,134.42691955566406,-153.44915771484375,1.6886865327267264e+18,3.8007263997395833,-0.23902251819769538,0.033721407875418635,-0.7014533281326294,0.6705724596977234,-1.5238701899846394,1.2761237223943074,1.9163319269816081
3.85,1.6886865327786406e+18,3.852640625,-0.4786522388458252,0.1724020640055338,0.34248606363932294,1.6886865327699876e+18,3.8439877115885417,-0.447059025367101,-9.25085194905599,3.2207392851511636,1.6886865327786406e+18,3.852640625,0.0734041941662629,-9.38720448811849,2.8478689193725586,1.6886865327829665e+18,3.856966552734375,0.03624467117091017,-0.569937268892924,-0.025350907817482934,1.6886865327743148e+18,3.848314778645834,0.029728775223096134,-0.608727216720581,0.02336559755106767,,,,,,,,,,,,1.688686532778882e+18,3.8528820800781247,19.87136001586914,39.51335983276367,-20.134879302978515,1.688686532778882e+18,3.8528820800781247,-235.4746337890625,134.53916015625,-152.85867919921876,1.6886865327786406e+18,3.852640625,-0.22679663697878516,0.021662999565402602,-0.7040029168128967,0.6726497411727905,-1.543915867805481,1.2762567202250164,1.9010337591171265
3.9000000000000004,1.6886865328305482e+18,3.9045481770833335,-0.28002326190471644,0.09747600555419918,0.42183852195739746,1.6886865328218993e+18,3.8958990071614585,-0.33878380060195923,-9.296714146931967,3.335993528366089,1.6886865328305482e+18,3.9045481770833335,-0.0789635318020979,-9.390843073527018,2.8353161017100015,1.6886865328262195e+18,3.9002194824218748,0.02496911771595475,-0.3870594799518585,-0.26397014409303665,1.6886865328262234e+18,3.9002231445312496,0.0234165005385875,-0.38382699092229206,-0.25310183068116504,,,,,,,,,,,,1.6886865328288822e+18,3.9028820800781245,21.15723991394043,39.43771896362305,-19.873799514770507,1.6886865328288822e+18,3.9028820800781245,-234.18875732421876,134.46351623535156,-152.59759521484375,1.6886865328305482e+18,3.9045481770833335,-0.2179255088170369,0.015220455204447066,-0.7096628546714783,0.6698094010353088,-1.597501556078593,1.2775492668151855,1.9323590596516926
3.95,1.688686532882463e+18,3.9564630533854164,-0.13304995993773136,0.09021759033203121,0.28663357098897296,1.6886865328738122e+18,3.9478122558593753,-0.40179480115572613,-9.311469713846842,3.1852457523345947,1.688686532882463e+18,3.9564630533854164,-0.27140046656131744,-9.388968467712402,2.8297433058420816,1.6886865328694858e+18,3.9434858398437505,0.010231992773090734,-0.2656245678663253,-0.30741793910662335,1.688686532878138e+18,3.9521381835937497,0.012522737728431767,-0.2441933800776799,-0.2968805134296417,,,,,,,,,,,,1.6886865328788844e+18,3.952884228515625,21.88191947937012,38.87407913208008,-19.40531997680664,1.6886865328788844e+18,3.952884228515625,-233.46407470703124,133.89987487792968,-152.12911682128907,1.688686532882463e+18,3.9564630533854164,-0.2123753726482391,0.012064524615804298,-0.7165998419125875,0.6642506321271261,-1.6652814944585164,1.276908278465271,1.9875381390253704
4.0,1.6886865329257134e+18,3.99971337890625,0.11103144288063045,0.14274978637695307,0.3492623567581177,1.6886865329257234e+18,3.9997234700520834,-0.2925225694974263,-9.261021296183268,3.232703367869059,1.6886865329257134e+18,3.99971337890625,-0.40072607994079584,-9.387861728668215,2.8183608055114746,1.688686532921398e+18,3.99539794921875,0.03151046546796953,-0.14676037182410553,-0.23569217820962265,1.6886865329300472e+18,4.004047444661459,0.03242676270504787,-0.1029816993201772,-0.21186843017737067,,,,,,,,,,,,1.6886865329288794e+18,4.002879443359374,22.694439315795897,38.84967956542969,-19.366279220581056,1.6886865329288794e+18,4.002879443359374,-232.65155334472655,133.87547607421874,-152.09007873535157,1.6886865329257134e+18,3.99971337890625,-0.20903874188661575,0.01085356995463365,-0.7212055027484894,0.6603382229804993,-1.710935115814209,1.2765323519706726,2.026615619659424
4.05,1.6886865329689825e+18,4.042982421875,0.1445975502332051,0.17169348398844397,0.379378875096639,1.6886865329776346e+18,4.051634765625,-0.33240293463071185,-9.24506950378418,3.226123094558716,1.6886865329689825e+18,4.042982421875,-0.45273686448733014,-9.388091405232748,2.809779644012451,1.6886865329733092e+18,4.047309488932291,0.013795373340447732,0.13367767632007596,-0.0645989983653029,1.688686532981961e+18,4.055961018880208,0.003868813393637533,0.17374025781949362,-0.0286088567227125,,,,,,,,,,,,1.688686532978882e+18,4.052881982421875,22.88963966369629,38.77159881591797,-19.161319732666016,1.688686532978882e+18,4.052881982421875,-232.45635681152345,133.79739685058593,-151.88511962890624,1.6886865329689825e+18,4.042982421875,-0.20909844338893888,0.012194145470857566,-0.7230204939842224,0.6583078503608704,-1.729473074277242,1.276618202527364,2.0471789836883545
4.1000000000000005,1.688686533020891e+18,4.094890787760416,-0.12469045321146643,0.04762363433837887,0.13868721326192213,1.688686533029545e+18,4.103544921875,-0.5617151061693827,-9.368698438008627,2.981456995010376,1.688686533020891e+18,4.094890787760416,-0.40618074933687837,-9.386653582255045,2.8215579986572266,1.6886865330252214e+18,4.099221354166667,-0.029983303199211702,0.22047144671281174,0.12385293096303936,1.688686533025222e+18,4.099221923828125,-0.0299323974177241,0.2265546470880508,0.12835805863142005,,,,,,,,,,,,1.68868653302888e+18,4.10287998046875,22.362599563598632,38.45195846557617,-19.473639297485352,1.68868653302888e+18,4.10287998046875,-232.9833984375,133.47775573730468,-152.1974365234375,1.688686533020891e+18,4.094890787760416,-0.21315633753935492,0.0151771356662114,-0.7213213642438253,0.6588067015012106,-1.7126983404159546,1.2761110464731853,2.0406153996785483
4.15,1.688686533072806e+18,4.1468060709635415,-0.373886118332545,0.061858177185058566,-0.05230577786763504,1.6886865330814595e+18,4.155459391276042,-0.6695915460586548,-9.326225598653158,2.8388845920562744,1.688686533072806e+18,4.1468060709635415,-0.29198013742764783,-9.383540153503418,2.845851103464762,1.6886865330771325e+18,4.1511328125,-0.047036622961362136,0.16279558340708414,0.2105448891719182,1.6886865330684808e+18,4.14248095703125,-0.04769839470585183,0.1776090711355209,0.20754147072633108,,,,,,,,,,,,1.688686533078888e+18,4.152887841796875,21.74771957397461,38.734998321533205,-19.288199615478515,1.688686533078888e+18,4.152887841796875,-233.59827270507813,133.76079406738282,-152.01199645996093,1.688686533072806e+18,4.1468060709635415,-0.21755679945151007,0.016696417083342834,-0.7172410686810812,0.661779503027598,-1.6719533602396648,1.2750120957692463,2.0084795157114663
4.2,1.6886865331247145e+18,4.198714436848959,-0.5481943488121033,0.0020090738932291644,-0.1046051979064941,1.6886865331333696e+18,4.207369710286458,-0.7218348383903503,-9.402596473693848,2.8315067291259766,1.6886865331247145e+18,4.198714436848959,-0.16991522411505378,-9.379124641418457,2.8702340920766196,1.688686533129039e+18,4.203039143880208,-0.03588833318402363,0.1424334148565928,0.19949841002623236,1.6886865331203965e+18,4.1943964029947916,-0.045458554600675834,0.15088371435801182,0.21095212797323856,,,,,,,,,,,,1.6886865331288822e+18,4.202882226562499,20.92299919128418,38.98143997192383,-19.66883964538574,1.6886865331288822e+18,4.202882226562499,-234.4229949951172,134.00724182128906,-152.39263305664062,1.6886865331247145e+18,4.198714436848959,-0.22119299570719395,0.017213770498832034,-0.7128771543502808,0.6652673482894897,-1.6288130680720012,1.2734634478886921,1.9714047114054363
4.25,1.688686533176626e+18,4.250625813802084,-0.6295104225476583,0.012573560078938803,0.014519770940144866,1.68868653317663e+18,4.2506300048828125,-0.7163512706756592,-9.401101112365723,2.96111798286438,1.688686533176626e+18,4.250625813802084,-0.0858075047532717,-9.37912114461263,2.8741401036580405,1.6886865331809526e+18,4.254952799479167,0.01608611829578877,0.12283482402563091,0.06928230170160526,1.6886865331723041e+18,4.246304117838542,0.009366600696618368,0.12812898556391397,0.10043642918268836,,,,,,,,,,,,1.6886865331788815e+18,4.252881494140626,21.25483932495117,39.225439453125,-20.093399429321288,1.6886865331788815e+18,4.252881494140626,-234.09115295410157,134.25123901367186,-152.81719970703125,1.688686533176626e+18,4.250625813802084,-0.22372019787629446,0.0185361529390017,-0.7098289330800375,0.6676433682441711,-1.5994766155878704,1.273456613222758,1.9476563135782878
4.3,1.6886865332285391e+18,4.302539306640625,-0.6518754760424296,0.12344805399576818,0.23824206988016758,1.688686533219889e+18,4.293888916015625,-0.7218348185221354,-9.297711054484049,3.1435707410176597,1.6886865332285391e+18,4.302539306640625,-0.08398083597421642,-9.382916768391928,2.8617839018503823,1.6886865332328643e+18,4.3068642578125,0.034055736536780935,0.10557787617047625,-0.09829840188225107,1.6886865332242179e+18,4.2982177734375,0.033139439299702596,0.11779517928759249,-0.0751364274571339,,,,,,,,,,,,1.6886865332288845e+18,4.302884326171875,20.744879150390624,39.23031845092773,-19.944559478759764,1.6886865332288845e+18,4.302884326171875,-234.60111083984376,134.25611877441406,-152.66836242675782,1.6886865332285391e+18,4.302539306640625,-0.22538120547930393,0.0212176522860924,-0.7096851070721945,0.6671573519706726,-1.598942716916402,1.2747852404912312,1.953393777211507
4.3500000000000005,1.6886865332804493e+18,4.354449218749999,-0.6762726108233134,0.14846038818359372,0.3661500612894694,1.6886865332717965e+18,4.345796223958334,-0.8085746566454569,-9.253444035847982,3.2616166273752847,1.6886865332804493e+18,4.354449218749999,-0.1445289502541224,-9.386194547017416,2.84853196144104,1.688686533276122e+18,4.350122192382813,0.02993239741772405,-0.010690142400562751,-0.1339322030544281,1.6886865332761208e+18,4.35012060546875,0.027183503222962164,-0.011148291251932568,-0.13041973114013666,,,,,,,,,,,,1.688686533278878e+18,4.352877880859375,20.869319915771484,39.23275909423828,-20.178799438476563,1.688686533278878e+18,4.352877880859375,-234.47667541503907,134.25855712890626,-152.90259704589843,1.6886865332804493e+18,4.354449218749999,-0.2255160311857859,0.023169360434015563,-0.7117916544278463,0.6647985378901163,-1.6202696164449055,1.2759445905685425,1.9777206977208455
4.4,1.6886865333323612e+18,4.406361246744791,-0.4568800926208496,0.19427680969238278,0.3979225953420003,1.6886865333237105e+18,4.397710530598958,-0.7150551478068033,-9.209376017252604,3.3100713888804116,1.6886865333323612e+18,4.406361246744791,-0.23052161435286203,-9.38455327351888,2.8482649326324463,1.6886865333193843e+18,4.393384602864583,-0.002392555586993667,-0.21548271179199216,-0.1080722461144129,1.68868653332804e+18,4.402039794921875,-0.0102828980889171,-0.23711752891540527,-0.09422596295674636,,,,,,,,,,,,1.6886865333288842e+18,4.402884228515625,21.186519622802734,38.96679916381836,-19.922599029541015,1.6886865333288842e+18,4.402884228515625,-234.15947875976562,133.9925994873047,-152.64639282226562,1.6886865333323612e+18,4.406361246744791,-0.2221851348876953,0.0207395100345214,-0.7149339318275452,0.6626229286193848,-1.6503044764200847,1.2753823200861614,1.9994042317072551
4.45,1.6886865333756247e+18,4.449624755859375,-0.26309421658515925,0.07473850250244135,0.31672072410583496,1.6886865333756221e+18,4.449622151692709,-0.5437689622243246,-9.311470031738281,3.2340991497039795,1.6886865333756247e+18,4.449624755859375,-0.2886144816875458,-9.379072666168213,2.8610719442367554,1.6886865333712998e+18,4.445299886067708,-0.04235332397123173,-0.28384872277577716,-0.03405573715766267,1.6886865333799519e+18,4.453952067057291,-0.04668028652667994,-0.27707830071449274,-0.021940242499113,,,,,,,,,,,,1.6886865333788833e+18,4.4528833984375,22.05027961730957,38.944837951660155,-19.695679473876954,1.6886865333788833e+18,4.4528833984375,-233.29571533203125,133.97063598632812,-152.4194763183594,1.6886865333756247e+18,4.449624755859375,-0.21837786585092545,0.0163884833455085,-0.7171132564544678,0.6616567373275757,-1.6700883507728577,1.2734757661819458,2.007397770881653
4.5,1.6886865334188844e+18,4.492884602864583,-0.09824699163436885,0.060557365417480434,0.1556923389434814,1.6886865334275356e+18,4.5015354817708335,-0.3998007873694102,-9.321839014689127,3.067000389099121,1.6886865334188844e+18,4.492884602864583,-0.3203609685103098,-9.373066902160645,2.8773345947265625,1.6886865334232105e+18,4.497210693359375,-0.03593923772374783,-0.1853976026177406,0.0189368231998135,1.688686533431857e+18,4.50585693359375,-0.031001410757501863,-0.1463022281726201,0.0296778703729311,,,,,,,,,,,,1.6886865334288852e+18,4.502885302734375,21.981959533691406,38.68619918823242,-19.373599243164062,1.6886865334288852e+18,4.502885302734375,-233.3640380859375,133.71199645996094,-152.09739990234374,1.6886865334188844e+18,4.492884602864583,-0.2152457386255264,0.0121362529074152,-0.7183242638905843,0.661460816860199,-1.680444598197937,1.2713944911956787,2.007098992665609
4.55,1.6886865334707927e+18,4.544792724609375,-0.11570721864700313,0.0383542378743489,0.06509478886922197,1.6886865334794506e+18,4.553450439453125,-0.4472584327061971,-9.35972531636556,3.020340363184611,1.6886865334707927e+18,4.544792724609375,-0.31366843978563946,-9.37100346883138,2.8847814400990806,1.6886865334751232e+18,4.549123209635416,0.0026979881804436337,0.020667608206470803,0.05039638280868527,1.6886865334751101e+18,4.549110107421875,0.0020616701804101497,0.0279470846289769,0.0541379321366548,,,,,,,,,,,,1.6886865334788833e+18,4.552883447265625,22.123479080200195,38.98631896972656,-19.38091926574707,1.6886865334788833e+18,4.552883447265625,-233.22251586914064,134.01211547851562,-152.10471801757814,1.6886865334707927e+18,4.544792724609375,-0.2141138116518656,0.010254997449616566,-0.7181170781453451,0.662086009979248,-1.6778721809387207,1.2706793546676636,2.0001771052678423
4.6000000000000005,1.6886865335227077e+18,4.596707926432291,-0.30356899897257483,0.0554259618123372,0.17425672213236487,1.688686533531361e+18,4.605361002604167,-0.6055835286776224,-9.315457979838053,3.129812002182007,1.6886865335227077e+18,4.596707926432291,-0.2757568558057149,-9.374117215474447,2.8785109519958496,1.6886865335270339e+18,4.60103369140625,0.027845274036129266,0.15948673586050666,0.05217807367444033,1.6886865335183834e+18,4.592383463541666,0.02514728593329583,0.14732033262650165,0.05375614141424493,,,,,,,,,,,,1.6886865335288837e+18,4.602883642578125,21.58179931640625,39.01559906005859,-19.624919128417968,1.6886865335288837e+18,4.602883642578125,-233.76419677734376,134.04139709472656,-152.34871520996094,1.6886865335227077e+18,4.596707926432291,-0.21568523844083146,0.011978432225684267,-0.7167430718739828,0.66303418080012,-1.6650561491648357,1.271751880645752,1.9921099344889324
4.65,1.68868653357462e+18,4.648619954427083,-0.5228411157925924,0.2200406392415364,0.1930478413899739,1.688686533583268e+18,4.65726806640625,-0.7766703565915426,-9.185647328694662,3.1200413703918457,1.68868653357462e+18,4.648619954427083,-0.22956559558709455,-9.377216021219889,2.87248158454895,1.6886865335789468e+18,4.652946858723959,0.0014762574962029669,0.13545936842759446,0.040266200900077764,1.6886865335702986e+18,4.644298421223958,0.009824749082326866,0.16096299389998114,0.049072841803232764,,,,,,,,,,,,1.6886865335788844e+18,4.65288427734375,21.176759338378908,39.035118865966794,-19.75179977416992,1.6886865335788844e+18,4.65288427734375,-234.1692321777344,134.06091918945313,-152.47559814453126,1.68868653357462e+18,4.648619954427083,-0.2184980511665344,0.0149071511502067,-0.7150426308314005,0.6638896663983663,-1.649278998374939,1.2728246053059895,1.9846307436625164
4.7,1.6886865336265326e+18,4.700532389322917,-0.6390443841616312,0.09848244984944655,0.12019848823547356,1.6886865336265324e+18,4.700532226562499,-0.8464609980583191,-9.29611587524414,3.0640093088150024,1.6886865336265326e+18,4.700532389322917,-0.21884589393933615,-9.373105684916178,2.886706749598185,1.6886865336308541e+18,4.70485400390625,-0.043167810887098264,-0.07126761189041037,0.013744468179841767,1.6886865336222067e+18,4.6962068684895835,-0.040113485107819195,-0.030186923841635366,0.0164424562826752,,,,,,,,,,,,1.6886865336288822e+18,4.70288212890625,21.208480072021484,39.159558868408205,-19.722520065307616,1.6886865336288822e+18,4.70288212890625,-234.13751831054688,134.18535766601562,-152.44631652832032,1.6886865336265326e+18,4.700532389322917,-0.21958210567633307,0.0148572524388631,-0.7146591146787008,0.6639465093612671,-1.645175298055013,1.271404544512431,1.9820632537206013
4.75,1.6886865336784433e+18,4.752443277994792,-0.5746492346127828,0.041599273681640604,0.031927744547526,1.6886865336697884e+18,4.7437880859375,-0.840678334236145,-9.315457979838053,2.995814005533854,1.6886865336784433e+18,4.752443277994792,-0.25093794862429303,-9.365275700887045,2.9093743165334067,1.6886865336827712e+18,4.756771402994791,-0.0490728418032328,-0.3263547668854396,-0.007177666450540199,1.6886865336741184e+18,4.748118408203125,-0.05319618309537563,-0.2800308167934417,-5.0905315826299535e-05,,,,,,,,,,,,1.688686533678885e+18,4.752885107421875,21.27191925048828,38.964359283447266,-19.33455924987793,1.688686533678885e+18,4.752885107421875,-234.07407836914064,133.9901580810547,-152.05835876464843,1.6886865336784433e+18,4.752443277994792,-0.2167474726835886,0.0104643208906054,-0.7158751289049784,0.6636473933855692,-1.6555251280466716,1.2687142690022786,1.9820002317428589
4.800000000000001,1.688686533730359e+18,4.804358968098959,-0.15196117758750913,0.021890640258789035,0.2935043176015218,1.6886865337217037e+18,4.795703857421874,-0.5306084255377451,-9.384849548339844,3.2143584887186685,1.688686533730359e+18,4.804358968098959,-0.3178930580615997,-9.361119906107586,2.916192611058553,1.6886865337260303e+18,4.8000302734375,-0.0006872233934700506,-0.33353242278099055,-0.032910365611314746,1.68868653372603e+18,4.8000302734375,-0.0006108657301714,-0.31378111739953357,-0.032935817725956364,,,,,,,,,,,,1.6886865337288847e+18,4.802884716796875,21.894119644165038,39.05220031738281,-19.22963943481445,1.6886865337288847e+18,4.802884716796875,-233.45187683105468,134.0779998779297,-151.95343627929688,1.688686533730359e+18,4.804358968098959,-0.21063184241453803,0.004118186111251467,-0.7183188994725546,0.6630470156669617,-1.6780833005905151,1.2672964731852214,1.986538330713908
4.8500000000000005,1.6886865337822636e+18,4.856263427734375,0.035942296187082896,0.17439206441243485,0.5991644859313965,1.6886865337736123e+18,4.847612548828125,-0.2987040281295776,-9.214959462483725,3.5218361218770347,1.6886865337822636e+18,4.856263427734375,-0.3630247910817464,-9.364069938659668,2.9014598528544107,1.6886865337692864e+18,4.8432861328125005,0.0428114719688892,0.07752897590398788,-0.10522153973579403,1.6886865337779423e+18,4.851942220052083,0.04897103210290266,0.1754201396058003,-0.11642073343197501,,,,,,,,,,,,1.6886865337788828e+18,4.852882763671875,22.247919845581055,38.800879669189456,-19.2833194732666,1.6886865337788828e+18,4.852882763671875,-233.09807739257812,133.82667541503906,-152.00711669921876,1.6886865337822636e+18,4.856263427734375,-0.20997123916943863,0.0050546835797527995,-0.7199119925498962,0.6615197459856669,-1.6939845085144043,1.2683097124099731,2.0028149286905923
4.9,1.6886865338255268e+18,4.899526733398437,-0.18174342811107635,0.3310527801513672,0.6556026935577393,1.6886865338255299e+18,4.899529947916666,-0.5659025410811106,-9.104889551798502,3.618346691131592,1.6886865338255268e+18,4.899526733398437,-0.37564824521541595,-9.367091655731201,2.890086531639099,1.6886865338212045e+18,4.895204345703125,0.05044728890061373,0.5170974234739939,-0.1774563491344451,1.6886865338298504e+18,4.903850585937501,0.0409279707819223,0.5490151544411978,-0.17679457863171896,,,,,,,,,,,,1.68868653382888e+18,4.9028800781249995,22.306479263305665,38.813079071044925,-19.556599426269532,1.68868653382888e+18,4.9028800781249995,-233.03951416015624,133.83887634277343,-152.2803985595703,1.6886865338255268e+18,4.899526733398437,-0.21604299545288086,0.012706725392490601,-0.7202648818492889,0.6590718030929565,-1.6987743377685547,1.2693544626235962,2.027463674545288
4.95,1.688686533868785e+18,4.942785074869792,-0.5945476392904917,0.1530030568440755,0.4516022205352783,1.6886865338774387e+18,4.951438720703125,-1.0111669301986694,-9.226325035095215,3.322832981745402,1.688686533868785e+18,4.942785074869792,-0.3718172510464986,-9.364216486612955,2.899869441986084,1.6886865338731133e+18,4.947113362630208,-0.020311270530025138,0.4271984299023946,-0.08720101229846473,1.6886865338817605e+18,4.955760172526042,-0.03716096871842933,0.35786523421605426,-0.05324708732465903,,,,,,,,,,,,1.6886865338788815e+18,4.952881494140625,21.991719436645507,38.65691909790039,-20.049479675292968,1.6886865338788815e+18,4.952881494140625,-233.35427551269532,133.68272094726564,-152.77327880859374,1.688686533868785e+18,4.942785074869792,-0.2242228140433629,0.020867783576250035,-0.7199382185935974,0.6564812660217285,-1.6970521211624146,1.2683810790379841,2.0494863986968994
5.0,1.6886865339206925e+18,4.994692464192709,-0.747310479482015,0.04457505544026693,-0.011459747950235966,1.688686533929349e+18,5.003349283854167,-1.0376874208450317,-9.351550102233887,2.947957436243693,1.6886865339206925e+18,4.994692464192709,-0.3474692503611246,-9.354691823323568,2.933419863382975,1.6886865339250296e+18,4.999029622395834,-0.08119417230288184,-0.11911872029304503,0.11082113906741137,1.6886865339336758e+18,5.00767578125,-0.0856229464213053,-0.19532416636745134,0.14314608772595716,,,,,,,,,,,,1.688686533928882e+18,5.00288203125,21.750159454345702,38.537359619140624,-20.344719696044923,1.688686533928882e+18,5.00288203125,-233.59583740234376,133.5631591796875,-153.06851806640626,1.6886865339206925e+18,4.994692464192709,-0.22820840775966642,0.022337118163704834,-0.7190312147140503,0.6560595830281576,-1.6874263286590576,1.2651440699895222,2.047877868016561
5.050000000000001,1.6886865339726062e+18,5.0466064453124995,-0.43174993991851807,0.0015405019124349005,-0.11574141184488929,1.688686533981261e+18,5.055261149088541,-0.666600505510966,-9.331409772237143,2.915454943974813,1.6886865339726062e+18,5.0466064453124995,-0.312281866868337,-9.345555305480957,2.966315587361654,1.6886865339769367e+18,5.050936767578125,-0.06434447194139158,-0.37629298369089753,0.2004656096299489,1.6886865339769234e+18,5.05092333984375,-0.0715475920587778,-0.3811035603284836,0.20983221381902695,,,,,,,,,,,,1.688686533978878e+18,5.05287783203125,21.523239517211913,38.66179885864258,-19.87867965698242,1.688686533978878e+18,5.05287783203125,-233.82275390625,133.6876007080078,-152.60247802734375,1.6886865339726062e+18,5.0466064453124995,-0.2239945580561956,0.014738239658375533,-0.7179738283157349,0.658872663974762,-1.674391468365987,1.2620552778244019,2.0177592436472573
5.1000000000000005,1.6886865340245156e+18,5.098515625,-0.18506211042404166,-0.015725453694661436,0.0640435218811035,1.6886865340331745e+18,5.10717431640625,-0.46002015471458435,-9.411769231160482,3.1669007937113443,1.6886865340245156e+18,5.098515625,-0.28897955020268756,-9.344640413920084,2.9715755780537925,1.6886865340288474e+18,5.1028475748697915,0.027692557312548164,-0.14263703615385268,0.06984226157267884,1.688686534020197e+18,5.094197102864583,0.011351912903288968,-0.20270545035600662,0.10155634582042687,,,,,,,,,,,,1.688686534028885e+18,5.102885009765625,22.081999206542967,38.95948028564453,-19.861599349975585,1.688686534028885e+18,5.102885009765625,-233.26399841308594,133.9852783203125,-152.58539733886718,1.6886865340245156e+18,5.098515625,-0.21893340349197385,0.008533361678322133,-0.7172499497731527,0.6614729960759481,-1.6664217313130696,1.261738697687785,1.9934431711832683
5.15,1.68868653407643e+18,5.150429931640624,-0.2530539830525716,0.12610626220703125,0.3989708423614502,1.6886865340764273e+18,5.1504274902343745,-0.5449653565883636,-9.236893653869629,3.417847990989685,1.68868653407643e+18,5.150429931640624,-0.2975579996903737,-9.352673848470053,2.9453224341074624,1.6886865340807596e+18,5.154759358723958,0.07605272283156707,0.21273382504781083,-0.12151127805312471,1.6886865340721042e+18,5.1461044108072915,0.07284568001826601,0.17256943633159003,-0.09264789521694179,,,,,,,,,,,,1.6886865340788823e+18,5.152882177734375,22.040519332885744,38.827718353271486,-19.40775947570801,1.6886865340788823e+18,5.152882177734375,-233.30547485351562,133.8535186767578,-152.13155517578124,1.68868653407643e+18,5.150429931640624,-0.21895293394724524,0.010676113267739568,-0.7175246079762777,0.6611358523368835,-1.6701658169428508,1.2644442717234294,2.0002543926239014
5.2,1.6886865341283397e+18,5.2023395182291665,-0.5175271530946096,0.20711421966552734,0.5062940120697021,1.6886865341196946e+18,5.193694742838542,-0.791027287642161,-9.15454069773356,3.493720451990763,1.6886865341283397e+18,5.2023395182291665,-0.33338407675425213,-9.360102335611979,2.917759974797567,1.6886865341326746e+18,5.2066746419270835,0.06261368840932842,0.24877487123012543,-0.1452841187516848,1.6886865341240238e+18,5.198023844401042,0.0706058430174986,0.28374690314133955,-0.15154548486073807,,,,,,,,,,,,1.6886865341288865e+18,5.20288662109375,21.852639389038085,38.85699996948242,-19.344319915771486,1.6886865341288865e+18,5.20288662109375,-233.49335632324218,133.88279418945314,-152.0681182861328,1.6886865341283397e+18,5.2023395182291665,-0.22282652060190833,0.017465484949449633,-0.7186619838078817,0.658455491065979,-1.6832398970921834,1.2669763962427776,2.0287395318349204
5.25,1.6886865341802496e+18,5.25424951171875,-0.5475651125113169,0.18811416625976562,0.33641235033671063,1.6886865341715988e+18,5.245598714192709,-0.9304092129071554,-9.19003423055013,3.3569308121999106,1.6886865341802496e+18,5.25424951171875,-0.36635710795720416,-9.360244750976562,2.9133644104003906,1.6886865341759265e+18,5.249926513671875,-0.0109192159725353,-0.02015855442732575,-0.03848450895748095,1.6886865341759255e+18,5.249925537109375,-0.0109446694453557,-0.00804305945833523,-0.0336994007229805,,,,,,,,,,,,1.6886865341788767e+18,5.2528765136718745,22.218639755249022,38.94971923828125,-19.549279403686523,1.6886865341788767e+18,5.2528765136718745,-233.12735595703126,133.97551574707032,-152.2730743408203,1.6886865341802496e+18,5.25424951171875,-0.22423752148946122,0.01977664108077677,-0.7197707096735636,0.6567010283470154,-1.6945509910583496,1.2670341332753499,2.045455535252889
5.300000000000001,1.6886865342321664e+18,5.306166422526041,-0.3747350871562958,0.0466791788736979,0.08074442545572913,1.6886865342235116e+18,5.297511637369792,-0.7617152333259583,-9.282955487569174,3.1114670435587564,1.6886865342321664e+18,5.306166422526041,-0.3591272334257762,-9.353405952453613,2.936130921045939,1.688686534219187e+18,5.293186848958333,-0.05808310334881143,-0.2044871350129445,0.10064004858334853,1.6886865342278382e+18,5.301838297526042,-0.06266459201773003,-0.22800545394420624,0.11550443619489666,,,,,,,,,,,,1.6886865342288806e+18,5.302880615234375,21.56715965270996,38.73499984741211,-19.790839767456056,1.6886865342288806e+18,5.302880615234375,-233.7788330078125,133.76079711914062,-152.51463623046874,1.6886865342321664e+18,5.306166422526041,-0.22195691366990403,0.015432856666545034,-0.7196175257364908,0.6577562093734741,-1.691163698832194,1.2647105852762859,2.0325090885162354
5.3500000000000005,1.6886865342754284e+18,5.349428466796875,-0.21299766004085535,0.01684093475341795,-0.106594443321228,1.6886865342754294e+18,5.349429280598958,-0.5694918036460876,-9.374879837036133,2.926820913950602,1.6886865342754284e+18,5.349428466796875,-0.3446930795907974,-9.347795486450195,2.955673098564148,1.688686534271104e+18,5.345103922526042,-0.05548692618807153,-0.24719680845737454,0.12049317111571622,1.688686534279756e+18,5.353756022135417,-0.05126177519559857,-0.2220495144526163,0.11804970850547152,,,,,,,,,,,,1.688686534278879e+18,5.35287900390625,22.081999588012696,38.664239501953126,-19.817679595947265,1.688686534278879e+18,5.35287900390625,-233.2639953613281,133.6900390625,-152.54147644042968,1.6886865342754284e+18,5.349428466796875,-0.21870042383670807,0.01018665218725795,-0.7192006707191467,0.6594054400920868,-1.6855458617210388,1.2628111839294434,2.0146000385284424
5.4,1.6886865343186885e+18,5.392688557942709,-0.3039414683977763,-0.04387664794921873,-0.23099168141682938,1.6886865343273372e+18,5.4013372395833334,-0.6448657115300497,-9.439286231994629,2.809373219807943,1.6886865343186885e+18,5.392688557942709,-0.327627698580424,-9.344405810038248,2.9683055877685547,1.6886865343230113e+18,5.3970111490885415,-0.022856541443616166,-0.11779517928759249,0.07936157534519829,1.6886865343316685e+18,5.405668375651042,-0.013133602992941898,-0.10410161813100177,0.07131851588686304,,,,,,,,,,,,1.688686534328888e+18,5.402888134765625,21.652559661865233,38.89603958129883,-19.67371940612793,1.688686534328888e+18,5.402888134765625,-233.6934326171875,133.92183837890624,-152.39751586914062,1.6886865343186885e+18,5.392688557942709,-0.21674294273058567,0.0068732971946398,-0.7186352610588074,0.6607099970181783,-1.6793795426686604,1.261667807896932,2.0008182922999063
5.45,1.6886865343706028e+18,5.4446025390625,-0.3134078383445739,-0.03834056854248047,-0.061734676361083964,1.6886865343792494e+18,5.453249348958333,-0.6205386718114217,-9.383055369059244,3.00777800877889,1.6886865343706028e+18,5.4446025390625,-0.3271343906720479,-9.347947756449381,2.957174301147461,1.6886865343749263e+18,5.448926432291667,0.053145274519920294,-0.0752891413867473,-0.007534004747867567,1.688686534383575e+18,5.457575195312501,0.06368270392219216,-0.055334209464490365,-0.018733201548457132,,,,,,,,,,,,1.6886865343788826e+18,5.452882666015625,21.69403953552246,39.09367980957031,-19.49315948486328,1.6886865343788826e+18,5.452882666015625,-233.651953125,134.11947631835938,-152.21695251464843,1.6886865343706028e+18,5.4446025390625,-0.21454796195030212,0.0053347726352512325,-0.7186310291290283,0.661445140838623,-1.6796221733093262,1.2628548542658489,1.995619297027588
5.5,1.6886865344225119e+18,5.4965118815104175,-0.2417149245738983,0.11400794982910152,0.27141006787618,1.6886865344311644e+18,5.505164225260416,-0.5826523303985596,-9.246465047200521,3.301297664642334,1.6886865344225119e+18,5.4965118815104175,-0.3527654707431793,-9.358521779378256,2.9205400943756104,1.688686534426835e+18,5.500835042317708,0.08771007011334093,0.0320704243301103,-0.06531167651216187,1.6886865344268396e+18,5.500839599609375,0.0897971913218498,0.03764457069337365,-0.0628427620977163,,,,,,,,,,,,1.6886865344288835e+18,5.502883642578125,21.952679443359376,38.959478759765624,-19.54683952331543,1.6886865344288835e+18,5.502883642578125,-233.3933135986328,133.9852783203125,-152.27063598632813,1.6886865344225119e+18,5.4965118815104175,-0.21285641690095258,0.006613306235522,-0.7195284962654114,0.6610042254130045,-1.689648429552714,1.266433874766032,2.0049590269724527
5.550000000000001,1.688686534474424e+18,5.548423909505208,-0.18904327352841696,0.18221759796142578,0.5463081200917562,1.688686534483073e+18,5.5570730794270835,-0.5615157087643942,-9.177471796671549,3.507877985636393,1.688686534474424e+18,5.548423909505208,-0.37991369764010113,-9.367708206176758,2.887516657511393,1.688686534478751e+18,5.5527508951822915,0.06622797250747674,0.12436198194821672,-0.07284568126002948,1.6886865344700966e+18,5.544096435546876,0.06999497363964713,0.11163562287886934,-0.0743219380577405,,,,,,,,,,,,1.6886865344788782e+18,5.552878369140625,21.72331886291504,38.83747863769531,-19.158879470825195,1.6886865344788782e+18,5.552878369140625,-233.62267456054687,133.86327514648437,-151.88267517089844,1.688686534474424e+18,5.548423909505208,-0.21305549641450242,0.009693093908329732,-0.720454216003418,0.6598923007647196,-1.700250546137492,1.2695773442586262,2.0202349026997886
5.6000000000000005,1.688686534526332e+18,5.600332031250001,-0.2596470316251119,0.2621421813964843,0.6011593341827393,1.688686534526337e+18,5.600336791992188,-0.6346961855888367,-9.117551326751709,3.5428730249404907,1.688686534526332e+18,5.600332031250001,-0.3816928068796794,-9.371261914571127,2.8757361570994058,1.6886865345306624e+18,5.604662434895833,0.011301007121801333,0.17129679520924881,-0.020260363661994536,1.6886865345220116e+18,5.596011555989584,0.021940242343892635,0.17852536837259925,-0.029677869131167666,,,,,,,,,,,,1.6886865345288827e+18,5.602882812500001,22.179599380493165,38.83503952026367,-19.156439590454102,1.6886865345288827e+18,5.602882812500001,-233.16639709472656,133.86083374023437,-151.88023986816407,1.688686534526332e+18,5.600332031250001,-0.21550540626049042,0.013299265565971467,-0.7204597393671671,0.6590272386868795,-1.7013806104660034,1.2708042462666829,2.030112107594808
5.65,1.688686534578247e+18,5.6522472330729165,-0.4219034214814504,0.18576335906982422,0.3354032039642334,1.688686534569595e+18,5.643595052083334,-0.7457630634307861,-9.166305224100748,3.3359936078389487,1.688686534578247e+18,5.6522472330729165,-0.3452590008576711,-9.36646811167399,2.895829200744629,1.688686534582568e+18,5.656567789713542,-0.05355251953005787,0.11127928644418712,0.09183341016372039,1.6886865345739236e+18,5.647923746744792,-0.0477493001768986,0.13489940762519828,0.0777835076053937,,,,,,,,,,,,1.6886865345788836e+18,5.652883642578125,21.874599075317384,38.815520477294925,-19.678599548339843,1.6886865345788836e+18,5.652883642578125,-233.47139892578124,133.84131774902343,-152.40239868164062,1.688686534578247e+18,5.6522472330729165,-0.21889009575049076,0.0150011631970604,-0.7191361387570699,0.6593209306399027,-1.6880983114242554,1.2691551446914673,2.0242490768432617
5.7,1.6886865346301504e+18,5.704150390625,-0.4646647075812022,0.03525416056315097,0.0765760739644368,1.6886865346215027e+18,5.6955029296875,-0.7708876927693685,-9.333802858988443,3.095116138458252,1.6886865346301504e+18,5.704150390625,-0.2959174613157908,-9.357933044433594,2.928733984629313,1.688686534625836e+18,5.699836059570313,-0.06681338697671885,-0.0299323964864015,0.096440352499485,1.688686534625832e+18,5.69983203125,-0.06546438982089357,-0.016798793648680033,0.09860383222500475,,,,,,,,,,,,1.688686534628887e+18,5.702886914062501,21.606199264526367,38.89115905761719,-19.776199722290038,1.688686534628887e+18,5.702886914062501,-233.739794921875,133.91695556640624,-152.4999969482422,1.6886865346301504e+18,5.704150390625,-0.22056362032890311,0.013679548477133067,-0.7174111008644104,0.6606703201929728,-1.670118808746338,1.2662359476089478,2.0068558057149253
5.75,1.688686534682067e+18,5.756067138671875,-0.41320034861564636,0.04002920786539713,-0.07573000590006507,1.688686534673416e+18,5.747415771484374,-0.6843472719192505,-9.317252477010092,2.956731160481771,1.688686534682067e+18,5.756067138671875,-0.28337382276852924,-9.350943565368652,2.952226479848226,1.688686534669094e+18,5.74309375,-0.045153122395277,-0.03375030433138206,0.032070425959924834,1.688686534677747e+18,5.7517470703125,-0.04286237681905423,-0.026165394733349435,0.015068010116616867,,,,,,,,,,,,1.6886865346788823e+18,5.7528822265625,21.450039291381835,39.025359344482425,-20.064119338989258,1.6886865346788823e+18,5.7528822265625,-233.89595642089844,134.05116271972656,-152.7879150390625,1.688686534682067e+18,5.756067138671875,-0.22070837517579392,0.011877424083650065,-0.7169974644978842,0.6611060897509257,-1.665108362833659,1.2638667821884155,1.9995018641153972
5.800000000000001,1.6886865347253297e+18,5.79932958984375,-0.4093826562166214,-0.00435256958007815,-0.08932292461395261,1.688686534725322e+18,5.799321940104167,-0.7158527970314026,-9.377870559692383,2.943570693333944,1.6886865347253297e+18,5.79932958984375,-0.313113734126091,-9.347837924957275,2.9590396881103516,1.6886865347209943e+18,5.794994384765626,-0.011351912204797,-0.04449135189255073,-0.07849618544181182,1.6886865347296468e+18,5.803646728515624,-0.004479678347706766,-0.04647666340072946,-0.08781187733014423,,,,,,,,,,,,1.6886865347288804e+18,5.802880322265625,21.325599670410156,38.73011932373047,-19.87136001586914,1.6886865347288804e+18,5.802880322265625,-234.02039794921876,133.75591430664062,-152.59515991210938,1.6886865347253297e+18,5.79932958984375,-0.2203353270888328,0.0113196019083261,-0.718062698841095,0.6600832939147949,-1.674849271774292,1.2628247141838074,2.0079190731048584
5.8500000000000005,1.6886865347685745e+18,5.842574462890624,-0.2647131681442261,-0.008932113647460934,0.06223901112874347,1.6886865347772426e+18,5.851242757161458,-0.6083751519521078,-9.34875774383545,3.1152556737264,1.6886865347685745e+18,5.842574462890624,-0.3682518005371094,-9.34764544169108,2.9532405535380044,1.6886865347729093e+18,5.846909261067708,0.02718350353340303,-0.06688974425196641,-0.11906781544287996,1.6886865347815662e+18,5.855566487630209,0.0301360189914703,-0.06011932219068206,-0.11957687139511104,1.688686534771e+18,5.845,0.0,0.0,0.9007310271263124,12.696999549865724,0.0326058231294155,0.0,40.30000305175781,-122.7532015,49.1903871,1.6886865347788746e+18,5.852874609375,21.550079345703125,38.93995895385742,-20.049479675292968,1.6886865347788746e+18,5.852874609375,-233.79591369628906,133.96575927734375,-152.77327575683594,1.6886865347685745e+18,5.842574462890624,-0.21912666658560434,0.011130075901746734,-0.7200198372205099,0.6583540439605713,-1.6934980154037476,1.2627670764923096,2.024540344874064
5.9,1.6886865348205023e+18,5.894502360026041,-0.09726147850354509,0.14935270945231116,0.2772352695465088,1.6886865348291523e+18,5.903152099609375,-0.5176473061243693,-9.212965329488119,3.3032915592193604,1.6886865348205023e+18,5.894502360026041,-0.4358031253019969,-9.34959888458252,2.937845547993978,1.688686534824825e+18,5.898825276692708,0.03217223597069573,-0.015780685469508168,-0.1060360272725423,1.688686534833481e+18,5.90748095703125,0.02830342327555017,0.008653923869132968,-0.09086620310942327,,,,,,,,,,,,1.6886865348288842e+18,5.902884228515625,22.035639190673827,38.664239501953126,-19.817679595947265,1.6886865348288842e+18,5.902884228515625,-233.31035766601562,133.69003601074218,-152.5414794921875,1.6886865348205023e+18,5.894502360026041,-0.21763815482457471,0.011517622197667735,-0.7224011619885763,0.6562293370564779,-1.7167262236277263,1.2634321848551433,2.046154022216797
5.95,1.688686534872414e+18,5.946413981119792,-0.08797841270764667,0.13180351257324213,0.4091361363728841,1.6886865348810647e+18,5.955064534505208,-0.5465605656305949,-9.234500567118326,3.4133614699045816,1.688686534872414e+18,5.946413981119792,-0.4580473204453786,-9.35039488474528,2.931966702143351,1.6886865348767409e+18,5.950740966796875,0.0104865203611552,0.1104138940572738,-0.0147116711984078,1.6886865348767409e+18,5.950740844726562,0.0097738439217209,0.11614075303077695,-0.01160644009360115,,,,,,,,,,,,1.6886865348788823e+18,5.9528821777343754,22.128359603881837,38.600799560546875,-19.422399520874023,1.6886865348788823e+18,5.9528821777343754,-233.21763305664064,133.62659912109376,-152.1461944580078,1.688686534872414e+18,5.946413981119792,-0.21831804513931272,0.012997753918170867,-0.7231611212094625,0.6551378766695658,-1.724441130956014,1.2637035051981609,2.0569960276285806
6.0,1.688686534924322e+18,5.998322184244792,-0.20824466149012244,0.1410913467407226,0.31500188509623206,1.6886865349329795e+18,6.006979329427083,-0.6638089021046957,-9.250851313273111,3.288137118021647,1.688686534924322e+18,5.998322184244792,-0.4251191020011902,-9.349114100138346,2.9409562746683755,1.688686534928653e+18,6.002652913411459,-0.017969619482755602,0.17867808540662125,0.05731952190399164,1.6886865349199974e+18,5.99399755859375,-0.0142535222694277,0.17862717807292938,0.04856378709276513,,,,,,,,,,,,1.6886865349288845e+18,6.00288447265625,21.63303985595703,38.722798919677736,-19.66639976501465,1.6886865349288845e+18,6.00288447265625,-233.71295471191405,133.74859924316405,-152.39019470214845,1.688686534924322e+18,5.998322184244792,-0.2213692764441172,0.015254438233872167,-0.7219561139742533,0.6553934613863627,-1.71303129196167,1.263270656267802,2.053302526473999
6.050000000000001,1.6886865349762342e+18,6.050234049479166,-0.4253254135449727,0.06443087259928383,0.10373989741007483,1.6886865349762378e+18,6.050237792968749,-0.7872386574745178,-9.291629314422607,3.124129056930542,1.6886865349762342e+18,6.050234049479166,-0.3613784114519755,-9.346033096313477,2.9591972827911377,1.6886865349805576e+18,6.054557373046875,-0.029219721133510235,0.12497285008430477,0.10405071576436357,1.6886865349719122e+18,6.045912190755208,-0.030848695586125033,0.14609860380490616,0.1040507132808367,,,,,,,,,,,,1.6886865349788823e+18,6.05288232421875,22.013679885864256,38.661799621582034,-20.003119659423827,1.6886865349788823e+18,6.05288232421875,-233.33231506347656,133.6876007080078,-152.72691650390624,1.6886865349762342e+18,6.050234049479166,-0.22493024667104086,0.016942520315448403,-0.7196654081344604,0.6566580732663473,-1.690989335378011,1.262229601542155,2.0389132499694824
6.1000000000000005,1.6886865350281492e+18,6.102149332682291,-0.4972630441188812,-0.004063924153645833,0.03462322552998857,1.6886865350194977e+18,6.093497802734375,-0.8009973764419556,-9.335198720296225,3.0596225261688232,1.6886865350281492e+18,6.102149332682291,-0.30778574943542475,-9.343939145406088,2.971883217493693,1.6886865350324764e+18,6.1064763997395834,-0.012675453598300532,0.051872640848159735,0.07203119248151776,1.6886865350238216e+18,6.097821695963542,-0.017206037727494967,0.06449718897541361,0.0847066467007001,,,,,,,,,,,,1.6886865350288822e+18,6.10288212890625,21.715999603271484,38.8203987121582,-20.203199768066405,1.6886865350288822e+18,6.10288212890625,-233.62999572753907,133.84619750976563,-152.92699584960937,1.6886865350281492e+18,6.102149332682291,-0.22684666514396665,0.017362909391522366,-0.717755138874054,0.6580778161684672,-1.672654151916504,1.2615220546722412,2.023993730545044
6.15,1.688686535080057e+18,6.15405712890625,-0.5070693691571554,0.06736119588216143,0.0528775850931803,1.68868653507141e+18,6.145409749348958,-0.7966105341911316,-9.306684494018555,3.091925621032715,1.688686535080057e+18,6.15405712890625,-0.30017286539077753,-9.34377924601237,2.973170200983683,1.688686535075736e+18,6.149736206054687,0.00595593615435055,-0.006337726954370749,-0.021914790035225448,1.6886865350757363e+18,6.149736002604167,0.004581489386813066,-0.0011199187720193997,-0.016187927996118835,,,,,,,,,,,,1.68868653507888e+18,6.152880126953125,21.17187957763672,39.083918762207034,-20.02019920349121,1.68868653507888e+18,6.152880126953125,-234.1741180419922,134.1097198486328,-152.74400024414064,1.688686535080057e+18,6.15405712890625,-0.22719447314739227,0.017543453723192166,-0.7174800833066305,0.6582530935605367,-1.6700702508290608,1.2614684502283733,2.022179444630941
6.2,1.6886865351319729e+18,6.205972981770834,-0.45580745736757916,0.0486046473185221,0.06476322809855144,1.6886865351233175e+18,6.1973173828125,-0.7934201161066691,-9.303493817647299,3.0919257005055747,1.6886865351319729e+18,6.205972981770834,-0.3398694296677907,-9.344164848327637,2.967665433883667,1.6886865351189924e+18,6.192992268880208,0.0110973855480551,-0.0656680141886075,-0.057421332846085166,1.6886865351276483e+18,6.201648356119793,0.010588330837587432,-0.0765617787837982,-0.0542142912745475,,,,,,,,,,,,1.688686535128886e+18,6.202886181640625,21.003519439697264,38.676438903808595,-20.147079467773438,1.688686535128886e+18,6.202886181640625,-234.34247741699218,133.70223693847657,-152.8708740234375,1.6886865351319729e+18,6.205972981770834,-0.22589541474978123,0.01706804955999053,-0.718899647394816,0.6571625272432963,-1.6834832429885864,1.261602242787679,2.0330094496409097
6.25,1.688686535175234e+18,6.249234008789062,-0.32223118841648096,0.05337429046630855,0.11001062393188475,1.688686535175238e+18,6.249238037109375,-0.7042874693870544,-9.304092407226562,3.132603724797567,1.688686535175234e+18,6.249234008789062,-0.38231904804706573,-9.344548225402832,2.9613014459609985,1.6886865351709043e+18,6.244904296875,0.010690141624460534,-0.1801543434460958,-0.04179336441059903,1.6886865351795556e+18,6.253555419921875,0.0088066407479345,-0.18611028293768564,-0.03196861470739044,,,,,,,,,,,,1.688686535178882e+18,6.25288212890625,21.79651985168457,38.88139953613281,-19.80059928894043,1.688686535178882e+18,6.25288212890625,-233.54947509765626,133.90719604492188,-152.5243927001953,1.688686535175234e+18,6.249234008789062,-0.22335033118724817,0.01531776553019875,-0.7204419374465942,0.6563860774040222,-1.6978561282157898,1.261733889579773,2.041137456893921
6.300000000000001,1.688686535218489e+18,6.2924889322916675,-0.1748930712540944,0.07826105753580727,0.14713732401529944,1.688686535227145e+18,6.301144856770833,-0.5674977699915568,-9.29332447052002,3.170091152191162,1.688686535218489e+18,6.2924889322916675,-0.4146022895971934,-9.344509442647299,2.957076072692871,1.6886865352228216e+18,6.2968216959635415,0.0019344066822667664,-0.1821905573209127,-0.0012726359224567996,1.6886865352314724e+18,6.305472493489584,-0.00025452718061083336,-0.16864970823129014,0.004326962186799666,,,,,,,,,,,,1.6886865352288837e+18,6.302883642578125,21.52079963684082,38.752079010009766,-19.768879699707032,1.6886865352288837e+18,6.302883642578125,-233.8251953125,133.7778778076172,-152.49268188476563,1.688686535218489e+18,6.2924889322916675,-0.22025299072265625,0.012647282953063601,-0.7216344277064005,0.6561789512634277,-1.7087655067443848,1.2617216110229492,2.0436719258626304
6.3500000000000005,1.688686535270404e+18,6.344404296875001,-0.11254557967185973,0.0334526697794596,0.1190855503082275,1.6886865352790556e+18,6.3530556640624996,-0.5385844906171163,-9.312467257181805,3.1300113995869956,1.688686535270404e+18,6.344404296875001,-0.4348759551843007,-9.344367345174154,2.9546193281809487,1.6886865352747282e+18,6.3487279459635415,0.004988732747733566,-0.1086322019497553,0.023009257701535932,1.6886865352833795e+18,6.357379475911458,0.0071267613675445,-0.08501208076874413,0.033903021054963234,,,,,,,,,,,,1.6886865352788844e+18,6.3528842285156255,22.0893196105957,38.80331954956055,-19.746919250488283,1.6886865352788844e+18,6.3528842285156255,-233.25667419433594,133.82911682128906,-152.47071533203126,1.688686535270404e+18,6.344404296875001,-0.21747355659802747,0.010027488383154032,-0.7223919630050659,0.6563185056050619,-1.7156100273132324,1.261672576268514,2.042682727177938
6.4,1.688686535322316e+18,6.396315999348958,-0.13615746299425757,0.09971523284912104,0.17060613632202148,1.6886865353309594e+18,6.404959228515625,-0.558125893274943,-9.27777099609375,3.1926236152648926,1.688686535322316e+18,6.396315999348958,-0.42143359780311584,-9.347020149230957,2.9481635888417563,1.688686535326641e+18,6.400640706380209,0.0188350118696689,0.009519316566487133,0.0506000034511089,1.6886865353266437e+18,6.4006435546875,0.0195476878434419,0.016264286939986,0.05581781268119805,,,,,,,,,,,,1.688686535328884e+18,6.402883935546875,22.15031967163086,38.96923980712891,-19.485839462280275,1.688686535328884e+18,6.402883935546875,-233.19567260742187,133.9950378417969,-152.2096374511719,1.688686535322316e+18,6.396315999348958,-0.2164207150538762,0.009203864882389667,-0.7219293316205343,0.6571874221165975,-1.711456259091695,1.2625578641891482,2.035784641901652
6.45,1.6886865353742244e+18,6.448224283854167,-0.2595983147621155,0.06072998046874994,0.18466409047444654,1.6886865353828805e+18,6.456880615234375,-0.6741777857144674,-9.294720331827799,3.174278656641642,1.6886865353742244e+18,6.448224283854167,-0.4012829264005025,-9.34951082865397,2.9430786768595376,1.6886865353785556e+18,6.452555501302084,0.010588330992807865,0.0358883334944645,0.027336219946543335,1.6886865353699034e+18,6.443903401692708,0.011759156050781332,0.043065999945004735,0.029881491636236466,,,,,,,,,,,,1.688686535378884e+18,6.4528841796875,21.735519409179688,38.74231872558594,-19.62003936767578,1.688686535378884e+18,6.4528841796875,-233.6104736328125,133.768115234375,-152.34383850097657,1.6886865353742244e+18,6.448224283854167,-0.21681600312391913,0.0097857946529984,-0.7212105989456177,0.6578376094500223,-1.7049821217854817,1.2633926471074421,2.0307064851125083
6.5,1.6886865354261379e+18,6.5001376953125,-0.3223103880882263,0.07562160491943354,0.146409273147583,1.688686535426135e+18,6.500134887695312,-0.6963113844394684,-9.308977603912354,3.157927632331848,1.6886865354261379e+18,6.5001376953125,-0.37984702984491986,-9.35104242960612,2.941054344177246,1.6886865354304666e+18,6.5044665527343755,0.010028371276954733,0.006464990631987633,0.059864794214566495,1.688686535421814e+18,6.495814208984375,0.007483099276820733,0.0163915511220693,0.05833763008316356,,,,,,,,,,,,1.688686535428881e+18,6.5028809082031245,21.62083969116211,39.06683883666992,-19.729839324951172,1.688686535428881e+18,6.5028809082031245,-233.72515563964845,134.09264221191407,-152.4536376953125,1.6886865354261379e+18,6.5001376953125,-0.2171132812897364,0.010006604095299966,-0.7204500039418539,0.6585692365964254,-1.6979072093963623,1.2639053662618,2.024369796117147
6.550000000000001,1.6886865354780488e+18,6.552048990885417,-0.3014995853106181,0.15649159749348954,0.19729359944661454,1.6886865354693998e+18,6.5433998209635424,-0.6526423692703247,-9.216753959655762,3.187638600667318,1.6886865354780488e+18,6.552048990885417,-0.35539358854293823,-9.354145685831705,2.9342378775278726,1.6886865354823785e+18,6.556378580729167,0.024129177133242235,0.013133602527280635,0.04108068781594433,1.6886865354737203e+18,6.547720296223958,0.0222965814173221,0.011504628850768,0.05085453266898787,,,,,,,,,,,,1.6886865354788844e+18,6.55288427734375,21.589119720458985,38.96679916381836,-19.568799591064455,1.6886865354788844e+18,6.55288427734375,-233.75687255859376,133.9925964355469,-152.29259643554687,1.6886865354780488e+18,6.552048990885417,-0.21690234541893005,0.0100028856347004,-0.7195847630500793,0.6595839460690817,-1.6899892886479695,1.2649497191111247,2.016114075978597
6.6000000000000005,1.6886865355299597e+18,6.603959798177083,-0.3835470775763194,0.12354246775309245,0.18582892417907712,1.688686535521312e+18,6.59531201171875,-0.7080760995546976,-9.235697428385416,3.1838499704996743,1.6886865355299597e+18,6.603959798177083,-0.3477230171362559,-9.35609213511149,2.928952693939209,1.6886865355256384e+18,6.599638427734375,0.00832303892821065,0.015118914656341,0.0006872233934700499,1.688686535525639e+18,6.599638671875,0.008297586192687266,0.0199549309909343,0.008246680721640533,,,,,,,,,,,,1.6886865355288822e+18,6.602882080078125,21.557399368286134,39.1400390625,-19.493159103393555,1.6886865355288822e+18,6.602882080078125,-233.7885955810547,134.16583557128905,-152.21695251464843,1.6886865355299597e+18,6.603959798177083,-0.2170181224743525,0.010442401592930134,-0.7193071643511454,0.6598419348398844,-1.6876237392425537,1.265608270963033,2.0145370960235596
6.65,1.6886865355818734e+18,6.655873372395834,-0.4355589946111043,0.06861368815104164,0.13538924853006998,1.688686535573216e+18,6.647215901692708,-0.7968099315961202,-9.307083129882814,3.1511480808258057,1.6886865355818734e+18,6.655873372395834,-0.3639065424601237,-9.353406270345053,2.9355239868164062,1.688686535568898e+18,6.642897949218749,-0.019038632589702734,-0.0984002090990543,-0.005243260069012934,1.6886865355775526e+18,6.651552734375,-0.027081693522632067,-0.1386155063907305,-0.0111482903982202,,,,,,,,,,,,1.6886865355788884e+18,6.652888427734375,21.352439880371094,38.85212020874023,-19.76399955749512,1.6886865355788884e+18,6.652888427734375,-233.9935546875,133.87791748046874,-152.4877960205078,1.6886865355818734e+18,6.655873372395834,-0.21591135859489438,0.008923612224558933,-0.7198996742566427,0.6595794359842936,-1.6927927335103352,1.2647003332773845,2.0159221490224204
6.7,1.688686535625139e+18,6.699138916015625,-0.2137414962053299,0.058629989624023396,0.0658730268478393,1.6886865356251354e+18,6.699135498046875,-0.6231308976809183,-9.292726198832193,3.073979457219442,1.688686535625139e+18,6.699138916015625,-0.4094527512788772,-9.347410678863525,2.948609471321106,1.6886865356208097e+18,6.694809651692708,-0.04489859566092486,-0.2868012289206187,-0.022907446449001567,1.6886865356294623e+18,6.703462158203124,-0.047698395947615234,-0.2876157164573669,-0.018733200306693634,,,,,,,,,,,,1.6886865356288763e+18,6.70287646484375,21.79407958984375,39.20103912353515,-19.529759216308594,1.6886865356288763e+18,6.70287646484375,-233.55191345214843,134.22684020996093,-152.25355834960936,1.688686535625139e+18,6.699138916015625,-0.2124499827623367,0.0046673745382576496,-0.7215504348278046,0.6589435636997223,-1.707455039024353,1.2626808285713196,2.019449472427368
