seconds_elapsed_rounded,accelerometer_time,accelerometer_seconds_elapsed,accelerometer_z,accelerometer_y,accelerometer_x,accelerometeruncalibrated_time,accelerometeruncalibrated_seconds_elapsed,accelerometeruncalibrated_z,accelerometeruncalibrated_y,accelerometeruncalibrated_x,gravity_time,gravity_seconds_elapsed,gravity_z,gravity_y,gravity_x,gyroscope_time,gyroscope_seconds_elapsed,gyroscope_z,gyroscope_y,gyroscope_x,gyroscopeuncalibrated_time,gyroscopeuncalibrated_seconds_elapsed,gyroscopeuncalibrated_z,gyroscopeuncalibrated_y,gyroscopeuncalibrated_x,location_time,location_seconds_elapsed,location_bearingAccuracy,location_speedAccuracy,location_verticalAccuracy,location_horizontalAccuracy,location_speed,location_bearing,location_altitude,location_longitude,location_latitude,magnetometer_time,magnetometer_seconds_elapsed,magnetometer_z,magnetometer_y,magnetometer_x,magnetometeruncalibrated_time,magnetometeruncalibrated_seconds_elapsed,magnetometeruncalibrated_z,magnetometeruncalibrated_y,magnetometeruncalibrated_x,orientation_time,orientation_seconds_elapsed,orientation_qz,orientation_qy,orientation_qx,orientation_qw,orientation_roll,orientation_pitch,orientation_yaw
0.0,1.688686573927577e+18,45.00157722981771,0.3111157317956288,-0.0632273356119791,0.0103818575541178,1.688686573927577e+18,45.00157722981771,-0.4372883339722951,-9.285747528076172,3.3798619906107583,1.688686573927577e+18,45.00157722981771,-0.7542501091957092,-9.205015500386557,3.306792736053467,1.688686573923246e+18,44.997246256510415,0.0162897392486532,-0.1841758713126181,0.0189368226759445,1.688686573923246e+18,44.997246256510415,0.0153734423220157,-0.1797470971941947,0.0214311889527985,1.688686573926552e+18,45.000552001953125,0.0,0.5326093435287476,0.9130883812904358,7.144999980926514,0.1788420379161834,4.712676048278809,40.20000076293945,-122.7531523,49.1903779,1.6886865739288878e+18,45.0028876953125,21.423199081420897,38.01275863647461,-21.98683967590332,1.6886865739288878e+18,45.0028876953125,-233.92279357910155,133.03855895996094,-154.71063842773438,1.688686573927577e+18,45.00157722981771,-0.2549170355002085,0.0291656690339247,-0.7332110206286112,0.6297359069188436,-1.7950897614161174,1.2177659273147583,2.206071058909098
0.05,1.688686573979491e+18,45.05349080403645,0.1453147133191426,0.0704692204793293,0.1952106952667235,1.688686573979491e+18,45.05349080403645,-0.593420018752416,-9.157332102457682,3.55214524269104,1.688686573979491e+18,45.05349080403645,-0.7445807655652364,-9.210296630859377,3.2942471504211426,1.6886865739751657e+18,45.049165771484375,0.0353792781631151,0.1467094731827576,-0.0043778676384438,1.6886865739751657e+18,45.049165771484375,0.0345138870179652,0.1511382460594176,-0.00183259571592,,,,,,,,,,,,1.6886865739788815e+18,45.05288134765625,21.20847969055176,38.2274787902832,-21.994159698486328,1.6886865739788815e+18,45.05288134765625,-234.13751831054688,133.25327758789064,-154.71795654296875,1.688686573979491e+18,45.05349080403645,-0.2552983264128367,0.0304551993807156,-0.7328219413757324,0.629972497622172,-1.7931209405263264,1.2193259398142495,2.206496079762777
0.1,1.6886865740314012e+18,45.10540120442709,-0.2813774347305298,0.1507399876912434,0.1127697626749674,1.6886865740314012e+18,45.10540120442709,-0.9836495121320088,-9.080761909484863,3.4673994382222495,1.6886865740314012e+18,45.10540120442709,-0.7081181208292643,-9.21399720509847,3.291942278544108,1.6886865740270764e+18,45.101076334635415,0.0135917517667015,0.1791362340251604,0.0118100616770485,1.6886865740270764e+18,45.101076334635415,0.0127263589141269,0.1835650081435839,0.0143044280509153,,,,,,,,,,,,1.68868657402888e+18,45.10287998046876,20.73267936706543,38.056678771972656,-22.045399475097657,1.68868657402888e+18,45.10287998046876,-234.61331481933593,133.0824737548828,-154.76919860839843,1.6886865740314012e+18,45.10540120442709,-0.2587169706821441,0.0340284543732801,-0.7313955823580424,0.630053182442983,-1.7827107508977251,1.2204233805338542,2.2063106695810952
0.15,1.6886865740833103e+18,45.157310058593744,-0.3298310041427612,-0.0709028244018554,-0.2202660242716471,1.6886865740833103e+18,45.157310058593744,-1.0400802493095398,-9.296913464864096,3.1479576428731284,1.6886865740833103e+18,45.157310058593744,-0.7160952687263489,-9.208505948384603,3.3055362701416016,1.6886865740789906e+18,45.15299055989584,-0.0516690189639726,-0.1262454811173181,-0.0113010071218013,1.6886865740789906e+18,45.15299055989584,-0.052585316201051,-0.1218167074645559,-0.0088066409031549,,,,,,,,,,,,1.688686574078883e+18,45.152883105468746,20.930319595336915,38.06155853271484,-22.106399536132812,1.688686574078883e+18,45.152883105468746,-234.415673828125,133.0873565673828,-154.8301971435547,1.6886865740833103e+18,45.157310058593744,-0.2589164574940999,0.0333090138932068,-0.7317056059837341,0.6296486854553223,-1.7841622432072957,1.2187977234522502,2.2070604165395102
0.2,1.6886865741265807e+18,45.200580932617186,0.1754155457019806,-0.1569676399230957,-0.4002882242202759,1.6886865741265807e+18,45.200580932617186,-0.5778666585683823,-9.377471923828123,2.9736803770065308,1.6886865741265807e+18,45.200580932617186,-0.7591282427310944,-9.202999591827393,3.311281204223633,1.6886865741308936e+18,45.204893473307294,-0.0169515103722612,-0.3438153167565663,0.0249945698305964,1.6886865741308936e+18,45.204893473307294,-0.0177659982194503,-0.3393865525722503,0.0275398412098486,,,,,,,,,,,,1.6886865741288852e+18,45.20288510742187,21.25239944458008,37.90051956176758,-21.930719757080077,1.6886865741288852e+18,45.20288510742187,-234.09359436035157,132.926318359375,-154.6545166015625,1.6886865741265807e+18,45.200580932617186,-0.2545618414878845,0.0284704249352216,-0.7334069013595581,0.6296819448471069,-1.7961919903755188,1.2171720266342163,2.205654263496399
0.25,1.6886865741698355e+18,45.24383544921875,0.6655897498130798,-0.0691006978352864,0.0998914241790771,1.6886865741698355e+18,45.24383544921875,-0.1016949663559595,-9.295118967692057,3.4552358786265054,1.6886865741698355e+18,45.24383544921875,-0.7731307744979858,-9.208513577779136,3.2926570574442544,1.6886865741828145e+18,45.2568145345052,0.0628173102935154,0.1059851224223772,0.0018835016332256,1.6886865741828145e+18,45.2568145345052,0.0620028215150038,0.1104138940572738,0.0043269624778379,,,,,,,,,,,,1.6886865741788846e+18,45.25288466796875,21.323159408569335,37.81999893188477,-21.684279251098634,1.6886865741788846e+18,45.25288466796875,-234.02283630371093,132.84579467773438,-154.40807495117187,1.6886865741698355e+18,45.24383544921875,-0.2509799202283223,0.0260009591778118,-0.7339861989021301,0.6305529475212097,-1.801460901896159,1.2187995115915935,2.201988935470581
0.3,1.6886865742217477e+18,45.29574763997396,-0.0336853067080179,0.1939051946004231,0.3505350748697917,1.6886865742217477e+18,45.29574763997396,-0.7571289837360382,-9.041080792744957,3.69072953859965,1.6886865742217477e+18,45.29574763997396,-0.729289710521698,-9.21748129526774,3.277507066726685,1.6886865742260751e+18,45.3000751953125,0.052381696179509,0.4426482170820236,-0.0304669039323925,1.6886865742260751e+18,45.3000751953125,0.0514653977006673,0.4470769912004471,-0.0279470849782228,,,,,,,,,,,,1.688686574228884e+18,45.30288393554687,21.088919830322265,38.13475875854492,-21.957559204101564,1.688686574228884e+18,45.30288393554687,-234.2570770263672,133.16055908203126,-154.68135681152344,1.6886865742217477e+18,45.29574763997396,-0.2553352812925974,0.031585307791829,-0.7322393655776978,0.6305727561314901,-1.7897766431172688,1.221459190050761,2.204786618550618
0.35,1.688686574273656e+18,45.347656331380215,-0.4846848646799723,0.056529680887858,0.215574026107788,1.688686574273656e+18,45.347656331380215,-1.1758729616800945,-9.181260426839192,3.5549368063608804,1.688686574273656e+18,45.347656331380215,-0.6970341205596924,-9.220285415649414,3.2766753832499185,1.6886865742693353e+18,45.34333520507812,0.0121663991982738,0.1289943822969992,-0.008043058856856,1.6886865742693353e+18,45.34333520507812,0.0113010074322422,0.1334231539318959,-0.0055995979346334,,,,,,,,,,,,1.6886865742788846e+18,45.352884619140625,20.90835952758789,38.371439361572264,-22.19423942565918,1.6886865742788846e+18,45.352884619140625,-234.43763427734376,133.39723510742186,-154.91803588867188,1.688686574273656e+18,45.347656331380215,-0.2599368294080098,0.036475176612536,-0.7308915654818217,0.6299998958905538,-1.7804347276687622,1.2222959597905476,2.209350347518921
0.4,1.6886865743255634e+18,45.39956355794271,-0.1005822618802388,0.1140333811442056,-0.0499703089396158,1.6886865743255634e+18,45.39956355794271,-0.8093722462654114,-9.118448893229166,3.30049999554952,1.6886865743255634e+18,45.39956355794271,-0.7146360079447428,-9.214977582295736,3.287782907485962,1.6886865743212462e+18,45.39524625651041,-0.041080688436826,-0.1151480947931607,-0.0099265601796407,1.6886865743212462e+18,45.39524625651041,-0.0419460808237392,-0.1107193281253178,-0.0074321939609944,,,,,,,,,,,,1.6886865743288837e+18,45.402883642578125,21.274359893798827,38.08839950561523,-22.064919662475585,1.6886865743288837e+18,45.402883642578125,-234.07163696289064,133.11419372558595,-154.78871459960936,1.6886865743255634e+18,45.39956355794271,-0.2590627670288085,0.0348659803469975,-0.7315828601519266,0.629647970199585,-1.784859339396159,1.2207158009211223,2.21018648147583
0.45,1.6886865743774843e+18,45.45148429361979,0.2602141201496124,-0.1716810862223307,-0.2521959940592447,1.6886865743774843e+18,45.45148429361979,-0.4803591469923655,-9.397212346394856,3.1106693744659424,1.6886865743774843e+18,45.45148429361979,-0.7464193105697632,-9.208026568094889,3.300177971522013,1.6886865743731602e+18,45.447160319010415,-0.0339539262155691,-0.1502219413717587,-0.0163406451853612,1.6886865743731602e+18,45.447160319010415,-0.0348702234526474,-0.1457931697368621,-0.0137953734956681,,,,,,,,,,,,1.6886865743788823e+18,45.452882128906246,21.598879623413087,37.946878814697264,-21.908759689331056,1.6886865743788823e+18,45.452882128906246,-233.7471160888672,132.9726806640625,-154.63255920410157,1.6886865743774843e+18,45.45148429361979,-0.2568742632865906,0.0318470758696396,-0.7328267892201742,0.6292576988538107,-1.7932631969451904,1.2186545133590698,2.211019992828369
0.5,1.6886865744293962e+18,45.50339615885417,0.2728514472643534,-0.0716892878214518,-0.1197049617767334,1.6886865744293962e+18,45.50339615885417,-0.4590231378873189,-9.29930623372396,3.239283641179403,1.6886865744293962e+18,45.50339615885417,-0.7377206285794576,-9.21011225382487,3.2963012059529624,1.6886865744250675e+18,45.49906730143229,0.0239764608753223,0.1168788804983098,0.0118100615994383,1.6886865744250675e+18,45.49906730143229,0.0230601632113878,0.1213076543062924,0.0143553333667416,,,,,,,,,,,,1.688686574428885e+18,45.50288500976562,21.103559494018555,37.920039367675784,-21.69891929626465,1.688686574428885e+18,45.50288500976562,-234.2424346923828,132.94583740234376,-154.42271423339844,1.6886865744293962e+18,45.50339615885417,-0.2570411761601766,0.0322102569043635,-0.7325083216031393,0.6295413772265116,-1.7910043398539226,1.2192716201146443,2.2095162073771157
0.55,1.6886865744813064e+18,45.55530631510417,-0.1418820818265278,0.1255060831705729,0.1125618616739908,1.6886865744813064e+18,45.55530631510417,-0.8512466549873352,-9.10808022816976,3.459822098414103,1.6886865744813064e+18,45.55530631510417,-0.7152105967203776,-9.216081619262695,3.2845728397369385,1.688686574476984e+18,45.55098396809896,0.0388917544235785,0.1880955894788105,-0.0405207276344299,1.688686574476984e+18,45.55098396809896,0.0379754559447367,0.192524363597234,-0.0380263620366652,,,,,,,,,,,,1.6886865744788833e+18,45.552883349609374,21.06451988220215,37.92735977172852,-21.884359741210936,1.6886865744788833e+18,45.552883349609374,-234.28147583007816,132.95315551757812,-154.6081573486328,1.6886865744813064e+18,45.55530631510417,-0.2600631614526112,0.0362932843466599,-0.7315336664517721,0.6292113264401754,-1.78523584206899,1.2210426330566406,2.214118162790934
0.6,1.6886865745332142e+18,45.60721427408854,-0.2783536712328592,0.0381908416748046,0.065450112024943,1.6886865745332142e+18,45.60721427408854,-0.9842477242151896,-9.195218722025553,3.4139597415924072,1.6886865745332142e+18,45.60721427408854,-0.7117400765419006,-9.21590487162272,3.2858222325642905,1.688686574528895e+18,45.60289477539063,-0.0122682104508082,-0.0012726370089997,0.0074321934953331,1.688686574528895e+18,45.60289477539063,-0.013133602682501,0.0031561367213725,0.009875654708594,,,,,,,,,,,,1.6886865745288904e+18,45.60289033203125,20.710719680786134,37.86391906738281,-22.03075942993164,1.6886865745288904e+18,45.60289033203125,-234.6352722167969,132.88971862792968,-154.75455627441406,1.6886865745332142e+18,45.60721427408854,-0.2613326907157897,0.037613126138846,-0.7313463687896729,0.6288265188535055,-1.784145991007487,1.2209904193878174,2.21683669090271
0.65,1.6886865745764744e+18,45.65047436523437,0.0252209603786468,0.0434927940368652,-0.0493233203887939,1.6886865745764744e+18,45.65047436523437,-0.6975077986717224,-9.185746669769289,3.3071800470352173,1.6886865745764744e+18,45.65047436523437,-0.7285747826099396,-9.211734771728516,3.2938159704208374,1.688686574580808e+18,45.65480810546875,-0.0309505059073368,-0.1611157059669494,-0.0037160968252767,1.688686574580808e+18,45.65480810546875,-0.0318668037652968,-0.1566869368155796,-0.0012217305290202,,,,,,,,,,,,1.688686574578881e+18,45.65288100585938,21.418319320678712,37.97127838134766,-22.0917594909668,1.688686574578881e+18,45.65288100585938,-233.92767944335935,132.99708251953126,-154.81555786132813,1.6886865745764744e+18,45.65047436523437,-0.2597232908010483,0.0353822577744721,-0.7320437133312225,0.6288110315799713,-1.7885195016860962,1.2197518348693848,2.2156128883361816
0.7,1.688686574619741e+18,45.693740885416666,0.2587067683537801,-0.1202405293782551,-0.1158399581909179,1.688686574619741e+18,45.693740885416666,-0.4795615474383036,-9.34716288248698,3.2436704635620117,1.688686574619741e+18,45.693740885416666,-0.744114359219869,-9.209417661031088,3.296823024749756,1.688686574632719e+18,45.706719156901045,0.0038179079225907,-0.0213802823175986,0.0067704231478273,1.688686574632719e+18,45.706719156901045,0.002952515380457,-0.0169515097513794,0.0092138843610882,,,,,,,,,,,,1.688686574628889e+18,45.702888916015624,21.262159729003905,38.14207992553711,-21.999039459228516,1.688686574628889e+18,45.702888916015624,-234.083837890625,133.16787719726562,-154.72283630371095,1.688686574619741e+18,45.693740885416666,-0.258119394381841,0.0335276337961355,-0.7326720158259074,0.6288416981697083,-1.792818506558736,1.219065546989441,2.2148563861846924
0.75,1.6886865746716495e+18,45.74564925130208,0.1285131772359211,0.0539261500040689,0.010289986928304,1.6886865746716495e+18,45.74564925130208,-0.599003275235494,-9.176674207051596,3.361915826797486,1.6886865746716495e+18,45.74564925130208,-0.7333624760309855,-9.21309566497803,3.2889384428660073,1.688686574675975e+18,45.749974853515624,0.0354301836341619,0.1113301925361155,-0.0019089540001004,1.688686574675975e+18,45.749974853515624,0.0345138851553201,0.115758966654539,0.0005345072131604,,,,,,,,,,,,1.6886865746788805e+18,45.75288046875,20.7473201751709,37.81267929077149,-21.977079010009767,1.6886865746788805e+18,45.75288046875,-234.5986755371094,132.8384796142578,-154.70087890625,1.6886865746716495e+18,45.74564925130208,-0.258525272210439,0.0344529002904891,-0.7322547833124796,0.6291104555130005,-1.7902202208836873,1.2201557159423828,2.2141722043355307
0.8,1.6886865747235607e+18,45.79756095377604,-0.1312058170636494,0.0102637608846028,0.1230607827504475,1.6886865747235607e+18,45.79756095377604,-0.844068189462026,-9.224729855855308,3.465604782104492,1.6886865747235607e+18,45.79756095377604,-0.7187083959579468,-9.217488924662272,3.2798566023508706,1.6886865747192364e+18,45.79323649088542,0.0250963798413673,0.1203913564483324,-0.0175623757143814,1.6886865747192364e+18,45.79323649088542,0.0241800822938481,0.1248201305667559,-0.0150680094957351,,,,,,,,,,,,1.6886865747288863e+18,45.80288652343749,20.495999908447267,37.981038665771486,-21.989279556274415,1.6886865747288863e+18,45.80288652343749,-234.84999389648436,133.00684204101563,-154.71307983398438,1.6886865747235607e+18,45.79756095377604,-0.2604119479656219,0.037130453934272,-0.7316136558850607,0.6289259394009908,-1.7865502039591472,1.2214616934458415,2.2171594301859536
0.85,1.6886865747754775e+18,45.8494775390625,-0.1659556428591409,0.0873953501383463,-0.0282963911692301,1.6886865747754775e+18,45.8494775390625,-0.8805587291717529,-9.146963119506836,3.3156545956929526,1.6886865747754775e+18,45.8494775390625,-0.7204491098721822,-9.216853777567543,3.281263589859009,1.688686574771153e+18,45.84515299479167,-0.009570221727093,-0.0186822960774103,-0.0053959762056668,1.688686574771153e+18,45.84515299479167,-0.0104865200119092,-0.0142026171088218,-0.0029016099870204,,,,,,,,,,,,1.6886865747788795e+18,45.8528796875,21.206039810180663,37.78827896118164,-22.18692016601563,1.6886865747788795e+18,45.8528796875,-234.13995666503905,132.81407470703124,-154.91071472167968,1.6886865747754775e+18,45.8494775390625,-0.2610074977080027,0.0377403423190116,-0.7316428820292155,0.6286090612411499,-1.7869632641474409,1.221272389094035,2.2193519274393716
0.9,1.6886865748273866e+18,45.90138655598958,0.0821771025657653,-0.0932286580403645,-0.0693136056264241,1.6886865748273866e+18,45.90138655598958,-0.6452645262082418,-9.32602628072103,3.2761730353037515,1.6886865748273866e+18,45.90138655598958,-0.7332876523335775,-9.215292930603027,3.282799243927002,1.6886865748230612e+18,45.89706119791666,-0.010741047017897,-0.1363247608145077,0.0226020142436026,1.6886865748230612e+18,45.89706119791666,-0.0116064394824206,-0.1318450818459192,0.0250454749912023,,,,,,,,,,,,1.6886865748288865e+18,45.9028861328125,20.859559631347658,37.9737190246582,-22.13567962646485,1.6886865748288865e+18,45.9028861328125,-234.48643188476564,132.99952087402343,-154.8594757080078,1.6886865748273866e+18,45.90138655598958,-0.2590810855229695,0.035586609194676,-0.7321974436442057,0.6288851698239645,-1.7905929883321126,1.220808267593384,2.2170024712880454
0.95,1.6886865748793014e+18,45.95330135091146,0.1834074159463246,0.1003109614054361,0.0455876191457111,1.6886865748793014e+18,45.95330135091146,-0.5401797195275625,-9.133803049723308,3.3882368405659995,1.6886865748793014e+18,45.95330135091146,-0.7294331789016724,-9.216609319051107,3.2799618244171143,1.688686574874977e+18,45.94897688802084,0.0118609669928748,0.0784452793498833,-0.0102828983217477,1.688686574874977e+18,45.94897688802084,0.0109955742955207,0.08287405098478,-0.0078394364876051,,,,,,,,,,,,1.6886865748788795e+18,45.95287944335937,20.522839736938476,38.083518981933594,-22.12347984313965,1.6886865748788795e+18,45.95287944335937,-234.82315368652343,133.10931701660155,-154.84727783203124,1.6886865748793014e+18,45.95330135091146,-0.258849819501241,0.0354798274735609,-0.7320684989293417,0.6291365424791971,-1.789657711982727,1.221199631690979,2.215555508931478
1.0,1.6886865749312164e+18,46.00521638997395,-0.2801318168640136,-0.0662720998128254,-0.0901940663655598,1.6886865749312164e+18,46.00521638997395,-0.9974082509676616,-9.301101048787435,3.251845916112264,1.6886865749312164e+18,46.00521638997395,-0.7231224576632181,-9.217324256896974,3.27935258547465,1.6886865749268846e+18,46.00088460286458,0.0065668012636402,0.0655152983963489,-0.0126754542191823,1.6886865749268846e+18,46.00088460286458,0.0056505036385108,0.0699949736396471,-0.010231992850701,1.688686574919275e+18,45.99327502441406,0.0,0.5242146551609039,0.8677328824996948,7.2134997844696045,0.1703421995043754,4.652240514755249,40.400001525878906,-122.75315235,49.1903778,1.6886865749288852e+18,46.00288544921875,21.066959381103516,37.92735900878906,-22.055159759521484,1.6886865749288852e+18,46.00288544921875,-234.27903442382816,132.95315551757812,-154.7789520263672,1.6886865749312164e+18,46.00521638997395,-0.2607591946919759,0.0376471392810344,-0.7317408323287964,0.6286037564277649,-1.787863294283549,1.2214124202728271,2.2197444438934326
1.05,1.6886865749831278e+18,46.05712776692709,0.0188581546147664,0.0165952046712239,0.0065453052520751,1.6886865749831278e+18,46.05712776692709,-0.7052844762802124,-9.219545682271322,3.3433714707692466,1.6886865749831278e+18,46.05712776692709,-0.7299886544545492,-9.218636194864908,3.2741387685139975,1.688686574978801e+18,46.05280110677083,0.0019853120320475,-0.1277217417955398,0.0268780707071224,1.688686574978801e+18,46.05280110677083,0.0011199196160305,-0.1232420628269512,0.029321531454722,,,,,,,,,,,,1.688686574978885e+18,46.05288515625,20.964479827880854,38.117678833007815,-21.957559204101564,1.688686574978885e+18,46.05288515625,-234.3815155029297,133.1434783935547,-154.68135681152344,1.6886865749831278e+18,46.05712776692709,-0.2590223550796509,0.0361525577803452,-0.7320550680160522,0.629042903582255,-1.7901975711186726,1.2218034664789836,2.2173142433166504
1.1,1.6886865750263846e+18,46.10038464355469,0.0985928773880004,0.0411348342895507,0.0530636310577392,1.6886865750263846e+18,46.10038464355469,-0.625723123550415,-9.196215629577637,3.386442184448242,1.6886865750263846e+18,46.10038464355469,-0.7301620244979858,-9.219845771789553,3.270691156387329,1.688686575030711e+18,46.104710937499995,0.005090543689827,-0.0053959769817689,0.017664186656475,1.688686575030711e+18,46.104710937499995,0.0041742458318669,-0.0009672032513966,0.0201076474040746,,,,,,,,,,,,1.688686575028883e+18,46.10288310546875,21.176759719848633,38.00055847167969,-21.92339973449707,1.688686575028883e+18,46.10288310546875,-234.1692352294922,133.02636108398437,-154.64719848632814,1.6886865750263846e+18,46.10038464355469,-0.2578902393579483,0.0351120773702859,-0.7321120202541351,0.629501223564148,-1.790471613407135,1.2221643328666687,2.2143826484680176
1.15,1.6886865750696468e+18,46.14364664713542,-0.0266790588696797,0.0519158045450846,0.0928142070770263,1.6886865750696468e+18,46.14364664713542,-0.7391827901204427,-9.186245600382486,3.4265219370524087,1.6886865750696468e+18,46.14364664713542,-0.7183497548103333,-9.220656712849935,3.2710203329722085,1.6886865750826222e+18,46.156622477213546,0.0045305838187534,0.087659162779649,-0.0105374250560998,1.6886865750826222e+18,46.156622477213546,0.003614286019001,0.0920879368980725,-0.008043059380725,,,,,,,,,,,,1.688686575078884e+18,46.152884228515624,21.176759719848633,38.190879821777344,-21.972199630737304,1.688686575078884e+18,46.152884228515624,-234.1692352294922,133.2166748046875,-154.69599609375,1.6886865750696468e+18,46.14364664713542,-0.2586706578731536,0.0358011536300182,-0.731667141119639,0.6296591361363729,-1.7870072921117146,1.2224063873291016,2.2130678494771323
1.2,1.6886865751215588e+18,46.19555867513021,-0.133581519126892,0.02766482035319,-0.0205353895823161,1.6886865751215588e+18,46.19555867513021,-0.8500502506891886,-9.209376017252604,3.315455198287964,1.6886865751215588e+18,46.19555867513021,-0.7223147551218668,-9.219536145528158,3.273303190867106,1.6886865751258865e+18,46.19988635253906,-0.0018325956771149,0.0174860171973705,-0.0479529220610856,1.6886865751258865e+18,46.19988635253906,-0.0026725354837253,0.0219147908501327,-0.0453567449003457,,,,,,,,,,,,1.6886865751288847e+18,46.202884667968746,21.03523979187012,38.01763916015625,-21.903879928588868,1.6886865751288847e+18,46.202884667968746,-234.31075439453124,133.04343872070314,-154.62767639160157,1.6886865751215588e+18,46.19555867513021,-0.2598917881647746,0.0371047295629978,-0.7317404747009277,0.6289954980214437,-1.7880164782206218,1.2220717668533323,2.217799663543701
1.25,1.6886865751734743e+18,46.24747452799479,0.1611577669779459,-0.1217953364054362,-0.0241576035817464,1.6886865751734743e+18,46.24747452799479,-0.5766702592372894,-9.35832945505778,3.308476130167643,1.6886865751734743e+18,46.24747452799479,-0.7436740597089132,-9.219029426574709,3.269946336746216,1.688686575169146e+18,46.243146240234374,0.000458148914428,-0.1177951768040656,-0.0031561371094237,1.688686575169146e+18,46.243146240234374,-0.0004581489095774,-0.1133664076526959,-0.0006108653421203,,,,,,,,,,,,1.688686575178883e+18,46.2528830078125,20.625319290161137,37.89563903808594,-22.011240005493164,1.688686575178883e+18,46.2528830078125,-234.72067565917968,132.921435546875,-154.73503723144532,1.6886865751734743e+18,46.24747452799479,-0.2584965229034423,0.036096221456925,-0.7325341502825419,0.6287046472231547,-1.7944529851277669,1.2219204902648926,2.2207098801930747
1.3,1.68868657522538e+18,46.29938020833333,0.4109826882680257,0.0643692016601562,0.0377187728881836,1.68868657522538e+18,46.29938020833333,-0.3218346486488977,-9.174281438191732,3.36550505956014,1.68868657522538e+18,46.29938020833333,-0.738663375377655,-9.221145947774252,3.2650988896687827,1.6886865752210511e+18,46.29505102539063,0.0137953733404476,0.081652320921421,0.0094175056243935,1.6886865752210511e+18,46.29505102539063,0.0129299809535343,0.0860810950398445,0.0119118721534807,,,,,,,,,,,,1.6886865752288817e+18,46.30288173828125,20.77659912109375,38.039599609375,-21.8770393371582,1.6886865752288817e+18,46.30288173828125,-234.56939086914065,133.06539611816407,-154.60083618164063,1.68868657522538e+18,46.29938020833333,-0.2581193049748738,0.035959863414367,-0.7323666214942932,0.629062275091807,-1.7933148543039958,1.2225520610809326,2.2187930742899575
1.35,1.6886865752772954e+18,46.35129532877604,-0.2747758030891418,0.0261322657267252,-0.1378034750620523,1.6886865752772954e+18,46.35129532877604,-0.965703328450521,-9.214560826619469,3.193421204884847,1.6886865752772954e+18,46.35129532877604,-0.6967735489209493,-9.223188400268556,3.2685372829437256,1.6886865752729705e+18,46.34697062174479,-0.0061086524122704,0.0887281789133946,0.0576249572137991,1.6886865752729705e+18,46.34697062174479,-0.0070249502702305,0.0931569524109363,0.0601193209489186,,,,,,,,,,,,1.6886865752788838e+18,46.35288383789062,20.75219955444336,37.72483901977539,-21.979519271850585,1.6886865752788838e+18,46.35288383789062,-234.5937957763672,132.75063781738282,-154.70331420898438,1.6886865752772954e+18,46.35129532877604,-0.2606960237026214,0.037996166696151,-0.7308049201965332,0.6296966274579366,-1.7808639605840046,1.2231628100077312,2.2130977312723794
1.4,1.6886865753292076e+18,46.40320760091146,-0.0854649742444355,-0.0574919382731119,-0.0899590651194254,1.6886865753292076e+18,46.40320760091146,-0.774476945400238,-9.296913464864096,3.2452657222747803,1.6886865753292076e+18,46.40320760091146,-0.6948579947153727,-9.221916834513346,3.272537390391032,1.6886865753248827e+18,46.39888273111979,-0.0149661980879802,-0.1068505123257636,0.0034615699939119,1.6886865753248827e+18,46.39888273111979,-0.0158824962563812,-0.1024217382073402,0.0060068411597361,,,,,,,,,,,,1.6886865753288852e+18,46.40288515625,20.822959899902344,38.10791931152344,-22.208879470825195,1.6886865753288852e+18,46.40288515625,-234.52303771972657,133.13371887207032,-154.93267822265625,1.6886865753292076e+18,46.40320760091146,-0.259652058283488,0.0364364522198835,-0.7308173576990763,0.6302051941553751,-1.780053973197937,1.2227824529012044,2.2084755897521973
1.45,1.6886865753811128e+18,46.45511263020833,0.1967025796572367,-0.0828081766764322,-0.0163214206695556,1.6886865753811128e+18,46.45511263020833,-0.5244269669055939,-9.323234558105469,3.309074322382609,1.6886865753811128e+18,46.45511263020833,-0.7269755800565084,-9.2229216893514,3.2627083460489907,1.688686575376795e+18,46.450795084635416,0.0254018126676479,-0.0751364268362521,-0.0422006075580914,1.688686575376795e+18,46.450795084635416,0.0245364205911755,-0.070656749109427,-0.0397571461896101,,,,,,,,,,,,1.688686575378883e+18,46.45288310546875,21.06695976257324,38.13475875854492,-22.040519332885744,1.688686575378883e+18,46.45288310546875,-234.27903442382816,133.16055908203126,-154.76431579589843,1.6886865753811128e+18,46.45511263020833,-0.2576695084571838,0.0354372722407181,-0.7319857279459635,0.6297199527422587,-1.7900669574737549,1.2230827808380127,2.214096705118815
1.5,1.6886865754330317e+18,46.50703165690104,0.270684669415156,0.1576773325602213,0.2153103351593017,1.6886865754330317e+18,46.50703165690104,-0.4454638262589772,-9.088738123575846,3.524827082951864,1.6886865754330317e+18,46.50703165690104,-0.7219945391019186,-9.228910764058432,3.246829350789388,1.6886865754287066e+18,46.50270670572917,0.0367537258813778,0.0872519191664953,0.0221947710961103,1.6886865754287066e+18,46.50270670572917,0.035837427402536,0.0917315979798634,0.0247400421649217,,,,,,,,,,,,1.6886865754288845e+18,46.5028845703125,21.005959701538085,37.97859954833984,-22.05027961730957,1.6886865754288845e+18,46.5028845703125,-234.3400329589844,133.0043975830078,-154.77407836914062,1.6886865754330317e+18,46.50703165690104,-0.2575578192869822,0.0364855043590068,-0.7317606012026469,0.6299668947855631,-1.7896382411321003,1.224878986676534,2.214975674947103
1.55,1.688686575476292e+18,46.550292114257815,-0.2281556725502014,0.1260170936584472,0.1958684921264648,1.688686575476292e+18,46.550292114257815,-0.9014959335327148,-9.122037887573242,3.5099717378616333,1.688686575476292e+18,46.550292114257815,-0.6791862845420837,-9.230550289154053,3.251415848731994,1.688686575480615e+18,46.55461466471354,-0.0225002026806275,0.1545998106400171,0.03884084833165,1.688686575480615e+18,46.55461466471354,-0.0234165009266386,0.1590285847584406,0.0412843090792496,,,,,,,,,,,,1.688686575478883e+18,46.5528830078125,20.471599578857425,37.93955841064453,-22.325999450683593,1.688686575478883e+18,46.5528830078125,-234.87439880371093,132.96535949707032,-155.04979553222657,1.688686575476292e+18,46.550292114257815,-0.2603660225868225,0.0386780593544244,-0.7301556766033173,0.6305439472198486,-1.7767632603645325,1.2253719568252563,2.2094295024871826
1.6,1.6886865755195482e+18,46.593547932942705,-0.440237541993459,-0.0216957728068033,-0.1961719989776611,1.6886865755195482e+18,46.593547932942705,-1.1022936503092449,-9.263414065043133,3.1381869316101074,1.6886865755195482e+18,46.593547932942705,-0.6679021318753561,-9.224213600158691,3.2716715335845947,1.6886865755325294e+18,46.606529296875,-0.0630209321777025,-0.1811215517421563,0.0311541277915239,1.6886865755325294e+18,46.606529296875,-0.0639372281730174,-0.1766927776237329,0.033699399481217,,,,,,,,,,,,1.6886865755288788e+18,46.60287885742187,21.005959701538085,38.06155853271484,-22.19423942565918,1.6886865755288788e+18,46.60287885742187,-234.34003601074215,133.0873596191406,-154.91803588867188,1.6886865755195482e+18,46.593547932942705,-0.261344571908315,0.0380219432214895,-0.7297954559326172,0.6305956244468689,-1.7722105979919434,1.22347088654836,2.205423911412557
1.65,1.688686575571459e+18,46.645459309895834,0.0787181953589121,-0.1368697484334309,-0.3427472114562988,1.688686575571459e+18,46.645459309895834,-0.6137590209643046,-9.3722874323527,3.0029923915863037,1.688686575571459e+18,46.645459309895834,-0.6983232498168945,-9.217912991841631,3.2830522060394287,1.688686575575788e+18,46.64978796386719,-0.0235183127224445,-0.29306261241436,0.0233655963093042,1.688686575575788e+18,46.64978796386719,-0.0243582525290548,-0.2886338382959366,0.0258090561255812,,,,,,,,,,,,1.6886865755788836e+18,46.652883691406245,20.92787971496582,38.04203872680664,-22.191799926757813,1.6886865755788836e+18,46.652883691406245,-234.4181121826172,133.06783752441407,-154.91559448242188,1.688686575571459e+18,46.645459309895834,-0.2572906911373138,0.0329210460186004,-0.7311036189397176,0.6310317118962606,-1.780412475268046,1.221588095029195,2.200247844060262
1.7,1.6886865756233766e+18,46.69737646484375,0.4532227218151092,-0.0009765625,0.0431585311889648,1.6886865756233766e+18,46.69737646484375,-0.2671985278526941,-9.23809019724528,3.378067413965861,1.6886865756233766e+18,46.69737646484375,-0.7262672980626425,-9.219608942667644,3.272221485773722,1.6886865756190556e+18,46.69305541992187,0.0256563400228817,-0.0126245459541677,-0.0473929612586895,1.6886865756190556e+18,46.69305541992187,0.0247400421649217,-0.0081448666751384,-0.044796785339713,,,,,,,,,,,,1.6886865756288824e+18,46.70288232421875,21.123079681396483,38.17379913330078,-22.001479721069337,1.6886865756288824e+18,46.70288232421875,-234.2229156494141,133.19959716796876,-154.72527770996095,1.6886865756233766e+18,46.69737646484375,-0.2546446522076924,0.0311578313509622,-0.7321555813153585,0.6309778690338135,-1.789241870244344,1.2220930258433025,2.202586015065511
1.75,1.6886865756752886e+18,46.74928849283854,-0.0950904885927836,0.0471111933390299,0.0860315958658853,1.6886865756752886e+18,46.74928849283854,-0.8043872117996216,-9.192426999409994,3.4165519873301187,1.6886865756752886e+18,46.74928849283854,-0.7151427467664083,-9.222033500671388,3.2678329944610596,1.6886865756709604e+18,46.74496053059895,0.0192422550171613,0.1903354277213413,-0.0170533213143547,1.6886865756709604e+18,46.74496053059895,0.0184277684117356,0.1947642018397648,-0.0146098608771959,,,,,,,,,,,,1.6886865756788833e+18,46.752883154296875,20.805879974365233,38.1664794921875,-21.91119956970215,1.6886865756788833e+18,46.752883154296875,-234.5401153564453,133.19227905273436,-154.63499755859374,1.6886865756752886e+18,46.74928849283854,-0.2573521236578623,0.0344700229664643,-0.731619397799174,0.6303278803825378,-1.7862781286239624,1.2228168646494548,2.2084314823150635
1.8,1.6886865757272005e+18,46.80120068359375,-0.2558961908022562,0.0630518595377603,-0.0122045675913492,1.6886865757272005e+18,46.80120068359375,-0.950548787911733,-9.177073160807293,3.319841941197714,1.6886865757272005e+18,46.80120068359375,-0.700498620669047,-9.222620328267416,3.2693591117858887,1.688686575722874e+18,46.79687418619792,-0.0086030185727091,-0.0563014149665832,0.0348193198442458,1.688686575722874e+18,46.79687418619792,-0.0094684113719267,-0.0518217335144678,0.0372627787292003,,,,,,,,,,,,1.6886865757288817e+18,46.80288154296875,20.932759475708007,38.059119415283206,-22.19423942565918,1.6886865757288817e+18,46.80288154296875,-234.413232421875,133.0849151611328,-154.91803588867188,1.6886865757272005e+18,46.80120068359375,-0.2580572267373403,0.0349311108390489,-0.7310873866081238,0.6306321223576864,-1.781901756922404,1.2229924996693928,2.205760955810547
1.85,1.6886865757791086e+18,46.85310864257812,0.1314568519592285,0.003094991048177,0.1195125579833984,1.6886865757791086e+18,46.85310864257812,-0.5702893833319346,-9.234899520874022,3.45603346824646,1.6886865757791086e+18,46.85310864257812,-0.7075922687848409,-9.220489819844564,3.2738335132598877,1.6886865757747878e+18,46.84878808593751,-0.01771509150664,-0.1085303910076618,0.0229583524633198,1.6886865757747878e+18,46.84878808593751,-0.0186313896750409,-0.10410161751012,0.0254527181386946,,,,,,,,,,,,1.688686575778886e+18,46.85288583984375,21.098679733276366,38.08839950561523,-21.857519149780273,1.688686575778886e+18,46.85288583984375,-234.247314453125,133.11419677734375,-154.58131713867186,1.6886865757791086e+18,46.85310864257812,-0.2559693058331807,0.0322703346610068,-0.7314570943514506,0.6311961611111959,-1.7836938699086506,1.2223565578460691,2.2006045977274575
1.9,1.6886865758310223e+18,46.90502229817708,0.0483352740605672,0.096541404724121,0.1266291936238606,1.6886865758310223e+18,46.90502229817708,-0.6570292115211487,-9.137392044067385,3.4737802346547446,1.6886865758310223e+18,46.90502229817708,-0.7112105091412863,-9.216428756713867,3.28446364402771,1.6886865758267003e+18,46.900700439453125,-0.0161879292378822,0.1253291890025138,-0.056810467193524,1.6886865758267003e+18,46.900700439453125,-0.0170533213143546,0.1297579631209373,-0.0543670058250426,,,,,,,,,,,,1.688686575828883e+18,46.90288305664062,21.14015922546387,38.13719863891602,-22.10395927429199,1.688686575828883e+18,46.90288305664062,-234.2058349609375,133.16300048828126,-154.8277557373047,1.6886865758310223e+18,46.90502229817708,-0.2573347191015879,0.0330683402717113,-0.7315473357836405,0.6304938594500223,-1.7840773661931355,1.2211464643478394,2.204209884007772
1.95,1.688686575882937e+18,46.95693717447917,-0.1362945636113484,-0.0877504348754882,-0.1011970837910969,1.688686575882937e+18,46.95693717447917,-0.8492526412010193,-9.315856615702312,3.2606197198232016,1.688686575882937e+18,46.95693717447917,-0.7188041011492411,-9.210601488749186,3.2991294066111245,1.6886865758786092e+18,46.95260913085937,-0.0233655953779815,0.0343611699839433,-0.0264708277148504,1.6886865758786092e+18,46.95260913085937,-0.0242818935463825,0.0387899441023667,-0.0239764602544406,,,,,,,,,,,,1.6886865758788864e+18,46.95288642578125,20.79368019104004,38.10791854858398,-21.98195953369141,1.6886865758788864e+18,46.95288642578125,-234.55231018066405,133.1337158203125,-154.70575866699218,1.688686575882937e+18,46.95693717447917,-0.2593460381031036,0.0343620566030343,-0.7317523757616679,0.6293626030286154,-1.7853549321492512,1.21941606203715,2.2104074160257974
2.0,1.6886865759261972e+18,47.00019738769531,0.2112879604101181,0.0028557777404784,-0.1168781518936156,1.6886865759261972e+18,47.00019738769531,-0.512961357831955,-9.224031925201416,3.245863914489746,1.6886865759261972e+18,47.00019738769531,-0.7300953567028046,-9.209383010864258,3.300054669380188,1.6886865759305216e+18,47.00452164713541,0.0008653923869132,-0.0401134857287009,-0.0084503027804505,1.6886865759305216e+18,47.00452164713541,-5.090543224166675e-05,-0.0355829015995065,-0.0060068413149565,1.688686575926583e+18,47.0005830078125,0.0,0.4685213565826416,0.8830947279930115,7.117000102996826,0.1617991477251052,4.565327167510986,40.400001525878906,-122.7531524,49.1903776,1.688686575928885e+18,47.00288505859375,20.957159423828124,37.97371978759766,-22.135679244995117,1.688686575928885e+18,47.00288505859375,-234.3888366699219,132.99952087402343,-154.85947875976564,1.6886865759261972e+18,47.00019738769531,-0.2586644142866134,0.0336786694824695,-0.732177346944809,0.629185825586319,-1.788561999797821,1.2190549969673157,2.211622834205627
2.05,1.6886865759694574e+18,47.04345768229167,0.105423480272293,-0.0578120549519856,0.0213901996612548,1.6886865759694574e+18,47.04345768229167,-0.6127619942029318,-9.285348256429035,3.383650620778402,1.6886865759694574e+18,47.04345768229167,-0.7240315079689026,-9.210031509399414,3.299573024113973,1.6886865759824366e+18,47.05643660481771,-0.0063631795152711,0.0587448738515376,0.0199040264512101,1.6886865759824366e+18,47.05643660481771,-0.0072794776351656,0.0631736479699611,0.0223983926698565,,,,,,,,,,,,1.6886865759788854e+18,47.05288525390625,20.85955924987793,37.86635894775391,-22.160079956054688,1.6886865759788854e+18,47.05288525390625,-234.48643798828124,132.89215698242188,-154.88387756347657,1.6886865759694574e+18,47.04345768229167,-0.2589733600616454,0.0339781716465949,-0.7319526473681132,0.6293039520581564,-1.7868423859278362,1.219247341156006,2.210789759953817
2.1,1.6886865760213696e+18,47.09536962890625,-0.0269707838694254,0.0412336985270182,-0.0778979460398355,1.6886865760213696e+18,47.09536962890625,-0.7258228460947672,-9.185448010762531,3.290928761164347,1.6886865760213696e+18,47.09536962890625,-0.7046980857849121,-9.209177017211914,3.3061393102010093,1.6886865760256973e+18,47.099697265625,-0.0112246486824005,0.0469602644443511,0.0201585534960031,1.6886865760256973e+18,47.099697265625,-0.0121409464627503,0.0513890385627746,0.0226020142436027,,,,,,,,,,,,1.688686576028885e+18,47.10288500976562,21.267039489746093,38.05179901123047,-22.108839416503905,1.688686576028885e+18,47.10288500976562,-234.078955078125,133.07760009765624,-154.8326385498047,1.6886865760213696e+18,47.09536962890625,-0.2601456840833028,0.0345050444205601,-0.7312545577685038,0.6296032667160034,-1.7808398008346558,1.21899418036143,2.207293748855591
2.15,1.6886865760732782e+18,47.147278238932294,-0.0474884907404581,0.0280141830444335,0.0181527137756347,1.6886865760732782e+18,47.147278238932294,-0.7326025168100992,-9.200402895609535,3.385046402613322,1.6886865760732782e+18,47.147278238932294,-0.6909600496292114,-9.210912386576334,3.304206291834513,1.6886865760689574e+18,47.14295735677083,0.019496782682836,0.1065959855914115,-0.020209458656609,1.6886865760689574e+18,47.14295735677083,0.018580484514435,0.1110756670435269,-0.0177150915066401,,,,,,,,,,,,1.6886865760788874e+18,47.152887255859376,20.988879013061524,37.88099899291992,-22.36747932434082,1.6886865760788874e+18,47.152887255859376,-234.35711669921875,132.90679626464845,-155.09127807617188,1.6886865760732782e+18,47.147278238932294,-0.2615447541077931,0.0360576920211314,-0.7307001948356628,0.629579762617747,-1.7769773403803508,1.219508210817973,2.20775039990743
2.2,1.6886865761251904e+18,47.19919059244791,-0.1542670130729674,0.0652554829915364,0.0499177773793538,1.6886865761251904e+18,47.19919059244791,-0.8636095722516378,-9.160323143005373,3.419542948404948,1.6886865761251904e+18,47.19919059244791,-0.7151885827382406,-9.208073933919271,3.3069377740224204,1.6886865761208655e+18,47.194865559895824,-0.0132354136245946,0.0361937681833903,-0.0916806931296984,1.6886865761208655e+18,47.194865559895824,-0.0141517119482159,0.04062253733476,-0.0892372305194536,,,,,,,,,,,,1.6886865761288852e+18,47.20288500976562,20.51551971435547,38.02739944458008,-22.31623954772949,1.6886865761288852e+18,47.20288500976562,-234.8304748535156,133.0531982421875,-155.0400390625,1.6886865761251904e+18,47.19919059244791,-0.2629791498184203,0.0379100951055685,-0.7314510146776835,0.6279998024304708,-1.783813754717509,1.2186688979466755,2.219453652699789
2.25,1.6886865761771036e+18,47.25110335286458,0.344345360994339,-0.1998907725016275,-0.1629152297973632,1.6886865761771036e+18,47.25110335286458,-0.4057828386624654,-9.418748219807943,3.216352383295695,1.6886865761771036e+18,47.25110335286458,-0.7559742530186971,-9.201352755228678,3.3165802160898843,1.6886865761727816e+18,47.246781575520835,-0.0329867241283257,-0.1758273790280023,-0.0023925558974345,1.6886865761727816e+18,47.246781575520835,-0.0338521158943573,-0.1713986049095789,5.09049277752661e-05,,,,,,,,,,,,1.6886865761788846e+18,47.25288471679688,20.96935958862305,37.98347854614258,-22.46751937866211,1.6886865761788846e+18,47.25288471679688,-234.3766357421875,133.0092742919922,-155.19131774902343,1.6886865761771036e+18,47.25110335286458,-0.2610279421011607,0.0355417417983213,-0.7329888741175333,0.6271577874819437,-1.7949392000834148,1.216687003771464,2.2243038018544516
2.3,1.6886865762290184e+18,47.30301839192708,0.2878407140572865,0.0598236719767252,0.0131683349609374,1.6886865762290184e+18,47.30301839192708,-0.4241278022527694,-9.164510726928713,3.3856446743011475,1.6886865762290184e+18,47.30301839192708,-0.717814564704895,-9.2068297068278,3.309788942337036,1.688686576224694e+18,47.29869392903646,0.0339539255946874,0.0810414540270964,0.1003346169988314,1.688686576224694e+18,47.29869392903646,0.0330885347599783,0.0854702281455198,0.1027780771255492,,,,,,,,,,,,1.688686576228886e+18,47.302886083984376,21.149919509887695,37.93955917358399,-22.325999450683593,1.688686576228886e+18,47.302886083984376,-234.19607543945312,132.9653564453125,-155.04979553222657,1.6886865762290184e+18,47.30301839192708,-0.2605211635430653,0.0348638507227102,-0.7316938440004984,0.628916323184967,-1.7843879063924153,1.2183012167612712,2.211947838465373
2.35,1.6886865762809234e+18,47.35492366536459,-0.3514306743939717,0.0423628489176432,0.1665851275126139,1.6886865762809234e+18,47.35492366536459,-1.0053842862447102,-9.189435958862305,3.5304104487101235,1.6886865762809234e+18,47.35492366536459,-0.6597996354103088,-9.21429411570231,3.301137924194336,1.688686576276607e+18,47.35060717773438,0.0263690169279773,0.2014328191677729,0.0209730399462083,1.688686576276607e+18,47.35060717773438,0.0254527187595764,0.2059124956528345,0.0234674068633466,,,,,,,,,,,,1.688686576278883e+18,47.35288310546875,20.86443977355957,38.071318817138675,-22.377239990234376,1.688686576278883e+18,47.35288310546875,-234.48155517578124,133.097119140625,-155.10103454589844,1.6886865762809234e+18,47.35492366536459,-0.2637236615022023,0.0383088054756322,-0.7294976512591044,0.6299316684405009,-1.7681023279825847,1.2205108801523843,2.2053519090016684
2.4,1.688686576332843e+18,47.406842773437496,-0.2903260787328084,0.1613941192626952,0.035921812057495,1.688686576332843e+18,47.406842773437496,-0.9453643560409546,-9.070592562357584,3.3990046183268228,1.688686576332843e+18,47.406842773437496,-0.6608843008677164,-9.214481989542644,3.300395409266154,1.688686576328519e+18,47.402518554687504,0.0012217305290202,-0.0064649901663263,-0.031154127481083,1.688686576328519e+18,47.402518554687504,0.0003563382973273,-0.002036217910548,-0.0287106661126017,,,,,,,,,,,,1.6886865763288847e+18,47.40288466796875,20.788799667358397,38.071319580078125,-22.250359344482423,1.6886865763288847e+18,47.40288466796875,-234.55719604492188,133.09711608886718,-154.97415771484376,1.688686576332843e+18,47.406842773437496,-0.2647454937299092,0.0395701676607131,-0.7294683655103048,0.6294599572817484,-1.7684584458669026,1.2205675045649211,2.2090651194254556
2.45,1.688686576376103e+18,47.450103027343744,0.0125564038753509,-0.0657916069030761,-0.1262717247009276,1.688686576376103e+18,47.450103027343744,-0.6843472719192505,-9.29282569885254,3.2419755458831787,1.688686576376103e+18,47.450103027343744,-0.7027496993541718,-9.209529399871826,3.3055598735809326,1.6886865763804242e+18,47.45442423502604,-0.0340048316866158,-0.1278744563460349,-0.0755436693628628,1.6886865763804242e+18,47.45442423502604,-0.0349211301654577,-0.1234456896781921,-0.0730493031442165,,,,,,,,,,,,1.6886865763788846e+18,47.4528845703125,20.55211944580078,37.9737190246582,-22.38455924987793,1.6886865763788846e+18,47.4528845703125,-234.7938720703125,132.99951782226563,-155.1083557128906,1.688686576376103e+18,47.450103027343744,-0.2636060416698456,0.0385409481823443,-0.7309843003749847,0.6282418966293335,-1.7803034782409668,1.2190988659858704,2.2177770137786865
2.5,1.6886865764193636e+18,47.493363606770835,0.2481507658958435,-0.1204357147216796,-0.3963013490041097,1.6886865764193636e+18,47.493363606770835,-0.4801597396532694,-9.342178026835125,2.9798618157704673,1.6886865764193636e+18,47.493363606770835,-0.7341565489768982,-9.204237620035808,3.313475767771403,1.6886865764323418e+18,47.50634171549479,-0.0326812913020451,-0.1644754707813262,0.0601702261095245,1.6886865764323418e+18,47.50634171549479,-0.0335975891600052,-0.1600466966629028,0.0626645935699343,,,,,,,,,,,,1.6886865764288824e+18,47.502882421875,21.37439956665039,38.071319580078125,-22.233279037475587,1.6886865764288824e+18,47.502882421875,-233.97159423828128,133.09711608886718,-154.9570770263672,1.6886865764193636e+18,47.493363606770835,-0.2615785797437032,0.0360725348194439,-0.732204000155131,0.6278146704037985,-1.7888748248418171,1.217536250750224,2.219796578089396
2.55,1.6886865764712717e+18,47.54527180989584,0.1514722307523091,-0.103288968404134,-0.1543879508972167,1.6886865764712717e+18,47.54527180989584,-0.5575276811917623,-9.32742182413737,3.2193435033162436,1.6886865764712717e+18,47.54527180989584,-0.7148459355036417,-9.2066281636556,3.3110440572102866,1.6886865764756037e+18,47.54960363769531,0.0158824964892118,-0.1520290896296501,0.1182024255394935,1.6886865764756037e+18,47.54960363769531,0.014966198359616,-0.1475239545106887,0.1206458881497382,,,,,,,,,,,,1.688686576478883e+18,47.552883056640624,21.07183990478516,37.94199905395508,-22.11615943908691,1.688686576478883e+18,47.552883056640624,-234.2741546630859,132.9677978515625,-154.83995666503907,1.6886865764712717e+18,47.54527180989584,-0.2587357958157857,0.0326430462300776,-0.7316930890083313,0.62977268298467,-1.783463478088379,1.218241532643636,2.20513923962911
2.6,1.6886865765231877e+18,47.5971874186198,-0.0258018573125203,0.0840396881103515,0.1007196903228759,1.6886865765231877e+18,47.5971874186198,-0.7140581607818604,-9.148358980814615,3.455834070841471,1.6886865765231877e+18,47.5971874186198,-0.6941023270289103,-9.21489397684733,3.2924269835154214,1.688686576518861e+18,47.5928612467448,0.0416915534685054,0.0224492984513442,0.0144571441536148,1.688686576518861e+18,47.5928612467448,0.0408261604607105,0.0268780700862407,0.0169006055220961,,,,,,,,,,,,1.6886865765288863e+18,47.60288642578125,20.85711975097656,38.1859992980957,-21.891679763793945,1.6886865765288863e+18,47.60288642578125,-234.48887634277344,133.21179809570313,-154.6154754638672,1.6886865765231877e+18,47.5971874186198,-0.2573709785938262,0.0322039350867271,-0.730989952882131,0.6311708490053812,-1.7786080837249756,1.220689296722412,2.1975413163503013
2.65,1.6886865765750958e+18,47.649095703125,-0.2344332337379455,0.0221576690673827,0.0433119932810465,1.6886865765750958e+18,47.649095703125,-0.9379864533742268,-9.212566375732422,3.3886357148488364,1.6886865765750958e+18,47.649095703125,-0.7093992431958517,-9.217219352722168,3.2826363245646157,1.6886865765707735e+18,47.64477351888021,0.0062613690582414,-0.1307760681957006,0.0050905431465556,1.6886865765707735e+18,47.64477351888021,0.00534507073462,-0.126296387054026,0.0075849100636938,,,,,,,,,,,,1.688686576578883e+18,47.652883203125,20.95227966308594,38.14451904296875,-22.20399932861328,1.688686576578883e+18,47.652883203125,-234.39371643066409,133.17032165527343,-154.92779541015625,1.6886865765750958e+18,47.649095703125,-0.2561592062314351,0.0318203674008448,-0.7315392891565958,0.6310455004374186,-1.7836659749348958,1.2213811874389648,2.2002317905426025
2.7,1.6886865766270116e+18,47.70101163736979,0.1591418385505676,0.0921827952067056,0.2299294471740722,1.6886865766270116e+18,47.70101163736979,-0.550349215666453,-9.141579310099283,3.5766716798146567,1.6886865766270116e+18,47.70101163736979,-0.715337077776591,-9.216257413228352,3.28405483563741,1.6886865766226872e+18,47.696687174479166,-0.0181732413669426,-0.1137736526628335,0.0429641883820295,1.6886865766226872e+18,47.696687174479166,-0.0190386334434151,-0.10934487854441,0.0455094606926043,,,,,,,,,,,,1.688686576628883e+18,47.70288310546875,20.93763961791992,38.09571914672851,-21.95999946594238,1.688686576628883e+18,47.70288310546875,-234.4083526611328,133.12151184082032,-154.68380126953124,1.6886865766270116e+18,47.70101163736979,-0.2534564435482024,0.0286700191597143,-0.7318767110506693,0.6318971514701843,-1.7853039503097534,1.2210951646169026,2.1932924588521323
2.75,1.6886865766789284e+18,47.752928466796874,-0.0569374958674112,0.0635032653808593,0.0718576113382975,1.6886865766789284e+18,47.752928466796874,-0.763310432434082,-9.1671028137207,3.428117275238037,1.6886865766789284e+18,47.752928466796874,-0.7122189601262411,-9.213101387023926,3.293572266896566,1.688686576674601e+18,47.748601155598955,-0.0084503025282173,0.0746782782177129,-0.0208203239987293,1.688686576674601e+18,47.748601155598955,-0.0093156952255715,0.0791579534610112,-0.0182750523090362,,,,,,,,,,,,1.688686576678888e+18,47.75288779296875,20.56187934875488,38.222599029541016,-22.243038940429688,1.688686576678888e+18,47.75288779296875,-234.78411254882812,133.24839782714844,-154.9668395996094,1.6886865766789284e+18,47.752928466796874,-0.2542320092519124,0.0287637977550426,-0.7317644158999125,0.6317113439242045,-1.7837974230448406,1.220157782236735,2.1930955251057944
2.8,1.6886865767308326e+18,47.80483268229167,-0.1717931628227233,-0.0236018498738606,-0.0472736358642578,1.6886865767308326e+18,47.80483268229167,-0.8877372145652771,-9.253643353780111,3.308476130167643,1.6886865767308326e+18,47.80483268229167,-0.721790075302124,-9.212536811828612,3.293062369028727,1.6886865767265068e+18,47.80050675455729,0.0048869221160808,-0.0474438667297363,-0.0160352128247419,1.6886865767265068e+18,47.80050675455729,0.0040215295739471,-0.0429641890029112,-0.0135408461404342,,,,,,,,,,,,1.6886865767288832e+18,47.80288310546875,20.527719497680664,38.1030387878418,-22.1015193939209,1.6886865767288832e+18,47.80288310546875,-234.81827697753903,133.1288330078125,-154.8253173828125,1.6886865767308326e+18,47.80483268229167,-0.2544391751289367,0.0291937881459792,-0.7320804993311564,0.6312417387962341,-1.7866034905115764,1.2199901739756267,2.1968424320220947
2.85,1.6886865767827484e+18,47.85674812825521,0.3202722171942392,-0.0402323404947916,0.0953856309254963,1.6886865767827484e+18,47.85674812825521,-0.4187439580758412,-9.270393053690592,3.445664644241333,1.6886865767827484e+18,47.85674812825521,-0.7448622186978658,-9.212656021118164,3.2875916163126626,1.6886865767784172e+18,47.8524170735677,-0.0002036217483691,-0.1165225443740685,-0.0061086523346602,1.6886865767784172e+18,47.8524170735677,-0.0010690141740875,-0.112093770255645,-0.00366519135423,,,,,,,,,,,,1.6886865767788818e+18,47.85288193359375,21.413439559936524,38.10060043334961,-21.772119522094727,1.6886865767788818e+18,47.85288193359375,-233.93255310058595,133.12639465332032,-154.49591979980468,1.6886865767827484e+18,47.85674812825521,-0.2520669400691985,0.0272343450536329,-0.7329587737719218,0.631261924902598,-1.7936374346415205,1.220025380452474,2.1975225607554116
2.9,1.6886865768260086e+18,47.90000842285156,0.3123412430286407,0.0026636123657226,0.0287848711013793,1.6886865768260086e+18,47.90000842285156,-0.4202394634485245,-9.22762155532837,3.380161166191101,1.6886865768260086e+18,47.90000842285156,-0.7384267449378967,-9.212780475616457,3.288688898086548,1.6886865768303355e+18,47.90433585611979,0.0092647892888634,0.1397354255119959,0.0034615697804838,1.6886865768303355e+18,47.90433585611979,0.0083993972511961,0.1441641996304194,0.0059050306833038,,,,,,,,,,,,1.6886865768288845e+18,47.902884521484374,21.376839447021485,38.129879760742185,-22.00147933959961,1.6886865768288845e+18,47.902884521484374,-233.96915283203128,133.15567932128906,-154.72527465820312,1.6886865768260086e+18,47.90000842285156,-0.2526756972074508,0.0277543403208255,-0.7327157258987427,0.63127800822258,-1.7917054295539856,1.220062434673309,2.1972440481185913
2.95,1.6886865768692687e+18,47.94326863606771,-0.1661071181297302,0.0464655558268229,-0.0323923428853352,1.6886865768692687e+18,47.94326863606771,-0.8679964145024618,-9.186843554178871,3.317249854405721,1.6886865768692687e+18,47.94326863606771,-0.7077353199323019,-9.21580441792806,3.2869548002878823,1.6886865768822477e+18,47.95624755859375,0.0133881301929552,0.0975348204374313,0.0425569439927736,1.6886865768822477e+18,47.95624755859375,0.0124718318693339,0.1019635883470376,0.0450004066030184,,,,,,,,,,,,1.6886865768788795e+18,47.95287939453125,21.24995994567871,38.02739944458008,-21.650119400024415,1.6886865768788795e+18,47.95287939453125,-234.09603576660157,133.0531982421875,-154.37391357421876,1.6886865768692687e+18,47.94326863606771,-0.254947155714035,0.0300468746572732,-0.7315566738446554,0.6316036780675253,-1.7829087972640991,1.2209607760111492,2.195108652114868
3.0,1.688686576921177e+18,47.99517724609375,-0.2961615324020385,0.0084117253621419,-0.0065680344899495,1.688686576921177e+18,47.99517724609375,-0.9774680336316428,-9.22692330678304,3.341776212056478,1.688686576921177e+18,47.99517724609375,-0.6871525247891744,-9.217830340067543,3.2856568495432534,1.688686576925507e+18,47.999507080078125,-0.0058032199740409,-0.0619264654815196,0.0197004044894128,1.688686576925507e+18,47.999507080078125,-0.0067195177543907,-0.0574976922944187,0.0222202234435826,1.688686576926571e+18,48.00057104492188,0.0,0.5137783288955688,0.8926674127578735,7.123000144958496,0.1547914743423462,4.4680352210998535,40.400001525878906,-122.7531525,49.1903777,1.6886865769288883e+18,48.00288813476563,20.674119567871095,38.12499847412109,-21.89167938232422,1.6886865769288883e+18,48.00288813476563,-234.671875,133.15079650878906,-154.61547241210937,1.688686576921177e+18,47.99517724609375,-0.2554704546928406,0.0304318393270174,-0.7308232188224792,0.6322230696678162,-1.7769953807195027,1.2215640942255657,2.1905055046081543
3.05,1.6886865769730908e+18,48.04709098307291,0.0650339921315511,0.0505965550740559,-0.0439789295196532,1.6886865769730908e+18,48.04709098307291,-0.6464609106381735,-9.182457288106283,3.304288625717163,1.6886865769730908e+18,48.04709098307291,-0.7173409263292948,-9.2155491511027,3.2855801582336426,1.6886865769687693e+18,48.042769205729165,-0.0086030190189678,-0.1168279772003491,-0.0466802859057982,1.6886865769687693e+18,48.042769205729165,-0.0095193167217075,-0.1123992055654525,-0.0441350142161051,,,,,,,,,,,,1.688686576978884e+18,48.05288408203125,21.120639419555665,38.051798248291014,-21.9843994140625,1.688686576978884e+18,48.05288408203125,-234.22535095214843,133.07760009765624,-154.70820007324218,1.6886865769730908e+18,48.04709098307291,-0.2535673677921294,0.028707959378759,-0.7319445808728536,0.6317720611890157,-1.7857839663823445,1.2208856741587322,2.193998495737711
3.1,1.6886865770250048e+18,48.09900504557291,0.2763131459554036,-0.0684254964192707,0.0645762284596761,1.6886865770250048e+18,48.09900504557291,-0.4630111853281657,-9.30030345916748,3.4099717140197754,1.6886865770250048e+18,48.09900504557291,-0.7451703747113546,-9.214373270670572,3.2827080885569253,1.6886865770206769e+18,48.09467659505208,0.0069740447797811,-0.0354810903469721,-0.0213802827832599,1.6886865770206769e+18,48.09467659505208,0.0060577469606262,-0.0310523177807529,-0.0188350115592281,,,,,,,,,,,,1.688686577028882e+18,48.10288188476562,20.66923942565918,38.029840087890626,-21.606199645996092,1.688686577028882e+18,48.10288188476562,-234.6767578125,133.0556396484375,-154.3299987792969,1.6886865770250048e+18,48.09900504557291,-0.25228218237559,0.0278778485953807,-0.7329452236493429,0.6311638752619425,-1.7940460443496704,1.2205356359481812,2.199171543121338
3.15,1.6886865770769142e+18,48.15091438802083,0.1003963152567545,0.0384511947631835,0.1736797491709391,1.6886865770769142e+18,48.15091438802083,-0.6151548226674398,-9.196813583374023,3.514857053756714,1.6886865770769142e+18,48.15091438802083,-0.7213971614837646,-9.21776008605957,3.278489907582601,1.688686577072592e+18,48.14659204101562,0.016696983637909,0.0930551414688427,0.0401643899579842,1.688686577072592e+18,48.14659204101562,0.0158315909405548,0.0975348154703775,0.0426078500847021,,,,,,,,,,,,1.6886865770788808e+18,48.15288081054688,21.34023971557617,38.18112030029297,-21.933159255981444,1.6886865770788808e+18,48.15288081054688,-234.0057586669922,133.20691528320313,-154.6569580078125,1.6886865770769142e+18,48.15091438802083,-0.253118375937144,0.028814161196351,-0.7320818106333414,0.6317882140477499,-1.7874170541763306,1.2215430736541748,2.195104996363322
3.2,1.688686577128829e+18,48.20282853190105,-0.2250178456306457,0.0877291361490885,-0.043248971303304,1.688686577128829e+18,48.20282853190105,-0.907677392164866,-9.148358980814615,3.3026934464772544,1.688686577128829e+18,48.20282853190105,-0.6885055700937907,-9.218583424886068,3.2832550207773843,1.6886865771245056e+18,48.1985057779948,-0.0075849100636939,0.1157589654127756,0.0219911492119232,1.6886865771245056e+18,48.1985057779948,-0.0084503025282174,0.1201877395311991,0.0244346099595228,,,,,,,,,,,,1.68868657712888e+18,48.20288002929688,20.803439331054687,38.06399993896484,-21.898999404907222,1.68868657712888e+18,48.20288002929688,-234.5425537109375,133.089794921875,-154.62279663085937,1.688686577128829e+18,48.20282853190105,-0.2554490665594736,0.0306189879775046,-0.7308625976244608,0.6321768760681152,-1.7775382995605469,1.2217884461085002,2.191283384958903
3.25,1.688686577180742e+18,48.25474194335937,-0.1701012253761291,-0.0048561096191406,-0.1934065024058023,1.688686577180742e+18,48.25474194335937,-0.8524430791536967,-9.238688151041666,3.158924659093221,1.688686577180742e+18,48.25474194335937,-0.6881878773371378,-9.216327349344889,3.2896437644958496,1.6886865771764134e+18,48.25041373697917,-0.0161879289274413,-0.0661770667647943,-0.007992153832068,1.6886865771764134e+18,48.25041373697917,-0.0171042270958423,-0.0616973900857071,-0.0054468815214931,,,,,,,,,,,,1.6886865771788805e+18,48.25288041992187,20.696079635620116,38.193318939208986,-22.035639572143555,1.6886865771788805e+18,48.25288041992187,-234.6499145507813,133.2191192626953,-154.75943908691406,1.688686577180742e+18,48.25474194335937,-0.2556207180023193,0.0303058462838331,-0.7308643658955892,0.6321205496788025,-1.777052680651347,1.2211174567540486,2.1906150182088218
3.3,1.6886865772326502e+18,48.30665047200521,0.276758462190628,-0.133135159810384,-0.1417392889658609,1.6886865772326502e+18,48.30665047200521,-0.4410769641399383,-9.366106033325195,3.2053852876027427,1.6886865772326502e+18,48.30665047200521,-0.7236814697583517,-9.215466181437174,3.2844371795654297,1.688686577228329e+18,48.30232877604167,0.0092647895993043,-0.0738637881974378,-0.0500909499824046,1.688686577228329e+18,48.30232877604167,0.0083484915861238,-0.069435017183423,-0.0475965837637583,,,,,,,,,,,,1.688686577228885e+18,48.302884960937504,21.264599609375,38.164039611816406,-21.916079330444337,1.688686577228885e+18,48.302884960937504,-234.081396484375,133.18983459472656,-154.63988037109374,1.6886865772326502e+18,48.30665047200521,-0.253769169251124,0.0291321904708941,-0.732148806254069,0.6314352552096049,-1.7877023220062256,1.2208607991536458,2.196835915247599
3.35,1.6886865772759142e+18,48.349914062500005,0.2348067164421081,-0.0036091804504394,-0.0066572427749633,1.6886865772759142e+18,48.349914062500005,-0.4869394153356552,-9.239286422729492,3.3320056200027466,1.6886865772759142e+18,48.349914062500005,-0.7275921702384949,-9.218172550201416,3.275975465774536,1.6886865772802378e+18,48.35423795572916,0.0226020142436026,0.0518726396063963,0.0234165014699101,1.6886865772802378e+18,48.35423795572916,0.0217366218566893,0.0563014137248197,0.025859961596628,,,,,,,,,,,,1.6886865772788856e+18,48.352885742187496,20.883959579467778,38.01519927978516,-21.672079467773436,1.6886865772788856e+18,48.352885742187496,-234.4620361328125,133.0409942626953,-154.3958770751953,1.6886865772759142e+18,48.349914062500005,-0.2535245567560196,0.0295816911384463,-0.7322670817375183,0.6313755512237549,-1.7893826365470886,1.2216657400131226,2.1987873315811157
3.4,1.6886865773191708e+18,48.393170654296874,-0.0822627544403076,0.0753250122070312,0.1805933316548665,1.6886865773191708e+18,48.393170654296874,-0.7730811238288879,-9.164510726928713,3.514258861541748,1.6886865773191708e+18,48.393170654296874,-0.6966643929481506,-9.222331047058104,3.2709781328837075,1.688686577332151e+18,48.40615087890625,0.0111991960438899,0.0663806907832622,0.03929899726063,1.688686577332151e+18,48.40615087890625,0.0102828980792158,0.0708603697518507,0.0418442689503232,,,,,,,,,,,,1.6886865773288832e+18,48.40288305664062,20.6814395904541,38.266519927978514,-21.823358917236327,1.6886865773288832e+18,48.40288305664062,-234.6645538330078,133.2923156738281,-154.54715881347656,1.6886865773191708e+18,48.393170654296874,-0.2544906934102376,0.0306123103946447,-0.731147289276123,0.6322347124417623,-1.7806761662165325,1.222907543182373,2.1929639975229898
3.45,1.6886865773710912e+18,48.44509122721354,-0.2465995152791341,0.0787900288899739,-0.0478392442067463,1.6886865773710912e+18,48.44509122721354,-0.9236295421918234,-9.161120732625326,3.2885359128316245,1.6886865773710912e+18,48.44509122721354,-0.6828760504722595,-9.222406069437662,3.273687760035197,1.6886865773754135e+18,48.44941357421875,-0.015806138049811,-0.0078648896887898,-0.0039706240640952,1.6886865773754135e+18,48.44941357421875,-0.0166460778564214,-0.0033597592264413,-0.0014508049935102,,,,,,,,,,,,1.688686577378883e+18,48.45288305664063,20.49843940734863,38.083518981933594,-21.98195953369141,1.688686577378883e+18,48.45288305664063,-234.84755859375,133.10932006835938,-154.70575866699218,1.6886865773710912e+18,48.44509122721354,-0.2552904188632965,0.0311050545424222,-0.7306454380353292,0.632468581199646,-1.7764733632405598,1.2229301929473877,2.1906566619873047
3.5,1.6886865774229937e+18,48.49699381510417,0.0207081933816274,-0.0515705744425455,-0.0040125846862793,1.6886865774229937e+18,48.49699381510417,-0.6727819641431173,-9.289735158284506,3.3338001569112143,1.6886865774229937e+18,48.49699381510417,-0.6993361910184225,-9.220659891764322,3.27512534459432,1.6886865774186734e+18,48.492673665364585,-0.005446881657311,-0.1026762674252191,-0.0065668013800556,1.6886865774186734e+18,48.492673665364585,-0.0062613688690664,-0.0982474957903225,-0.0041233404384305,,,,,,,,,,,,1.6886865774288837e+18,48.50288344726563,20.749758911132812,38.33727951049805,-21.90387954711914,1.6886865774288837e+18,48.50288344726563,-234.5962371826172,133.3630798339844,-154.62767944335937,1.6886865774229937e+18,48.49699381510417,-0.2539467314879099,0.0296963372578222,-0.731277604897817,0.6323462724685669,-1.781196157137553,1.222408652305603,2.191360870997111
3.55,1.6886865774749018e+18,48.548901692708334,0.2033014893531799,0.0134547551472981,-0.0824578603108723,1.6886865774749018e+18,48.548901692708334,-0.50907301902771,-9.22273604075114,3.2568310101826987,1.6886865774749018e+18,48.548901692708334,-0.7182205518086752,-9.218686103820804,3.276601473490397,1.6886865774705797e+18,48.54457975260416,-0.0052941654964039,0.0429641890029112,-0.0472402454664309,1.6886865774705797e+18,48.54457975260416,-0.0061595578057069,0.0473929617243508,-0.0446949737767378,,,,,,,,,,,,1.688686577478883e+18,48.55288315429688,21.159679412841797,38.0371597290039,-21.774559783935548,1.688686577478883e+18,48.55288315429688,-234.18631286621093,133.06295471191407,-154.49835510253905,1.6886865774749018e+18,48.548901692708334,-0.2537850638230641,0.0296875076989332,-0.7319358984629313,0.6316497325897217,-1.7866101662317913,1.221819241841634,2.1965465545654297
3.6,1.688686577526818e+18,48.60081827799479,-0.0794031421343485,-0.0462745030721028,-0.0794427394866943,1.688686577526818e+18,48.60081827799479,-0.780857781569163,-9.283952395121256,3.2580273946126304,1.688686577526818e+18,48.60081827799479,-0.7073006629943848,-9.220173199971518,3.274782737096151,1.6886865775224983e+18,48.596498128255206,0.0073812884123374,-0.0257072467356919,0.0506000034511089,1.6886865775224983e+18,48.596498128255206,0.0064649904428126,-0.0212784732381502,0.0530434654404719,,,,,,,,,,,,1.688686577528883e+18,48.60288295898438,21.05719985961914,38.100598907470705,-22.001479721069337,1.688686577528883e+18,48.60288295898438,-234.2887939453125,133.12639770507812,-154.72528076171875,1.688686577526818e+18,48.60081827799479,-0.2540229658285776,0.0299364918222029,-0.7315454284350077,0.6319945653279623,-1.7835408846537273,1.222263256708781,2.1941751639048257
3.65,1.6886865775787356e+18,48.65273575846354,0.0929124156634012,0.0704708099365234,0.1057723363240559,1.6886865775787356e+18,48.65273575846354,-0.60239311059316,-9.169296264648438,3.438685496648153,1.6886865775787356e+18,48.65273575846354,-0.7011515498161316,-9.222262382507324,3.270225763320923,1.6886865775744074e+18,48.648407307942705,0.0035124750186999,-0.041487930342555,0.0034615695476532,1.6886865775744074e+18,48.648407307942705,0.00259617723835,-0.0370591577763358,0.0059559364550902,,,,,,,,,,,,1.6886865775788846e+18,48.65288471679688,20.869319915771484,38.237239074707034,-21.886799621582032,1.6886865775788846e+18,48.65288471679688,-234.47667541503907,133.263037109375,-154.610595703125,1.6886865775787356e+18,48.65273575846354,-0.2529557943344116,0.0289672085394461,-0.731370210647583,0.6326704223950704,-1.7820321718851726,1.2228867212931316,2.189657131830851
3.7,1.6886865776306437e+18,48.704643636067715,0.0482931733131408,-0.0969622929890949,-0.0659457842508951,1.6886865776306437e+18,48.704643636067715,-0.650050163269043,-9.33719253540039,3.2650065422058105,1.6886865776306437e+18,48.704643636067715,-0.7041893601417542,-9.222725550333658,3.268264929453532,1.688686577626318e+18,48.70031803385416,0.008603018533904,0.013693562708795,0.0024434610580404,1.688686577626318e+18,48.70031803385416,0.0077376266708597,0.0181223352750141,0.00488692180564,,,,,,,,,,,,1.6886865776288855e+18,48.70288530273437,20.761959838867188,37.99079971313476,-21.923398971557617,1.6886865776288855e+18,48.70288530273437,-234.5840362548828,133.0165985107422,-154.6471954345703,1.6886865776306437e+18,48.704643636067715,-0.2529610494772593,0.0291759700824816,-0.7314679423967997,0.6325457692146301,-1.7830446163813274,1.2230252822240193,2.1909782886505127
3.75,1.6886865776825592e+18,48.756559326171875,0.0496640801429748,0.1252562204996744,0.1658410231272379,1.6886865776825592e+18,48.756559326171875,-0.6285147468249003,-9.120044072469076,3.486741383870443,1.6886865776825592e+18,48.756559326171875,-0.6840248505274454,-9.227795600891112,3.2582129637400308,1.6886865776782356e+18,48.75223551432291,0.0291688150415817,0.0564032234251498,0.0332412502417961,1.6886865776782356e+18,48.75223551432291,0.0283543281257152,0.0608319975435733,0.0357356170813242,,,,,,,,,,,,1.6886865776788833e+18,48.752883203125,21.0303596496582,38.18843994140625,-21.999039077758788,1.6886865776788833e+18,48.752883203125,-234.31564025878907,133.21423950195313,-154.72283630371095,1.6886865776825592e+18,48.756559326171875,-0.2532301843166351,0.0299692830691734,-0.73073277870814,0.6332499980926514,-1.77775772412618,1.2245450417200725,2.187194029490153
3.8,1.6886865777258194e+18,48.79981958007812,-0.1112854480743407,-0.013723850250244,0.0768729448318481,1.6886865777258194e+18,48.79981958007812,-0.7758727371692657,-9.260223865509031,3.3972100019454956,1.6886865777258194e+18,48.79981958007812,-0.6704333126544952,-9.228995323181152,3.2576496601104736,1.6886865777301435e+18,48.80414339192709,-0.0079412482058008,0.0800233458479244,-0.0299323967968423,1.6886865777301435e+18,48.80414339192709,-0.0088066402822732,0.0844521199663479,-0.0274380305781959,,,,,,,,,,,,1.6886865777288837e+18,48.80288374023438,20.79367904663086,38.13231887817383,-21.684279251098634,1.6886865777288837e+18,48.80288374023438,-234.5523193359375,133.15811767578126,-154.4080780029297,1.6886865777258194e+18,48.79981958007812,-0.2546560317277908,0.031445869244635,-0.7301965653896332,0.6332253813743591,-1.7737944722175598,1.2249057292938232,2.1874743700027466
3.85,1.688686577769077e+18,48.843077148437494,-0.1781997084617614,0.0400842030843098,-0.2670938968658446,1.688686577769077e+18,48.843077148437494,-0.850847860177358,-9.20279598236084,3.0618159770965576,1.688686577769077e+18,48.843077148437494,-0.6784941752751669,-9.225375493367514,3.2662224769592285,1.688686577782058e+18,48.85605794270833,-0.0303905463467041,-0.0868446749324599,0.0256563400228817,1.688686577782058e+18,48.85605794270833,-0.0313068435837824,-0.0824159012796977,0.0280998009257018,,,,,,,,,,,,1.6886865777788849e+18,48.852884765625,21.206039428710938,38.2323600769043,-21.78675956726074,1.6886865777788849e+18,48.852884765625,-234.13995361328125,133.258154296875,-154.51055908203125,1.688686577769077e+18,48.843077148437494,-0.2551644047101338,0.0314811170101165,-0.7304762204488119,0.6326962113380432,-1.7756429115931194,1.2238191763559978,2.1901602745056152
3.9,1.688686577820989e+18,48.89498893229166,-0.0091879268487294,-0.1355094909667968,-0.245334227879842,1.688686577820989e+18,48.89498893229166,-0.6937191685040792,-9.375677108764648,3.088735262552897,1.688686577820989e+18,48.89498893229166,-0.6903772751490275,-9.222662925720217,3.2713820934295654,1.6886865778253207e+18,48.899320678710936,-0.0274889357388019,-0.3033709526062011,0.0505490973591804,1.6886865778253207e+18,48.899320678710936,-0.0283288760110735,-0.2988658100366592,0.0529925599694251,,,,,,,,,,,,1.688686577828884e+18,48.902883886718755,20.86443939208984,38.24211883544922,-21.742839431762697,1.688686577828884e+18,48.902883886718755,-234.48155517578124,133.267919921875,-154.46663513183594,1.688686577820989e+18,48.89498893229166,-0.2521855235099792,0.0278188561399777,-0.7310376365979513,0.6334096988042196,-1.778808832168579,1.2230069239934285,2.18361759185791
3.95,1.688686577872903e+18,48.946902669270834,0.4192269345124562,-0.0492626825968424,0.1268404324849446,1.688686577872903e+18,48.946902669270834,-0.271784762541453,-9.292925198872885,3.449652671813965,1.688686577872903e+18,48.946902669270834,-0.696857750415802,-9.226157824198404,3.260124842325846,1.688686577868581e+18,48.94258113606771,0.0336484946310519,-0.0624100665251413,0.0377718340605497,1.688686577868581e+18,48.94258113606771,0.0327831011964008,-0.0579812924067179,0.0402662009000777,,,,,,,,,,,,1.6886865778788856e+18,48.95288569335937,20.983999252319336,38.35191955566406,-21.56471939086914,1.6886865778788856e+18,48.95288569335937,-234.36199035644532,133.37771911621093,-154.28851623535155,1.688686577872903e+18,48.946902669270834,-0.2486131240924199,0.0246900115162133,-0.7313776612281799,0.6345614592234293,-1.781407634417216,1.2240546147028606,2.176361083984375
4.0,1.688686577924807e+18,48.99880655924479,-0.1896106203397115,0.2177673975626627,0.3344080448150635,1.688686577924807e+18,48.99880655924479,-0.8524430592854818,-9.03430143992106,3.6392838954925537,1.688686577924807e+18,48.99880655924479,-0.6686784625053406,-9.234564145406088,3.2421884536743164,1.6886865779204915e+18,48.99449137369792,0.0610865242779254,0.3171917796134949,-0.0621046318362156,1.6886865779204915e+18,48.99449137369792,0.0602211318910121,0.3216205537319183,-0.0596102649966875,1.688686577926583e+18,49.0005830078125,0.0,0.4766981601715088,0.8980903029441833,7.133999824523926,0.1476190090179443,4.4091572761535645,40.400001525878906,-122.7531526,49.1903776,1.6886865779288812e+18,49.00288110351563,20.652160263061525,38.359239959716795,-21.669639587402344,1.6886865779288812e+18,49.00288110351563,-234.69384155273437,133.38503723144532,-154.3934356689453,1.688686577924807e+18,48.99880655924479,-0.2521906594435373,0.0298010824869076,-0.7302022576332092,0.6342798272768656,-1.774218241373698,1.2265844742457073,2.1818113327026367
4.05,1.688686577976729e+18,49.05072924804688,-0.348164161046346,0.0600919723510742,0.1903732617696125,1.688686577976729e+18,49.05072924804688,-1.013161023457845,-9.192427317301435,3.493521054585775,1.688686577976729e+18,49.05072924804688,-0.6708428859710693,-9.23501459757487,3.2404603958129883,1.6886865779724e+18,49.04640014648438,-0.001170825290804,0.041335217654705,-0.0254018131333092,1.6886865779724e+18,49.04640014648438,-0.0020362174448867,0.045763990531365,-0.0229074462937812,,,,,,,,,,,,1.6886865779788846e+18,49.0528845703125,20.64239921569824,38.11035919189453,-21.791639709472655,1.6886865779788846e+18,49.0528845703125,-234.7035949707031,133.1361572265625,-154.51543579101562,1.688686577976729e+18,49.05072924804688,-0.2547747194766998,0.0329492601255575,-0.7301443417867025,0.6331614454587301,-1.7749613126118975,1.2267212470372515,2.1909541289011636
4.1,1.688686578028637e+18,49.10263688151042,0.0410468777020772,0.0109151204427082,-0.0572429498036702,1.688686578028637e+18,49.10263688151042,-0.6346962054570516,-9.23669401804606,3.2576286792755127,1.688686578028637e+18,49.10263688151042,-0.6815891067186991,-9.230104446411133,3.2521842320760093,1.688686578024315e+18,49.09831477864583,-0.0349720356365044,-0.0965167060494422,0.0109446688244739,1.688686578024315e+18,49.09831477864583,-0.0358374267816543,-0.0920879368980724,0.0134899406693875,,,,,,,,,,,,1.6886865780288824e+18,49.102882421875,21.00839958190918,38.22503890991211,-21.659880065917967,1.6886865780288824e+18,49.102882421875,-234.33759765625,133.25083618164064,-154.38367614746093,1.688686578028637e+18,49.10263688151042,-0.253815601269404,0.0310848994801441,-0.7306007146835327,0.6331141193707784,-1.777412017186483,1.2252408663431804,2.1893176237742105
4.15,1.688686578080551e+18,49.15455069986979,0.3799518247445424,-0.0944064458211262,0.0045408407847086,1.688686578080551e+18,49.15455069986979,-0.3032902727524439,-9.34018357594808,3.32303237915039,1.688686578080551e+18,49.15455069986979,-0.6890881458918253,-9.228272438049316,3.2558041413625083,1.6886865780762255e+18,49.15022534179688,0.0087557348112264,0.051567210505406,-0.024180082604289,1.6886865780762255e+18,49.15022534179688,0.0078903424243131,0.0559959784150123,-0.0216857160752017,,,,,,,,,,,,1.6886865780788854e+18,49.152885253906256,20.744879531860352,38.02251968383789,-21.85751953125,1.6886865780788854e+18,49.152885253906256,-234.60111389160156,133.0483184814453,-154.5813201904297,1.688686578080551e+18,49.15455069986979,-0.25352610150973,0.0305815897881984,-0.7308835585912069,0.6329279144605001,-1.7793960173924763,1.2246894041697185,2.1901589234670005
4.2,1.688686578132465e+18,49.206464925130206,-0.1078502535820007,0.1092637379964192,0.0840544700622558,1.688686578132465e+18,49.206464925130206,-0.7617152035236359,-9.141379992167154,3.3948171933492026,1.688686578132465e+18,49.206464925130206,-0.6597109834353129,-9.233139038085938,3.248075326283773,1.6886865781281362e+18,49.20213631184896,0.0381790784498055,0.3282891611258189,-0.0459676099320252,1.6886865781281362e+18,49.20213631184896,0.0372627799709637,0.3327179352442423,-0.0434223376214503,,,,,,,,,,,,1.6886865781288806e+18,49.20288061523438,21.15968017578125,38.12255935668945,-21.935599899291994,1.6886865781288806e+18,49.20288061523438,-234.18631591796876,133.1483581542969,-154.6593994140625,1.688686578132465e+18,49.206464925130206,-0.2580273548762003,0.0359203393260637,-0.7296135226885477,0.6322896480560303,-1.7712064186731975,1.2261546055475872,2.196356455485026
4.25,1.688686578175725e+18,49.249724975585934,-0.4594228267669678,0.1578445434570312,-0.1423852443695068,1.688686578175725e+18,49.249724975585934,-1.1108679175376892,-9.090332984924316,3.1758737564086914,1.688686578175725e+18,49.249724975585934,-0.6572911143302917,-9.230672836303713,3.2555716037750244,1.6886865781800522e+18,49.25405249023438,-0.0383827000235517,-0.0081957754058142,-0.0298814924123386,1.6886865781800522e+18,49.25405249023438,-0.0392989981919526,-0.003716096204395,-0.0273871255728106,,,,,,,,,,,,1.688686578178884e+18,49.2528841796875,20.632639694213868,38.24699935913086,-21.98927917480469,1.688686578178884e+18,49.2528841796875,-234.7133544921875,133.27279663085938,-154.71307983398438,1.688686578175725e+18,49.249724975585934,-0.2609985470771789,0.0387202724814414,-0.729387640953064,0.6311688423156738,-1.77004212141037,1.2254120707511902,2.203698515892029
4.3,1.6886865782189852e+18,49.29298502604166,0.091019074122111,-0.2432009379069009,-0.2438062826792398,1.6886865782189852e+18,49.29298502604166,-0.5862415482600529,-9.486145973205566,3.083949565887451,1.6886865782189852e+18,49.29298502604166,-0.6831066608428955,-9.22544034322103,3.265068451563517,1.6886865782319636e+18,49.305963704427086,-0.0110464791456858,-0.2301943848530451,0.0192931601777672,1.6886865782319636e+18,49.305963704427086,-0.0119627776245275,-0.2257656107346216,0.0217366216238588,,,,,,,,,,,,1.6886865782288855e+18,49.302885351562495,20.454519271850582,38.100598907470705,-22.02099952697754,1.6886865782288855e+18,49.302885351562495,-234.89147338867187,133.12639770507812,-154.7447998046875,1.6886865782189852e+18,49.29298502604166,-0.2584580481052398,0.0354537293314933,-0.7304534713427225,0.6311705311139425,-1.777064323425293,1.2238397200902302,2.2022485733032227
4.35,1.688686578270894e+18,49.34489412434896,0.6370104551315308,0.0050427118937174,0.0187007586161295,1.688686578270894e+18,49.34489412434896,-0.0506480745971203,-9.241878509521484,3.33300256729126,1.688686578270894e+18,49.34489412434896,-0.6935045719146729,-9.229416529337565,3.2516144116719565,1.6886865782752284e+18,49.349228515625,0.055817812681198,0.1637882441282272,-0.0387135855853557,1.6886865782752284e+18,49.349228515625,0.0549015142023563,0.1682170107960701,-0.0362701248377561,,,,,,,,,,,,1.688686578278883e+18,49.35288310546875,20.63751983642578,38.27871856689453,-21.98683967590332,1.688686578278883e+18,49.35288310546875,-234.7084747314453,133.3045166015625,-154.71063842773438,1.688686578270894e+18,49.34489412434896,-0.2565577129522959,0.0344878695905208,-0.7308634718259176,0.6315263708432516,-1.78095805644989,1.2250333627065022,2.2018880049387612
4.4,1.6886865783228088e+18,49.39680867513021,-0.2747457424799601,0.0617218017578124,0.0338977972666422,1.6886865783228088e+18,49.39680867513021,-0.928215781847636,-9.19142977396647,3.3375887870788574,1.6886865783228088e+18,49.39680867513021,-0.6593160827954611,-9.235646883646648,3.2410035928090415,1.6886865783184812e+18,49.39248103841146,0.0262163003596166,0.2106466988722483,0.0189877276619275,1.6886865783184812e+18,49.39248103841146,0.0253000020359952,0.2150754729906717,0.0214311896512905,,,,,,,,,,,,1.688686578328887e+18,49.402887011718754,20.6936393737793,38.32019958496094,-21.818479537963867,1.688686578328887e+18,49.402887011718754,-234.65235290527343,133.34599914550782,-154.54227600097656,1.6886865783228088e+18,49.39680867513021,-0.2602101961771647,0.0389926185210545,-0.7294441064198812,0.6314112544059753,-1.7715181509653728,1.226911743481954,2.2043588161468506
4.45,1.6886865783747226e+18,49.44872249348958,-0.2273046175638834,0.0298817952473958,-0.0429596106211344,1.6886865783747226e+18,49.44872249348958,-0.8576275110244751,-9.224730173746744,3.2612179120381675,1.6886865783747226e+18,49.44872249348958,-0.636168917020162,-9.237107276916504,3.241490125656128,1.688686578370388e+18,49.44438793945312,-0.0094684110954403,-0.1110247572263081,0.0596102674802144,1.688686578370388e+18,49.44438793945312,-0.0103847092638412,-0.1065450757741927,0.0621046324570973,,,,,,,,,,,,1.6886865783788854e+18,49.4528853515625,20.36423988342285,38.42755889892578,-22.084439849853517,1.6886865783788854e+18,49.4528853515625,-234.98175659179688,133.45335693359374,-154.80823669433593,1.6886865783747226e+18,49.44872249348958,-0.2599503497282663,0.038273857285579,-0.728672981262207,0.6324519316355387,-1.7646236419677734,1.2273537317911785,2.196009397506714
4.5,1.688686578426631e+18,49.50063094075521,0.110422650973002,-0.0168994267781575,0.0299239953358967,1.688686578426631e+18,49.50063094075521,-0.5407779117425283,-9.270991643269856,3.331407308578491,1.688686578426631e+18,49.50063094075521,-0.6570465962092081,-9.236587524414062,3.2387959162394204,1.6886865784223086e+18,49.49630851236979,0.0033597586831698,-0.074729183067878,-0.0370082518396277,1.6886865784223086e+18,49.49630851236979,0.0024434609804302,-0.0702495040992895,-0.0345647921785711,,,,,,,,,,,,1.6886865784288847e+18,49.50288471679688,20.620439529418945,38.40315933227539,-22.00147933959961,1.6886865784288847e+18,49.50288471679688,-234.72555847167968,133.4289581298828,-154.72527770996095,1.688686578426631e+18,49.50063094075521,-0.2579038739204406,0.0364684996505578,-0.7294957240422567,0.6324487725893656,-1.7709801197052002,1.2271962960561116,2.196713447570801
4.55,1.6886865784785426e+18,49.55254256184896,0.2567743957042693,0.0227133433024088,0.0005915164947509,1.6886865784785426e+18,49.55254256184896,-0.4153541227181752,-9.230911572774252,3.2991042137145996,1.6886865784785426e+18,49.55254256184896,-0.6779745618502299,-9.236120223999022,3.235825300216675,1.6886865784742208e+18,49.548220703125,0.0067704232254375,0.0721330034236112,-0.0524326016505559,1.6886865784742208e+18,49.548220703125,0.0058541252898672,0.0766126823921998,-0.0498873274773358,,,,,,,,,,,,1.6886865784788854e+18,49.55288549804688,20.49843978881836,38.2103988647461,-21.889239501953124,1.6886865784788854e+18,49.55288549804688,-234.84755249023436,133.23619995117187,-154.6130401611328,1.6886865784785426e+18,49.55254256184896,-0.2581894199053446,0.0373738842705885,-0.7301807006200155,0.6314879258473715,-1.7773643334706624,1.2270545562108357,2.204852263132731
4.6,1.6886865785304584e+18,49.60445817057291,-0.2400472164154052,0.0197102228800455,-0.1536589463551838,1.6886865785304584e+18,49.60445817057291,-0.8891330162684122,-9.233503659566244,3.1507492065429688,1.6886865785304584e+18,49.60445817057291,-0.6549318234125773,-9.235709190368652,3.241720755894979,1.688686578526131e+18,49.60013094075521,-0.015831590630114,0.020820324619611,0.0698422597100336,1.688686578526131e+18,49.60013094075521,-0.0167478891089558,0.0252490987380345,0.0723366265495617,,,,,,,,,,,,1.688686578528886e+18,49.602885986328126,20.64239959716797,38.17379913330078,-22.121039581298827,1.688686578528886e+18,49.602885986328126,-234.7035949707031,133.19960021972656,-154.84483337402344,1.6886865785304584e+18,49.60445817057291,-0.2596661945184071,0.0382367198665936,-0.729331354300181,0.6318122347195944,-1.7701791524887085,1.2269302606582642,2.201108773549398
4.65,1.688686578582367e+18,49.656366943359366,-0.078881283601125,0.0062853495279947,-0.1523482799530028,1.688686578582367e+18,49.656366943359366,-0.7200402021408081,-9.24367332458496,3.162912686665853,1.688686578582367e+18,49.656366943359366,-0.6470049420992533,-9.232453982035318,3.252573569615682,1.6886865785780457e+18,49.65204581705729,-0.0438804862399895,-0.1835141032934188,0.0401643913549681,1.6886865785780457e+18,49.65204581705729,-0.0447967847188313,-0.1790344218413034,0.0426587550900876,,,,,,,,,,,,1.6886865785788854e+18,49.652885302734376,20.439879989624025,38.15671920776367,-21.8257999420166,1.6886865785788854e+18,49.652885302734376,-234.90611572265624,133.18251342773436,-154.54959716796876,1.688686578582367e+18,49.656366943359366,-0.2576381862163543,0.0349110489090283,-0.7292203704516093,0.6329609354337057,-1.7671852509180703,1.225948174794515,2.1902886231740317
4.7,1.6886865786256302e+18,49.69963037109375,0.0422318577766418,-0.1998181343078613,-0.1690794229507446,1.6886865786256302e+18,49.69963037109375,-0.6209374666213989,-9.445966720581056,3.152543902397156,1.6886865786256302e+18,49.69963037109375,-0.6690153479576111,-9.228643894195557,3.2589359283447266,1.688686578629958e+18,49.70395792643229,-0.0109955739850799,-0.1195768738786379,-0.0138971842825411,1.688686578629958e+18,49.70395792643229,-0.0118609668376545,-0.1151480997602144,-0.0114028179959859,,,,,,,,,,,,1.6886865786288817e+18,49.70288154296875,20.81807975769043,38.112799072265624,-21.979519653320313,1.6886865786288817e+18,49.70288154296875,-234.52791748046872,133.13860168457032,-154.7033203125,1.6886865786256302e+18,49.69963037109375,-0.2555014193058014,0.0322975050657987,-0.7301103174686432,0.6329411864280701,-1.7733038067817688,1.2248004078865051,2.189477324485779
4.75,1.688686578668891e+18,49.742890706380216,0.1991418898105621,0.0713844299316406,-0.0011107921600341,1.688686578668891e+18,49.742890706380216,-0.4841477771600087,-9.175278345743816,3.314856926600138,1.688686578668891e+18,49.742890706380216,-0.6891357103983561,-9.229158083597818,3.2532803217569985,1.6886865786818657e+18,49.755865641276046,0.0170024158433079,-0.0113010069665809,-0.0283034220337867,1.6886865786818657e+18,49.755865641276046,0.0160861179853478,-0.0068722344779719,-0.025809056436022,,,,,,,,,,,,1.6886865786788872e+18,49.7528873046875,20.87907943725586,38.083518981933594,-21.894118881225587,1.6886865786788872e+18,49.7528873046875,-234.4669189453125,133.10931701660155,-154.61791381835937,1.688686578668891e+18,49.742890706380216,-0.2542404731114705,0.0316075806816418,-0.7308425505956014,0.6326387524604797,-1.7795735597610474,1.224954644838969,2.192879438400269
4.8,1.6886865787207995e+18,49.79479947916667,0.044937511285146,-0.0535570780436197,0.0692996978759765,1.6886865787207995e+18,49.79479947916667,-0.6362914244333903,-9.302695910135904,3.3786656061808267,1.6886865787207995e+18,49.79479947916667,-0.6870749592781067,-9.231634140014648,3.2466785113016763,1.6886865787251282e+18,49.799128417968745,0.0121409464627503,0.0299323974177241,0.043371433392167,1.6886865787251282e+18,49.799128417968745,0.0113010071218013,0.0343611706048249,0.0458912523463368,,,,,,,,,,,,1.6886865787288788e+18,49.802878808593746,20.835159683227538,38.18111877441406,-21.955119323730468,1.6886865787288788e+18,49.802878808593746,-234.51083679199215,133.20691833496093,-154.67891845703124,1.6886865787207995e+18,49.79479947916667,-0.2542115946610768,0.0320643869539101,-0.7307509779930115,0.632733166217804,-1.7793781757354736,1.2257002592086792,2.193284273147583
4.85,1.6886865787727124e+18,49.84671248372396,-0.0904923876126607,0.0865729649861653,0.138319969177246,1.6886865787727124e+18,49.84671248372396,-0.7441678643226624,-9.165707270304363,3.4444681803385415,1.6886865787727124e+18,49.84671248372396,-0.6595215002695719,-9.23477554321289,3.2434608141581216,1.688686578768386e+18,49.84238598632813,0.0092647896769145,0.0125227371851602,0.0454076516131559,1.688686578768386e+18,49.84238598632813,0.008348491663734,0.0169515109931428,0.0479529226819674,,,,,,,,,,,,1.6886865787788856e+18,49.85288579101562,20.8083194732666,38.39583969116211,-21.75259895324707,1.6886865787788856e+18,49.85288579101562,-234.5376739501953,133.42164001464843,-154.4763977050781,1.6886865787727124e+18,49.84671248372396,-0.254471222559611,0.0321835577487945,-0.7297841707865397,0.6337378819783529,-1.7714354594548545,1.2266483704249065,2.1858624617258706
4.9,1.6886865788246277e+18,49.898627441406255,-0.1137953996658324,0.0645106633504231,0.1212826569875081,1.6886865788246277e+18,49.898627441406255,-0.7631110151608785,-9.187840779622396,3.4281171957651773,1.6886865788246277e+18,49.898627441406255,-0.6551616390546163,-9.234846750895182,3.2441471417744956,1.688686578820302e+18,49.894302164713544,0.0021889337804168,0.0528398429354031,-0.0192422551723817,1.688686578820302e+18,49.894302164713544,0.0012726359224567,0.0572686158120631,-0.0167478889537353,,,,,,,,,,,,1.6886865788288832e+18,49.90288315429687,20.73267936706543,38.26895904541016,-21.779439544677736,1.6886865788288832e+18,49.90288315429687,-234.61331176757812,133.2947540283203,-154.50323791503905,1.6886865788246277e+18,49.898627441406255,-0.2551242609818776,0.0328124885757763,-0.72960364818573,0.6336507797241211,-1.7701023022333782,1.2266699870427449,2.186409076054891
4.95,1.6886865788765396e+18,49.95053938802083,-0.0671589970588684,0.0003779729207356,-0.0784416198730468,1.6886865788765396e+18,49.95053938802083,-0.7302097082138062,-9.250452677408854,3.2299118041992188,1.6886865788765396e+18,49.95053938802083,-0.6688967347145081,-9.233325958251951,3.245666027069092,1.6886865788722112e+18,49.946211018880206,-0.0024943664514769,-0.0280998001495997,-0.0286088561018307,1.6886865788722112e+18,49.946211018880206,-0.0034106644210017,-0.0236710266520579,-0.0261144889518618,,,,,,,,,,,,1.6886865788788833e+18,49.952883251953125,21.06695976257324,38.281158447265625,-21.798959732055664,1.6886865788788833e+18,49.952883251953125,-234.2790374755859,133.3069580078125,-154.52275695800782,1.6886865788765396e+18,49.95053938802083,-0.2553547024726867,0.0331760483483473,-0.7300668557484945,0.6330052216847738,-1.7740743160247805,1.226211150487264,2.1912694772084556
5.0,1.688686578928451e+18,50.00245133463542,0.2225515246391296,0.0225960413614908,0.0675644079844156,1.688686578928451e+18,50.00245133463542,-0.442672183116277,-9.229914665222168,3.370689551035563,1.688686578928451e+18,50.00245133463542,-0.6710697611172994,-9.235006014506022,3.2404377460479736,1.6886865789241254e+18,49.998125488281254,0.0124209270191688,0.0136426553751031,0.0123700208496301,1.6886865789241254e+18,49.998125488281254,0.0115046290059883,0.0180714291830857,0.0148643871458867,1.688686578926597e+18,50.00059716796875,0.0,0.4580613374710083,0.9084653854370116,7.126999855041504,0.1407926678657531,4.3633551597595215,40.400001525878906,-122.7531526,49.1903775,1.6886865789288904e+18,50.00289038085937,20.6716796875,38.53003921508789,-21.806279754638673,1.6886865789288904e+18,50.00289038085937,-234.67431640625,133.55583801269532,-154.5300750732422,1.688686578928451e+18,50.00245133463542,-0.2546774546305337,0.0328426212072372,-0.730157732963562,0.6331905722618103,-1.7750356992085774,1.2267178694407146,2.1907294591267905
5.05,1.6886865789803635e+18,50.05436376953125,-0.1548463900883992,-0.0131244659423827,-0.1098047097524007,1.6886865789803635e+18,50.05436376953125,-0.8093722661336263,-9.264410972595217,3.1990044116973877,1.6886865789803635e+18,50.05436376953125,-0.6603718996047974,-9.233781814575195,3.2461217244466147,1.6886865789760356e+18,50.050035481770834,-0.0138971842825412,0.0834340086827675,-0.0156279688817448,1.6886865789760356e+18,50.050035481770834,-0.0147625769798953,0.0879136870304743,-0.013082697133844,,,,,,,,,,,,1.6886865789788856e+18,50.05288549804688,20.86199951171875,38.30799942016601,-21.718439483642577,1.6886865789788856e+18,50.05288549804688,-234.48399658203124,133.33379516601562,-154.442236328125,1.6886865789803635e+18,50.05436376953125,-0.2564783990383148,0.0342996170123417,-0.7297172745068868,0.6328941186269125,-1.7715261379877727,1.2263482014338176,2.192014217376709
5.1,1.688686579032272e+18,50.10627237955729,0.082685907681783,-0.0516875584920247,-0.1214226881663004,1.688686579032272e+18,50.10627237955729,-0.5814558962980906,-9.30169932047526,3.189034382502238,1.688686579032272e+18,50.10627237955729,-0.6699878374735514,-9.2325070699056,3.2477696736653647,1.6886865790279508e+18,50.10195084635416,-0.0078903428123642,-0.1285871391495068,0.0089593568312314,1.6886865790279508e+18,50.10195084635416,-0.008806640592714,-0.1241583650310833,0.0114537231468905,,,,,,,,,,,,1.6886865790288852e+18,50.10288530273438,20.73511924743652,38.28603973388672,-21.79895935058594,1.6886865790288852e+18,50.10288530273438,-234.61087646484376,133.31183471679688,-154.52275695800782,1.688686579032272e+18,50.10627237955729,-0.2553559839725494,0.0330280798176924,-0.7301112612088522,0.6329604784647623,-1.7742678324381511,1.2259637912114465,2.1912571589152017
5.15,1.6886865790755308e+18,50.14953076171875,0.3153053969144821,-0.0488681793212891,0.0027387142181396,1.6886865790755308e+18,50.14953076171875,-0.3574278801679611,-9.299107074737549,3.310769200325012,1.6886865790755308e+18,50.14953076171875,-0.6785793304443359,-9.232734203338625,3.2453430891036987,1.6886865790798612e+18,50.153861083984374,0.0057523142701635,0.0180205261955658,0.0056505037937313,1.6886865790798612e+18,50.153861083984374,0.0048360166450341,0.0224492959678173,0.008144870167598,,,,,,,,,,,,1.6886865790788856e+18,50.152885546875,20.827839279174803,38.16891860961914,-21.764799499511717,1.6886865790788856e+18,50.152885546875,-234.51815185546872,133.19471740722656,-154.48859558105468,1.6886865790755308e+18,50.14953076171875,-0.2541547864675521,0.031970540061593,-0.730458676815033,0.633098304271698,-1.776955008506775,1.226032257080078,2.1906280517578125
5.2,1.688686579118795e+18,50.192795084635414,-0.0404247442881266,0.0582777659098307,0.0520785649617513,1.688686579118795e+18,50.192795084635414,-0.6943173805872599,-9.194022178649902,3.3581271966298423,1.688686579118795e+18,50.192795084635414,-0.6597386598587036,-9.234795252482096,3.243361234664917,1.688686579131775e+18,50.20577482096354,0.0105883308375874,0.0581849130491415,0.0215329999725023,1.688686579131775e+18,50.20577482096354,0.0096720331348478,0.062613687167565,0.0240273661911487,,,,,,,,,,,,1.6886865791288852e+18,50.20288530273437,20.84491958618164,38.15427856445312,-21.557399368286134,1.6886865791288852e+18,50.20288530273437,-234.50107421875,133.180078125,-154.28119812011718,1.688686579118795e+18,50.192795084635414,-0.2551917135715484,0.0330245184401671,-0.7297540108362833,0.6334393819173177,-1.7715046008427937,1.2266541719436646,2.188222090403239
5.25,1.6886865791707062e+18,50.2447059733073,-0.0801830093065897,0.116498311360677,0.167306900024414,1.6886865791707062e+18,50.2447059733073,-0.7222336332003275,-9.137192408243816,3.4717862606048584,1.6886865791707062e+18,50.2447059733073,-0.6478966474533081,-9.236186027526855,3.2417919635772705,1.6886865791836849e+18,50.257685139973965,0.0070249502702305,0.0681114730735619,-0.0252490964873382,1.6886865791836849e+18,50.257685139973965,0.0061086524122704,0.0725402459502219,-0.0228056350606493,,,,,,,,,,,,1.6886865791788818e+18,50.25288193359375,20.654599380493163,38.43975982666016,-21.87459945678711,1.6886865791788818e+18,50.25288193359375,-234.69139709472657,133.46555786132814,-154.59839782714843,1.6886865791707062e+18,50.2447059733073,-0.2560405135154724,0.0339375262459118,-0.7292984127998352,0.6335733532905579,-1.768089731534322,1.2270747423171997,2.1873768170674643
5.3,1.6886865792226212e+18,50.29662133789063,-0.1989244023958841,0.0088326136271158,0.0212316513061523,1.6886865792226212e+18,50.29662133789063,-0.8546364903450012,-9.243075052897137,3.328017473220825,1.6886865792226212e+18,50.29662133789063,-0.6615581115086874,-9.234402974446615,3.244098424911499,1.688686579226949e+18,50.30094909667969,-0.0100792765151708,-0.0419206288643181,-0.0492510106414555,1.688686579226949e+18,50.30094909667969,-0.0109955742955207,-0.0374918552115559,-0.0468075480312108,,,,,,,,,,,,1.6886865792288824e+18,50.302882470703125,20.63263931274414,38.24699935913086,-21.90631980895996,1.6886865792288824e+18,50.302882470703125,-234.7133575439453,133.27279663085938,-154.63011474609374,1.6886865792226212e+18,50.29662133789063,-0.2567715247472127,0.0348162564138571,-0.7297339836756388,0.6327276428540548,-1.7719952662785847,1.22653595606486,2.1936649481455484
5.35,1.688686579274531e+18,50.348531168619786,0.3404974242051442,-0.0043303171793619,-0.0642917156219482,1.688686579274531e+18,50.348531168619786,-0.3447658717632293,-9.253244400024414,3.244866927464803,1.688686579274531e+18,50.348531168619786,-0.6911093393961588,-9.231409390767416,3.2464712460835776,1.6886865792702095e+18,50.34420963541667,-0.0142026167983809,-0.1129082615176836,-0.0051414494713147,1.6886865792702095e+18,50.34420963541667,-0.0151189149667818,-0.1084794873992601,-0.0026470830974479,,,,,,,,,,,,1.6886865792788826e+18,50.352882666015624,21.057199478149418,38.310438537597655,-21.88435935974121,1.6886865792788826e+18,50.352882666015624,-234.28880004882816,133.33624267578125,-154.608154296875,1.688686579274531e+18,50.348531168619786,-0.2548857927322387,0.0329234177867571,-0.7308530410130819,0.6322995821634928,-1.7805787722269697,1.2256322304407756,2.1967366536458335
5.4,1.6886865793264428e+18,50.40044262695312,0.0615676343441009,-0.0913848876953124,-0.0275578498840331,1.6886865793264428e+18,50.40044262695312,-0.599003275235494,-9.340582529703775,3.2859436670939126,1.6886865793264428e+18,50.40044262695312,-0.6664169430732727,-9.231692949930826,3.250814119974772,1.688686579322117e+18,50.3961171875,-0.0039706241029003,0.1031853208939234,0.0316631821915507,1.688686579322117e+18,50.3961171875,-0.0048869218832502,0.1076140974958737,0.0341575480997562,,,,,,,,,,,,1.688686579328882e+18,50.40288188476562,21.130399322509767,38.146958923339845,-21.56227912902832,1.688686579328882e+18,50.40288188476562,-234.21559448242184,133.17275695800782,-154.28607482910155,1.6886865793264428e+18,50.40044262695312,-0.2558700442314148,0.0333230619629223,-0.7299734552701315,0.6328967014948527,-1.7730290095011394,1.2257176637649536,2.1912144819895425
5.45,1.6886865793783534e+18,50.45235343424479,-0.1013441085815429,0.0309594472249348,-0.1100695927937824,1.6886865793783534e+18,50.45235343424479,-0.7557331720987955,-9.21834913889567,3.204388380050659,1.6886865793783534e+18,50.45235343424479,-0.6602350870768229,-9.231803894042969,3.251770575841268,1.6886865793740347e+18,50.44803466796875,0.0041742456766465,0.0426078500847021,-0.0243327990174293,1.6886865793740347e+18,50.44803466796875,0.0032579480515171,0.0470366235822439,-0.0218384327987829,,,,,,,,,,,,1.6886865793788854e+18,50.4528853515625,20.94495964050293,38.04935913085937,-21.8770393371582,1.6886865793788854e+18,50.4528853515625,-234.40103454589843,133.07515563964844,-154.60083618164063,1.6886865793783534e+18,50.45235343424479,-0.2571612894535064,0.03463842968146,-0.7296964923540751,0.6326225399971008,-1.7711460987726848,1.2257513602574666,2.1931561628977456
5.5,1.6886865794302692e+18,50.50426928710937,-0.1075730522473652,0.0693222681681315,-0.0671730041503905,1.6886865794302692e+18,50.50426928710937,-0.7641080220540365,-9.18026320139567,3.246063311894735,1.6886865794302692e+18,50.50426928710937,-0.6623809933662415,-9.232080777486166,3.2505489190419516,1.6886865794259397e+18,50.49993953450521,-0.0035633804897466,-0.022652918472886,0.0071267611347138,1.6886865794259397e+18,50.49993953450521,-0.0044796785805374,-0.0182241452857851,0.0095702220375338,,,,,,,,,,,,1.6886865794288832e+18,50.50288310546875,20.603359603881835,38.2494400024414,-21.7208797454834,1.6886865794288832e+18,50.50288310546875,-234.74263610839844,133.27523498535157,-154.44467468261718,1.6886865794302692e+18,50.50426928710937,-0.2571166455745696,0.0347180441021918,-0.7297675410906473,0.632554312547048,-1.7718524932861328,1.2258349259694417,2.193910837173462
5.55,1.6886865794821806e+18,50.55618058268229,0.0506032009919484,-0.1682354609171549,-0.0440114339192708,1.6886865794821806e+18,50.55618058268229,-0.6143572131792704,-9.417152722676596,3.269393364588419,1.6886865794821806e+18,50.55618058268229,-0.6708064476648966,-9.231412569681805,3.2507174015045166,1.688686579477849e+18,50.551849039713545,-0.0049378272766868,-0.1098030284047126,0.0225511087725559,1.688686579477849e+18,50.551849039713545,-0.0058541254450877,-0.1053742542862891,0.0250454749912023,,,,,,,,,,,,1.6886865794788856e+18,50.55288544921875,20.737559127807614,38.09571990966797,-21.855079650878903,1.6886865794788856e+18,50.55288544921875,-234.60843505859376,133.12151794433595,-154.57887268066406,1.6886865794821806e+18,50.55618058268229,-0.2554819683233897,0.0329535963634649,-0.7301433086395264,0.6328769326210022,-1.7743294636408489,1.2256336212158203,2.191406488418579
5.6,1.6886865795254351e+18,50.59943505859375,0.2914882749319076,0.2025971412658691,0.1561924219131469,1.6886865795254351e+18,50.59943505859375,-0.3717848211526871,-9.048758029937744,3.4630125761032104,1.6886865795254351e+18,50.59943505859375,-0.6691191494464874,-9.233850479125977,3.2441327571868896,1.688686579529769e+18,50.60376896158854,0.0259108673781156,0.1150971942891676,-0.0355828991935898,1.688686579529769e+18,50.60376896158854,0.0250454749912023,0.1195259680971502,-0.033088533518215,,,,,,,,,,,,1.6886865795288837e+18,50.60288325195312,21.001079177856447,38.19087905883789,-21.70135917663574,1.6886865795288837e+18,50.60288325195312,-234.3449157714844,133.2166778564453,-154.42515869140624,1.6886865795254351e+18,50.59943505859375,-0.2551634460687637,0.0330800712108611,-0.7300788760185242,0.6330733597278595,-1.7742337584495544,1.2263692617416382,2.191001772880554
5.65,1.6886865795687035e+18,50.64270336914063,-0.1807590126991272,0.0447581609090169,0.0807905991872151,1.6886865795687035e+18,50.64270336914063,-0.844068189462026,-9.206584294637045,3.387638727823893,1.6886865795687035e+18,50.64270336914063,-0.6691552003224691,-9.233837763468424,3.2441607316335044,1.6886865795816804e+18,50.65568041992188,-0.009417505779614,0.0644971914589404,-0.0352774668329705,1.6886865795816804e+18,50.65568041992188,-0.0103338039480149,0.068925963093837,-0.0327831005561165,,,,,,,,,,,,1.688686579578883e+18,50.65288315429687,20.886399841308595,38.20307922363281,-21.952679443359376,1.688686579578883e+18,50.65288315429687,-234.4595947265625,133.22887573242187,-154.67648010253907,1.6886865795687035e+18,50.64270336914063,-0.2575359046459198,0.035816470781962,-0.7299508452415466,0.6321102778116862,-1.7742417256037395,1.2263652086257937,2.1985087394714355
5.7,1.688686579620611e+18,50.69461100260417,-0.1100619435310363,0.0383230845133463,-0.1720735232035318,1.688686579620611e+18,50.69461100260417,-0.7794619599978129,-9.20997428894043,3.1421749591827393,1.688686579620611e+18,50.69461100260417,-0.6752460400263468,-9.23079268137614,3.251561085383097,1.6886865796335864e+18,50.70758650716146,-0.0229583522304892,-0.1582140972216923,0.061442861954371,1.6886865796335864e+18,50.70758650716146,-0.0238746497780084,-0.1537853280703226,0.0638863233228523,,,,,,,,,,,,1.6886865796288855e+18,50.7028853515625,20.63507995605469,38.264078521728514,-21.906319046020503,1.6886865796288855e+18,50.7028853515625,-234.7109161376953,133.28988037109374,-154.63011474609374,1.688686579620611e+18,50.69461100260417,-0.2572426199913025,0.0349908135831355,-0.7302030523618063,0.6319843331972758,-1.775586684544881,1.2254466613133748,2.198245127995809
5.75,1.6886865796725243e+18,50.746524495442706,0.165412167708079,-0.1646343866984049,-0.0194228490193685,1.6886865796725243e+18,50.746524495442706,-0.5046861867109934,-9.412566502888998,3.2957143783569336,1.6886865796725243e+18,50.746524495442706,-0.6759443879127502,-9.230427424112955,3.2524498303731284,1.6886865796768538e+18,50.750853637695315,-0.0072540249675511,-0.1313360258936881,0.0285579506307839,1.6886865796768538e+18,50.750853637695315,-0.0080939644249155,-0.1268308945000171,0.031001410447061,,,,,,,,,,,,1.6886865796788844e+18,50.75288442382812,20.51307945251465,38.19819869995117,-21.55495948791504,1.6886865796788844e+18,50.75288442382812,-234.83291320800785,133.2240020751953,-154.27875671386718,1.6886865796725243e+18,50.746524495442706,-0.25445157289505,0.0317090588311354,-0.7303775350252787,0.6330851117769877,-1.7757383982340496,1.225336988766988,2.1894888083140054
5.8,1.6886865797244396e+18,50.798439534505206,0.1642750402291616,0.109935442606608,-0.0119643211364746,1.6886865797244396e+18,50.798439534505206,-0.5018945435682932,-9.139785130818684,3.298904816309611,1.6886865797244396e+18,50.798439534505206,-0.6720156272252401,-9.232215881347656,3.2481817404429116,1.688686579720114e+18,50.79411385091146,0.024180082604289,0.1427388476828734,-0.0347175079708297,1.688686579720114e+18,50.79411385091146,0.0233146899069348,0.1471676218012968,-0.0322740472232301,,,,,,,,,,,,1.6886865797288852e+18,50.802885302734374,20.715599822998048,38.30555953979492,-21.71599922180176,1.6886865797288852e+18,50.802885302734374,-234.6303955078125,133.33135681152345,-154.4397979736328,1.6886865797244396e+18,50.798439534505206,-0.2550763785839081,0.0327051865557828,-0.7301960984865824,0.6329914530118307,-1.7748406728108723,1.225875775019328,2.1909493605295816
5.85,1.688686579776347e+18,50.850346761067705,-0.310481051603953,-0.0280863444010416,0.0084729194641113,1.688686579776347e+18,50.850346761067705,-0.969093143939972,-9.28056271870931,3.3130624294281006,1.688686579776347e+18,50.850346761067705,-0.6644581158955892,-9.234971682230633,3.241902112960815,1.6886865797720215e+18,50.8460215657552,0.0140499004240457,0.0560977943241596,-0.0062613685925801,1.6886865797720215e+18,50.8460215657552,0.0131336030802533,0.0605265634755293,-0.0037670022963235,,,,,,,,,,,,1.6886865797788805e+18,50.85288032226563,20.59603958129883,38.10547943115235,-21.89411964416504,1.6886865797788805e+18,50.85288032226563,-234.7499542236328,133.13127746582032,-154.617919921875,1.688686579776347e+18,50.850346761067705,-0.2570455173651377,0.0353526646892229,-0.7298094034194946,0.6324998140335083,-1.772987445195516,1.2267074187596638,2.1958404382069907
5.9,1.6886865798282609e+18,50.90226090494792,0.0829090476036071,0.0666084289550781,0.1204302310943603,1.6886865798282609e+18,50.90226090494792,-0.5816553135712942,-9.185049057006836,3.4261232217152915,1.6886865798282609e+18,50.90226090494792,-0.6704103946685791,-9.234152793884276,3.2430055936177573,1.6886865798239388e+18,50.89793888346353,-0.0121154940376678,-0.1064432697991529,0.0222456764119366,1.6886865798239388e+18,50.89793888346353,-0.0130317918956279,-0.1020144956807295,0.0246891373147566,,,,,,,,,,,,1.688686579828885e+18,50.902885009765626,20.979119873046876,38.378759765625,-21.94291954040527,1.688686579828885e+18,50.902885009765626,-234.36687622070312,133.40455627441406,-154.66672058105468,1.6886865798282609e+18,50.90226090494792,-0.2555329004923502,0.0336156835158665,-0.7300989031791687,0.6328728795051575,-1.7746795415878296,1.2264604965845745,2.192772308985392
5.95,1.6886865798801764e+18,50.954176188151045,0.1134332716464996,-0.0035289128621419,0.1053874492645263,1.6886865798801764e+18,50.954176188151045,-0.5555336674054464,-9.253643671671549,3.414557933807373,1.6886865798801764e+18,50.954176188151045,-0.6748129725456238,-9.232610066731771,3.246483087539673,1.6886865798758502e+18,50.94985009765625,0.0039197185542434,0.1078686217466989,-0.0490728405614693,1.6886865798758502e+18,50.94985009765625,0.0031052317935973,0.1122973958651224,-0.0466293810556331,,,,,,,,,,,,1.688686579878883e+18,50.95288305664063,20.615559768676757,38.30311965942383,-21.674520111083982,1.688686579878883e+18,50.95288305664063,-234.73043518066407,133.32891540527345,-154.3983154296875,1.6886865798801764e+18,50.954176188151045,-0.256274292866389,0.0342669474581877,-0.7302221854527792,0.6323952277501425,-1.7757683595021565,1.225994865099589,2.195922295252482
6.0,1.688686579932083e+18,51.00608268229166,-0.1297569672266642,0.098497708638509,0.0157739321390787,1.688686579932083e+18,51.00608268229166,-0.796411136786143,-9.15035311381022,3.329014539718628,1.688686579932083e+18,51.00608268229166,-0.6725001931190491,-9.231346130371094,3.2505532105763755,1.6886865799277617e+18,51.00176171875,-0.0035124749410897,0.0877100657671689,-0.0174605653931697,1.6886865799277617e+18,51.00176171875,-0.0043778675608336,0.0921388398855924,-0.0150171040246884,1.688686579945e+18,51.019,0.0,0.4580613374710083,0.8628551363945007,15.968999862670898,0.1406034529209137,4.362538814544678,40.20000076293945,-122.7531525,49.1903788,1.6886865799288852e+18,51.00288530273438,20.803439331054687,37.951759338378906,-22.008799743652343,1.6886865799288852e+18,51.00288530273438,-234.5425567626953,132.9775604248047,-154.73259582519532,1.688686579932083e+18,51.00608268229166,-0.258497009674708,0.0364753293494382,-0.7300348281860352,0.6315836707750956,-1.7748369375864663,1.2256142695744832,2.2015109062194824
6.05,1.6886865799753487e+18,51.049348632812496,-0.0585361421108245,0.0210986137390136,-0.1637529134750366,1.6886865799753487e+18,51.049348632812496,-0.7250252366065979,-9.2255277633667,3.155833959579468,1.6886865799753487e+18,51.049348632812496,-0.6723351180553436,-9.229121685028076,3.2568994760513306,1.6886865799796744e+18,51.053674479166666,-0.0275907466808954,-0.1080722423891226,0.0277943685650824,1.6886865799796744e+18,51.053674479166666,-0.0285070445388554,-0.103592563420534,0.0302378305544455,,,,,,,,,,,,1.688686579978881e+18,51.0528810546875,20.478919982910156,38.09815902709961,-22.060039520263672,1.688686579978881e+18,51.0528810546875,-234.86707763671876,133.12395935058595,-154.783837890625,1.6886865799753487e+18,51.049348632812496,-0.2582340687513351,0.0356669351458548,-0.7300688624382019,0.6316979229450226,-1.7744008898735046,1.2249445915222168,2.1995266675949097
6.1,1.6886865800186068e+18,51.09260660807291,0.14910289645195,-0.1986160278320311,-0.2034490903218586,1.6886865800186068e+18,51.09260660807291,-0.5246263742446899,-9.443474133809408,3.119642496109009,1.6886865800186068e+18,51.09260660807291,-0.6795753041903178,-9.22735341389974,3.260404189427694,1.6886865800315804e+18,51.10558064778646,-0.0006108654197305,-0.0905607715249061,0.0110464797665675,1.6886865800315804e+18,51.10558064778646,-0.0015271630448599,-0.0861319974064826,0.0135408460531228,,,,,,,,,,,,1.6886865800288868e+18,51.102886865234375,20.61311912536621,38.19575958251953,-21.7208797454834,1.6886865800288868e+18,51.102886865234375,-234.73287353515624,133.2215545654297,-154.444677734375,1.6886865800186068e+18,51.09260660807291,-0.25643652677536,0.033428806811571,-0.7304272850354513,0.6321377555529276,-1.7763170003890991,1.2244131565093994,2.195537487665812
6.15,1.6886865800705178e+18,51.14451774088542,0.3277505834897359,0.0307175318400065,-0.0370082855224609,1.6886865800705178e+18,51.14451774088542,-0.3467598855495453,-9.21834945678711,3.2739795049031577,1.6886865800705178e+18,51.14451774088542,-0.680356522401174,-9.23156229654948,3.248300393422445,1.6886865800834936e+18,51.15749373372396,0.0504981925090153,0.1435024291276931,-0.0227038251856962,1.6886865800834936e+18,51.15749373372396,0.0496837074557939,0.1479821105798085,-0.0202603644380966,,,,,,,,,,,,1.6886865800788823e+18,51.15288227539063,20.98399963378906,38.100598907470705,-21.79407958984375,1.6886865800788823e+18,51.15288227539063,-234.36199645996095,133.12639770507812,-154.51787719726562,1.6886865800705178e+18,51.14451774088542,-0.255751738945643,0.0336076815923054,-0.7304461598396301,0.6323837637901306,-1.7772906223932905,1.225679079691569,2.1957216262817383
6.2,1.6886865801224315e+18,51.19643172200521,-0.1298492948214212,0.0837583541870116,0.1656582355499267,1.6886865801224315e+18,51.19643172200521,-0.7854440410931905,-9.17188835144043,3.4618162314097085,1.6886865801224315e+18,51.19643172200521,-0.6614407698313395,-9.238142013549805,3.233470598856608,1.6886865801267558e+18,51.20075573730469,0.0331394392997026,0.1729512214660644,-0.0200821948237716,1.6886865801267558e+18,51.20075573730469,0.0322231408208608,0.1773799955844879,-0.017638734076172,,,,,,,,,,,,1.688686580128879e+18,51.20287924804687,20.583839416503903,38.34947891235352,-21.898999404907222,1.688686580128879e+18,51.20287924804687,-234.762158203125,133.37527770996093,-154.6227996826172,1.6886865801224315e+18,51.19643172200521,-0.2583433389663696,0.03746701652805,-0.7295976877212524,0.632092277208964,-1.7726017634073894,1.2276666164398191,2.200429677963257
6.25,1.68868658017434e+18,51.24834025065104,-0.2466932336489359,0.0983991622924804,0.1394325097401936,1.68868658017434e+18,51.24834025065104,-0.8937192559242249,-9.15733242034912,3.4370903174082437,1.68868658017434e+18,51.24834025065104,-0.6528720458348592,-9.238226890563965,3.2349704106648765,1.688686580170019e+18,51.24401920572916,-0.0117082502692937,-0.0099774648745854,0.0117591560507813,1.688686580170019e+18,51.24401920572916,-0.0126245482824742,-0.0055486935501296,0.0142535222694277,,,,,,,,,,,,1.6886865801788854e+18,51.25288540039062,20.65703926086426,38.34947891235352,-21.9648796081543,1.6886865801788854e+18,51.25288540039062,-234.6889526367187,133.37528076171876,-154.6886779785156,1.68868658017434e+18,51.24834025065104,-0.2594673037528991,0.0385055889685948,-0.7292444705963135,0.631978174050649,-1.769965370496114,1.2276930809020996,2.2009687423706055
6.3,1.6886865802262536e+18,51.30025358072917,0.0319652954737345,-0.0354458491007486,-0.0238006909688313,1.6886865802262536e+18,51.30025358072917,-0.6329015890757242,-9.28614584604899,3.2845478852589927,1.6886865802262536e+18,51.30025358072917,-0.6707129081090292,-9.233195304870604,3.24566117922465,1.6886865802219308e+18,51.29593074544271,-0.0307468846440315,-0.1267545397082964,-0.0027488936126852,1.6886865802219308e+18,51.29593074544271,-0.0316631818811098,-0.1223257655898729,-0.0002545272388184,,,,,,,,,,,,1.6886865802288812e+18,51.30288110351562,20.81563949584961,38.30311965942383,-21.96731948852539,1.6886865802288812e+18,51.30288110351562,-234.5303527832031,133.32891845703125,-154.6911163330078,1.6886865802262536e+18,51.30025358072917,-0.2579220036665599,0.0361680500209331,-0.7299867471059164,0.6318913300832113,-1.7746003071467082,1.2261719306310015,2.1999576886494956
6.35,1.6886865802781704e+18,51.35217032877605,0.2237147986888885,0.0386654535929362,-0.1171496709187825,1.6886865802781704e+18,51.35217032877605,-0.4578267435232798,-9.207780838012695,3.1998020807902017,1.6886865802781704e+18,51.35217032877605,-0.6873875856399536,-9.228941599527994,3.2542643547058105,1.6886865802738437e+18,51.34784334309896,-0.0216348102937141,-0.0107919533426562,-0.0280998020122448,1.6886865802738437e+18,51.34784334309896,-0.0225002033015091,-0.0063631795346736,-0.0256054348622758,,,,,,,,,,,,1.6886865802788846e+18,51.35288452148437,20.744879531860352,38.21528015136719,-21.911199951171874,1.6886865802788846e+18,51.35288452148437,-234.6011169433594,133.24107360839844,-154.63499755859374,1.6886865802781704e+18,51.35217032877605,-0.2572019696235657,0.0349249032636483,-0.7306297222773234,0.6315121452013651,-1.778989354769389,1.2248902718226116,2.2015119393666587
6.4,1.6886865803300836e+18,51.40408374023438,-0.0548444390296936,-0.1564194361368814,-0.2094991207122802,1.6886865803300836e+18,51.40408374023438,-0.7349953651428223,-9.401200612386068,3.1124640305836997,1.6886865803300836e+18,51.40408374023438,-0.685996949672699,-9.227276484171549,3.259275754292806,1.688686580325751e+18,51.39975122070312,-0.0055995984002947,0.0053959774474302,0.017409659611682,1.688686580325751e+18,51.39975122070312,-0.0065158957925935,0.009824748771886,0.0198531203592817,,,,,,,,,,,,1.6886865803288858e+18,51.40288574218751,20.94983940124512,38.06643905639648,-21.85751953125,1.6886865803288858e+18,51.40288574218751,-234.39615478515623,133.0922393798828,-154.5813201904297,1.6886865803300836e+18,51.40408374023438,-0.2577248811721802,0.0351105481386184,-0.7305723230044047,0.6313550670941671,-1.7782700856526692,1.2243897517522175,2.201852003733317
6.45,1.6886865803819917e+18,51.45599153645833,0.0358426173528035,0.0741917292277017,0.0277398427327473,1.6886865803819917e+18,51.45599153645833,-0.635493814945221,-9.174879709879557,3.3393834431966147,1.6886865803819917e+18,51.45599153645833,-0.6771824558575948,-9.231566747029625,3.248956203460694,1.6886865803776684e+18,51.45166821289062,0.0233146902173757,-0.0331903450811901,0.0166969833274682,1.6886865803776684e+18,51.45166821289062,0.0223983923594156,-0.028761572514971,0.0191404446959495,,,,,,,,,,,,1.6886865803788874e+18,51.452887402343755,20.544799423217775,38.08839950561523,-21.93803939819336,1.6886865803788874e+18,51.452887402343755,-234.8011932373047,133.11419982910155,-154.66183776855468,1.6886865803819917e+18,51.45599153645833,-0.2568011581897735,0.0347170010209083,-0.7302834788958231,0.632086992263794,-1.7763111591339111,1.225680152575175,2.1979105472564697
6.5,1.688686580425254e+18,51.49925390625,0.0201523900032042,0.0250558853149414,0.1271455287933349,1.688686580425254e+18,51.49925390625,-0.6616154611110687,-9.224929332733154,3.4339996576309204,1.688686580425254e+18,51.49925390625,-0.6876138746738434,-9.23248052597046,3.2441667318344116,1.6886865804295793e+18,51.50357926432292,0.0064140851415382,0.0397062407185633,-0.0384336051841576,1.6886865804295793e+18,51.50357926432292,0.0054977870264944,0.0441350142161051,-0.0359392389655112,,,,,,,,,,,,1.6886865804288827e+18,51.502882812500005,20.72535972595215,38.22747955322266,-22.096639251708982,1.6886865804288827e+18,51.502882812500005,-234.62063598632812,133.2532745361328,-154.8204376220703,1.688686580425254e+18,51.49925390625,-0.2567719519138336,0.0352301467210054,-0.7306227087974548,0.6316782534122467,-1.7796839475631714,1.225955307483673,2.2019835710525513
6.55,1.6886865804685128e+18,51.54251277669271,-0.0354384779930114,0.0325854619344075,0.0423382918039957,1.6886865804685128e+18,51.54251277669271,-0.721037228902181,-9.216355323791506,3.3513475259145102,1.6886865804685128e+18,51.54251277669271,-0.6914447744687399,-9.231436093648275,3.2463218371073403,1.6886865804814917e+18,51.55549178059896,-0.0093156949927408,0.0060577468636135,-0.0073303829412906,1.6886865804814917e+18,51.55549178059896,-0.0102319926954805,0.0104865197402735,-0.0048360165286187,,,,,,,,,,,,1.6886865804788854e+18,51.552885253906254,20.90591926574707,37.94931869506836,-22.279639053344727,1.6886865804788854e+18,51.552885253906254,-234.44007263183593,132.97511596679686,-155.00343627929686,1.6886865804685128e+18,51.54251277669271,-0.2573907176653544,0.0358375385403632,-0.7307268977165222,0.6312716603279114,-1.7806793451309204,1.225640892982483,2.204790989557902
6.6,1.6886865805204247e+18,51.594424967447914,-0.0043424566586812,0.0138772328694661,-0.0504108270009358,1.6886865805204247e+18,51.594424967447914,-0.688933531443278,-9.233304659525553,3.263810078303019,1.6886865805204247e+18,51.594424967447914,-0.6904370983441671,-9.229677200317385,3.2515335083007812,1.6886865805334008e+18,51.607400878906255,-0.008806640592714,0.0137444681798418,0.0264199208468198,1.6886865805334008e+18,51.607400878906255,-0.0096720329796273,0.0181732406684507,0.0288633828361828,,,,,,,,,,,,1.6886865805288812e+18,51.602880957031246,20.805879592895508,38.271399688720706,-21.908759689331056,1.6886865805288812e+18,51.602880957031246,-234.5401153564453,133.2971954345703,-154.63255920410157,1.6886865805204247e+18,51.594424967447914,-0.2575680216153462,0.0356136957804361,-0.7307025790214539,0.63124018907547,-1.7800553639729817,1.2251112063725789,2.204118569691976
