seconds_elapsed_rounded,accelerometer_time,accelerometer_seconds_elapsed,accelerometer_z,accelerometer_y,accelerometer_x,accelerometeruncalibrated_time,accelerometeruncalibrated_seconds_elapsed,accelerometeruncalibrated_z,accelerometeruncalibrated_y,accelerometeruncalibrated_x,gravity_time,gravity_seconds_elapsed,gravity_z,gravity_y,gravity_x,gyroscope_time,gyroscope_seconds_elapsed,gyroscope_z,gyroscope_y,gyroscope_x,gyroscopeuncalibrated_time,gyroscopeuncalibrated_seconds_elapsed,gyroscopeuncalibrated_z,gyroscopeuncalibrated_y,gyroscopeuncalibrated_x,location_time,location_seconds_elapsed,location_bearingAccuracy,location_speedAccuracy,location_verticalAccuracy,location_horizontalAccuracy,location_speed,location_bearing,location_altitude,location_longitude,location_latitude,magnetometer_time,magnetometer_seconds_elapsed,magnetometer_z,magnetometer_y,magnetometer_x,magnetometeruncalibrated_time,magnetometeruncalibrated_seconds_elapsed,magnetometeruncalibrated_z,magnetometeruncalibrated_y,magnetometeruncalibrated_x,orientation_time,orientation_seconds_elapsed,orientation_qz,orientation_qy,orientation_qx,orientation_qw,orientation_roll,orientation_pitch,orientation_yaw,totalacceleration_time,totalacceleration_seconds_elapsed,totalacceleration_z,totalacceleration_y,totalacceleration_x
-0.25,,,,,,,,,,,,,,,,,,,,,,,,,,,,,,,,,,,,,,,,,,,,,,,,,,,,,,,,1.688686202271203e+18,-0.2527970377604167,9.031111081441244,3.750550111134847,-0.9780662457148233
-0.2,,,,,,,,,,,,,,,,,,,,,,,,,,,,,,,,,,,,,,,,,,,,,,,,,,,,,,,,1.6886862023231188e+18,-0.20088118489583331,8.774679819742838,3.805983781814575,-1.057428201039632
-0.15000000000000002,,,,,,,,,,,,,,,,,,,,,,,,,,,,,,,,,,,,,,,,,,,,,,,,,,,,,,,,1.6886862023750397e+18,-0.14896028645833334,8.661818504333496,3.7246278127034507,-0.9804590741793314
-0.1,,,,,,,,,,,,,,,,,,,,,,,,,,,,,,,,,,,,,,,,,,,,,,,,,,,,,,,,1.6886862024269606e+18,-0.09703930664062499,8.506085713704428,3.87178643544515,-1.753340760866801
-0.05,,,,,,,,,,,,,,,,,,,,,,,,,,,,,,,,,,,,,,,,,,,,,,,,,,,,,,,,1.6886862024788774e+18,-0.04512263997395833,9.34975496927897,3.7292140324910483,-0.9874381422996521
-0.0,,,,,,,,,,,,,,,,,,,,,,,,,,,,,,,,,,,,,,,,,,,,,,,,,,,,,,,,1.6886862025307914e+18,0.006791585286458335,9.164311408996582,3.28355081876119,-0.38923248648643494
0.05,,,,,,,,,,,,,,,,1.688686202587022e+18,0.06302197265625,-0.1898263692855835,-0.3430008292198181,-0.6768386960029602,,,,,,,,,,,,,,,,,,,,,,,,,,,,,,,,,,,,1.6886862025654013e+18,0.0414013671875,8.929415702819824,3.3373894691467285,-0.2225325107574463
0.1,,,,,,1.688686202634604e+18,0.1106038818359375,9.205188751220701,2.940180778503418,-0.7304090857505798,,,,,,1.688686202621621e+18,0.09762076822916667,0.041844268639882394,-0.1230384341130654,-0.8066475590070089,1.6886862026259494e+18,0.10194921875,0.07651087207098804,-0.085622942696015,-0.8187121351559957,,,,,,,,,,,,1.688686202623845e+18,0.09984526367187499,-42.69023895263672,-21.37683982849121,-13.615199661254882,1.688686202623845e+18,0.09984526367187499,-298.03623046875,73.64895782470703,-146.33899841308593,,,,,,,,,,1.688686202634604e+18,0.1106038818359375,9.199206829071045,2.957528829574585,-0.7932206988334656
0.15000000000000002,1.6886862026865114e+18,0.162511474609375,0.1467504501342773,-0.3070497512817383,0.0105311274528503,1.6886862026778744e+18,0.15387418619791668,9.473383903503418,2.4526432355244956,-0.7158527771631876,1.6886862026865114e+18,0.162511474609375,9.388185501098633,2.7323319911956787,-0.7952527403831482,1.6886862026735444e+18,0.149544677734375,0.16941329340140024,0.019344065648813965,-0.6438519656658173,1.6886862026778744e+18,0.15387418619791668,0.1589776799082756,0.024892758578062002,-0.5978334446748098,,,,,,,,,,,,1.68868620267385e+18,0.1498501953125,-42.99524002075195,-19.393119430541994,-13.38583984375,1.68868620267385e+18,0.1498501953125,-298.3412353515625,75.63267974853515,-146.1096405029297,1.6886862026865114e+18,0.162511474609375,-0.8367787003517151,-0.0972072184085846,0.1097722351551055,0.5275435447692871,0.0845917165279388,-0.2822331190109253,2.0286052227020264,1.6886862026778744e+18,0.15387418619791668,9.467402458190918,2.469991127649943,-0.7786643703778585
0.2,1.688686202721142e+18,0.19714192708333333,0.28004042307535804,-0.4428846836090088,0.274582952260971,1.6886862027297902e+18,0.20579020182291666,9.72762139638265,2.1210378805796304,-0.4065804382165273,1.688686202721142e+18,0.19714192708333333,9.41621176401774,2.6330721378326416,-0.7978887359301249,1.68868620272546e+18,0.2014599609375,0.007788531947881032,0.018376862940688868,-0.27830002705256146,1.6886862027297902e+18,0.20579020182291666,-0.00015271672358113374,0.0203112699091434,-0.2710205515225728,,,,,,,,,,,,1.6886862027238523e+18,0.19985224609375002,-43.83947830200195,-18.439080047607423,-14.039759635925293,1.6886862027238523e+18,0.19985224609375002,-299.1854675292969,76.58671722412109,-146.76355590820313,1.688686202721142e+18,0.19714192708333333,-0.836864153544108,-0.0926348641514778,0.10717372347911197,0.5287602543830872,0.08461899558703101,-0.2717161178588867,2.0261677900950112,1.6886862027297902e+18,0.20579020182291666,9.721639633178711,2.138385852177938,-0.4693920413653056
0.25,1.6886862027730511e+18,0.24905110677083334,0.44534460703531903,-0.4992301066716512,0.43229692180951435,1.688686202773058e+18,0.249057861328125,9.933205127716064,2.0213369131088257,-0.31974093616008753,1.6886862027730511e+18,0.24905110677083334,9.447118759155273,2.52032470703125,-0.7972776095072428,1.6886862027773747e+18,0.253374755859375,-0.013337224566688066,-0.0313577484339475,-0.13917546719312665,1.688686202773058e+18,0.249057861328125,-0.0097738439217209,-0.0235183122567832,-0.15714508667588228,,,,,,,,,,,,1.688686202773853e+18,0.24985302734374998,-44.37627944946289,-17.86811943054199,-14.33743953704834,1.688686202773853e+18,0.24985302734374998,-299.72227172851564,77.15767822265624,-147.0612335205078,1.6886862027730511e+18,0.24905110677083334,-0.837527851263682,-0.0876715704798698,0.10396433124939597,0.5291988452275594,0.08427963405847544,-0.2598034739494324,2.025577942530314,1.688686202773058e+18,0.249057861328125,9.927222728729248,2.038684844970703,-0.38255251944065094
0.30000000000000004,1.6886862028249661e+18,0.30096622721354166,0.24792257944742835,-0.6410661141077677,0.5883919994036356,1.688686202816314e+18,0.29231404622395835,9.759126981099447,1.8338991800944011,-0.17487545559803644,1.6886862028249661e+18,0.30096622721354166,9.457502047220865,2.4860889116923013,-0.7816876570383707,1.6886862028292938e+18,0.30529402669270833,-0.0237728394567966,-0.03166318188110983,-0.05930483465393377,1.688686202816314e+18,0.29231404622395835,-0.0273362193256616,-0.031663181881109836,-0.046833002318938534,,,,,,,,,,,,1.6886862028238492e+18,0.299849169921875,-44.56903991699219,-17.28495979309082,-14.466759490966798,1.6886862028238492e+18,0.299849169921875,-299.9150329589844,77.74083862304687,-147.19055786132813,1.6886862028249661e+18,0.30096622721354166,-0.838094154993693,-0.08665341387192405,0.10226198534170783,0.5288020372390747,0.08255026489496227,-0.2561936179796855,2.026487112045288,1.688686202816314e+18,0.29231404622395835,9.753144900004068,1.8512471119562786,-0.23768704632918036
0.35000000000000003,1.6886862028768778e+18,0.3528779296875,0.11927445729573564,-0.47424479325612384,0.8229067126909891,1.6886862028682227e+18,0.3442224934895834,9.593424479166666,1.9445672035217285,0.07716853070693706,1.6886862028768778e+18,0.3528779296875,9.466309547424316,2.4550602436065674,-0.7731314698855082,1.6886862028812022e+18,0.35720239257812497,-0.0411315939078728,-0.015882496411601634,-0.051770829906066206,1.6886862028682227e+18,0.3442224934895834,-0.03130684358378247,-0.016798794580002566,-0.05375614017248146,,,,,,,,,,,,1.6886862028738527e+18,0.34985263671875,-44.60807876586914,-17.25567970275879,-14.63511962890625,1.6886862028738527e+18,0.34985263671875,-299.9540771484375,77.7701202392578,-147.35891723632812,1.6886862028768778e+18,0.3528779296875,-0.8386497497558594,-0.08558852970600121,0.10095615188280739,0.5283453265825907,0.08157587299744283,-0.2529251277446746,2.0276033083597818,1.6886862028682227e+18,0.3442224934895834,9.58744208017985,1.961915135383606,0.0143569366385539
0.4,1.688686202928796e+18,0.40479589843749997,0.2712167104085286,-0.5549768209457397,0.841848353544871,1.688686202920143e+18,0.3961431477864583,9.706485112508139,1.887937068939209,0.1525424445668856,1.688686202928796e+18,0.40479589843749997,9.476082483927408,2.4155529340108237,-0.7777161796887716,1.6886862029244739e+18,0.400473876953125,-0.04818199574947355,0.0070249504497041995,-0.10254900157451624,1.688686202920143e+18,0.3961431477864583,-0.05039638280868527,0.0083484917413443,-0.08933904270331063,,,,,,,,,,,,1.6886862029238487e+18,0.399848779296875,-44.573919677734374,-17.09219970703125,-14.393559646606445,1.6886862029238487e+18,0.399848779296875,-299.91990966796874,77.93359832763672,-147.1173553466797,1.688686202928796e+18,0.40479589843749997,-0.839492678642273,-0.08384216080109273,0.09994740535815554,0.5274774432182312,0.08197254935900367,-0.24876779317855832,2.029867966969808,1.688686202920143e+18,0.3961431477864583,9.700502713521322,1.9052850405375164,0.08973084886868789
0.45,1.6886862029807153e+18,0.456715087890625,0.3357674280802409,-0.7178336381912231,0.6868932247161865,1.688686202972061e+18,0.44806095377604166,9.834500948588053,1.6572291056315105,-0.017347964147726668,1.6886862029807153e+18,0.456715087890625,9.484911600748697,2.3816000620524087,-0.774904708067576,1.688686202967736e+18,0.4437359212239584,-0.014915292927374368,-0.016391551122069335,-0.05345070982972777,1.688686202972061e+18,0.44806095377604166,-0.015678874837855433,-0.020667607896029932,-0.044440447042385665,,,,,,,,,,,,1.6886862029738499e+18,0.44984985351562495,-44.986279296875,-17.04339942932129,-14.786399841308594,1.6886862029738499e+18,0.44984985351562495,-300.332275390625,77.9823989868164,-147.51019592285155,1.6886862029807153e+18,0.456715087890625,-0.8399411042531332,-0.08247025310993188,0.09883345166842139,0.5271900097529093,0.0816021859645843,-0.24519805610179898,2.030646006266276,1.688686202972061e+18,0.44806095377604166,9.828518867492676,1.674577037493388,-0.08015955984592434
0.5,1.6886862030239764e+18,0.4999765625,0.30155229568481445,-0.7358075380325317,0.7295769453048706,1.6886862030239764e+18,0.4999764811197916,9.794820149739584,1.623530109723409,0.05423731325815117,1.6886862030239764e+18,0.4999765625,9.488817691802979,2.377440333366394,-0.7390240728855133,1.6886862030196508e+18,0.4956507161458334,-0.029626964281002633,-0.10537425428628916,0.004123340671261133,1.6886862030239764e+18,0.4999764811197916,-0.031612275789181334,-0.0998764683802922,0.009417505934834466,,,,,,,,,,,,1.6886862030238538e+18,0.49985371093750003,-45.013119506835935,-17.082439041137697,-14.954759788513183,1.6886862030238538e+18,0.49985371093750003,-300.35911254882814,77.943359375,-147.67855834960938,1.6886862030239764e+18,0.4999765625,-0.840432733297348,-0.08333596587181086,0.09708363935351365,0.5265951752662659,0.0778112187981605,-0.2447608187794685,2.03170382976532,1.6886862030239764e+18,0.4999764811197916,9.788838068644207,1.640878160794576,-0.008574280266960466
0.55,1.6886862030672394e+18,0.543239501953125,0.15295060475667313,-0.6875958442687988,0.7542615930239359,1.6886862030758884e+18,0.551888671875,9.618947664896647,1.7034902969996135,0.08215357735753052,1.6886862030672394e+18,0.543239501953125,9.48886489868164,2.3844629923502603,-0.7154534459114075,1.688686203071567e+18,0.5475673014322916,-0.0676024183630943,-0.0377718346814314,0.030492357288797633,1.6886862030758884e+18,0.551888671875,-0.07437284539143237,-0.028710666423042566,0.0359901431947946,,,,,,,,,,,,1.6886862030738486e+18,0.5498485351562501,-44.639800262451175,-16.911639785766603,-14.801039505004884,1.6886862030738486e+18,0.5498485351562501,-299.9858032226563,78.11416015625,-147.52484130859375,1.6886862030672394e+18,0.543239501953125,-0.8410699566205343,-0.08440120518207546,0.0961465612053871,0.5255791147549947,0.07534123708804442,-0.24549867709477738,2.033846457799276,1.6886862030758884e+18,0.551888671875,9.61296558380127,1.7208382685979207,0.019341982280214633
0.6000000000000001,1.6886862031191503e+18,0.5951502278645834,0.041950861612955664,-0.5228813091913859,0.6165700554847717,1.6886862031278047e+18,0.603804443359375,9.532207806905111,1.9008982181549072,-0.05124628543853756,1.6886862031191503e+18,0.5951502278645834,9.484410603841146,2.402799367904663,-0.7131558060646057,1.6886862031234788e+18,0.5994789225260416,-0.12690725425879157,-0.044491351271669,0.0436259588847557,1.6886862031278047e+18,0.603804443359375,-0.1282817001144091,-0.046782097468773466,0.03919718476633224,,,,,,,,,,,,1.6886862031238546e+18,0.5998545898437501,-44.76911849975586,-16.950679779052734,-14.969399642944335,1.6886862031238546e+18,0.5998545898437501,-300.1151123046875,78.07512054443359,-147.6931945800781,1.6886862031191503e+18,0.5951502278645834,-0.8424327969551086,-0.08554124335447948,0.096318706870079,0.5231743256251017,0.07513537506262458,-0.2474256207545598,2.0394641558329263,1.6886862031278047e+18,0.603804443359375,9.526226043701172,1.9182461500167847,-0.11405787865320836
0.65,1.688686203171066e+18,0.647066162109375,0.0758775075276692,-0.42343846956888836,0.587958554426829,1.6886862031797207e+18,0.6557205403645834,9.590632756551107,1.9387845198313396,-0.0187437770267327,1.688686203171066e+18,0.647066162109375,9.489566802978516,2.392688592274984,-0.6773658394813538,1.6886862031753992e+18,0.6513990885416666,-0.06337726861238473,-0.14014266928037003,-0.06312274187803263,1.6886862031797207e+18,0.6557205403645834,-0.058541251967350605,-0.13632476329803464,-0.0637845136225223,,,,,,,,,,,,1.6886862031738532e+18,0.649853125,-44.35919876098633,-17.26787986755371,-14.883999824523926,1.6886862031738532e+18,0.649853125,-299.7052001953125,77.75791931152344,-147.60779724121093,1.688686203171066e+18,0.647066162109375,-0.8440681099891663,-0.0863330761591593,0.0942180107037226,0.5207850535710653,0.07134364793697988,-0.24636232852935788,2.0447871685028076,1.6886862031797207e+18,0.6557205403645834,9.584650357564291,1.9561325709025061,-0.08155537148316697
0.7000000000000001,1.6886862032229868e+18,0.6989868164062499,0.17386563618977866,-0.45344237486521405,0.6059503753980001,1.6886862032316393e+18,0.7076390787760417,9.684351603190104,1.8951155344645183,0.0488534631828467,1.6886862032229868e+18,0.6989868164062499,9.500053723653158,2.364467144012451,-0.6279598077138265,1.6886862032273142e+18,0.7033141276041667,-0.022652919093767734,-0.0458657975929479,-0.030288734162847133,1.6886862032316393e+18,0.7076390787760417,-0.024180082604289,-0.0288124767442544,-0.027336220256984164,,,,,,,,,,,,1.6886862032238528e+18,0.699852880859375,-44.244519805908205,-17.09463996887207,-15.042599868774413,1.6886862032238528e+18,0.699852880859375,-299.59051513671875,77.93115844726563,-147.76639709472656,1.6886862032229868e+18,0.6989868164062499,-0.8449386556943258,-0.08652139455080028,0.09116421143213904,0.5198862155278524,0.066088393330574,-0.2433967888355255,2.0464990933736167,1.6886862032316393e+18,0.7076390787760417,9.678369204203287,1.9124635060628254,-0.013958132204910068
0.75,1.6886862032749023e+18,0.750902099609375,0.3141625722249349,-0.5852710405985514,0.47052501638730365,1.6886862032748997e+18,0.7508997802734375,9.829416275024414,1.7566308975219727,-0.0966102131642401,1.6886862032749023e+18,0.750902099609375,9.506317138671875,2.334182103474935,-0.6458745002746582,1.6886862032792323e+18,0.7552323404947917,-0.08404487743973726,0.08938994631171222,-0.09763662765423453,1.6886862032748997e+18,0.7508997802734375,-0.0804814957082271,0.0859792828559875,-0.0969748571515083,,,,,,,,,,,,1.6886862032738463e+18,0.7498463378906249,-45.017999267578126,-17.10195960998535,-15.18899974822998,1.6886862032738463e+18,0.7498463378906249,-300.3639892578125,77.92383880615235,-147.9127990722656,1.6886862032749023e+18,0.750902099609375,-0.8456107576688131,-0.08479423820972437,0.09103107204039886,0.5190995931625366,0.06792020052671427,-0.2402172883351644,2.048672596613566,1.6886862032748997e+18,0.7508997802734375,9.823434352874756,1.7739788889884949,-0.1594218090176582
0.8,1.6886862033268175e+18,0.8028177897135417,0.4305489857991536,-0.7355029185612997,0.09694232543309526,1.6886862033181647e+18,0.7941649576822917,9.958329518636068,1.5166507164637248,-0.5252245664596558,1.6886862033268175e+18,0.8028177897135417,9.509173075358072,2.303157647450765,-0.7119729320208231,1.6886862033311457e+18,0.8071455078124999,-0.09453139702479045,0.08832093204061187,0.050854533910751294,1.6886862033181647e+18,0.7941649576822917,-0.10649417589108144,0.1155044337113698,-0.014558954785267503,1.688686203343e+18,0.819,0.0,0.0,1.0,12.098999977111816,0.0,0.0,40.20000076293945,-122.753201,49.190391,1.6886862033238543e+18,0.799854248046875,-44.683718872070315,-17.08975944519043,-14.852279663085938,1.6886862033238543e+18,0.799854248046875,-300.02971801757815,77.93603820800782,-147.57607421875,1.6886862033268175e+18,0.8028177897135417,-0.846830427646637,-0.08186165988445276,0.09290085981289543,0.5172478755315145,0.07481618722279863,-0.2369619558254877,2.0538511276245117,1.6886862033181647e+18,0.7941649576822917,9.952347755432129,1.533998727798462,-0.5880361795425415
0.8500000000000001,1.6886862033787348e+18,0.8547347005208333,0.0214856465657552,-0.32459294795989985,0.42318597435951233,1.688686203370081e+18,0.8460808919270834,9.586844126383463,1.950150450070699,-0.32043883701165515,1.6886862033787348e+18,0.8547347005208333,9.491915067036947,2.368818203608195,-0.7265514731407166,1.6886862033744082e+18,0.8504080810546875,0.010461067780852349,-0.021838433342054403,0.1739438772201538,1.688686203370081e+18,0.8460808919270834,-0.0050905432241658026,-0.006006841237346299,0.16712254782517752,,,,,,,,,,,,1.6886862033738493e+18,0.84984931640625,-44.47631912231445,-17.319119262695313,-14.618039894104005,1.6886862033738493e+18,0.84984931640625,-299.8223083496094,77.70667877197266,-147.3418395996094,1.6886862033787348e+18,0.8547347005208333,-0.8469719489415487,-0.08448253075281774,0.0952555512388547,0.5161650776863098,0.07647809634606037,-0.24385357399781546,2.0563274224599204,1.688686203370081e+18,0.8460808919270834,9.580862045288086,1.9674984216690063,-0.3832504252592723
0.9,1.6886862034306465e+18,0.9066464029947916,-0.0848417282104492,-0.3433248996734619,0.6692001422246298,1.688686203421993e+18,0.897992919921875,9.392227490743002,2.0666011969248452,0.028713872656226134,1.6886862034306465e+18,0.9066464029947916,9.488770802815756,2.392136335372925,-0.6906113823254904,1.6886862034176684e+18,0.8936680501302083,0.1320487037301063,-0.04540764912962907,0.004836015713711603,1.688686203421993e+18,0.897992919921875,0.13525574654340736,-0.03466660164607063,-0.0067704239239295,,,,,,,,,,,,1.6886862034238548e+18,0.89985478515625,-44.67639923095703,-17.66072006225586,-14.783959770202637,1.6886862034238548e+18,0.89985478515625,-300.0223876953125,77.36508026123047,-147.50775756835938,1.6886862034306465e+18,0.9066464029947916,-0.84551868836085,-0.08622171481450393,0.0945405761400858,0.5183867812156677,0.0727373361587524,-0.24630361795425412,2.050609032313029,1.688686203421993e+18,0.897992919921875,9.386245727539062,2.083949089050293,-0.034097723041971464
0.9500000000000001,1.6886862034739067e+18,0.9499068603515626,0.06352567672729491,-0.43763047456741333,0.633767306804657,1.688686203473912e+18,0.949912109375,9.56052303314209,1.9212371508280437,-0.009571291195849567,1.6886862034739067e+18,0.9499068603515626,9.493544101715088,2.3723840713500977,-0.693164587020874,1.6886862034695872e+18,0.9455870768229167,0.045916705081860236,0.05599598089853917,-0.054774249593416834,1.688686203473912e+18,0.949912109375,0.030645071839292836,0.06556620324651397,-0.05222897852460543,,,,,,,,,,,,1.688686203473852e+18,0.949851904296875,-44.625159454345706,-17.40695991516113,-14.517999839782714,1.688686203473852e+18,0.949851904296875,-299.9711547851563,77.61884002685547,-147.24179382324218,1.6886862034739067e+18,0.9499068603515626,-0.8445605337619781,-0.08508404716849324,0.0942847244441509,0.5201811194419861,0.07296830043196675,-0.2442282885313034,2.0464659929275513,1.688686203473912e+18,0.949912109375,9.554540634155273,1.9385851621627808,-0.0723828841000795
1.0,1.688686203517176e+18,0.9931760253906251,0.2331600189208984,-0.49509259064992267,0.49197479089101154,1.6886862035258243e+18,1.0018240559895835,9.759326299031576,1.8197416067123413,-0.22293131053447715,1.688686203517176e+18,0.9931760253906251,9.495993296305338,2.3514812787373858,-0.7297370632489523,1.6886862035214963e+18,0.9974963378906251,-0.05131268128752703,0.09687304745117815,-0.03339396696537727,1.6886862035258243e+18,1.0018240559895835,-0.05365433047215137,0.10496701051791507,-0.0262672048993408,,,,,,,,,,,,1.688686203523851e+18,0.999850927734375,-44.33235855102539,-16.9970401763916,-14.325239944458009,1.688686203523851e+18,0.999850927734375,-299.6783508300781,78.0287582397461,-147.04903564453124,1.688686203517176e+18,0.9931760253906251,-0.8448442220687866,-0.0832209860285123,0.09527880946795143,0.5198402802149454,0.0767791221539179,-0.24203285574913022,2.0477336247762046,1.6886862035258243e+18,1.0018240559895835,9.753344853719076,1.8370895783106482,-0.28574290374914807
1.05,1.6886862035690906e+18,1.0450906575520833,0.2851943969726562,-0.485019048055013,0.27872018019358313,1.688686203577737e+18,1.05373681640625,9.771091143290201,1.86939271291097,-0.45264228185017896,1.6886862035690906e+18,1.0450906575520833,9.492812474568685,2.3477885723114014,-0.7812881668408712,1.6886862035734182e+18,1.0494183756510418,-0.05289075026909503,0.05482515646144744,0.024892758578062,1.688686203577737e+18,1.05373681640625,-0.05299255996942517,0.04759658360853793,0.029219721133510235,,,,,,,,,,,,1.6886862035738486e+18,1.0498486816406252,-44.588558959960935,-17.143439865112306,-14.332559585571289,1.6886862035738486e+18,1.0498486816406252,-299.9345458984375,77.88235778808594,-147.05635681152344,1.6886862035690906e+18,1.0450906575520833,-0.8453315099080404,-0.08178244034449254,0.09735539307196929,0.5188910762468973,0.08220114558935164,-0.24164480467637375,2.050523519515991,1.688686203577737e+18,1.05373681640625,9.765109380086264,1.8867406845092773,-0.5154538949330648
1.1,1.688686203621005e+18,1.0970048828124999,0.18032264709472653,-0.3434172074000041,0.344738374153773,1.6886862036296594e+18,1.1056592610677083,9.664610544840494,2.025524377822876,-0.3754737575848897,1.688686203621005e+18,1.0970048828124999,9.489608764648438,2.359127998352051,-0.7860899766286215,1.688686203625334e+18,1.1013339029947915,-0.0403171057502428,-0.021482094035794267,0.023518311480681037,1.6886862036296594e+18,1.1056592610677083,-0.0412843103210131,-0.013082697366674731,0.024129177133242235,,,,,,,,,,,,1.688686203623853e+18,1.0998530273437501,-44.99359970092773,-17.243479537963868,-14.486279678344726,1.688686203623853e+18,1.0998530273437501,-300.339599609375,77.78231811523438,-147.21007690429687,1.688686203621005e+18,1.0970048828124999,-0.8458815415700277,-0.08227362235387163,0.09778001407782229,0.517836312452952,0.08273104578256603,-0.24283525844415024,2.0530307292938232,1.6886862036296594e+18,1.1056592610677083,9.658628463745119,2.042872349421183,-0.43828535079956055
1.1500000000000001,1.6886862036729213e+18,1.1489212239583333,0.12432924906412757,-0.30275559425354,0.2532876332600911,1.688686203681576e+18,1.1575760091145832,9.599605560302734,2.0472591718037925,-0.5100700159867605,1.6886862036729213e+18,1.1489212239583333,9.486778259277344,2.3673198223114014,-0.7955365777015686,1.6886862036772442e+18,1.1532441406249998,-0.0419460795819759,0.038891754423578534,0.035277467221021604,1.688686203681576e+18,1.1575760091145832,-0.04214970146616293,0.045916703840096766,0.04301509447395797,,,,,,,,,,,,1.6886862036738516e+18,1.149851708984375,-44.832559204101564,-17.46307945251465,-14.249599838256836,1.6886862036738516e+18,1.149851708984375,-300.1785583496094,77.56271667480469,-146.97339782714843,1.6886862036729213e+18,1.1489212239583333,-0.8463590542475382,-0.0824879432717959,0.09833506991465883,0.5169159968694051,0.08374442905187603,-0.2436955372492472,2.0552770296732583,1.688686203681576e+18,1.1575760091145832,9.593623479207357,2.0646071434020996,-0.5728816191355387
1.2000000000000002,1.6886862037248381e+18,1.20083837890625,0.12006918589274086,-0.33966954549153644,0.1609359979629516,1.6886862037248376e+18,1.2008376464843749,9.609276294708252,2.0380866527557373,-0.5898307859897614,1.6886862037248381e+18,1.20083837890625,9.47708002726237,2.3954601287841797,-0.8262158830960592,1.688686203729165e+18,1.205164794921875,-0.015068008952463635,0.06755151599645608,0.07162394995490703,1.6886862037248376e+18,1.2008376464843749,-0.022296580951660802,0.07475463300943369,0.07719809189438814,,,,,,,,,,,,1.6886862037238528e+18,1.199852783203125,-44.61783981323242,-17.470399475097658,-14.291079711914062,1.6886862037238528e+18,1.199852783203125,-299.9638366699219,77.5553970336914,-147.01487731933594,1.6886862037248381e+18,1.20083837890625,-0.8464928070704142,-0.0829885751008987,0.10040401667356487,0.516218344370524,0.0870433424909909,-0.24665257334709165,2.057154417037964,1.6886862037248376e+18,1.2008376464843749,9.603294849395752,2.0554347038269043,-0.6526423692703247
1.25,1.6886862037767519e+18,1.2527518717447916,0.10561847686767578,-0.3839174111684163,0.14879922072092686,1.688686203768096e+18,1.2440960286458334,9.582855860392252,2.0131614208221436,-0.64765731493632,1.6886862037767519e+18,1.2527518717447916,9.46820100148519,2.423955202102661,-0.8447870214780172,1.6886862037810778e+18,1.2570778808593752,0.04036801184217129,0.004326962089786967,0.0483092591166496,1.688686203768096e+18,1.2440960286458334,0.02952515271802737,0.028608855791389932,0.05457062895099316,,,,,,,,,,,,1.688686203773849e+18,1.24984892578125,-44.25671920776367,-17.73391990661621,-13.912879943847656,1.688686203773849e+18,1.24984892578125,-299.60272216796875,77.29187927246093,-146.6366760253906,1.6886862037767519e+18,1.2527518717447916,-0.8460385203361511,-0.08371023088693613,0.10204731921354926,0.5165245135625204,0.08907028287649153,-0.2496491968631744,2.0565364360809326,1.688686203768096e+18,1.2440960286458334,9.576874097188314,2.0305094718933105,-0.7104689280192057
1.3,1.6886862038286656e+18,1.3046656901041667,0.1020889282226562,-0.4722578128178914,0.23918690284093216,1.6886862038200136e+18,1.2960136718750002,9.584451039632162,1.9647067785263062,-0.5471587975819906,1.6886862038286656e+18,1.3046656901041667,9.463555018107096,2.4448978106180825,-0.8364707628885905,1.688686203824344e+18,1.3003441162109375,0.0617737472057342,0.005650503793731349,0.0335975885391235,1.6886862038200136e+18,1.2960136718750002,0.05757404863834376,0.006108652412270499,0.03873903801043824,,,,,,,,,,,,1.6886862038238497e+18,1.299849609375,-44.73495788574219,-17.733919525146483,-14.034879684448242,1.6886862038238497e+18,1.299849609375,-300.08095703125,77.29187927246093,-146.75867919921876,1.6886862038286656e+18,1.3046656901041667,-0.8452361822128296,-0.08472387492656706,0.1023706619938214,0.5176076491673788,0.08824178079764043,-0.251853197813034,2.053822120030721,1.6886862038200136e+18,1.2960136718750002,9.578468958536783,1.9820547501246135,-0.6099703510602316
1.35,1.688686203880581e+18,1.3565811360677085,0.041922569274902295,-0.4348643620808919,0.32101455330848694,1.6886862038719322e+18,1.3479319661458333,9.504092534383139,2.008973995844523,-0.47397829095522565,1.688686203880581e+18,1.3565811360677085,9.457719484965006,2.466128428777059,-0.8401328921318054,1.6886862038676068e+18,1.3436066080729168,0.06923139219482734,0.0296778697520494,0.0413352139294147,1.6886862038719322e+18,1.3479319661458333,0.0659225396811962,0.034310265754659904,0.042964189002911234,,,,,,,,,,,,1.688686203873853e+18,1.349852978515625,-44.878919219970705,-17.763199615478516,-14.435039901733399,1.688686203873853e+18,1.349852978515625,-300.22491455078125,77.26259918212891,-147.1588348388672,1.688686203880581e+18,1.3565811360677085,-0.8441240588823954,-0.08537376920382177,0.1032793223857879,0.5191329518953959,0.08867997924486791,-0.2540888686974843,2.0501811504364014,1.6886862038719322e+18,1.3479319661458333,9.498110135396322,2.0263219674428306,-0.5367898742357889
1.4000000000000001,1.6886862039238472e+18,1.3998472900390624,0.0556802749633789,-0.4387547969818115,0.37725929915905,1.6886862039238474e+18,1.3998474121093751,9.511669476826986,2.026122530301412,-0.40059839685757953,1.6886862039238472e+18,1.3998472900390624,9.454131126403809,2.476997971534729,-0.8485212028026581,1.688686203919521e+18,1.39552099609375,0.06322455282012616,0.04072435076038037,0.019293160798648932,1.6886862039238474e+18,1.3998474121093751,0.06398813674847277,0.0452549333373705,0.021329378088315268,,,,,,,,,,,,1.688686203923854e+18,1.3998541015625,-44.832558441162114,-17.78271903991699,-14.498479461669922,1.688686203923854e+18,1.3998541015625,-300.1785461425781,77.24307861328126,-147.22227783203124,1.6886862039238472e+18,1.3998472900390624,-0.8433083891868591,-0.08548459783196445,0.10407069325447074,0.5202812552452087,0.08959365263581276,-0.2552340924739837,2.047513604164124,1.6886862039238474e+18,1.3998474121093751,9.505687395731607,2.043470541636149,-0.46340999007225037
1.4500000000000002,1.68868620396711e+18,1.443109619140625,0.026393890380859333,-0.3856058915456136,0.47218655546506244,1.6886862039757588e+18,1.4517588704427082,9.483952522277832,2.087737798690796,-0.3074777026971181,1.68868620396711e+18,1.443109619140625,9.450316747029623,2.4892528851826987,-0.8551134069760641,1.6886862039714383e+18,1.4474382324218749,0.05920302371184024,0.03914628177881237,0.028150706241528132,1.6886862039757588e+18,1.4517588704427082,0.056912279377380935,0.04606942087411873,0.02871066642304257,,,,,,,,,,,,1.6886862039738496e+18,1.44984951171875,-45.091199493408205,-17.94375991821289,-14.315479850769043,1.6886862039738496e+18,1.44984951171875,-300.43718872070315,77.08204040527343,-147.03927307128907,1.68868620396711e+18,1.443109619140625,-0.8424186706542969,-0.08568941801786416,0.10483349611361815,0.5215340058008829,0.090321642657121,-0.256525586048762,2.044571320215861,1.6886862039757588e+18,1.4517588704427082,9.477970441182455,2.1050856908162436,-0.3702893058458964
1.5,1.6886862040190272e+18,1.4950273437500001,0.033618609110514265,-0.4288601080576579,0.5017269651095072,1.6886862040276795e+18,1.5036796061197917,9.493723233540853,2.039681911468506,-0.28693932294845576,1.6886862040190272e+18,1.4950273437500001,9.447877566019693,2.4942219257354736,-0.8675052722295126,1.688686204023348e+18,1.4993478190104168,0.0643444719413916,0.038077267507712,-0.015118914656341,1.6886862040276795e+18,1.5036796061197917,0.06291911999384557,0.041437026113271665,-0.014711670887966865,,,,,,,,,,,,1.688686204023853e+18,1.4998529296875,-44.837439727783206,-17.58751983642578,-14.27399959564209,1.688686204023853e+18,1.4998529296875,-300.1834350585938,77.43827819824219,-146.99779663085937,1.6886862040190272e+18,1.4950273437500001,-0.8414493799209595,-0.08539156367381406,0.10566661010185878,0.5229775309562683,0.09164570520321524,-0.25704944133758545,2.0412591298421225,1.6886862040276795e+18,1.5036796061197917,9.487741152445475,2.057029883066813,-0.34975090622901917
1.55,1.6886862040709345e+18,1.5469347330729166,0.022171974182128903,-0.4735281864802043,0.547500729560852,1.6886862040795945e+18,1.5555944010416667,9.44626553853353,2.0045871337254844,-0.2827518781026204,1.6886862040709345e+18,1.5469347330729166,9.446961402893066,2.4910335540771484,-0.8863597512245178,1.688686204075266e+18,1.5512658691406251,0.0293724369257688,0.09478592624266936,0.014864387611548102,1.6886862040795945e+18,1.5555944010416667,0.026114488641420935,0.10746137797832483,0.022092959998796364,,,,,,,,,,,,1.6886862040738496e+18,1.5498496582031251,-45.02775955200195,-17.66072006225586,-14.21787986755371,1.6886862040738496e+18,1.5498496582031251,-300.3737487792969,77.36507873535156,-146.9416748046875,1.6886862040709345e+18,1.5469347330729166,-0.840619424978892,-0.08457735925912853,0.10653750350077944,0.5242661039034525,0.09363362193107598,-0.2567134698232015,2.0384068489074707,1.6886862040795945e+18,1.5555944010416667,9.44028377532959,2.021935145060221,-0.3455634613831838
1.6,1.6886862041228562e+18,1.5988560384114583,-0.14555231730143223,-0.5005494753519694,0.6418071985244751,1.68868620413151e+18,1.6075099283854168,9.278967221577963,2.000200311342875,-0.26141587396462757,1.6886862041228562e+18,1.5988560384114583,9.43482526143392,2.5102782249450684,-0.9579344193140665,1.6886862041271852e+18,1.603185302734375,0.0740165052314599,0.2511674265066783,0.058490347117185565,1.68868620413151e+18,1.6075099283854168,0.079972439755996,0.27814731001853943,0.06607525671521818,,,,,,,,,,,,1.688686204123852e+18,1.599851953125,-45.09851913452148,-17.726599502563477,-13.95191993713379,1.688686204123852e+18,1.599851953125,-300.44451293945315,77.29919738769532,-146.67571716308595,1.6886862041228562e+18,1.5988560384114583,-0.8395182092984518,-0.08331818878650664,0.11035352696975066,0.5254386067390442,0.10126884778340654,-0.258742223183314,2.0363144874572754,1.68868620413151e+18,1.6075099283854168,9.272985458374022,2.0175483226776123,-0.3242274721463521
1.6500000000000001,1.6886862041747722e+18,1.6507723795572915,-0.4152228037516276,-0.3318302631378174,0.7285421093304952,1.6886862041747743e+18,1.650774169921875,8.947959899902344,2.224726915359497,-0.28145577013492584,1.6886862041747722e+18,1.6507723795572915,9.402003288269043,2.56309445699056,-1.1248288949330647,1.6886862041791037e+18,1.6551039225260418,0.13566298534472776,0.46395215392112726,0.1258382399876912,1.6886862041747743e+18,1.650774169921875,0.1470658034086227,0.46822820603847504,0.1321759670972824,1.688686204175e+18,1.651,0.0,0.0,0.9921245574951172,11.836000442504885,0.0544905252754688,0.0,40.20000076293945,-122.7532054,49.1903883,1.688686204173848e+18,1.64984814453125,-45.34007873535156,-17.81443977355957,-12.910039901733398,1.688686204173848e+18,1.64984814453125,-300.6860717773437,77.21135864257812,-145.633837890625,1.6886862041747722e+18,1.6507723795572915,-0.8365549643834432,-0.0806222210327784,0.11952312042315798,0.528561552365621,0.1191588789224624,-0.2643162906169891,2.030463933944702,1.6886862041747743e+18,1.650774169921875,8.941978454589844,2.242074728012085,-0.34426735341548914
1.7000000000000002,1.688686204226688e+18,1.7026880696614584,-0.746387799580892,-0.4413135846455892,0.7361536423365275,1.6886862042180362e+18,1.6940362141927086,8.692526499430338,2.233101765314738,-0.5126622418562571,1.688686204226688e+18,1.7026880696614584,9.360087076822916,2.6237243016560874,-1.3186817566553752,1.6886862042310116e+18,1.7070118001302081,0.09274970740079873,0.3334815154472986,0.1221730460723241,1.6886862042180362e+18,1.6940362141927086,0.08373944461345671,0.4093306263287862,0.1031853208939234,,,,,,,,,,,,1.6886862042238528e+18,1.6998527343749998,-45.44743881225586,-18.190199661254884,-12.302479934692382,1.6886862042238528e+18,1.6998527343749998,-300.79343872070314,76.83560028076172,-145.02627868652343,1.688686204226688e+18,1.7026880696614584,-0.8334634105364481,-0.0774820894002914,0.1300943593184153,0.5314173301060995,0.14004972080389658,-0.27072446544965106,2.0254815419514975,1.6886862042180362e+18,1.6940362141927086,8.686544418334961,2.2504496574401855,-0.5754738450050354
1.75,1.6886862042785974e+18,1.7545971679687498,-0.5491228103637695,-0.2716536521911621,0.7918567458788554,1.6886862042699482e+18,1.7459484049479166,8.667601267496744,2.4107688268025718,-0.5788636803627014,1.6886862042785974e+18,1.7545971679687498,9.296222050984701,2.7810835043589273,-1.4401874939600627,1.6886862042742804e+18,1.7502805175781249,0.14164438098669052,0.31513009965419764,0.48227810859680176,1.6886862042699482e+18,1.7459484049479166,0.12940162047743795,0.29667688409487397,0.41971532503763836,,,,,,,,,,,,1.6886862042738496e+18,1.7498495605468751,-45.36935958862305,-18.71479949951172,-11.60463981628418,1.6886862042738496e+18,1.7498495605468751,-300.71535034179686,76.31099853515624,-144.32843627929688,1.6886862042785974e+18,1.7545971679687498,-0.8300779461860657,-0.08056512971719103,0.14028058946132657,0.533648153146108,0.1537983864545822,-0.28741879264513653,2.0211904048919678,1.6886862042699482e+18,1.7459484049479166,8.661619186401367,2.428116758664449,-0.6416752735773722
1.8,1.6886862043305193e+18,1.8065192057291668,0.09905942281087238,-0.6270649433135986,0.8348019321759542,1.6886862043218665e+18,1.7978662109375,9.227322260538736,2.3256242275238037,-0.7148557504018148,1.6886862043305193e+18,1.8065192057291668,9.17805004119873,3.0310111840566,-1.6723650693893433,1.6886862043175424e+18,1.7935425618489582,0.10588330620278914,0.5682064990202585,0.48864128192265827,1.6886862043218665e+18,1.7978662109375,0.14726943398515382,0.6043493549029032,0.5143485367298126,,,,,,,,,,,,1.6886862043238543e+18,1.7998542480468749,-45.06679916381836,-19.661519622802736,-10.552999687194824,1.6886862043238543e+18,1.7998542480468749,-300.41279296875,75.3642791748047,-143.27679748535155,1.6886862043305193e+18,1.8065192057291668,-0.8253910740216573,-0.08456344902515406,0.1581810414791107,0.5352644721666971,0.1803526530663172,-0.3140999575455983,2.019629160563151,1.6886862043218665e+18,1.7978662109375,9.221340497334799,2.342972199122111,-0.7776673634847006
1.85,1.6886862043737846e+18,1.8497844238281251,0.027472972869873047,-0.3960845470428467,0.3113745450973511,1.6886862043737843e+18,1.8497840983072917,9.134002049763998,3.0317063331604004,-1.310269792874654,1.6886862043737846e+18,1.8497844238281251,9.001680374145508,3.4378178119659424,-1.8381702899932861,1.6886862043694548e+18,1.8454546712239583,0.7274387081464132,0.5676974356174469,0.9625709255536398,1.6886862043737843e+18,1.8497840983072917,0.7257079283396403,0.5548183719317118,0.9501499931017557,,,,,,,,,,,,1.688686204373855e+18,1.849855078125,-44.93259963989258,-21.059639358520506,-9.847839736938477,1.688686204373855e+18,1.849855078125,-300.2785888671875,73.96616058349609,-142.57163696289064,1.6886862043737846e+18,1.8497844238281251,-0.8138251900672913,-0.09548151120543474,0.1790736317634582,0.5444952547550201,0.20152734220027918,-0.35803215205669403,1.9988670945167544,1.6886862043737843e+18,1.8497840983072917,9.128020286560059,3.049054225285848,-1.3730814059575398
1.9000000000000001,1.6886862044170452e+18,1.8930452473958332,-0.158203125,-0.38297152519226074,0.8792584935824076,1.6886862044257027e+18,1.90170263671875,9.076574643452963,3.3748769760131836,-1.038485050201416,1.6886862044170452e+18,1.8930452473958332,8.912281354268393,3.655711809794108,-1.8554059267044067,1.6886862044213699e+18,1.897369873046875,0.3552181323369344,0.05859215433398887,0.0402662009000778,1.6886862044257027e+18,1.90170263671875,0.3423899710178375,0.03242676332592966,-0.03313944240411119,,,,,,,,,,,,1.6886862044238536e+18,1.899853662109375,-44.19328002929687,-22.201559829711915,-9.730719757080077,1.6886862044238536e+18,1.899853662109375,-299.5392761230469,72.82423858642578,-142.45451965332032,1.6886862044170452e+18,1.8930452473958332,-0.8059129516283671,-0.1026222134629885,0.1876903225978215,0.5520321528116862,0.20534787575403846,-0.38184096415837604,1.9802712599436443,1.6886862044257027e+18,1.90170263671875,9.070592244466146,3.3922248681386313,-1.1012966235478718
1.9500000000000002,1.6886862044689644e+18,1.9449642740885416,0.2750304539998372,-0.2772759596506755,0.34781213601430255,1.6886862044776118e+18,1.9536117350260416,9.164909362792969,3.219144105911255,-1.3936197757720947,1.6886862044689644e+18,1.9449642740885416,8.945448875427246,3.610833724339803,-1.7821851174036663,1.6886862044732854e+18,1.9492852376302083,0.473776896794637,-0.005294166505336766,-0.15327627087632809,1.6886862044776118e+18,1.9536117350260416,0.4794783095518748,-0.010944670066237436,-0.134288544456164,,,,,,,,,,,,1.6886862044738522e+18,1.949852001953125,-44.38359832763672,-21.284119415283204,-9.820999717712402,1.6886862044738522e+18,1.949852001953125,-299.72959594726564,73.74167938232422,-142.5447998046875,1.6886862044689644e+18,1.9449642740885416,-0.8007999857266744,-0.10084106524785356,0.18411817153294882,0.5609257817268372,0.19674975673357642,-0.3769170343875885,1.9571714401245117,1.6886862044776118e+18,1.9536117350260416,9.158927281697592,3.236492077509562,-1.4564313888549805
2.0,1.6886862045208717e+18,1.9968716634114585,0.8964799245198568,-1.1228851079940796,0.26323004563649494,1.6886862045295255e+18,2.005525227864583,10.006784121195475,2.3130618731180825,-1.315653642018636,1.6886862045208717e+18,1.9968716634114585,8.974847157796225,3.5786758263905845,-1.6972042322158813,1.6886862045252022e+18,2.001202067057292,0.30782518287499744,0.13510302950938538,-0.2053016275167465,1.6886862045295255e+18,2.005525227864583,0.29433524111906684,0.19435696303844452,-0.20270545780658722,,,,,,,,,,,,1.688686204523854e+18,1.99985400390625,-44.76667938232422,-20.78147964477539,-10.204079818725585,1.688686204523854e+18,1.99985400390625,-300.1126770019531,74.24431915283203,-142.927880859375,1.6886862045208717e+18,1.9968716634114585,-0.7951093316078186,-0.09991816927989317,0.18051190177599585,0.5702851812044779,0.1869956056276957,-0.3733975092569987,1.9326092004776,1.6886862045295255e+18,2.005525227864583,10.000802357991537,2.33040984471639,-1.3784652551015217
2.0500000000000003,1.688686204572792e+18,2.048792154947917,0.678370475769043,-1.102254311243693,0.3762003183364868,1.688686204581446e+18,2.057446044921875,9.466006596883139,2.5020949045817056,-1.4612170457839966,1.688686204572792e+18,2.048792154947917,8.931740125020346,3.5991218090057373,-1.8691974480946858,1.6886862045771154e+18,2.0531155598958333,0.16966782013575232,0.7204646468162537,0.40999239558974904,1.688686204581446e+18,2.057446044921875,0.14874568581581113,0.7387906312942505,0.4940372755130132,,,,,,,,,,,,1.688686204573853e+18,2.04985283203125,-44.864279174804686,-20.81807975769043,-9.352519989013672,1.688686204573853e+18,2.04985283203125,-300.21027221679685,74.20771789550781,-142.0763153076172,1.688686204572792e+18,2.048792154947917,-0.7891360918680826,-0.09399112313985823,0.18947567542393995,0.576620082060496,0.2064200540383657,-0.3756452302138011,1.9189260005950928,1.688686204581446e+18,2.057446044921875,9.46002451578776,2.519442876180013,-1.5240286588668823
2.1,1.6886862046247096e+18,2.1007096354166666,0.6914567947387695,-0.5750765005747477,-0.348335305849711,1.6886862046247096e+18,2.1007097167968753,9.34487009048462,3.0194430351257324,-1.9363917112350462,1.6886862046247096e+18,2.1007096354166666,8.725234031677246,3.9341578483581543,-2.148251533508301,1.6886862046296338e+18,2.1056337890625,-0.003919718166192365,0.20341811577479044,0.6148358791445693,1.688686204632518e+18,2.1085179850260416,-0.016493361443281132,0.16009759902954102,0.5980879937609037,,,,,,,,,,,,1.6886862046238525e+18,2.099852587890625,-43.97855911254883,-22.39675979614258,-8.510719871520996,1.6886862046238525e+18,2.099852587890625,-299.3245483398438,72.62903747558593,-141.2345184326172,1.6886862046247096e+18,2.1007096354166666,-0.7830962340037028,-0.09945911665757494,0.21300079921881354,0.5757278998692831,0.24153480927149454,-0.4126513600349426,1.9245044787724812,1.6886862046247096e+18,2.1007097167968753,9.338887691497803,3.0367910861968994,-1.9992033243179324
2.15,1.6886862046766252e+18,2.1526251627604167,0.8783254623413086,0.6891967455546061,-0.3159790833791097,1.6886862046679693e+18,2.1439692382812496,9.822138150533041,4.44726022084554,-2.305085817972819,1.6886862046766252e+18,2.1526251627604167,8.684726397196451,4.05413277943929,-2.0914750893910727,1.6886862046766252e+18,2.1526251627604167,0.7076873878637949,0.17832173903783158,-0.013846280674139658,1.6886862046766252e+18,2.1526251627604167,0.7066183785597483,0.18285233030716577,-0.011555533856153497,,,,,,,,,,,,1.688686204673854e+18,2.1498541015625,-44.029798126220705,-22.77495880126953,-8.13007984161377,1.688686204673854e+18,2.1498541015625,-299.37579345703125,72.25083923339844,-140.85387573242187,1.6886862046766252e+18,2.1526251627604167,-0.777975598971049,-0.1048168763518333,0.21533885598182675,0.580822209517161,0.23641836643218994,-0.4260215262571971,1.9103330373764038,1.6886862046679693e+18,2.1439692382812496,9.816156387329102,4.464608192443848,-2.3678974310557046
2.2,1.688686204728537e+18,2.2045372721354166,1.219468116760254,-0.8824309508005778,0.6972300211588541,1.6886862047198843e+18,2.1958843587239585,9.749156951904297,3.6039896806081138,-1.6510476271311443,1.688686204728537e+18,2.2045372721354166,8.538000424702963,4.241312821706136,-2.308871269226074,1.688686204728537e+18,2.2045372721354166,0.6925684809684753,1.257720669110616,0.22250766803820923,1.688686204728537e+18,2.2045372721354166,0.6914994517962137,1.2622512181599934,0.22479840864737824,,,,,,,,,,,,1.6886862047238528e+18,2.1998530273437504,-44.16155853271484,-22.77007942199707,-7.734799766540528,1.6886862047238528e+18,2.1998530273437504,-299.50755004882814,72.25571746826172,-140.4585968017578,1.688686204728537e+18,2.2045372721354166,-0.7593362331390381,-0.10010001560052234,0.2339953780174255,0.5987721085548401,0.2642351488272349,-0.44708256920178724,1.8665800094604492,1.6886862047198843e+18,2.1958843587239585,9.743175188700357,3.621337572733561,-1.7138592004776
2.25,1.688686204780455e+18,2.256454833984375,-0.9134729703267416,-0.6445008118947347,0.17421801884969076,1.6886862047718031e+18,2.247802978515625,7.863213857014974,3.786043643951416,-2.6771697203318277,1.688686204780455e+18,2.256454833984375,8.335746129353842,4.412555535634358,-2.6965277194976807,1.688686204780455e+18,2.256454833984375,0.5394958257675171,0.7332419206698736,0.3421354393164317,1.688686204780455e+18,2.256454833984375,0.538426806529363,0.7376706947882968,0.3444261799256007,,,,,,,,,,,,1.6886862047738516e+18,2.2498517578125,-44.5202392578125,-23.099479293823244,-5.350920009613037,1.6886862047738516e+18,2.2498517578125,-299.8662353515625,71.926318359375,-138.07471618652343,1.688686204780455e+18,2.256454833984375,-0.7430208325386047,-0.08990394572416939,0.25892982880274457,0.6105309327443441,0.31299129128456116,-0.46654753883679706,1.8409016529719036,1.6886862047718031e+18,2.247802978515625,7.857232093811035,3.803391615549723,-2.7399813334147134
2.3000000000000003,1.6886862048237194e+18,2.299719482421875,0.07312750816345215,-1.785419225692749,0.29521113634109497,1.6886862048237187e+18,2.299718424479167,8.177471478780111,2.7320052782694497,-2.1816560427347818,1.6886862048237194e+18,2.299719482421875,8.323422908782959,4.510701656341553,-2.57006299495697,1.6886862048237194e+18,2.299719482421875,1.0389290750026703,-0.279776282608509,-0.44280093908309937,1.6886862048237194e+18,2.299719482421875,1.0378600358963013,-0.2753475084900856,-0.4404338523745537,,,,,,,,,,,,1.6886862048238513e+18,2.299851171875,-44.25427932739258,-23.2361198425293,-5.570519924163818,1.6886862048238513e+18,2.299851171875,-299.60027465820315,71.78967895507813,-138.29431762695313,1.6886862048237194e+18,2.299719482421875,-0.7320587337017059,-0.09376797825098035,0.25880248844623566,0.6231284737586975,0.29959818720817566,-0.47776924073696136,1.8047103881835938,1.6886862048237187e+18,2.299718424479167,8.171489238739014,2.7493531703948975,-2.2444676558176675
2.35,1.688686204866982e+18,2.3429820963541665,1.1254253387451174,-0.8384160200754801,1.5095342795054119,1.688686204875634e+18,2.3516341145833333,9.697312355041504,3.5956149101257324,-0.11206384686132272,1.688686204866982e+18,2.3429820963541665,8.518184979756674,4.303778648376465,-2.2665390968322754,1.688686204866982e+18,2.3429820963541665,0.8380053043365479,-0.17302757998307547,-0.942819615205129,1.688686204866982e+18,2.3429820963541665,0.8369363149007162,-0.16849699616432193,-0.9405288497606913,,,,,,,,,,,,1.6886862048738527e+18,2.3498527343749998,-45.20587921142578,-21.206039428710938,-7.1174798011779785,1.6886862048738527e+18,2.3498527343749998,-300.5518737792969,73.81975860595703,-139.84127807617188,1.688686204866982e+18,2.3429820963541665,-0.721562922000885,-0.08993068337440487,0.24025926987330112,0.6430059274037679,0.2602037787437439,-0.45418761173884076,1.7463314533233643,1.688686204875634e+18,2.3516341145833333,9.691330591837565,3.6129628817240396,-0.17487545311450958
2.4000000000000004,1.6886862049188948e+18,2.3948949381510416,1.5269076029459636,-1.4538171291351318,3.086068630218506,1.6886862049275497e+18,2.4035498860677085,9.958728472391764,2.226920207341512,0.659023235241572,1.6886862049188948e+18,2.3948949381510416,8.653093655904135,3.9602559407552085,-2.3796629905700684,1.6886862049188948e+18,2.3948949381510416,-0.4755076852937539,0.5107342302799225,-0.4403829301397006,1.6886862049188948e+18,2.3948949381510416,-0.476576695839564,0.5152139266331991,-0.4380921882887681,,,,,,,,,,,,1.6886862049238528e+18,2.39985283203125,-46.316079711914064,-19.395559310913086,-6.417199993133545,1.6886862049238528e+18,2.39985283203125,-301.6620727539063,75.63023986816407,-139.1409942626953,1.6886862049188948e+18,2.3948949381510416,-0.7202893098195394,-0.0707219392061233,0.23226730028788248,0.6497646570205688,0.26845696568489075,-0.41555895407994586,1.7305445273717244,1.6886862049275497e+18,2.4035498860677085,9.952746391296385,2.244268218676249,0.5962116519610087
2.45,1.6886862049708127e+18,2.4468128255208335,-1.0209784507751465,-2.717103958129883,2.474440097808838,1.688686204979465e+18,2.4554649251302085,7.248258590698242,1.2677971919377644,0.026719852738703236,1.6886862049708127e+18,2.4468128255208335,8.62650203704834,3.9549480279286704,-2.484286069869995,1.6886862049708127e+18,2.4468128255208335,-0.7003060976664225,-0.6583091293772062,0.48324530323346454,1.6886862049708127e+18,2.4468128255208335,-0.7013751069704691,-0.6538803353905678,0.48553605874379474,,,,,,,,,,,,1.6886862049738524e+18,2.449852392578125,-45.576759338378906,-19.77863998413086,-5.880399894714356,1.6886862049738524e+18,2.449852392578125,-300.92275390625,75.24715881347656,-138.60419921875,1.6886862049708127e+18,2.4468128255208335,-0.7326246500015259,-0.07157962520917253,0.2349027295907338,0.6347347299257914,0.280513862768809,-0.4149525860945384,1.7731407086054485,1.688686204979465e+18,2.4554649251302085,7.242276509602864,1.2851452032725017,-0.036091741019239
2.5,1.6886862050227249e+18,2.4987246907552083,-1.4574488004048665,-2.7993878523508706,1.6693565448125203,1.688686205031378e+18,2.5073778483072915,7.422137101491292,0.7844470056394736,-0.5290132140119871,1.6886862050227249e+18,2.4987246907552083,8.764467557271322,3.882695436477661,-2.0780062675476074,1.6886862050227249e+18,2.4987246907552083,-0.7220427195231119,-1.1718940734863281,-0.4901684435705344,1.6886862050227249e+18,2.4987246907552083,-0.7231117288271586,-1.1674652894337971,-0.4878777116537094,,,,,,,,,,,,1.6886862050238543e+18,2.499854345703125,-44.895999908447266,-20.59847984313965,-7.851919937133789,1.6886862050238543e+18,2.499854345703125,-300.2419921875,74.42732086181641,-140.57571716308593,1.6886862050227249e+18,2.4987246907552083,-0.7503916422526041,-0.08747075746456777,0.21348172922929123,0.6193297902743021,0.23299894233544663,-0.40693796674410504,1.8099228938420613,1.688686205031378e+18,2.5073778483072915,7.416154861450195,0.8017950082818667,-0.5918247799078623
2.5500000000000003,1.688686205074644e+18,2.55064404296875,-2.1516969998677573,-3.962167978286743,0.7653759717941284,1.6886862050746404e+18,2.5506402587890626,6.7932233810424805,-0.8045866191387177,-1.0935199856758118,1.688686205074644e+18,2.55064404296875,9.056921005249023,3.199014107386271,-1.9764188528060913,1.688686205074644e+18,2.55064404296875,-0.8422813415527344,-0.24164811770121253,-1.627243200937907,1.688686205074644e+18,2.55064404296875,-0.843350370724996,-0.23721933861573538,-1.6249524752298992,,,,,,,,,,,,1.6886862050738499e+18,2.549849755859375,-45.39863967895508,-18.661119842529295,-8.925519943237305,1.6886862050738499e+18,2.549849755859375,-300.7446350097656,76.36467742919922,-141.64931640625,1.688686205074644e+18,2.55064404296875,-0.7689041892687479,-0.06655635560552277,0.18385237455368042,0.6085763374964396,0.21499437093734738,-0.33227120836575824,1.8387162288029986,1.6886862050746404e+18,2.5506402587890626,6.787241458892822,-0.7872386276721954,-1.1563315391540527
2.6,1.6886862051265585e+18,2.6025585123697916,-1.9418090184529622,-4.353718280792236,-0.650849183400472,1.6886862051179026e+18,2.593902587890625,7.410771210988362,-1.9954147736231487,-2.2751755317052207,1.6886862051265585e+18,2.6025585123697916,9.347332318623861,2.203923463821411,-1.978938142458598,1.6886862051265585e+18,2.6025585123697916,-1.0516554315884907,-0.29250264664491016,-1.9162333408991497,1.6886862051265585e+18,2.6025585123697916,-1.0527244408925374,-0.28802296519279474,-1.9139425754547117,,,,,,,,,,,,1.688686205123854e+18,2.5998541015625003,-46.87971878051758,-14.608279991149903,-8.783999633789062,1.688686205123854e+18,2.5998541015625003,-302.2257141113281,80.41751861572266,-141.50780029296874,1.6886862051265585e+18,2.6025585123697916,-0.7875723441441854,-0.028877797226111068,0.15014265974362687,0.5967366496721903,0.20876014232635495,-0.22667900224526719,1.8686355352401736,1.6886862051179026e+18,2.593902587890625,7.404788970947266,-1.9780667225519817,-2.3379871447881064
2.6500000000000004,1.6886862051784748e+18,2.654474853515625,-1.6044034957885742,-4.131621281305949,-1.8310004075368245,1.6886862051698237e+18,2.64582373046875,7.617949644724528,-2.9752755165100098,-3.5716866652170816,1.6886862051784748e+18,2.654474853515625,9.54910945892334,1.044637680053711,-1.96050226688385,1.6886862051784748e+18,2.654474853515625,-1.051960865656535,-0.1691587641835213,-2.2205970287323,1.6886862051784748e+18,2.654474853515625,-1.0530298550923665,-0.16472999999920526,-2.218306303024292,,,,,,,,,,,,1.6886862051738514e+18,2.6498513671875,-47.448239135742185,-9.820999717712402,-9.049959945678712,1.6886862051738514e+18,2.6498513671875,-302.7942260742187,85.20479888916016,-141.7737579345703,1.6886862051784748e+18,2.654474853515625,-0.8053664366404215,0.0155041045315253,0.11305729051431013,0.5814167062441508,0.20259104669094077,-0.10673367728789644,1.901875416437785,1.6886862051698237e+18,2.64582373046875,7.61196772257487,-2.957927624384562,-3.634498119354248
2.7,1.688686205230391e+18,2.706390869140625,0.9680658976236979,-2.183532396952311,-2.3250295321146646,1.6886862052217344e+18,2.6977342122395833,9.902497291564941,-2.5986053943634033,-4.26480754216512,1.688686205230391e+18,2.706390869140625,9.542344093322754,-0.3674587408701579,-2.1980786323547363,1.688686205230391e+18,2.706390869140625,-1.5340862274169922,0.9894998868306478,-2.772564649581909,1.688686205230391e+18,2.706390869140625,-1.5351552963256836,0.9939795434474945,-2.7702229817708335,,,,,,,,,,,,1.688686205223852e+18,2.6998520507812502,-48.12411880493164,-4.52131986618042,-7.851919937133789,1.688686205223852e+18,2.6998520507812502,-303.4701171875,90.50447845458984,-140.57571716308593,1.688686205230391e+18,2.706390869140625,-0.8196620941162109,0.07936942577362056,0.08268702278534568,0.5607247948646545,0.2265027662118276,0.03752001871665317,1.93706218401591,1.6886862052217344e+18,2.6977342122395833,9.896514892578125,-2.581257422765096,-4.3276190757751465
2.75,1.6886862052736538e+18,2.7496539306640626,2.755765914916992,-2.2209811210632324,-3.6281121969223022,1.688686205273654e+18,2.749654052734375,11.695120175679525,-3.958127419153849,-6.450252215067546,1.6886862052736538e+18,2.7496539306640626,9.18874216079712,-1.7374882102012634,-2.941557288169861,1.6886862052736538e+18,2.7496539306640626,-2.216906309127808,2.833040237426758,-2.7290403842926025,1.6886862052736538e+18,2.7496539306640626,-2.217975378036499,2.8374691009521484,-2.7267496585845947,,,,,,,,,,,,1.6886862052738524e+18,2.749852587890625,-48.0777587890625,1.5347599625587462,-3.9698798418045045,1.6886862052738524e+18,2.749852587890625,-303.4237487792969,96.56055755615235,-136.6936767578125,1.6886862052736538e+18,2.7496539306640626,-0.8326815068721771,0.15738818049430844,0.081175222992897,0.5242861807346344,0.3100045323371887,0.1781398355960846,1.9895266890525818,1.688686205273654e+18,2.749654052734375,11.689137776692709,-3.940779527028402,-6.513063748677571
2.8000000000000003,1.688686205316916e+18,2.792915934244792,0.9702625274658203,-2.442488670349121,-4.7099043528238935,1.688686205325572e+18,2.8015721842447916,9.612367312113443,-5.407180945078532,-8.539386113484701,1.688686205316916e+18,2.792915934244792,8.614723523457846,-2.9055126508076987,-3.667044242223104,1.688686205316916e+18,2.792915934244792,-1.4485142230987549,1.6258178353309631,-2.075974623362223,1.688686205316916e+18,2.792915934244792,-1.4495832324028015,1.6302466591199238,-2.0736838976542153,,,,,,,,,,,,1.6886862053238508e+18,2.79985078125,-47.09199981689453,6.2854398727417,1.122399951517582,1.6886862053238508e+18,2.79985078125,-302.43800048828126,101.31123962402344,-131.60140075683594,1.688686205316916e+18,2.792915934244792,-0.8382089336713155,0.22906529406706488,0.09031600505113596,0.48620663086573285,0.4026687939961751,0.3008688390254974,2.0282227198282876,1.688686205325572e+18,2.8015721842447916,9.606385231018066,-5.389833132425944,-8.602197329203287
2.85,1.68868620536883e+18,2.8448300781249998,4.3275190989176435,-0.03033932050069173,-4.42621390024821,1.6886862053774856e+18,2.8534852701822917,12.471790631612143,-3.369493087132772,-7.9334031740824384,1.68868620536883e+18,2.8448300781249998,8.103529930114746,-3.808787981669108,-3.9932075341542563,1.68868620536883e+18,2.8448300781249998,-0.42816562453905743,1.4829262693723042,-1.6931148767471313,1.68868620536883e+18,2.8448300781249998,-0.4292346437772115,1.487405925989151,-1.6908241113026936,,,,,,,,,,,,1.688686205373851e+18,2.849850732421875,-45.618238830566405,9.713639831542968,2.874319911003113,1.688686205373851e+18,2.849850732421875,-300.9642272949219,104.73943786621093,-129.84947662353517,1.68868620536883e+18,2.8448300781249998,-0.8331984678904215,0.28151376048723853,0.0863675897320111,0.4677208364009857,0.4581621785958608,0.39886006712913513,2.024013042449951,1.6886862053774856e+18,2.8534852701822917,12.465808232625326,-3.352145195007324,-7.996215025583903
2.9000000000000004,1.6886862054207508e+18,2.896750895182292,0.3806743621826172,2.023875633875529,-1.2212297121683757,1.6886862054293972e+18,2.905397216796875,7.5708909034729,-2.7341986497243247,-6.00139840443929,1.6886862054207508e+18,2.896750895182292,7.238807042439778,-4.584836959838867,-4.7696757316589355,1.6886862054207508e+18,2.896750895182292,-0.7111998796463013,1.6633351345856984,-1.3306172092755635,1.6886862054207508e+18,2.896750895182292,-0.7122688889503479,1.6677639683087666,-1.3283264835675557,,,,,,,,,,,,1.68868620542385e+18,2.899849853515625,-43.517399597167966,13.327279663085937,7.707959842681885,1.68868620542385e+18,2.899849853515625,-298.8633972167969,108.3530776977539,-125.01583709716797,1.6886862054207508e+18,2.896750895182292,-0.8211161295572916,0.344329833984375,0.11115829894940053,0.44120816389719647,0.5828408996264139,0.4864133497079213,2.006706873575846,1.6886862054293972e+18,2.905397216796875,7.564908663431804,-2.716850678126017,-6.064210255940755
2.95,1.6886862054726638e+18,2.948663981119792,3.1558615366617837,2.1660563945770264,-1.9351522127787273,1.6886862054813156e+18,2.9573155110677085,9.44187879562378,-2.870789051055908,-6.629713853200276,1.6886862054726638e+18,2.948663981119792,6.858436902364095,-4.982850392659505,-4.932323932647705,1.6886862054726638e+18,2.948663981119792,-0.42068253954251605,1.2305371661980946,-0.5429064830144247,1.6886862054726638e+18,2.948663981119792,-0.42180245121320087,1.2350168228149414,-0.5406157573064169,,,,,,,,,,,,1.688686205473851e+18,2.949850830078125,-42.4462387084961,14.600959777832031,8.993839836120605,1.688686205473851e+18,2.949850830078125,-297.792236328125,109.6267578125,-123.7299591064453,1.6886862054726638e+18,2.948663981119792,-0.818342129389445,0.3701539635658264,0.11546930919090903,0.4240651528040568,0.6236311594645182,0.5328168670336405,2.0098230044047036,1.6886862054813156e+18,2.9573155110677085,9.435896396636963,-2.853440999984741,-6.692525704701741
3.0,1.6886862055245793e+18,3.000579345703125,-0.9969070752461752,1.7958362897237141,-0.045114994049072245,1.6886862055245793e+18,3.000579345703125,4.760221481323242,-3.4414771795272827,-5.2680981159210205,1.6886862055245793e+18,3.000579345703125,6.273615678151448,-5.249719301859538,-5.412589867909749,1.6886862055245793e+18,3.000579345703125,-0.21197024236122763,1.0361292536060016,-0.6766859690348307,1.6886862055245793e+18,3.000579345703125,-0.21303925414880118,1.0406598150730135,-0.6743952433268229,,,,,,,,,,,,1.6886862055238497e+18,2.999849755859375,-40.74067916870117,15.608679580688477,12.378119659423827,1.6886862055238497e+18,2.999849755859375,-296.0866760253906,110.63447723388671,-120.34567718505859,1.6886862055245793e+18,3.000579345703125,-0.8102977275848389,0.4004529317220052,0.14088588456312812,0.4039123555024465,0.7119832038879395,0.5647079348564148,2.001752018928528,1.6886862055245793e+18,3.000579345703125,4.754239559173584,-3.4241291284561157,-5.330909729003906
3.0500000000000003,1.688686205576495e+18,3.0524951985677085,1.8720262845357258,0.7047457695007324,-0.5918426513671875,1.6886862055678423e+18,3.04384228515625,7.3878397941589355,-4.667200565338135,-5.892525355021159,1.688686205576495e+18,3.0524951985677085,6.046159108479817,-5.510174592336019,-5.41381851832072,1.688686205576495e+18,3.0524951985677085,0.36249761531750363,-0.2664390554030736,-1.0734938581784566,1.688686205576495e+18,3.0524951985677085,0.3614286035299301,-0.2619593739509583,-1.071203092734019,,,,,,,,,,,,1.6886862055738486e+18,3.04984853515625,-39.67928009033203,17.016559600830078,12.483039665222169,1.6886862055738486e+18,3.04984853515625,-295.0252746582031,112.0423583984375,-120.24075622558594,1.688686205576495e+18,3.0524951985677085,-0.7997920711835226,0.41809520125389094,0.13043614228566489,0.4104167520999908,0.730366031328837,0.5964516003926595,1.9593202273050945,1.6886862055678423e+18,3.04384228515625,7.381857872009277,-4.6498526732126875,-5.955336729685466
3.1,1.688686205628409e+18,3.104409342447917,2.306989828745524,1.762849489847819,1.3770898977915447,1.688686205619758e+18,3.0957582194010413,8.00359296798706,-4.165306091308594,-4.536592245101929,1.688686205628409e+18,3.104409342447917,5.719271659851074,-5.625705560048421,-5.645362377166748,1.688686205628409e+18,3.104409342447917,0.48752138515313465,0.4133521417776744,-0.5105306456486384,1.688686205628409e+18,3.104409342447917,0.4864523708820343,0.41778092583020526,-0.5082398951053619,,,,,,,,,,,,1.6886862056238515e+18,3.0998515625,-38.25919952392578,18.785559463500977,13.166239547729493,1.6886862056238515e+18,3.0998515625,-293.6051940917969,113.81135864257813,-119.55755920410157,1.688686205628409e+18,3.104409342447917,-0.7830861806869507,0.43720799684524536,0.13174984355767563,0.42218852043151855,0.7789620757102966,0.6107404430707296,1.8953115542729695,1.688686205619758e+18,3.0957582194010413,7.997610886891683,-4.147958040237427,-4.5994038581848145
3.1500000000000004,1.6886862056803264e+18,3.156326416015625,1.3962184588114421,0.8552785714467367,0.9507308006286621,1.6886862056716705e+18,3.14767041015625,7.802994569142661,-4.363910277684529,-4.578865607579549,1.6886862056803264e+18,3.156326416015625,5.571418444315593,-5.549042383829753,-5.86446746190389,1.6886862056803264e+18,3.156326416015625,-0.4161519557237625,1.339627464612325,0.6103052894274393,1.6886862056803264e+18,3.156326416015625,-0.41722096999486286,1.344107170899709,0.6126469175020853,,,,,,,,,,,,1.688686205673855e+18,3.149855078125,-38.16404037475586,18.522039413452152,14.718079948425293,1.688686205673855e+18,3.149855078125,-293.5100341796875,113.54783935546875,-118.00571746826172,1.6886862056803264e+18,3.156326416015625,-0.7847209771474203,0.4394091268380483,0.15135701994101203,0.4099751611550649,0.811100959777832,0.6012397805849711,1.9140901168187459,1.6886862056716705e+18,3.14767041015625,7.797012646993001,-4.346562385559082,-4.641677061716716
3.2,1.6886862057235855e+18,3.19958544921875,-0.9355788230895996,0.945227861404419,0.23758435249328608,1.6886862057235896e+18,3.1995895182291663,4.3940199216206866,-4.645465850830078,-5.840481440226237,1.6886862057235855e+18,3.19958544921875,5.265527248382568,-5.551553964614868,-6.138459920883179,1.6886862057235855e+18,3.19958544921875,-0.21342104300856585,1.5277739763259888,0.14126258809119455,1.6886862057235855e+18,3.19958544921875,-0.21449005603790278,1.5322027802467346,0.1435533389449119,,,,,,,,,,,,1.6886862057238543e+18,3.19985419921875,-36.9806396484375,17.665599822998047,17.214199829101563,1.6886862057238543e+18,3.19985419921875,-292.3266357421875,112.69139862060547,-115.50959625244141,1.6886862057235855e+18,3.19958544921875,-0.7862349152565002,0.4473527073860168,0.17748752981424326,0.38751102983951563,0.8618936836719513,0.6015523970127106,1.9424226880073547,1.6886862057235896e+18,3.1995895182291663,4.388037999471028,-4.628117720286052,-5.903292814890544
3.25,1.6886862057668516e+18,3.2428514811197915,0.4058238665262858,1.6482007503509521,-0.3054723739624023,1.6886862057755092e+18,3.2515091959635414,5.306084156036377,-4.071387767791748,-6.890132904052734,1.6886862057668516e+18,3.2428514811197915,4.708970546722412,-5.624317328135173,-6.507567087809245,1.6886862057668516e+18,3.2428514811197915,-0.1413643956184387,2.165517250696818,-0.34580062826474506,1.6886862057668516e+18,3.2428514811197915,-0.14243341237306592,2.169996976852417,-0.34350989758968353,,,,,,,,,,,,1.6886862057738532e+18,3.249853076171875,-34.909078979492186,18.09503936767578,20.722919845581053,1.6886862057738532e+18,3.249853076171875,-290.25507202148435,113.12083892822265,-112.0008773803711,1.6886862057668516e+18,3.2428514811197915,-0.7774432500203451,0.4662283658981323,0.20606780548890424,0.36807140707969666,0.9446123043696085,0.6105853120485941,1.9378753105799358,1.6886862057755092e+18,3.2515091959635414,5.300102233886719,-4.0540397961934405,-6.952944437662761
3.3000000000000003,1.6886862058187692e+18,3.2947689615885416,1.4732060432434082,0.8312147458394369,0.1949904759724935,1.6886862058274202e+18,3.3034200846354165,5.1198428471883135,-4.787838617960612,-6.819145838419597,1.6886862058187692e+18,3.2947689615885416,3.711179574330648,-5.639833927154541,-7.110123634338379,1.6886862058187692e+18,3.2947689615885416,0.1984293883045514,2.912198225657145,0.2681189378102621,1.6886862058187692e+18,3.2947689615885416,0.19736037651697794,2.9166778723398843,0.27040967841943103,,,,,,,,,,,,1.688686205823853e+18,3.2998529296875,-31.86883964538574,18.073079299926757,25.695639419555665,1.688686205823853e+18,3.2998529296875,-287.21483154296874,113.0988784790039,-107.02815856933594,1.6886862058187692e+18,3.2947689615885416,-0.7594492435455322,0.492964247862498,0.25989382962385815,0.33501649896303815,1.0896820624669392,0.6125230391820272,1.9321550528208415,1.6886862058274202e+18,3.3034200846354165,5.1138607660929365,-4.770490805308024,-6.881957213083903
3.35,1.688686205870684e+18,3.346683756510417,1.1054716110229492,0.4978295962015788,-1.0841201146443684,1.688686205879331e+18,3.3553311360677083,3.971288045247396,-5.139184792836507,-9.055836995442709,1.688686205870684e+18,3.346683756510417,3.0651548703511557,-5.352909406026204,-7.625829855600993,1.688686205870684e+18,3.346683756510417,0.47937649488449097,1.8302541176478069,0.9900089701016744,1.688686205870684e+18,3.346683756510417,0.47830748558044434,1.8347337643305461,0.9924015204111735,,,,,,,,,,,,1.6886862058738557e+18,3.349855810546875,-29.2385196685791,16.313840103149413,29.445919799804688,1.6886862058738557e+18,3.349855810546875,-284.5845153808594,111.33963623046876,-103.27787628173829,1.688686205870684e+18,3.346683756510417,-0.7502297759056091,0.49282360076904297,0.3174389104048411,0.30545769135157264,1.1885897715886433,0.577251156171163,1.9723774592081706,1.688686205879331e+18,3.3553311360677083,3.9653058846791587,-5.1218368212382,-9.118648211161297
3.4000000000000004,1.6886862059225992e+18,3.3985992838541663,0.642505407333374,-1.0674158732096355,-1.1198255221048992,1.6886862059312479e+18,3.407247802734375,3.1300113995869956,-5.86421012878418,-8.85763104756673,1.6886862059225992e+18,3.3985992838541663,2.6092771689097085,-4.9469865163167315,-8.056326389312744,1.6886862059225992e+18,3.3985992838541663,0.940732479095459,1.4449508587519329,0.4078543583552043,1.6886862059225992e+18,3.3985992838541663,0.9396634499231974,1.4494814078013103,0.4101451138655345,,,,,,,,,,,,1.6886862059238502e+18,3.399850341796875,-27.38411979675293,14.352079772949219,32.481280136108396,1.6886862059238502e+18,3.399850341796875,-282.73011474609376,109.3778793334961,-100.24251861572266,1.6886862059225992e+18,3.3985992838541663,-0.7387011647224426,0.4859271248181661,0.3616459170977275,0.29537066817283625,1.2575101852416992,0.5286425749460856,1.992305318514506,1.6886862059312479e+18,3.407247802734375,3.1240293979644775,-5.846862157185872,-8.920442581176758
3.45,1.688686205974515e+18,3.45051513671875,0.48714391390482586,-0.3059392770131429,0.5394954681396484,1.6886862059745106e+18,3.4505106201171873,3.0469605922698975,-4.765904426574707,-7.756035327911377,1.688686205974515e+18,3.45051513671875,2.464538892110189,-4.407764752705892,-8.40816847483317,1.688686205974515e+18,3.45051513671875,1.1654290358225503,-0.08480844895044963,0.6190101206302643,1.688686205974515e+18,3.45051513671875,1.1643600861231487,-0.08027788003285724,0.6213008761405945,,,,,,,,,,,,1.6886862059738527e+18,3.449852734375,-26.517919540405273,12.097519683837891,34.34299926757812,1.6886862059738527e+18,3.449852734375,-281.863916015625,107.12331848144531,-98.38079681396485,1.688686205974515e+18,3.45051513671875,-0.7303933501243591,0.470250407854716,0.3914430836836497,0.3034240007400512,1.2858339150746663,0.4661148091157277,2.0021100838979087,1.6886862059745106e+18,3.4505106201171873,3.04097843170166,-4.748556613922119,-7.818847179412842
3.5,1.6886862060264307e+18,3.502430908203125,0.5649685064951578,0.48456589380900067,0.8542577425638834,1.688686206017778e+18,3.493777913411458,3.229313611984253,-3.5196427504221597,-7.728218873341878,1.6886862060264307e+18,3.502430908203125,2.7582000096639,-3.9492165247599282,-8.54546324412028,1.6886862060264307e+18,3.502430908203125,0.7420994838078817,-0.4483750909566879,-0.11336641013622284,1.6886862060264307e+18,3.502430908203125,0.7410304347674052,-0.44394632677237195,-0.11107565959294637,,,,,,,,,,,,1.688686206023856e+18,3.4998561523437504,-27.625679779052735,10.028399658203124,34.70411911010742,1.688686206023856e+18,3.4998561523437504,-282.9716735839844,105.05419921875,-98.01967926025391,1.6886862060264307e+18,3.502430908203125,-0.7315165201822916,0.45066256324450177,0.3954329590002696,0.3246319890022278,1.2587017218271892,0.41437118252118427,2.0025037129720054,1.688686206017778e+18,3.493777913411458,3.2233314514160156,-3.5022946993509927,-7.791030565897624
3.5500000000000003,1.6886862060783393e+18,3.554339436848958,-0.49497254689534503,0.7569634119669596,1.8828970591227214,1.6886862060696937e+18,3.5456937662760417,2.4103700319925943,-3.1830523014068604,-6.90070104598999,1.6886862060783393e+18,3.554339436848958,2.6334944566090903,-3.7697694301605225,-8.664829889933268,1.6886862060783393e+18,3.554339436848958,0.49011754989624023,0.335517739256223,-0.6892596085866293,1.6886862060783393e+18,3.554339436848958,0.4890485405921936,0.3399974207083383,-0.6869688630104065,,,,,,,,,,,,1.6886862060738514e+18,3.5498515625000002,-27.728159713745118,9.738039779663087,35.03840026855469,1.6886862060738514e+18,3.5498515625000002,-283.07415161132815,104.76383819580079,-97.68539733886719,1.6886862060783393e+18,3.554339436848958,-0.7198673288027445,0.455282727877299,0.39815622568130493,0.34049202005068463,1.2758312225341797,0.3944595654805501,1.9638195435206096,1.6886862060696937e+18,3.5456937662760417,2.4043879906336465,-3.165704329808553,-6.963512738545735
3.6,1.688686206130263e+18,3.6062629394531247,-0.449347972869873,2.094650904337565,2.447270711263021,1.6886862061216084e+18,3.597608561197917,1.7369898557662964,-1.8911274671554565,-6.282355944315593,1.688686206130263e+18,3.6062629394531247,2.1400131781895957,-3.8980844020843506,-8.74086825052897,1.688686206130263e+18,3.6062629394531247,-0.7213300441702207,1.172148585319519,-0.7447465260823568,1.688686206130263e+18,3.6062629394531247,-0.7223990559577942,1.1766282320022583,-0.742455800374349,,,,,,,,,,,,1.688686206123851e+18,3.5998508300781245,-26.295879745483397,10.73599967956543,35.682559967041016,1.688686206123851e+18,3.5998508300781245,-281.6418762207031,105.76179809570313,-97.04123992919922,1.688686206130263e+18,3.6062629394531247,-0.7039061983426412,0.4761895438035329,0.4051304956277211,0.33686257402102154,1.3309392929077148,0.40871043999989826,1.9261585871378584,1.6886862061216084e+18,3.597608561197917,1.7310077746709187,-1.873779575030009,-6.345167477925618
3.6500000000000004,1.688686206173525e+18,3.6495250244140625,0.6314963102340698,2.3560527563095093,3.0532419681549072,1.6886862061735252e+18,3.649525390625,2.205384890238444,-2.8697919448216758,-5.4179487228393555,1.688686206173525e+18,3.6495250244140625,1.3908740282058716,-4.623095750808716,-8.534775257110596,1.688686206173525e+18,3.6495250244140625,-2.569375514984131,1.708055555820465,-1.121548593044281,1.688686206173525e+18,3.6495250244140625,-2.5704445838928223,1.7124843001365662,-1.1192578673362732,,,,,,,,,,,,1.6886862061738506e+18,3.649850634765625,-22.667599487304688,14.432599639892578,36.31451950073242,1.6886862061738506e+18,3.649850634765625,-278.0135925292969,109.4583969116211,-96.4092788696289,1.688686206173525e+18,3.6495250244140625,-0.6924404203891754,0.5162550508975983,0.40314446389675135,0.30208778381347656,1.409617006778717,0.490922212600708,1.8987199068069458,1.6886862061735252e+18,3.649525390625,2.1994028091430664,-2.852444052696228,-5.480760256449382
3.7,1.6886862062167867e+18,3.6927867024739585,0.4478582541147868,-2.931026299794515,1.4043434460957844,1.6886862062254344e+18,3.7014343261718747,-0.20777679110566774,-9.3513503074646,-7.026922543843587,1.6886862062167867e+18,3.6927867024739585,0.4497857764363289,-5.7806854248046875,-7.895947138468425,1.6886862062167867e+18,3.6927867024739585,-3.047912120819092,1.8218038082122803,-1.1906272570292156,1.6886862062167867e+18,3.6927867024739585,-3.048981189727783,1.8262325922648113,-1.1883365313212078,,,,,,,,,,,,1.6886862062238508e+18,3.6998508300781254,-18.46591911315918,21.559839248657227,35.148199462890624,1.6886862062238508e+18,3.6998508300781254,-273.8119140625,116.58563842773438,-97.57559967041016,1.6886862062167867e+18,3.6927867024739585,-0.6800109148025513,0.5726328094800314,0.3858720560868581,0.24509007732073465,1.515205939610799,0.6308871308962504,1.8500075340270996,1.6886862062254344e+18,3.7014343261718747,-0.21375883743166924,-9.334002494812012,-7.089734077453613
3.75,1.6886862062686994e+18,3.7446994628906247,-3.1542809009552,-2.0109098752339682,-1.2249439557393391,1.6886862062773555e+18,3.7533555501302085,-3.067399263381958,-8.80259625116984,-8.06321414311727,1.6886862062686994e+18,3.7446994628906247,0.017825237785776465,-6.729515552520752,-7.132463296254476,1.6886862062686994e+18,3.7446994628906247,-1.998038371404012,-0.5467753012975057,-0.19909116625785825,1.6886862062686994e+18,3.7446994628906247,-1.9991074403127034,-0.5422956446806589,-0.1968004206816355,,,,,,,,,,,,1.688686206273853e+18,3.7498528808593745,-16.27235984802246,26.068959426879882,33.07419929504395,1.688686206273853e+18,3.7498528808593745,-271.61835327148435,121.09475708007812,-99.64959716796875,1.6886862062686994e+18,3.7446994628906247,-0.6789636611938477,0.6099538604418436,0.35625576972961426,0.19955003261566154,1.5681920846303303,0.7563271323839823,1.815447489420573,1.6886862062773555e+18,3.7533555501302085,-3.073381265004476,-8.785248438517252,-8.126025835673014
3.8000000000000003,1.6886862063206195e+18,3.7966194661458332,-0.595033218463262,-3.512730280558268,-0.08071422576904295,1.688686206329272e+18,3.805272054036459,0.5405785242716471,-10.841081937154135,-6.4582282702128095,1.6886862063206195e+18,3.7966194661458332,0.4934742252031962,-7.3714650472005205,-6.449174722035726,1.6886862063206195e+18,3.7966194661458332,-1.587027907371521,-1.4151202241579692,-0.08221228234469892,1.6886862063206195e+18,3.7966194661458332,-1.5880968968073528,-1.4105896751085918,-0.07987063253919287,,,,,,,,,,,,1.6886862063238556e+18,3.7998556152343754,-19.2223201751709,29.73871955871582,27.515879821777343,1.6886862063238556e+18,3.7998556152343754,-274.5683166503906,124.76451721191407,-105.20791778564453,1.6886862063206195e+18,3.7966194661458332,-0.6992345054944357,0.6193956335385641,0.301753948132197,0.19013899564743042,1.4940850734710696,0.8505007028579712,1.8164726893107097,1.688686206329272e+18,3.805272054036459,0.5345964431762695,-10.823733965555826,-6.521039962768555
3.85,1.6886862063725353e+18,3.8485352376302084,-0.8425121903419495,-2.425675868988037,-1.1425447463989258,1.6886862063811843e+18,3.8571841634114583,-0.08793622255325317,-10.055239041646322,-6.78464921315511,1.6886862063725353e+18,3.8485352376302084,0.5026679933071136,-7.7998948097229,-5.926327228546143,1.6886862063725353e+18,3.8485352376302084,-1.0623455444971721,-0.9264789521694183,-0.854295035203298,1.6886862063725353e+18,3.8485352376302084,-1.0634145935376484,-0.9219992756843567,-0.851953407128652,,,,,,,,,,,,1.6886862063738527e+18,3.8498528320312504,-18.785559463500977,31.978639602661133,24.641559600830078,1.6886862063738527e+18,3.8498528320312504,-274.1315551757813,127.00443878173829,-108.08223876953124,1.6886862063725353e+18,3.8485352376302084,-0.7010560234387716,0.6363852024078369,0.26323199768861133,0.1846374223629633,1.4863428672154744,0.9193312327067057,1.7726928393046062,1.6886862063811843e+18,3.8571841634114583,-0.09391829371452332,-10.037890752156576,-6.847460746765137
3.9000000000000004,1.6886862064244503e+18,3.900450602213542,2.2750691970189414,-1.1870166460673015,1.7304001649220784,1.6886862064244506e+18,3.9004504394531248,3.591925799846649,-9.281759262084961,-3.3699915409088135,1.6886862064244503e+18,3.900450602213542,0.8869825204213461,-8.044137159983316,-5.541444301605225,1.6886862064244503e+18,3.900450602213542,-0.6576473315556844,-1.4110477964083354,0.2431243658065796,1.6886862064244503e+18,3.900450602213542,-0.6587163408597311,-1.4065681000550587,0.24541511634985605,,,,,,,,,,,,1.688686206423853e+18,3.89985302734375,-19.907959365844725,33.45239944458008,21.74771957397461,1.688686206423853e+18,3.89985302734375,-275.253955078125,128.4781982421875,-110.97607879638672,1.6886862064244503e+18,3.900450602213542,-0.7112789948781332,0.6375701824824015,0.21965675055980674,0.1980270495017369,1.4119003613789876,0.9614548881848654,1.7617824872334797,1.6886862064244506e+18,3.9004504394531248,3.585943818092346,-9.264410972595217,-3.432803153991699
3.95,1.6886862064763597e+18,3.9523597819010416,0.12238800525665271,3.1814347902933755,0.9621968269348145,1.6886862064677133e+18,3.943713460286458,1.538983762264252,-6.151149431864421,-3.8608193397521973,1.6886862064763597e+18,3.9523597819010416,0.9782470067342124,-8.337810834248861,-5.067757606506348,1.6886862064763597e+18,3.9523597819010416,-1.840027928352356,0.5896885891755422,-0.020616702114542366,1.6886862064763597e+18,3.9523597819010416,-1.8410969376564026,0.5942191680272421,-0.018325956538319598,,,,,,,,,,,,1.688686206473852e+18,3.9498519042968754,-20.69851951599121,34.18927917480469,19.63955955505371,1.688686206473852e+18,3.9498519042968754,-276.0445068359375,129.21507873535157,-113.08423919677735,1.6886862064763597e+18,3.9523597819010416,-0.7198023796081543,0.6400870879491171,0.2010650237401326,0.17752850552399946,1.3803871472676594,1.0165170431137085,1.7957748572031658,1.6886862064677133e+18,3.943713460286458,1.5330016712347667,-6.133801460266113,-3.923630873362223
4.0,1.6886862065282819e+18,4.004281901041666,-0.9982061584790548,6.259161154429118,1.237777590751648,1.6886862065196257e+18,3.9956258138020835,-0.04426721235116323,-2.919642448425293,-2.7347968419392905,1.6886862065282819e+18,4.004281901041666,0.8200769225756327,-9.120222409566244,-3.45440411567688,1.6886862065282819e+18,4.004281901041666,-4.695262908935547,0.4380921920140584,-0.07035131154892339,1.6886862065282819e+18,4.004281901041666,-4.696331977844238,0.44257185856501263,-0.06806056960097824,,,,,,,,,,,,1.6886862065238508e+18,3.9998506347656244,-20.50575942993164,36.63171920776367,14.161759567260741,1.6886862065238508e+18,3.9998506347656244,-275.85175170898435,131.6575164794922,-118.5620361328125,1.6886862065282819e+18,4.004281901041666,-0.7286509871482849,0.6595261096954346,0.1509852210680643,0.10047534356514609,1.3320191303888957,1.1993934313456218,1.8822642167409258,1.6886862065196257e+18,3.9956258138020835,-0.05024927606185279,-2.902294476826986,-2.7976084550221763
4.05,1.6886862065801976e+18,4.056197591145833,-0.46421924233436584,6.9155605634053545,1.3088773091634114,1.6886862065715438e+18,4.047544108072917,0.24127628405888868,-2.6325036684672036,0.113060861825943,1.6886862065801976e+18,4.056197591145833,0.6523912151654562,-9.714009602864584,-1.0044658780097961,1.6886862065801976e+18,4.056197591145833,-4.841463406880696,0.3983350396156311,-0.4356996367375056,1.6886862065801976e+18,4.056197591145833,-4.842583179473877,0.40281471610069275,-0.4333579937616984,,,,,,,,,,,,1.6886862065738488e+18,4.049848779296875,-20.383759689331054,38.95703964233398,4.521319901943206,1.6886862065738488e+18,4.049848779296875,-275.72975463867186,133.9828369140625,-128.20247802734374,1.6886862065801976e+18,4.056197591145833,0.2414547602335612,-0.23039176066716513,-0.006473497798045465,0.022196632111445,0.8428855439027151,1.4430992603302002,2.4010425408681235,1.6886862065715438e+18,4.047544108072917,0.23529422779877981,-2.6151557763417563,0.0502492586771647
4.1000000000000005,1.688686206623453e+18,4.099452880859375,-1.6897746324539185,1.2935512065887451,0.8342264294624329,1.6886862066234614e+18,4.09946142578125,-1.6245271787047386,-9.900702476501465,2.19960218667984,1.688686206623453e+18,4.099452880859375,0.303569033741951,-9.76877212524414,0.7864368855953217,1.688686206623453e+18,4.099452880859375,-3.6325865983963013,0.009392052888870253,-1.060385674238205,1.688686206623453e+18,4.099452880859375,-3.6336554288864136,0.013897180557251004,-1.058094948530197,,,,,,,,,,,,1.6886862066238484e+18,4.099848486328125,-18.888039779663085,39.5206787109375,-4.523759961128235,1.6886862066238484e+18,4.099848486328125,-274.2340393066406,134.54648132324218,-137.24755859375,1.688686206623453e+18,4.099452880859375,0.7143805027008057,-0.6959151327610016,-0.01245962886605405,0.07039886154234405,-1.1355838775634766,1.4822331070899963,-1.8886386156082153,1.6886862066234614e+18,4.09946142578125,-1.63050926476717,-9.883354584376017,2.136790653069814
4.15,1.688686206666723e+18,4.142723063151042,-5.453877369562785,-20.250614166259766,6.521864732106526,1.6886862066753697e+18,4.151369547526042,-3.4337005615234375,-29.60759162902832,6.401199301083882,1.688686206666723e+18,4.142723063151042,-0.14100424883266285,-9.760011037190756,0.818442111214002,1.688686206666723e+18,4.142723063151042,2.517630179723104,-3.3489668369293213,-0.32996903856595355,1.688686206666723e+18,4.142723063151042,2.516561210155487,-3.3444872299830117,-0.32767829298973083,,,,,,,,,,,,1.6886862066738496e+18,4.149849511718751,-16.057639503479002,40.26975936889649,-7.973919868469238,1.6886862066738496e+18,4.149849511718751,-271.40363159179685,135.295556640625,-140.69771423339844,1.688686206666723e+18,4.142723063151042,0.2329234480857849,-0.2362030545870463,0.005300013348460167,0.048796545714139904,-2.009919047355652,1.482523004213969,-1.1014159123102825,1.6886862066753697e+18,4.151369547526042,-3.4396824836730957,-29.590242385864258,6.338387846946716
4.2,1.6886862067186388e+18,4.194638753255209,6.808974424997966,-0.8974687258402506,0.24203861753145853,1.6886862067272922e+18,4.203291992187499,5.941976865132649,-8.144968827565512,-1.0723833441734314,1.6886862067186388e+18,4.194638753255209,-0.20205580443143845,-9.723716100056967,-1.229950785636902,1.6886862067186388e+18,4.194638753255209,2.9845349391301474,-2.01458274324735,-0.6983717108766238,1.6886862067186388e+18,4.194638753255209,2.983465870221456,-2.010102927684784,-0.6960809603333473,,,,,,,,,,,,1.6886862067238518e+18,4.199852001953125,-14.286199569702148,41.77279968261719,-2.4326799392700194,1.6886862067238518e+18,4.199852001953125,-269.6322021484375,136.79859924316406,-135.15647583007814,1.6886862067186388e+18,4.194638753255209,-0.6922269662221273,0.7142923474311829,-0.012332915018002133,0.09966529409090674,1.7251458565394084,1.4431158304214478,1.257498820622762,1.6886862067272922e+18,4.203291992187499,5.935994704564412,-8.127620855967203,-1.1351949572563171
4.25,1.6886862067705539e+18,4.246553955078125,0.7564717928568522,4.6412553787231445,1.4857231378555298,1.6886862067792044e+18,4.255204345703125,-0.722034235795339,-5.632704416910808,-0.008374874790509579,1.6886862067705539e+18,4.246553955078125,-0.6183496912320455,-9.643294334411621,-1.689786473910014,1.6886862067705539e+18,4.246553955078125,0.0923424524565538,1.482264518737793,-0.33404148121674854,1.6886862067705539e+18,4.246553955078125,0.09127344191074376,1.4867951075236006,-0.33175074060757953,,,,,,,,,,,,1.6886862067738555e+18,4.249855468750001,-12.334199714660645,42.534078979492186,0.39039997309446334,1.6886862067738555e+18,4.249855468750001,-267.6802001953125,137.55988159179688,-132.33339233398436,1.6886862067705539e+18,4.246553955078125,-0.6748135089874268,0.7291417717933655,0.005218114005401733,0.11335372676451998,1.923581878344218,1.3860040505727131,1.0642703374226887,1.6886862067792044e+18,4.255204345703125,-0.7280163168907166,-5.61535660425822,-0.07118647669752441
4.3,1.6886862068224714e+18,4.298471354166667,-2.3490523497263593,-0.24455642700195312,1.3946702480316162,1.6886862068311212e+18,4.307121093749999,-2.8797620137532554,-10.358728726704916,-0.2667997231086095,1.6886862068224714e+18,4.298471354166667,-0.5463264385859171,-9.666756947835287,-1.576400597890218,1.6886862068224714e+18,4.298471354166667,-0.005905030916134535,1.1397218306859334,0.7280495762825012,1.6886862068224714e+18,4.298471354166667,-0.006974046739439198,1.144303321838379,0.730340301990509,,,,,,,,,,,,1.6886862068238523e+18,4.299852294921875,-12.946639823913575,42.09975891113281,1.3224799871444701,1.6886862068238523e+18,4.299852294921875,-268.2926330566406,137.12555541992188,-131.40131530761718,1.6886862068224714e+18,4.298471354166667,-0.6816267172495524,0.7261199156443278,0.026380879804491966,0.0858487486839294,1.9050885438919067,1.3996302286783855,1.1520661513010662,1.6886862068311212e+18,4.307121093749999,-2.885744094848633,-10.341380755106607,-0.3296113253260652
4.3500000000000005,1.6886862068743857e+18,4.350385904947917,-1.124082197745641,-0.2763347625732422,0.3506109118461609,1.6886862068743864e+18,4.35038623046875,-1.501197099685669,-9.93888807296753,-1.1599207818508148,1.6886862068743857e+18,4.350385904947917,-0.3007076879342397,-9.674659729003906,-1.5953526894251506,1.6886862068743857e+18,4.350385904947917,0.017613279943664864,-0.22464569906393686,0.3070616056211292,1.6886862068743857e+18,4.350385904947917,0.016544268776973067,-0.22016601264476776,0.30940324999392027,,,,,,,,,,,,1.6886862068738511e+18,4.349851123046875,-14.493599700927735,41.85575942993164,1.8202399253845214,1.6886862068738511e+18,4.349851123046875,-269.839599609375,136.88155517578124,-130.90355834960937,1.6886862068743857e+18,4.350385904947917,-0.691069483757019,0.7172396580378214,0.030607057114442133,0.08387838800748187,1.7576293150583904,1.4044884045918782,1.308348258336385,1.6886862068743864e+18,4.35038623046875,-1.5071791410446167,-9.921539783477783,-1.2227323651313782
4.4,1.688686206926302e+18,4.402302083333333,1.052071491877238,-0.11482779184977214,-0.37539299329121906,1.6886862069176456e+18,4.3936456705729166,0.6721837520599365,-9.70628547668457,-1.8307087421417236,1.688686206926302e+18,4.402302083333333,-0.3434605896472931,-9.679237365722656,-1.558082898457845,1.688686206926302e+18,4.402302083333333,-0.12090041240056353,-0.6790276169776917,-0.4448117216428121,1.688686206926302e+18,4.402302083333333,-0.12196942418813704,-0.6744970579942068,-0.44247005383173627,,,,,,,,,,,,1.6886862069238515e+18,4.399851611328125,-14.627799797058106,41.92163925170898,1.090679979324341,1.6886862069238515e+18,4.399851611328125,-269.9737915039062,136.9474365234375,-131.63311462402345,1.688686206926302e+18,4.402302083333333,-0.6876689592997233,0.7192925612131754,0.0134623019645611,0.09750567873318983,1.7887807289759319,1.407307505607605,1.2334864536921184,1.6886862069176456e+18,4.3936456705729166,0.6662017007668813,-9.688937505086264,-1.8935203552246094
4.45,1.6886862069782085e+18,4.454208251953125,0.49735697110493976,-0.2187849680582682,0.23853600025177002,1.6886862069695578e+18,4.445557535807292,0.1599203137060006,-9.98205852508545,-1.4311073621114094,1.6886862069782085e+18,4.454208251953125,-0.41765961050987244,-9.678171475728353,-1.547285755475362,1.6886862069782085e+18,4.454208251953125,0.04540765037139257,0.11387546360492706,0.09218974908192952,1.6886862069782085e+18,4.454208251953125,0.044338634548087896,0.11835514257351559,0.09453140199184418,,,,,,,,,,,,1.688686206973845e+18,4.44984501953125,-13.783559799194336,42.10219879150391,0.9930799841880799,1.688686206973845e+18,4.44984501953125,-269.1295532226562,137.12799682617188,-131.7307159423828,1.6886862069782085e+18,4.454208251953125,-0.6840645869572958,0.7220648527145386,0.006434726528823333,0.10312259693940477,1.8360196352005005,1.406599521636963,1.1682668924331665,1.6886862069695578e+18,4.445557535807292,0.15393825247883794,-9.964710553487143,-1.4939189354578655
4.5,1.6886862070301286e+18,4.5061288248697915,-0.46218299865722656,0.0019950866699218668,0.8289071321487427,1.6886862070214748e+18,4.497474934895833,-0.607378159960111,-9.696116129557291,-0.6979066133499146,1.6886862070301286e+18,4.5061288248697915,-0.3646006186803182,-9.675621350606283,-1.5765399932861328,1.6886862070301286e+18,4.5061288248697915,0.0635299868881702,0.3433571755886078,0.06622797499100366,1.6886862070301286e+18,4.5061288248697915,0.06241006590425963,0.34783685207366943,0.06851871808369957,,,,,,,,,,,,1.68868620702385e+18,4.499850146484375,-14.374039840698241,41.96311950683594,1.0296799659729003,1.68868620702385e+18,4.499850146484375,-269.7200439453125,136.98891906738282,-131.6941131591797,1.6886862070301286e+18,4.5061288248697915,-0.6863265236218771,0.7201400399208069,0.010932506062090367,0.1011588796973228,1.7997106313705444,1.4050296545028687,1.2137561241785686,1.6886862070214748e+18,4.497474934895833,-0.6133602062861124,-9.678767840067545,-0.7607182065645853
4.55,1.6886862070733962e+18,4.549396240234375,-0.6930086463689804,0.06172037124633785,0.676301896572113,1.6886862070733934e+18,4.549393391927083,-0.9954142073790232,-9.671789169311523,-0.8502496480941772,1.6886862070733962e+18,4.549396240234375,-0.3946923315525055,-9.675326824188232,-1.5710933804512024,1.6886862070733962e+18,4.549396240234375,-0.03703370504081245,-0.1247692331671715,-0.08155051246285436,1.6886862070733962e+18,4.549396240234375,-0.0381027199327945,-0.12026410177350044,-0.07925976440310475,,,,,,,,,,,,1.6886862070738465e+18,4.549846533203125,-13.966559791564942,41.9777587890625,1.3005199909210206,1.6886862070738465e+18,4.549846533203125,-269.31255493164065,137.00355529785156,-131.42327575683595,1.6886862070733962e+18,4.549396240234375,-0.685258537530899,0.7211760878562927,0.01047525554895395,0.1010697521269321,1.8179962635040283,1.404880166053772,1.1949470043182373,1.6886862070733934e+18,4.549393391927083,-1.0013962586720784,-9.654441197713217,-0.913061261177063
4.6000000000000005,1.6886862071166559e+18,4.59265576171875,0.4644600252310435,-0.1239242553710937,0.32803742090860993,1.6886862071253115e+18,4.601311686197916,0.11904292802015941,-9.749157269795736,-1.1587243874867756,1.6886862071166559e+18,4.59265576171875,-0.4062980810801187,-9.679512659708658,-1.5420713027318318,1.6886862071166559e+18,4.59265576171875,-0.07172575965523717,-0.2199114809433619,-0.0497855183202773,1.6886862071166559e+18,4.59265576171875,-0.07279477516810094,-0.21548271706948674,-0.04749477266644436,,,,,,,,,,,,1.6886862071238487e+18,4.599848828124999,-14.178839683532715,42.17783966064453,1.061400008201599,1.6886862071238487e+18,4.599848828124999,-269.52483520507815,137.20364074707032,-131.6623962402344,1.6886862071166559e+18,4.59265576171875,-0.6841224034627279,0.7216628591219584,0.0034183477594827,0.10566074897845583,1.8296757539113362,1.407473047574361,1.1667141914367676,1.6886862071253115e+18,4.601311686197916,0.1130608717600504,-9.73180898030599,-1.2215360005696614
4.65,1.68868620716857e+18,4.644569986979167,-0.12448450922966003,-0.016570409138997367,0.31376179059346515,1.6886862071772314e+18,4.6532314453125005,-0.6560322145620981,-9.772885958353678,-1.1555339097976685,1.68868620716857e+18,4.644569986979167,-0.40100284417470294,-9.681781768798828,-1.529191493988037,1.68868620716857e+18,4.644569986979167,0.016747888798515003,0.21390464405218756,0.045204027245442,1.68868620716857e+18,4.644569986979167,0.0156788748378555,0.21838433047135664,0.047596583763758304,,,,,,,,,,,,1.6886862071738514e+18,4.64985126953125,-14.449679565429687,42.2363998413086,0.8564399838447571,1.6886862071738514e+18,4.64985126953125,-269.79567260742186,137.26219482421874,-131.8673583984375,1.68868620716857e+18,4.644569986979167,-0.684388796488444,0.721497376759847,0.0030931156749526337,0.1050847172737121,1.8288331429163616,1.4088818629582722,1.1679210662841797,1.6886862071772314e+18,4.6532314453125005,-0.6620142559210459,-9.755537668863932,-1.2183455228805542
4.7,1.6886862072204913e+18,4.696491373697917,-0.34718461831410724,-0.058358510335286405,0.3713354269663493,1.6886862072291397e+18,4.705139404296875,-0.6532405813535055,-9.773284594217936,-1.0867402950922649,1.6886862072204913e+18,4.696491373697917,-0.4074154893557231,-9.681269963582356,-1.5307331879933674,1.6886862072204913e+18,4.696491373697917,0.00040724361315373336,-0.030899600436290062,-0.023823743841300333,1.6886862072204913e+18,4.696491373697917,-0.0006617708131670666,-0.026318109283844603,-0.021532999429230832,,,,,,,,,,,,1.6886862072238484e+18,4.69984833984375,-14.051959800720216,42.20223846435547,1.1053199648857117,1.6886862072238484e+18,4.69984833984375,-269.39796142578126,137.22803649902343,-131.61847534179688,1.6886862072204913e+18,4.696491373697917,-0.6842039227485657,0.7216995159784952,0.00337733894897,0.10488889863093691,1.832117756207784,1.4085841178894043,1.1653179327646892,1.6886862072291397e+18,4.705139404296875,-0.6592226326465607,-9.755936622619629,-1.1495519081751506
4.75,1.6886862072724042e+18,4.748404134114583,0.1395140687624613,-0.06211948394775387,0.4507216215133667,1.688686207281053e+18,4.757052815755208,-0.2921237697203954,-9.762118339538574,-0.9856435259183248,1.6886862072724042e+18,4.748404134114583,-0.41993651787439973,-9.680699348449707,-1.5309568643569946,1.6886862072724042e+18,4.748404134114583,0.0135917514562606,0.018173241987824402,-0.024027366191148702,1.6886862072724042e+18,4.748404134114583,0.012522737806041967,0.022754731277624732,-0.0217366218566894,,,,,,,,,,,,1.6886862072738493e+18,4.74984921875,-14.400879859924316,42.04608001708984,0.8637599945068359,1.6886862072738493e+18,4.74984921875,-269.746875,137.0718780517578,-131.8600341796875,1.6886862072724042e+18,4.748404134114583,-0.6834468245506287,0.7221508622169495,0.0013571004771316334,0.10675511012474694,1.8397318522135417,1.4082210461298625,1.1521719694137573,1.688686207281053e+18,4.757052815755208,-0.29810581604639685,-9.744770050048828,-1.0484551191329956
4.800000000000001,1.6886862073243218e+18,4.800321695963542,-0.19819320241610203,-0.02175076802571617,0.5050353407859802,1.6886862073243218e+18,4.8003217773437505,-0.6101697683334351,-9.693623542785645,-0.9421739280223846,1.6886862073243218e+18,4.800321695963542,-0.4234058658281962,-9.68078899383545,-1.529438058535258,1.6886862073243218e+18,4.800321695963542,0.0035124751739203665,0.0957022234797477,0.02779436794420077,1.6886862073243218e+18,4.800321695963542,0.002443461058040433,0.10018190244833625,0.030085112278660064,,,,,,,,,,,,1.6886862073238533e+18,4.799853125,-14.252039909362793,41.960679626464845,0.9467200040817261,1.6886862073238533e+18,4.799853125,-269.59804077148436,136.986474609375,-131.7770751953125,1.6886862073243218e+18,4.800321695963542,-0.6834569573402405,0.7222740252812704,0.002192408506137567,0.10583889236052824,1.8421441316604614,1.4082752068837483,1.1522525548934937,1.6886862073243218e+18,4.8003217773437505,-0.6161518394947052,-9.676275730133057,-1.0049855411052704
4.8500000000000005,1.6886862073762376e+18,4.8522374674479165,-0.2786665062109629,0.04563426971435547,0.23665595054626462,1.688686207367581e+18,4.843580810546875,-0.7206384142239889,-9.633703231811523,-1.1806585788726807,1.6886862073762376e+18,4.8522374674479165,-0.4222945074240367,-9.682371457417807,-1.5196828842163086,1.6886862073762376e+18,4.8522374674479165,-0.02397646040966107,-0.04500040732091293,-0.0157806851590673,1.6886862073762376e+18,4.8522374674479165,-0.025045475612084034,-0.04052072623744607,-0.013337225032349432,,,,,,,,,,,,1.6886862073738522e+18,4.849852294921876,-14.259359741210938,41.931399536132815,1.027239978313446,1.6886862073738522e+18,4.849852294921876,-269.6053527832031,136.9571960449219,-131.6965576171875,1.6886862073762376e+18,4.8522374674479165,-0.6834591825803121,0.7222181558609009,0.0010646215523592666,0.10622130086024596,1.8428109884262085,1.409298022588094,1.1494438648223877,1.688686207367581e+18,4.843580810546875,-0.7266204953193665,-9.616355260213217,-1.2434701522191365
4.9,1.6886862074281526e+18,4.9041527506510425,-0.0506738722324371,0.050658861796061196,-0.021087646484374962,1.6886862074195008e+18,4.8955009765624995,-0.49312087893486023,-9.683553695678711,-1.4412768681844075,1.6886862074281526e+18,4.9041527506510425,-0.43094507853190095,-9.683009147644043,-1.5131856600443523,1.6886862074281526e+18,4.9041527506510425,-0.0017816899344324673,-0.13164146244525904,-0.031408654525876,1.6886862074281526e+18,4.9041527506510425,-0.002850704515973699,-0.1272126883268356,-0.0291179101914167,,,,,,,,,,,,1.6886862074238538e+18,4.8998538085937495,-14.574119758605956,42.170519256591795,1.295639979839325,1.6886862074238538e+18,4.8998538085937495,-269.92011108398435,137.1963134765625,-131.42815856933595,1.6886862074281526e+18,4.9041527506510425,-0.6827958424886068,0.7225130200386047,-0.0018210341610635002,0.10844605167706804,1.8490622440973918,1.409709890683492,1.1359220743179321,1.6886862074195008e+18,4.8955009765624995,-0.49910293022791546,-9.666206041971842,-1.5040884415308635
4.95,1.6886862074800653e+18,4.956065348307292,0.03711052735646563,-0.08370590209960938,0.18378778298695883,1.6886862074714143e+18,4.9474143880208326,-0.4277170499165852,-9.743175188700357,-1.364706556002299,1.6886862074800653e+18,4.956065348307292,-0.44056394696235657,-9.679452260335287,-1.5330161650975545,1.6886862074800653e+18,4.956065348307292,0.05222897852460537,-0.14380785822868344,-0.05752314378817871,1.6886862074800653e+18,4.956065348307292,0.05115996425350503,-0.13927727192640302,-0.05518149460355437,,,,,,,,,,,,1.6886862074738483e+18,4.949848291015625,-14.19347972869873,42.336439514160155,1.134599995613098,1.6886862074738483e+18,4.949848291015625,-269.53948364257815,137.36223754882812,-131.58919372558594,1.6886862074800653e+18,4.956065348307292,-0.6819009184837341,0.7228423158327738,-0.003920343394080767,0.11177322268486019,1.8514056205749512,1.407467524210612,1.1258399486541748,1.6886862074714143e+18,4.9474143880208326,-0.4336991012096405,-9.725826899210611,-1.427518089612325
5.0,1.6886862075233316e+18,4.999331665039063,0.1974002420902252,-0.21455049514770505,0.794170469045639,1.6886862075233318e+18,4.999331868489583,-0.2618146737416585,-9.902696291605631,-0.7082754969596863,1.6886862075233316e+18,4.999331665039063,-0.45957742631435394,-9.674829006195068,-1.556459367275238,1.6886862075233316e+18,4.999331665039063,0.06047565862536425,-0.05276348721235985,-0.04734205827116961,1.6886862075233316e+18,4.999331665039063,0.059406645596027347,-0.04833471402525895,-0.044974953867495004,,,,,,,,,,,,1.6886862075238523e+18,4.9998522460937505,-13.551759719848633,42.077799224853514,1.1785199761390686,1.6886862075238523e+18,4.9998522460937505,-268.89775390625,137.1035949707031,-131.54527587890624,1.6886862075233316e+18,4.999331665039063,-0.6807426512241364,0.7235187292098999,-0.005056659691035701,0.1143872216343879,1.8588840961456299,1.4045754671096802,1.1130011677742004,1.6886862075233318e+18,4.999331868489583,-0.26779673496882117,-9.885348637898764,-0.771087110042572
5.050000000000001,1.688686207566594e+18,5.04259423828125,0.11269789934158327,-0.17787297566731766,1.060815970102946,1.688686207575248e+18,5.051247802734375,-0.4127619018157323,-9.859226862589518,-0.44865424434343976,1.688686207566594e+18,5.04259423828125,-0.4565301537513733,-9.674018859863281,-1.5623869101206462,1.688686207566594e+18,5.04259423828125,0.0151189143459002,0.11489356930057204,0.03792455047369,1.688686207566594e+18,5.04259423828125,0.014049901006122434,0.11937325075268744,0.0402152948081493,,,,,,,,,,,,1.6886862075738514e+18,5.049851318359375,-13.415119743347168,42.09243927001953,1.5762399673461913,1.6886862075738514e+18,5.049851318359375,-268.7611083984375,137.11823425292968,-131.14755249023438,1.688686207566594e+18,5.04259423828125,-0.6808950503667196,0.7234358588854471,-0.004218468675389833,0.11403428763151163,1.8563677072525024,1.4040545622507732,1.1172109047571819,1.688686207575248e+18,5.051247802734375,-0.41874396800994873,-9.841878890991211,-0.511465847492218
5.1000000000000005,1.6886862076185078e+18,5.0945078125,-0.3166494468847911,-0.020420074462890597,0.5609000325202942,1.6886862076271657e+18,5.103165445963541,-0.7780661582946777,-9.677372296651205,-1.0693923234939575,1.6886862076185078e+18,5.0945078125,-0.4437333246072133,-9.678729693094889,-1.5366486708323162,1.6886862076185078e+18,5.0945078125,-0.0556905480722586,0.10761409749587374,0.049887329339981,1.6886862076185078e+18,5.0945078125,-0.0567595635851224,0.11219558368126548,0.05222897852460537,,,,,,,,,,,,1.6886862076238548e+18,5.099855029296875,-12.585519981384277,41.96800003051758,2.149639916419983,1.6886862076238548e+18,5.099855029296875,-267.9315185546875,136.9937957763672,-130.57415466308595,1.6886862076185078e+18,5.0945078125,-0.6819322307904562,0.7229886651039124,-0.0025006704963743335,0.11067459483941393,1.8531503280003865,1.4069844484329224,1.1276772022247314,1.6886862076271657e+18,5.103165445963541,-0.7840482195218405,-9.660024642944336,-1.1322039167086284
5.15,1.6886862076704305e+18,5.1464301757812505,-0.3083016574382782,0.09119447072346999,-0.224125583966573,1.6886862076790828e+18,5.155082926432292,-0.7042874693870544,-9.63828976949056,-1.7202400763829548,1.6886862076704305e+18,5.1464301757812505,-0.43413493037223816,-9.683465003967285,-1.5093502203623455,1.6886862076704305e+18,5.1464301757812505,-0.035531994576255437,-0.04993823450058693,0.0050396385292212,1.6886862076704305e+18,5.1464301757812505,-0.0366010094682375,-0.045458556540931234,0.0073812884899477,,,,,,,,,,,,1.6886862076738493e+18,5.149849560546875,-13.5810396194458,42.04119873046875,1.9080799341201782,1.6886862076738493e+18,5.149849560546875,-268.9270385742187,137.06699829101564,-130.8157165527344,1.6886862076704305e+18,5.1464301757812505,-0.6825048327445984,0.7226219971974691,-0.0032566181228806334,0.10951594760020571,1.8517069816589355,1.4099969069163005,1.129713495572408,1.6886862076790828e+18,5.155082926432292,-0.7102695107460022,-9.620941480000814,-1.7830516894658406
5.2,1.6886862077223424e+18,5.19834228515625,0.00038050611813863583,-0.08447106679280597,-0.015801270802815764,1.688686207730991e+18,5.206991048177083,-0.41655054688453674,-9.783055305480957,-1.3521442015965779,1.6886862077223424e+18,5.19834228515625,-0.44291667143503827,-9.682076772054037,-1.5156804323196411,1.6886862077223424e+18,5.19834228515625,0.028201612023015767,-0.06164648508032159,-0.042760567118724134,1.6886862077223424e+18,5.19834228515625,0.02713259868323797,-0.057217711582779836,-0.040469822784264836,,,,,,,,,,,,1.688686207723853e+18,5.199853173828125,-13.437079620361327,42.14855804443359,1.019919991493225,1.688686207723853e+18,5.199853173828125,-268.78306884765624,137.17435607910156,-131.70387573242186,1.6886862077223424e+18,5.19834228515625,-0.6819026072820028,0.7229123115539551,-0.0047098604651788336,0.11128390332063037,1.8557382822036743,1.4091280698776245,1.1210915644963582,1.688686207730991e+18,5.206991048177083,-0.422532598177592,-9.76570733388265,-1.414955774943034
5.25,1.6886862077742574e+18,5.250257568359374,-0.2162562608718872,0.07351525624593098,0.5178308089574178,1.6886862077742582e+18,5.250258300781249,-0.6684948205947876,-9.629017353057861,-0.9349954426288605,1.6886862077742574e+18,5.250257568359374,-0.4458213647206624,-9.680342038472494,-1.5258825620015461,1.6886862077742574e+18,5.250257568359374,0.011657345244505735,-0.0544688167671362,0.0242818935463826,1.6886862077742574e+18,5.250257568359374,0.0105883309151977,-0.04998913841942943,0.026572638036062333,,,,,,,,,,,,1.688686207773851e+18,5.249850830078126,-13.532239532470703,42.141239929199216,1.034559965133667,1.688686207773851e+18,5.249850830078126,-268.87824096679685,137.1670379638672,-131.6892333984375,1.6886862077742574e+18,5.250257568359374,-0.6815247734387716,0.723004957040151,-0.0057182155239084995,0.11293673018614443,1.8556544383366902,1.4080345630645752,1.117378870646159,1.6886862077742582e+18,5.250258300781249,-0.6744768917560577,-9.611669540405273,-0.9978070557117462
5.300000000000001,1.6886862078261696e+18,5.302169677734375,-0.3610629737377167,-0.021082878112792927,0.5862430334091187,1.6886862078175204e+18,5.2935202636718754,-0.8029913902282715,-9.664410909016928,-0.8650053938229879,1.6886862078261696e+18,5.302169677734375,-0.4392001728216807,-9.681456883748373,-1.5207154750823975,1.6886862078261696e+18,5.302169677734375,-0.008246680876860934,-0.062206444640954296,-0.03217223472893237,1.6886862078261696e+18,5.302169677734375,-0.009315694992740866,-0.05772676567236577,-0.0298814916362365,,,,,,,,,,,,1.688686207823852e+18,5.2998521484375,-14.039759635925293,42.35595932006836,1.010159969329834,1.688686207823852e+18,5.2998521484375,-269.3857482910156,137.3817565917969,-131.71363830566406,1.6886862078261696e+18,5.302169677734375,-0.6815712451934814,0.7227360407511393,-0.0074762666287521,0.11426780869563417,1.8522380590438843,1.4087602297465007,1.1164016723632812,1.6886862078175204e+18,5.2935202636718754,-0.8089734315872192,-9.647063573201498,-0.9278169671694437
5.3500000000000005,1.6886862078780887e+18,5.354088541666666,-0.03704492251078286,-0.062056541442871066,0.5938078761100769,1.6886862078694362e+18,5.3454361979166665,-0.5788636803627014,-9.781460444132486,-0.8721838593482971,1.6886862078780887e+18,5.354088541666666,-0.4732878903547923,-9.681161244710287,-1.5123281876246135,1.6886862078780887e+18,5.354088541666666,-0.015118914811561433,-0.06393722817301746,-0.07717264443635936,1.6886862078780887e+18,5.354088541666666,-0.0161879290826618,-0.0594575516879558,-0.07488189637660976,,,,,,,,,,,,1.6886862078738499e+18,5.349849755859375,-13.466359710693359,42.324239349365236,1.198039984703064,1.6886862078738499e+18,5.349849755859375,-268.812353515625,137.35003967285155,-131.5257568359375,1.6886862078780887e+18,5.354088541666666,-0.6801793376604716,0.7239086230595907,-0.0091158884267012,0.11501614997784293,1.8742224375406902,1.4085837602615356,1.091014305750529,1.6886862078694362e+18,5.3454361979166665,-0.5848457217216492,-9.76411215464274,-0.934995432694753
5.4,1.6886862079300042e+18,5.406004231770833,0.17824315031369528,-0.12815189361572263,0.511895497639974,1.6886862079213478e+18,5.397348063151042,-0.31625139713287354,-9.799406369527182,-0.8805587291717529,1.6886862079300042e+18,5.406004231770833,-0.48737948139508563,-9.683859189351399,-1.4904357592264812,1.6886862079300042e+18,5.406004231770833,-0.04754567891359324,-0.08399397134780884,-0.011708250269293766,1.6886862079300042e+18,5.406004231770833,-0.0486146931846936,-0.0795651997129122,-0.0094175056243936,,,,,,,,,,,,1.6886862079238508e+18,5.399850830078125,-13.749399757385254,42.216879272460936,0.8344799876213074,1.6886862079238508e+18,5.399850830078125,-269.09539794921875,137.2426788330078,-131.88931579589843,1.6886862079300042e+18,5.406004231770833,-0.6794997453689575,0.7243818640708923,-0.011696312576532334,0.11581719666719432,1.8872120777765906,1.4102774063746135,1.0732197364171345,1.6886862079213478e+18,5.397348063151042,-0.3222334484259287,-9.782058397928873,-0.9433703223864237
5.45,1.688686207973264e+18,5.449263671875,0.0779074281454086,-0.0211191177368164,0.1787454485893249,1.6886862079732675e+18,5.449267496744792,-0.4075774649779002,-9.74736213684082,-1.2225329478581746,1.688686207973264e+18,5.449263671875,-0.4731853604316711,-9.687302589416504,-1.4725400805473328,1.688686207973264e+18,5.449263671875,-0.025809056125581202,0.013439035508781701,0.0438295826315879,1.688686207973264e+18,5.449263671875,-0.026878071948885852,0.0179441673171822,0.046120326966047245,,,,,,,,,,,,1.6886862079738473e+18,5.449847216796875,-13.539559745788575,42.3169189453125,0.9637999773025513,1.6886862079738473e+18,5.449847216796875,-268.885546875,137.34271850585938,-131.76000061035157,1.688686207973264e+18,5.449263671875,-0.6800186336040497,0.7238734066486359,-0.012942323461174951,0.11582075431942934,1.8822823762893677,1.4124717712402344,1.0763854384422302,1.6886862079732675e+18,5.449267496744792,-0.41355950633684796,-9.73001480102539,-1.2853445609410603
5.5,1.688686208016527e+18,5.4925270182291674,-0.18944105505943296,0.0130033493041992,0.1441222826639811,1.6886862080251794e+18,5.501179524739584,-0.6482555468877157,-9.718050320943197,-1.2141580979029338,1.688686208016527e+18,5.4925270182291674,-0.46466051538785297,-9.687826156616211,-1.4718152284622192,1.688686208016527e+18,5.4925270182291674,0.017664187311311235,0.042556946476300504,0.012166398887832934,1.688686208016527e+18,5.4925270182291674,0.016595172036128703,0.0470366242031256,0.014508049935102435,,,,,,,,,,,,1.6886862080238518e+18,5.499851953125,-13.62251968383789,42.324239349365236,0.5685199856758117,1.6886862080238518e+18,5.499851953125,-268.96851806640626,137.35003662109375,-132.15527954101563,1.688686208016527e+18,5.4925270182291674,-0.6804166237513224,0.7235749165217081,-0.0124897978579004,0.11539748559395467,1.8770676453908284,1.4128186305363972,1.0828506151835124,1.6886862080251794e+18,5.501179524739584,-0.6542375882466634,-9.700702349344889,-1.2769696712493896
5.550000000000001,1.6886862080684472e+18,5.544447265625,-0.003982265790303567,-0.13264211018880206,0.5380487442016602,1.6886862080770982e+18,5.553098307291666,-0.4323032895723979,-9.828120231628418,-0.8428717652956644,1.6886862080684472e+18,5.544447265625,-0.47703848282496136,-9.685351371765137,-1.484086513519287,1.6886862080684472e+18,5.544447265625,0.0320704244077205,0.004734205625330434,-0.0263181114569306,1.6886862080684472e+18,5.544447265625,0.03100141075750187,0.009213884361088267,-0.024027366191148702,,,,,,,,,,,,1.688686208073855e+18,5.54985498046875,-13.527359962463379,42.26323776245117,0.9198799848556518,1.688686208073855e+18,5.54985498046875,-268.87335205078125,137.28903503417968,-131.80391845703124,1.6886862080684472e+18,5.544447265625,-0.6799140969912211,0.724016527334849,-0.011923413413266267,0.11564944932858144,1.8821977376937866,1.4112279812494914,1.0781574646631877,1.6886862080770982e+18,5.553098307291666,-0.43828534086545307,-9.810772260030111,-0.9056833783785502
5.6000000000000005,1.6886862081203607e+18,5.596360758463542,0.004943460226058964,-0.05433940887451166,0.5113446911176046,1.6886862081290145e+18,5.6050145670572915,-0.5138586560885111,-9.740981419881185,-0.9581260879834493,1.6886862081203607e+18,5.596360758463542,-0.47041085362434387,-9.68548838297526,-1.485298713048299,1.6886862081203607e+18,5.596360758463542,0.00030543273896913346,0.0207185130566358,0.04296418900291119,1.6886862081203607e+18,5.596360758463542,-0.0007635816000401665,0.025198191714783467,0.0452549333373705,,,,,,,,,,,,1.688686208123852e+18,5.599851904296875,-13.878719711303711,42.39011840820312,0.6783199727535247,1.688686208123852e+18,5.599851904296875,-269.2247253417969,137.4159149169922,-132.04547729492188,1.6886862081203607e+18,5.596360758463542,-0.6801393230756124,0.7237935662269592,-0.0118690781916181,0.115725872417291,1.8780632019042969,1.411303718884786,1.0822609265645344,1.6886862081290145e+18,5.6050145670572915,-0.5198407173156738,-9.723633448282877,-1.0209376414616902
5.65,1.6886862081722785e+18,5.6482783203124995,-0.29724059502283734,0.06457742055257157,0.28513093789418537,1.6886862081809236e+18,5.656923502604166,-0.7523433168729147,-9.646265665690104,-1.1617153882980347,1.6886862081722785e+18,5.6482783203124995,-0.4565619230270386,-9.687356313069662,-1.477430025736491,1.6886862081722785e+18,5.6482783203124995,-0.0099265603348612,-0.0030034208515038324,0.010791953032215399,1.6886862081722785e+18,5.6482783203124995,-0.0109955742955207,0.001527163820962102,0.013133603148162365,,,,,,,,,,,,1.6886862081738532e+18,5.649852978515625,-13.59567985534668,42.28275909423828,1.0882399797439575,1.6886862081738532e+18,5.649852978515625,-268.94166870117186,137.30856018066407,-131.63555603027345,1.6886862081722785e+18,5.6482783203124995,-0.6807353099187216,0.7232948939005533,-0.0119463078056772,0.11533123751481371,1.8709113200505574,1.412519375483195,1.0898733536402385,1.6886862081809236e+18,5.656923502604166,-0.7583253582318624,-9.628917694091797,-1.2245269616444905
5.7,1.6886862082241892e+18,5.7001892089843755,0.024356921513875297,-0.05921999613444007,0.2218893369038899,1.6886862082241874e+18,5.7001875,-0.4345964044332504,-9.75942611694336,-1.1979068517684937,1.6886862082241892e+18,5.7001892089843755,-0.47127993901570636,-9.686988512674967,-1.475205421447754,1.6886862082241892e+18,5.7001892089843755,0.0049378275871276665,-0.04418591844538843,-0.0536543304721514,1.6886862082241892e+18,5.7001892089843755,0.0038688130831966336,-0.03965533524751657,-0.051312680045763594,,,,,,,,,,,,1.6886862082238505e+18,5.6998505859375,-13.803079795837402,42.28519897460937,0.7344399809837341,1.6886862082238505e+18,5.6998505859375,-269.14906616210936,137.31099853515624,-131.9893585205078,1.6886862082241892e+18,5.7001892089843755,-0.6800680359204611,0.723785936832428,-0.012996881889800199,0.1160701215267181,1.880253831545512,1.4122920036315918,1.0779798825581868,1.6886862082241874e+18,5.7001875,-0.4405784606933594,-9.742078304290771,-1.2607184648513794
5.75,1.6886862082761093e+18,5.752109375,0.0608340303103129,-0.09788417816162105,0.39923906326293945,1.6886862082674557e+18,5.743455647786458,-0.368295282125473,-9.79820982615153,-1.0388838251431782,1.6886862082761093e+18,5.752109375,-0.4810371994972229,-9.68601163228353,-1.4784773190816243,1.6886862082761093e+18,5.752109375,0.012777264850834934,-0.013642656849697165,0.008399397134780866,1.6886862082761093e+18,5.752109375,0.011708250579734568,-0.009162978734821067,0.010741046940286934,,,,,,,,,,,,1.688686208273852e+18,5.7498520019531245,-13.732319831848145,42.39255828857422,0.6368399858474731,1.688686208273852e+18,5.7498520019531245,-269.07830810546875,137.418359375,-132.08695373535156,1.6886862082761093e+18,5.752109375,-0.67959197362264,0.7241327961285909,-0.0134290717542171,0.11664537340402596,1.8857845465342205,1.4116476774215698,1.071009596188863,1.6886862082674557e+18,5.743455647786458,-0.3742773433526357,-9.780861854553223,-1.101695458094279
5.800000000000001,1.6886862083280243e+18,5.804024332682292,-0.15356795986493427,-0.035059611002604164,0.39993782838185626,1.6886862083193695e+18,5.795369466145833,-0.6137590010960897,-9.756335576375326,-1.0143573880195618,1.6886862083280243e+18,5.804024332682292,-0.4708227018515268,-9.686223983764648,-1.480372428894043,1.6886862083280243e+18,5.804024332682292,0.008093964618941067,-0.0670933673779169,0.004225151593952134,1.6886862083280243e+18,5.804024332682292,0.0070249503478407,-0.06261368840932843,0.0065158960254242,,,,,,,,,,,,1.6886862083238513e+18,5.7998513671875,-13.966559600830077,42.336439514160155,0.7393200039863587,1.6886862083238513e+18,5.7998513671875,-269.31255493164065,137.36223754882812,-131.98447875976564,1.6886862083280243e+18,5.804024332682292,-0.6797837615013123,0.7237517635027567,-0.014414119844635268,0.11776855587959284,1.8791131178538005,1.4117879470189412,1.0746777455012004,1.6886862083193695e+18,5.795369466145833,-0.6197410623232523,-9.738987604777018,-1.0771690209706624
5.8500000000000005,1.6886862083799365e+18,5.855936360677084,-0.06356792648633317,-0.009934107462565067,0.38921844959259033,1.6886862083712847e+18,5.847284423828125,-0.5170490841070811,-9.702497164408365,-1.0087741414705913,1.6886862083799365e+18,5.855936360677084,-0.4700949092706044,-9.685825983683268,-1.4832124312718709,1.6886862083799365e+18,5.855936360677084,0.014100806477169133,0.014609860101093835,0.0013744467287323998,1.6886862083799365e+18,5.855936360677084,0.0130317918956279,0.01908953868163127,0.0036651914706453,,,,,,,,,,,,1.6886862083738506e+18,5.84985078125,-13.6981595993042,42.13635940551758,0.8930399894714356,1.6886862083738506e+18,5.84985078125,-269.0441589355469,137.1621551513672,-131.83075866699218,1.6886862083799365e+18,5.855936360677084,-0.6797132094701132,0.7237169146537781,-0.014806098615129734,0.1183409343163172,1.878089388211568,1.4115321636199951,1.0743248065312703,1.6886862083712847e+18,5.847284423828125,-0.5230311552683512,-9.685149192810059,-1.071585734685262
5.9,1.6886862084232026e+18,5.8992025146484375,-0.0913190096616745,-0.04922437667846675,0.25153994560241694,1.688686208423198e+18,5.899198079427084,-0.5527420341968536,-9.747561772664389,-1.1595219771067302,1.6886862084232026e+18,5.8992025146484375,-0.4738493114709854,-9.685518741607666,-1.4840185046195984,1.6886862084232026e+18,5.8992025146484375,0.00045814900659024986,-0.03275764780119055,-0.01779145002365105,1.6886862084232026e+18,5.8992025146484375,-0.0006108652451075501,-0.02825251827016465,-0.0154243474826216,,,,,,,,,,,,1.6886862084238518e+18,5.899851904296876,-13.85431957244873,42.11439971923828,0.8905999541282654,1.6886862084238518e+18,5.899851904296876,-269.2003112792969,137.14019775390625,-131.83319702148438,1.6886862084232026e+18,5.8992025146484375,-0.6795610785484314,0.7238451540470123,-0.0148597629740834,0.1184233985841274,1.880182147026062,1.411338448524475,1.0720365047454834,1.688686208423198e+18,5.899198079427084,-0.5587240854899088,-9.73021380106608,-1.222333590189616
5.95,1.6886862084664658e+18,5.942465738932292,0.02681866288185117,-0.020801862080891898,0.28761855761210126,1.6886862084751176e+18,5.9511174316406255,-0.4512464602788289,-9.714461008707682,-1.1204391717910767,1.6886862084664658e+18,5.942465738932292,-0.4759351114432017,-9.685526529947916,-1.4833074808120728,1.6886862084664658e+18,5.942465738932292,0.0058032197412103,-0.016747888798515003,-0.00015271623851733328,1.6886862084664658e+18,5.942465738932292,0.004734205547720166,-0.012268210450808168,0.0021380285422007007,,,,,,,,,,,,1.6886862084738506e+18,5.949850830078125,-13.947039794921874,42.17295837402344,0.517279988527298,1.6886862084738506e+18,5.949850830078125,-269.29303588867185,137.19875793457032,-132.2065185546875,1.6886862084664658e+18,5.942465738932292,-0.679379940032959,0.7239067355791727,-0.015538971250255868,0.11899794141451515,1.8816357851028442,1.4113393227259319,1.068796197573344,1.6886862084751176e+18,5.9511174316406255,-0.45722852150599164,-9.697113037109375,-1.1832507848739624
