seconds_elapsed_rounded,accelerometer_time,accelerometer_seconds_elapsed,accelerometer_z,accelerometer_y,accelerometer_x,accelerometeruncalibrated_time,accelerometeruncalibrated_seconds_elapsed,accelerometeruncalibrated_z,accelerometeruncalibrated_y,accelerometeruncalibrated_x,gravity_time,gravity_seconds_elapsed,gravity_z,gravity_y,gravity_x,gyroscope_time,gyroscope_seconds_elapsed,gyroscope_z,gyroscope_y,gyroscope_x,gyroscopeuncalibrated_time,gyroscopeuncalibrated_seconds_elapsed,gyroscopeuncalibrated_z,gyroscopeuncalibrated_y,gyroscopeuncalibrated_x,location_time,location_seconds_elapsed,location_bearingAccuracy,location_speedAccuracy,location_verticalAccuracy,location_horizontalAccuracy,location_speed,location_bearing,location_altitude,location_longitude,location_latitude,magnetometer_time,magnetometer_seconds_elapsed,magnetometer_z,magnetometer_y,magnetometer_x,magnetometeruncalibrated_time,magnetometeruncalibrated_seconds_elapsed,magnetometeruncalibrated_z,magnetometeruncalibrated_y,magnetometeruncalibrated_x,orientation_time,orientation_seconds_elapsed,orientation_qz,orientation_qy,orientation_qx,orientation_qw,orientation_roll,orientation_pitch,orientation_yaw
0.0,1.688686217517069e+18,14.993069173177082,0.0234055519104003,0.0287278493245442,0.0481002330780029,1.688686217525716e+18,15.001715901692709,-0.5292126139005026,-9.692925771077476,-1.2293126185735066,1.688686217517069e+18,14.993069173177082,-0.5632498264312744,-9.7073392868042,-1.2986246744791667,1.6886862175300475e+18,15.006047444661457,-0.0082466808768609,0.0066686117400725,0.015169820593049,1.6886862175300475e+18,15.006047444661457,-0.0093156949927408,0.011148290708661,0.0174605650827288,,,,,,,,,,,,1.6886862175238472e+18,14.999847216796876,-12.824639892578125,42.43891906738281,-0.2220399916172027,1.6886862175238472e+18,14.999847216796876,-268.17063598632814,137.46471557617187,-132.94583740234376,1.688686217517069e+18,14.993069173177082,-0.6718043486277262,0.7251012722651163,-0.0540651666621366,0.1413648774226506,1.979902386665344,1.426020264625549,0.8836909135182699
0.05,1.6886862175689838e+18,15.044983642578124,-0.0371874769528706,0.1220073699951171,-0.1666692097981771,1.6886862175776348e+18,15.053634928385415,-0.5782654682795206,-9.609775225321451,-1.4558331569035847,1.6886862175689838e+18,15.044983642578124,-0.5600845416386923,-9.708295504252115,-1.2928284406661987,1.6886862175733158e+18,15.049315795898435,-0.0250454759225248,-0.0213039254304021,0.0002290743868798,1.6886862175733158e+18,15.049315795898435,-0.0261144898831844,-0.0167987945606001,0.002519819070585,,,,,,,,,,,,1.688686217573847e+18,15.049846972656251,-13.13451976776123,42.36083984375,-0.2025199934840202,1.688686217573847e+18,15.049846972656251,-268.4805114746094,137.3866424560547,-132.926318359375,1.6886862175689838e+18,15.044983642578124,-0.6719794869422913,0.7249812483787537,-0.0541827417910098,0.1411028603712717,1.9794813791910808,1.4266979297002156,0.8843255639076233
0.1,1.688686217620899e+18,15.096898925781252,0.1509808401266733,0.0617052714029947,-0.4677654504776001,1.6886862176295506e+18,15.105550374348958,-0.3908277054627736,-9.682357470194498,-1.6548362572987874,1.688686217620899e+18,15.096898925781252,-0.5729786356290182,-9.708811442057293,-1.2832577228546145,1.6886862176165732e+18,15.09257316080729,-0.0283034221890071,-0.1299615825215975,-0.0632245528201261,1.6886862176165732e+18,15.09257316080729,-0.0293724375466505,-0.1254309937357902,-0.0609338084856669,,,,,,,,,,,,1.6886862176238464e+18,15.099846630859377,-13.246759796142578,42.60239944458008,-0.2122799932956695,1.6886862176238464e+18,15.099846630859377,-268.5927490234375,137.6281982421875,-132.9360778808594,1.688686217620899e+18,15.096898925781252,-0.671237587928772,0.7252708077430725,-0.0563224864502747,0.1422979881366093,1.9905977249145508,1.4270645380020142,0.8684378266334534
0.15,1.6886862176728143e+18,15.148814290364584,0.2757849593957265,-0.0471490224202473,0.0059665044148763,1.6886862176814676e+18,15.15746769205729,-0.3028914630413055,-9.77547804514567,-1.118245800336202,1.6886862176728143e+18,15.148814290364584,-0.582727869351705,-9.706836382548014,-1.2937790950139365,1.688686217668489e+18,15.144488850911458,0.0237219336753089,-0.1029307941595712,-0.0166460784773031,1.688686217668489e+18,15.144488850911458,0.022652919559429,-0.0984511127074559,-0.0143553327458599,,,,,,,,,,,,1.6886862176738468e+18,15.149846728515628,-13.207719802856444,42.37303848266602,-0.1610399961471557,1.6886862176738468e+18,15.149846728515628,-268.55372314453126,137.39883422851562,-132.8848388671875,1.6886862176728143e+18,15.148814290364584,-0.6702976226806641,0.7254412372907003,-0.0585126355290412,0.1449554413557052,1.99388055006663,1.4256645838419597,0.8581963181495667
0.2,1.6886862177247304e+18,15.200730224609377,0.1934833029905954,-0.0212624867757161,0.3474720915158589,1.68868621772473e+18,15.200730102539062,-0.3837489336729049,-9.749855041503906,-0.8620143532752991,1.6886862177247304e+18,15.200730224609377,-0.5720114906628927,-9.706202507019045,-1.3032805522282918,1.6886862177204042e+18,15.196404459635415,0.0122682102179775,-0.0212275671462217,0.0205657963330546,1.6886862177204042e+18,15.196404459635415,0.0111991958692669,-0.0167478891477609,0.0228565409779548,1.6886862177477412e+18,15.2237412109375,0.0,0.0,1.0179662704467771,12.006999969482422,0.2648318409919739,178.18212890625,40.20000076293945,-122.7532054,49.1903595,1.688686217723845e+18,15.199844970703126,-13.061319732666016,42.46331939697266,-0.3220799818634987,1.688686217723845e+18,15.199844970703126,-268.4073181152344,137.48912048339844,-133.0458740234375,1.6886862177247304e+18,15.200730224609377,-0.6704700390497843,0.7250385085741679,-0.0588523310919602,0.1460326214631398,1.9842820167541504,1.4252160390218098,0.8657598892847697
0.25,1.6886862177766449e+18,15.252644694010415,-0.0634221235911051,0.0553639729817707,-0.0394380092620849,1.6886862177679916e+18,15.243991536458331,-0.5643073419729868,-9.679765065511068,-1.229113221168518,1.6886862177766449e+18,15.252644694010415,-0.5496026277542114,-9.707853635152182,-1.3006178935368855,1.68868621777232e+18,15.248320068359376,-0.0026979881028334,0.017155132566889,0.0483092591166495,1.68868621777232e+18,15.248320068359376,-0.0037670021411031,0.0215839048226673,0.0506509083012739,,,,,,,,,,,,1.6886862177738452e+18,15.24984521484375,-12.64407958984375,42.39255981445312,-0.2025200009346008,1.6886862177738452e+18,15.24984521484375,-267.9900756835938,137.418359375,-132.926318359375,1.6886862177766449e+18,15.252644694010415,-0.6713524063428243,0.7242672244707743,-0.0586515913407007,0.1458865900834401,1.9705122311909993,1.4263796011606853,0.8800390561421713
0.3,1.6886862178285606e+18,15.304560546875,-0.0632275342941284,-0.0008033116658528,0.1504618922869364,1.6886862178199068e+18,15.29590665690104,-0.6374878287315369,-9.728020350138346,-1.1661022305488586,1.6886862178285606e+18,15.304560546875,-0.5547822912534078,-9.707120259602863,-1.303877592086792,1.6886862178242358e+18,15.300235921223958,0.0121663995087146,0.0270307877411444,-0.0371609691064804,1.6886862178242358e+18,15.300235921223958,0.0110973850823938,0.0315104654679695,-0.0348702233847385,,,,,,,,,,,,1.688686217823846e+18,15.2998462890625,-13.241879653930663,42.40719909667969,-0.2854799926280975,1.688686217823846e+18,15.2998462890625,-268.5878662109375,137.43299865722656,-133.00927734375,1.6886862178285606e+18,15.304560546875,-0.6712297002474467,0.7244941592216492,-0.0580960797766843,0.1455457905928293,1.972974379857381,1.4258608023325603,0.8788548310597738
0.35,1.6886862178804808e+18,15.356480712890624,0.1311602989832559,-0.0091597239176431,0.1411478718121846,1.6886862178718216e+18,15.347821451822917,-0.4295116662979126,-9.721440315246582,-1.0352946122487383,1.6886862178804808e+18,15.356480712890624,-0.5740952690442404,-9.707138379414875,-1.2953611612319946,1.6886862178761516e+18,15.352151611328123,-0.0259108676885564,0.0271325971698388,-0.0197004045670231,1.6886862178761516e+18,15.352151611328123,-0.0269798810283342,0.0315613703181345,-0.017358754761517,,,,,,,,,,,,1.6886862178738468e+18,15.349846777343748,-13.40536003112793,42.54383926391601,-0.1512799978256225,1.6886862178738468e+18,15.349846777343748,-268.75135498046876,137.56963806152345,-132.8750732421875,1.6886862178804808e+18,15.356480712890624,-0.6706436276435852,0.7251656850179037,-0.0581989375253518,0.1448609282573063,1.987904906272888,1.425873875617981,0.8647595047950745
0.4,1.6886862179237448e+18,15.399744628906248,-0.166697472333908,0.0498504638671874,-0.1026924848556518,1.6886862179237486e+18,15.39974869791667,-0.7136593461036682,-9.683952649434406,-1.308475176493327,1.6886862179237448e+18,15.399744628906248,-0.5752406120300293,-9.70892095565796,-1.2814311981201172,1.6886862179280753e+18,15.404075439453123,-0.0240273661911487,0.0474947712694604,-0.007228571785769,1.6886862179280753e+18,15.404075439453123,-0.025096380462249,0.051974452411135,-0.0048869212623685,,,,,,,,,,,,1.6886862179238487e+18,15.399848779296876,-12.885639762878418,42.6780387878418,-0.334279990196228,1.6886862179238487e+18,15.399848779296876,-268.23163452148435,137.7038360595703,-133.0580810546875,1.6886862179237448e+18,15.399744628906248,-0.6708998084068298,0.7252421677112579,-0.0577447693794965,0.1434671580791472,1.9926615953445437,1.4271367192268372,0.8626630008220673
0.45,1.6886862179670088e+18,15.44300870768229,-0.0734625061353047,0.014651616414388,-0.0159740447998047,1.6886862179756575e+18,15.45165771484375,-0.6039883196353912,-9.72303549448649,-1.2265210151672363,1.6886862179670088e+18,15.44300870768229,-0.5937995910644531,-9.708617210388184,-1.2752283414204917,1.6886862179799908e+18,15.455990885416668,-0.0067704231478273,-0.0186313899854818,-0.054163385182619,1.6886862179799908e+18,15.455990885416668,-0.0078394372637072,-0.0141517114825546,-0.0518726408481597,,,,,,,,,,,,1.6886862179738532e+18,15.449853271484375,-13.002759742736815,42.39743881225586,-0.2854799941182137,1.6886862179738532e+18,15.449853271484375,-268.3487609863281,137.4232391357422,-133.00927734375,1.6886862179670088e+18,15.44300870768229,-0.6702777544657389,0.7258742650349935,-0.0579860545694827,0.1430797527233759,2.006487449010214,1.4269215663274128,0.8490448792775472
0.5,1.6886862180189274e+18,15.49492724609375,0.1969156066576639,-0.0398047765096028,-0.0029122432072957,1.6886862180275791e+18,15.5035791015625,-0.4572285215059916,-9.764909744262695,-1.1938190857569375,1.6886862180189274e+18,15.49492724609375,-0.6089432835578918,-9.707799593607584,-1.274332046508789,1.688686218023254e+18,15.499254028320312,0.0067195175724919,0.0394008089788257,0.0085521130822598,1.688686218023254e+18,15.499254028320312,0.0056505035026929,0.0438295826315879,0.0108428574167192,,,,,,,,,,,,1.6886862180238495e+18,15.49984990234375,-12.748999977111817,42.519438934326175,-0.6343999862670898,1.6886862180238495e+18,15.49984990234375,-268.09498901367186,137.54523315429688,-133.3581970214844,1.6886862180189274e+18,15.49492724609375,-0.6696958740552267,0.7263859709103903,-0.0582404571274915,0.1431045234203338,2.01649538675944,1.4263405005137126,0.8386309742927551
0.55,1.6886862180708454e+18,15.546845540364584,-0.2643779516220093,0.0184071858723958,0.1658165057500203,1.6886862180794944e+18,15.555494466145833,-0.875174880027771,-9.71047306060791,-1.0428718725840251,1.6886862180708454e+18,15.546845540364584,-0.5959051648775736,-9.708185195922852,-1.2775572141011555,1.688686218066517e+18,15.54251708984375,0.0132354137022047,0.0857756622135638,0.0399098629131912,1.688686218066517e+18,15.54251708984375,0.0121663993534941,0.0902044338484605,0.0422006072476505,,,,,,,,,,,,1.6886862180738545e+18,15.549854345703125,-13.217479705810549,42.61703872680664,-0.273279994726181,1.6886862180738545e+18,15.549854345703125,-268.5634765625,137.64283752441406,-132.99707946777343,1.6886862180708454e+18,15.546845540364584,-0.6704623301823934,0.7260672251383463,-0.0564820480843384,0.1418314079443613,2.0071614583333335,1.426612655321757,0.8523086110750834
0.6,1.688686218122757e+18,15.598756998697915,-0.0554373860359191,-0.0097850163777669,0.1314517656962076,1.6886862181314058e+18,15.607405924479169,-0.5978068510691324,-9.730413118998207,-1.0845468441645305,1.688686218122757e+18,15.598756998697915,-0.6104288895924886,-9.707709630330404,-1.274299224217733,1.6886862181184294e+18,15.594429361979168,-0.0063631796122838,-0.0105374253665407,-0.0437277704477309,1.6886862181184294e+18,15.594429361979168,-0.0074321938057739,-0.006057747057639,-0.0414370261132716,,,,,,,,,,,,1.6886862181238492e+18,15.59984921875,-12.96371955871582,42.470639038085935,-0.1756799966096878,1.6886862181238492e+18,15.59984921875,-268.30971069335936,137.496435546875,-132.89947814941405,1.688686218122757e+18,15.598756998697915,-0.6699907183647156,0.7265775005022684,-0.0564676423867543,0.1414531270662943,2.0174407958984375,1.4262776772181194,0.8425896565119425
0.65,1.6886862181746708e+18,15.65067097981771,0.0606648027896881,-0.0469195048014322,0.10543688138326,1.6886862181746683e+18,15.65066845703125,-0.514157772064209,-9.776475429534912,-1.1096714735031128,1.6886862181746708e+18,15.65067097981771,-0.6132707993189493,-9.707464853922524,-1.2748047510782878,1.6886862181703447e+18,15.64634464518229,0.0160352128247419,0.1215112755695978,0.0247909479464093,1.6886862181703447e+18,15.64634464518229,0.014966198708862,0.1259909545381863,0.0270816922808686,,,,,,,,,,,,1.6886862181738522e+18,15.649852343750002,-12.956399726867676,42.4023193359375,-0.1830000028014183,1.6886862181738522e+18,15.649852343750002,-268.3023986816406,137.42811584472656,-132.90679931640625,1.6886862181746708e+18,15.65067097981771,-0.6701334714889526,0.7267775932947794,-0.0551604703068733,0.1402555555105209,2.019110361735026,1.4261032740275066,0.8445033629735311
0.7,1.6886862182265874e+18,15.70258732096354,-0.1977957288424173,0.0353056589762369,0.1258910497029622,1.6886862182179356e+18,15.69393562825521,-0.8083752592404684,-9.702497164408364,-1.0825528303782146,1.6886862182265874e+18,15.70258732096354,-0.61024409532547,-9.707536379496256,-1.2757175366083782,1.6886862182222633e+18,15.698263346354167,0.0016798795356104,0.0569631860901911,0.0152207255208243,1.6886862182222633e+18,15.698263346354167,0.0005599597352556,0.0614428622648119,0.0175114705537755,,,,,,,,,,,,1.688686218223851e+18,15.699851123046876,-12.907599639892576,42.4218391418457,0.1146799996495246,1.688686218223851e+18,15.699851123046876,-268.2535888671875,137.44763793945313,-132.60911560058594,1.6886862182265874e+18,15.70258732096354,-0.670616348584493,0.7268218994140625,-0.0531456967194874,0.1384888639052708,2.0168994267781577,1.4261540571848552,0.8521284659703573
0.75,1.6886862182785006e+18,15.754500813802082,0.0366987188657124,-0.0086472829182942,-0.022566795349121,1.6886862182698455e+18,15.745845377604168,-0.587836762269338,-9.731011390686035,-1.1978071530659993,1.6886862182785006e+18,15.754500813802082,-0.617619792620341,-9.70804977416992,-1.2682368357976277,1.688686218274171e+18,15.750171061197918,-0.0119627777797479,0.0311541284124056,-0.0186313901407022,1.688686218274171e+18,15.750171061197918,-0.0130317920508483,0.0356847099028527,-0.0163406456510225,,,,,,,,,,,,1.6886862182738506e+18,15.749850683593753,-13.193079948425291,42.534078979492186,-0.1488399982452392,1.6886862182738506e+18,15.749850683593753,-268.5390686035156,137.55987548828125,-132.8726318359375,1.6886862182785006e+18,15.754500813802082,-0.6704518795013428,0.7270787159601847,-0.053170371800661,0.1379264791806538,2.0239057540893555,1.426517923672994,0.8458961049715678
0.8,1.6886862183304174e+18,15.80641748046875,0.0013918280601501,0.0240624745686849,-0.1459966897964477,1.6886862183217672e+18,15.797767333984376,-0.5988038778305054,-9.696714401245115,-1.3397812843322754,1.6886862183304174e+18,15.80641748046875,-0.621993879477183,-9.708057721455893,-1.2660432656606038,1.6886862183260897e+18,15.80208992513021,-0.0041233404772355,0.0177150915066401,-0.0013235413935035,1.6886862183260897e+18,15.80208992513021,-0.0051923545543103,0.0221947701647877,0.0009672033678119,,,,,,,,,,,,1.688686218323851e+18,15.799851123046874,-12.783159828186037,42.42183990478516,-0.0585600078105926,1.688686218323851e+18,15.799851123046874,-268.129150390625,137.44764099121093,-132.78235778808593,1.6886862183304174e+18,15.80641748046875,-0.6704388856887817,0.7272758285204569,-0.0525682506461937,0.1371793746948241,2.0273749033610025,1.4265223741531372,0.8443568547566732
0.85,1.6886862183736817e+18,15.849681762695312,-0.0552658736705779,0.0510716438293456,-0.0673408508300781,1.688686218373682e+18,15.849681640625,-0.68015984694163,-9.695318539937338,-1.2763714790344238,1.6886862183736817e+18,15.849681762695312,-0.6223650872707367,-9.708047866821287,-1.2659353613853457,1.6886862183780104e+18,15.854010253906251,-0.0058541253674774,-0.0604247537751992,-0.0044287729930752,1.6886862183780104e+18,15.854010253906251,-0.0069231395609676,-0.0559450748066107,-0.0021380283287726,,,,,,,,,,,,1.68868621837385e+18,15.84985,-12.93444004058838,42.37547836303711,-0.4147999823093414,1.68868621837385e+18,15.84985,-268.2804321289062,137.40127868652343,-133.1385986328125,1.6886862183736817e+18,15.849681762695312,-0.6703073382377625,0.7272426784038544,-0.0532017704099416,0.1377524957060813,2.0276434421539307,1.426516354084015,0.8423621952533722
0.9,1.688686218416944e+18,15.892943929036456,-0.091029663880666,0.0286782582600911,-0.0833345651626586,1.688686218425597e+18,15.901596435546873,-0.7102695107460022,-9.696515083312988,-1.316650668780009,1.688686218416944e+18,15.892943929036456,-0.6220948497454325,-9.707887649536133,-1.2672895987828572,1.6886862184299215e+18,15.905921630859376,0.0029525153416519,-0.0836376336713631,-0.0143044278180847,1.6886862184299215e+18,15.905921630859376,0.0018835011869668,-0.0792088595529397,-0.0119627776245275,,,,,,,,,,,,1.688686218423853e+18,15.899853222656253,-12.853919792175294,42.4218391418457,-0.161039999127388,1.688686218423853e+18,15.899853222656253,-268.1999206542969,137.44763793945313,-132.88483581542968,1.688686218416944e+18,15.892943929036456,-0.6701198021570841,0.7271641890207926,-0.054137452195088,0.1387107769648233,2.0270496209462485,1.4264028469721477,0.8402437567710876
0.95,1.688686218468858e+18,15.944858235677083,-0.0409509936968485,0.0261653264363606,-0.1098061005274454,1.6886862184775137e+18,15.95351350911458,-0.6372884114583334,-9.70329475402832,-1.3066805601119995,1.688686218468858e+18,15.944858235677083,-0.6227218508720398,-9.70677089691162,-1.275514006614685,1.6886862184731878e+18,15.949187988281247,0.0145844072103499,-0.1595885381102562,-0.0083993970183655,1.6886862184731878e+18,15.949187988281247,0.0135153937153517,-0.1550070568919181,-0.006108652538387,,,,,,,,,,,,1.6886862184738511e+18,15.949851123046876,-13.244320106506349,42.51211929321289,-0.2366799861192703,1.6886862184738511e+18,15.949851123046876,-268.59031372070314,137.5379150390625,-132.96047668457032,1.688686218468858e+18,15.944858235677083,-0.6696040034294128,0.7270381251970927,-0.0560836593310037,0.1410651902357737,2.0248937606811523,1.425613244374593,0.8362334966659546
1.0,1.6886862185207754e+18,15.996775553385415,-0.0290646751721699,-0.0215225219726562,0.0151553551355997,1.6886862185294223e+18,16.005422281901044,-0.6514459649721781,-9.753344535827637,-1.1872388521830242,1.6886862185207754e+18,15.996775553385415,-0.6200518210728964,-9.704546928405762,-1.2935960292816162,1.6886862185164472e+18,15.992447265625,0.0334448715051014,-0.1153008143107095,-0.0183768634063501,1.6886862185164472e+18,15.992447265625,0.0323758584757645,-0.110770230491956,-0.0160861177525172,,,,,,,,,,,,1.6886862185238502e+18,15.999850439453123,-13.01739959716797,42.64387969970703,-0.2073999971151351,1.6886862185238502e+18,15.999850439453123,-268.3634033203125,137.669677734375,-132.9311981201172,1.6886862185207754e+18,15.996775553385415,-0.6690858602523804,0.7268054882685343,-0.0578627338012059,0.1439759383598963,2.0176941553751626,1.424056092898051,0.836699366569519
1.05,1.6886862185726874e+18,16.0486875,0.0947267512480417,-0.0655832290649413,0.1728320916493733,1.6886862185813402e+18,16.057340006510415,-0.4973083039124806,-9.783254941304524,-1.0652048985163372,1.6886862185726874e+18,16.0486875,-0.6218093236287435,-9.701761881510416,-1.313486099243164,1.6886862185683653e+18,16.044365478515626,0.0332921563337246,-0.1391245598594347,-0.0117591566716631,1.6886862185683653e+18,16.044365478515626,0.0322231414417425,-0.1346957857410112,-0.0094684110954403,,,,,,,,,,,,1.6886862185738534e+18,16.049853369140624,-12.473279762268067,42.712198638916014,-0.0585599943995475,1.6886862185738534e+18,16.049853369140624,-267.81926879882815,137.7379943847656,-132.78235473632813,1.6886862185726874e+18,16.0486875,-0.6683507760365804,0.7267165780067444,-0.059726641823848,0.1470444798469543,2.0128794511159263,1.422126531600952,0.8344240784645081
1.1,1.688686218624606e+18,16.100605712890626,-0.068843921025594,-0.0164957046508789,0.2552117904027303,1.6886862186246065e+18,16.1006064453125,-0.6696912348270416,-9.736096382141112,-1.0292128324508667,1.688686218624606e+18,16.100605712890626,-0.5974211494127909,-9.699603398640951,-1.340432087580363,1.688686218620282e+18,16.09628238932292,0.0692823007702827,0.0386372270683447,0.0655152996381123,1.688686218620282e+18,16.09628238932292,0.0682132852574188,0.0431678108870982,0.0678060414890447,,,,,,,,,,,,1.688686218623851e+18,16.09985107421875,-12.736799812316894,42.61459884643555,-0.0658799964934587,1.688686218623851e+18,16.09985107421875,-268.0827941894531,137.64039916992186,-132.7896759033203,1.688686218624606e+18,16.100605712890626,-0.6689624389012655,0.7259202003479004,-0.0590042695403098,0.1484821687142054,1.9900242884953816,1.4206475416819255,0.8562378287315369
1.15,1.6886862186765192e+18,16.152519205729167,-0.1755750179290771,-0.0423415501912434,0.4906981984774272,1.6886862186678694e+18,16.143869384765626,-0.7595217823982239,-9.753743171691896,-0.8492526412010193,1.6886862186765192e+18,16.152519205729167,-0.5881975690523783,-9.6972869237264,-1.3611626227696736,1.6886862186721974e+18,16.14819734700521,0.0404698221633831,0.0996728440125783,0.0095702226584156,1.6886862186721974e+18,16.14819734700521,0.0394008078922827,0.1042034303148587,0.0118609673033157,,,,,,,,,,,,1.6886862186738532e+18,16.14985322265625,-12.873439598083497,42.58531875610352,0.1439600020647048,1.6886862186738532e+18,16.14985322265625,-268.2194396972656,137.61111755371093,-132.579833984375,1.6886862186765192e+18,16.152519205729167,-0.6695109605789185,0.7258046269416809,-0.056385180602471,0.1475905179977416,1.97862176100413,1.4190767208735149,0.8726556499799093
1.2,1.6886862187284396e+18,16.204439371744794,-0.0102696120738982,0.001448631286621,0.1151390075683593,1.6886862187197847e+18,16.195784505208334,-0.6474579175313314,-9.711270650227863,-1.0622138579686482,1.6886862187284396e+18,16.204439371744794,-0.589993437131246,-9.69760767618815,-1.3580861488978069,1.6886862187241116e+18,16.20011189778646,-0.0141008062443385,-0.033699399481217,0.0111482900877793,1.6886862187241116e+18,16.20011189778646,-0.0151698202826082,-0.0291688162833451,0.0134390358192225,1.688686218718766e+18,16.19476611328125,0.0,0.0,1.0275866985321045,11.605999946594238,0.2868983745574951,177.01487731933594,40.20000076293945,-122.7532042,49.1903549,1.688686218723851e+18,16.199851171875,-13.34923973083496,42.45111923217773,0.3684399962425232,1.688686218723851e+18,16.199851171875,-268.6952270507812,137.47691650390624,-132.35535583496093,1.6886862187284396e+18,16.204439371744794,-0.6695345640182495,0.725883682568868,-0.0561817449827988,0.1471727440754572,1.980558713277181,1.4192941983540852,0.871612032254537
1.25,1.6886862187803525e+18,16.256352701822916,0.110669583082199,-0.0793876647949218,0.0320406754811604,1.688686218771697e+18,16.24769685872396,-0.4356931149959564,-9.797611554463703,-1.337986667950948,1.6886862187803525e+18,16.256352701822916,-0.5747411648432413,-9.697927792867024,-1.36232590675354,1.6886862187760292e+18,16.252029052734375,0.0334448711170504,0.0580831039696931,0.036702820410331,1.6886862187760292e+18,16.252029052734375,0.0323758589414258,0.0626136853049198,0.0390953756868838,,,,,,,,,,,,1.6886862187738527e+18,16.249852490234375,-12.968599700927737,42.36815948486328,0.0244000002741813,1.6886862187738527e+18,16.249852490234375,-268.31459350585936,137.39395446777343,-132.69939880371095,1.6886862187803525e+18,16.256352701822916,-0.6700767874717712,0.7253707846005758,-0.0558868112663427,0.1473441173632939,1.9699748357137044,1.4195092121760051,0.8823753396670023
1.3,1.6886862188236155e+18,16.299615478515626,-0.071920096874237,0.0295772552490233,0.41049724817276,1.6886862188236155e+18,16.299615315755208,-0.6207380890846252,-9.702297528584795,-0.9535398483276368,1.6886862188236155e+18,16.299615478515626,-0.5590508282184601,-9.696424007415771,-1.3794662356376648,1.688686218827942e+18,16.303942220052082,0.034717507349948,0.1231402506430943,0.0580831045905748,1.688686218827942e+18,16.303942220052082,0.0336484938549498,0.1276199296116828,0.0603738489250341,,,,,,,,,,,,1.688686218823851e+18,16.299851123046874,-12.50011978149414,42.294959259033206,0.7539599791169167,1.688686218823851e+18,16.299851123046874,-267.8461181640625,137.3207580566406,-131.96983642578124,1.6886862188236155e+18,16.299615478515626,-0.6709371209144592,0.7250272333621979,-0.053131429478526,0.1461357101798057,1.955780267715454,1.4184941053390503,0.902238130569458
1.35,1.6886862188668713e+18,16.342871337890625,-0.1049127578735351,0.0307168960571289,0.0470968882242838,1.688686218875528e+18,16.35152783203125,-0.6309075752894083,-9.67916711171468,-1.3445669412612915,1.6886862188668713e+18,16.342871337890625,-0.5432067513465881,-9.697563807169596,-1.3777808745702107,1.688686218879859e+18,16.355859130859375,-0.010791952566554,0.0723875313997268,0.0387899422397215,1.688686218879859e+18,16.355859130859375,-0.0118609666824339,0.0768163042763868,0.0410806878159442,,,,,,,,,,,,1.6886862188738506e+18,16.349850732421874,-12.927119636535645,42.2729995727539,0.4391999840736389,1.6886862188738506e+18,16.349850732421874,-268.2731079101562,137.29879455566407,-132.28460083007812,1.6886862188668713e+18,16.342871337890625,-0.6718701322873434,0.7245921691258749,-0.0514393312235673,0.1446041762828826,1.9462844928105671,1.4192625284194946,0.9163609345753986
1.4,1.688686218918795e+18,16.394794840494793,0.0044100880622863,0.0519189834594726,-0.1667771339416503,1.6886862189274412e+18,16.40344140625,-0.515852669874827,-9.665806770324709,-1.444467266400655,1.688686218918795e+18,16.394794840494793,-0.5340848763783773,-9.698626200358072,-1.3738770484924316,1.6886862189231217e+18,16.39912158203125,0.0058032199158333,0.0795651972293853,0.0226020142436027,1.6886862189231217e+18,16.39912158203125,0.0047342058969661,0.0839939713478088,0.024892758578062,,,,,,,,,,,,1.6886862189238533e+18,16.39985322265625,-13.171119689941406,42.18027954101562,0.4538399875164032,1.6886862189238533e+18,16.39985322265625,-268.5171142578125,137.2060791015625,-132.26995849609375,1.688686218918795e+18,16.394794840494793,-0.6724925637245178,0.7243547439575195,-0.0502469949424266,0.1433141529560089,1.941500465075175,1.4199808835983276,0.9247069358825684
1.45,1.6886862189707092e+18,16.446709472656252,0.0030043919881184,0.0107094446818033,0.0142522652943928,1.688686218979362e+18,16.455362060546875,-0.5160520871480306,-9.71466064453125,-1.294716437657674,1.6886862189707092e+18,16.446709472656252,-0.5298875570297241,-9.698294003804524,-1.3778375784556072,1.6886862189663834e+18,16.442383138020833,0.01130100665614,0.0859283780058224,0.0150680096509555,1.6886862189663834e+18,16.442383138020833,0.0102319930059213,0.090458961824576,0.0173587541406352,,,,,,,,,,,,1.6886862189738468e+18,16.449846875,-13.446839714050292,42.04851913452149,0.4904399871826171,1.6886862189738468e+18,16.449846875,-268.79283447265624,137.07431640625,-132.2333557128906,1.6886862189707092e+18,16.446709472656252,-0.6729545791943868,0.7243351737658182,-0.0483685098588466,0.1418836812178293,1.9378812313079832,1.4197558561960857,0.933060864607493
1.5,1.688686219022624e+18,16.49862394205729,0.0660021603107452,0.0315335591634114,0.0140943129857381,1.6886862190312735e+18,16.507273763020834,-0.4380859434604645,-9.70050303141276,-1.3182458877563477,1.688686219022624e+18,16.49862394205729,-0.5260857144991556,-9.698579788208006,-1.377280831336975,1.688686219018297e+18,16.494297526041667,-0.0015271631418727,0.0365501039971907,0.0194458769013483,1.688686219018297e+18,16.494297526041667,-0.0025961772383501,0.0410297823448975,0.0217366212358076,,,,,,,,,,,,1.6886862190238546e+18,16.499854638671874,-13.349239540100095,42.39011917114258,0.8027599573135376,1.6886862190238546e+18,16.499854638671874,-268.6952331542969,137.4159149169922,-131.92103271484376,1.688686219022624e+18,16.49862394205729,-0.6732759475708008,0.7242616812388102,-0.0474623478949069,0.1410381694634755,1.935611565907796,1.4199483394622805,0.9378386537233988
1.55,1.6886862190745408e+18,16.55054093424479,0.0711151361465453,0.0007282892862955,-0.0325353542963663,1.688686219074539e+18,16.550538818359374,-0.4322035908699035,-9.71067237854004,-1.3483555912971497,1.6886862190745408e+18,16.55054093424479,-0.51823757092158,-9.699479420979818,-1.3739213546117146,1.6886862190702118e+18,16.5462119140625,-0.003665191528853,0.0615955789883931,0.0200567419330278,1.6886862190702118e+18,16.5462119140625,-0.0047342057223431,0.0661261615653832,0.0223983923594156,,,,,,,,,,,,1.6886862190738488e+18,16.549848876953128,-13.410239601135254,42.3169189453125,0.6295199751853943,1.6886862190738488e+18,16.549848876953128,-268.7562316894531,137.34272155761718,-132.09427795410156,1.6886862190745408e+18,16.55054093424479,-0.6737852692604065,0.7240456541379293,-0.0465395922462144,0.1400187015533446,1.931440472602844,1.420559247334798,0.9447962045669556
1.6,1.6886862191264517e+18,16.602451497395833,-0.0302497645219167,0.0450436274210611,-0.0718142986297606,1.6886862191178038e+18,16.593803955078126,-0.5114658375581106,-9.660024325052897,-1.356531023979187,1.6886862191264517e+18,16.602451497395833,-0.5076005061467489,-9.700125376383465,-1.3733264207839966,1.68868621912213e+18,16.598130045572915,0.0032579479351018,0.0662279725074767,0.0336484940101702,1.68868621912213e+18,16.598130045572915,0.0021889338386244,0.0706567466259002,0.0359392389655112,,,,,,,,,,,,1.688686219123853e+18,16.59985322265625,-13.522479820251466,42.43403930664063,0.639279979467392,1.688686219123853e+18,16.59985322265625,-268.86847534179685,137.4598358154297,-132.0845184326172,1.6886862191264517e+18,16.602451497395833,-0.6744343241055807,0.7237563530604044,-0.045197362701098,0.1388238271077473,1.924787441889445,1.4209993680318196,0.9550822774569192
1.65,1.6886862191783693e+18,16.654369303385415,-0.0353477398554484,0.038749059041341,-0.086078921953837,1.6886862191697183e+18,16.645718424479167,-0.5668995678424835,-9.677172978719074,-1.4113665421803792,1.6886862191783693e+18,16.654369303385415,-0.5056929588317871,-9.700211842854818,-1.3734187285105388,1.688686219174047e+18,16.650047037760416,-0.0024943663738667,-0.0020362176340617,-0.0036142861936241,1.688686219174047e+18,16.650047037760416,-0.0035633805673569,0.0023925554317732,-0.0013235413498478,,,,,,,,,,,,1.688686219173849e+18,16.64984921875,-13.385839653015136,42.231520080566405,0.8125199675559998,1.688686219173849e+18,16.64984921875,-268.73182983398436,137.25731506347657,-131.9112762451172,1.6886862191783693e+18,16.654369303385415,-0.6745751698811849,0.723712702592214,-0.0448153254886468,0.1384914368391036,1.9235376119613647,1.4210590521494548,0.9573544263839722
1.7,1.688686219230287e+18,16.706287353515624,0.0686870018641153,-0.0011990865071614,0.0250097115834553,1.6886862192216297e+18,16.69762939453125,-0.4396811525026957,-9.718050638834637,-1.306879957516988,1.688686219230287e+18,16.706287353515624,-0.512419601281484,-9.699545860290527,-1.3756339152654011,1.6886862192259553e+18,16.70195540364583,0.0040215294963369,0.002647082787007,-0.0122682099851468,1.6886862192259553e+18,16.70195540364583,0.0029525154580672,0.0071267612899342,-0.0099774654954671,,,,,,,,,,,,1.6886862192238528e+18,16.699852929687502,-13.249199867248535,42.15831909179688,0.4733599960803986,1.6886862192238528e+18,16.699852929687502,-268.5951904296875,137.18411865234376,-132.25043640136718,1.688686219230287e+18,16.706287353515624,-0.6743074655532837,0.723951538403829,-0.044784748305877,0.1385567883650461,1.9273187319437664,1.4206037123998003,0.9535198012987772
1.75,1.6886862192735478e+18,16.7495478515625,0.0965096503496169,-0.0105209350585937,0.0633648037910461,1.688686219273545e+18,16.749545166015626,-0.4317050874233246,-9.715059598286947,-1.251047412554423,1.6886862192735478e+18,16.7495478515625,-0.5085373520851135,-9.699994564056396,-1.3739091753959656,1.68868621927787e+18,16.753870035807292,-0.0019344066192085,0.0484110706796248,0.0188350118696689,1.68868621927787e+18,16.753870035807292,-0.0030034207738935,0.0529416544983784,0.0211257568250099,,,,,,,,,,,,1.68868621927385e+18,16.749849951171875,-13.600559616088868,42.24371871948242,0.7929999947547912,1.68868621927385e+18,16.749849951171875,-268.94655151367186,137.26951904296874,-131.93079833984376,1.6886862192735478e+18,16.7495478515625,-0.6745309829711914,0.7238346040248871,-0.0444717351347207,0.138180062174797,1.9252535104751587,1.4209096431732178,0.9565747678279876
1.8,1.6886862193168049e+18,16.792804931640624,-0.1100350618362426,0.0146894454956054,0.0126874446868896,1.6886862193254582e+18,16.8014580078125,-0.616550624370575,-9.70648511250814,-1.3016955057779949,1.6886862193168049e+18,16.792804931640624,-0.5041861136754354,-9.70047918955485,-1.3720852931340537,1.6886862193297928e+18,16.805792643229164,-0.0005090543757736,0.0307468846440314,0.0067195175215601,1.6886862193297928e+18,16.805792643229164,-0.0015780685159066,0.0351756565893689,0.0091120731085538,1.688686219321e+18,16.797,0.0,0.0,0.9798808693885804,11.543999671936035,0.3022684454917907,177.72024536132812,40.20000076293945,-122.7532046,49.1903517,1.6886862193238502e+18,16.799850097656254,-13.524919891357422,42.24127883911133,0.5831599771976471,1.6886862193238502e+18,16.799850097656254,-268.8709228515625,137.26707763671874,-132.14063720703126,1.6886862193168049e+18,16.792804931640624,-0.6748724778493246,0.7237324714660645,-0.0436345115303993,0.1373115877310434,1.922896424929301,1.4212406873703003,0.961374580860138
1.85,1.6886862193687247e+18,16.844724772135418,-0.0491058230400085,0.03865114847819,0.0003151496251424,1.6886862193773793e+18,16.853379231770834,-0.5383851130803426,-9.687342325846354,-1.3250255584716797,1.6886862193687247e+18,16.844724772135418,-0.5078870256741842,-9.700512886047363,-1.3704807360967,1.68868621937305e+18,16.849050170898437,-0.0068722337018697,-0.0003817907781921,-0.0087048296118154,1.68868621937305e+18,16.849050170898437,-0.0079412483610212,0.0040469822706654,-0.0064140850590773,,,,,,,,,,,,1.688686219373854e+18,16.849853955078125,-13.74451961517334,42.32179946899414,0.6099999934434891,1.688686219373854e+18,16.849853955078125,-269.09051513671875,137.34759521484375,-132.11380004882812,1.6886862193687247e+18,16.844724772135418,-0.6747977137565613,0.7238739728927612,-0.0434471517801284,0.1369925737380981,1.9256507953008015,1.421263853708903,0.9593444665273032
1.9,1.688686219420639e+18,16.896638834635414,0.0416134496529896,0.0020716985066731,-0.0603809356689452,1.688686219429294e+18,16.90529410807292,-0.4681956271330516,-9.714461008707682,-1.3535399834314985,1.688686219420639e+18,16.896638834635414,-0.5108694831530253,-9.700423876444498,-1.3700040181477864,1.6886862194163146e+18,16.892314778645833,-0.0001527163161275,-0.016595172540595,-0.0089084516124178,1.6886862194163146e+18,16.892314778645833,-0.0012217304902151,-0.01206458817857,-0.0066177066958818,,,,,,,,,,,,1.6886862194238528e+18,16.899852734375,-13.7933198928833,42.02900009155273,0.7588399887084961,1.6886862194238528e+18,16.899852734375,-269.1393127441406,137.05480041503907,-131.96495666503907,1.688686219420639e+18,16.896638834635414,-0.6746528347333273,0.7239649693171183,-0.0436807138224442,0.1371507495641708,1.927677591641744,1.4212029774983723,0.956756591796875
1.95,1.6886862194725583e+18,16.94855851236979,0.0091101030508677,0.0177580515543619,-0.0262971321741739,1.6886862194812063e+18,16.957206298828126,-0.5082753996054331,-9.692327817281088,-1.3280165592829387,1.6886862194725583e+18,16.94855851236979,-0.5056841969490051,-9.700556755065918,-1.370987097422282,1.6886862194682304e+18,16.94423038736979,0.0016289740257585,-0.0050905436898271,0.0154752527984479,1.6886862194682304e+18,16.94423038736979,0.0005599597255543,-0.0006108652063024,0.0178169030696152,,,,,,,,,,,,1.688686219473851e+18,16.94985107421875,-13.749399757385254,42.199799346923825,0.5611999869346619,1.688686219473851e+18,16.94985107421875,-269.09539184570315,137.22559814453126,-132.16259765625,1.6886862194725583e+18,16.94855851236979,-0.6747941573460897,0.7237724264462789,-0.0438457367320855,0.1374188462893167,1.9241172870000205,1.4212934573491414,0.959698756535848
2.0,1.688686219524472e+18,17.00047208658854,-0.1282134254773457,0.0271650950113931,0.0702264706293741,1.688686219524474e+18,17.00047375488281,-0.6382854282855988,-9.684351444244388,-1.2299108505249023,1.688686219524472e+18,17.00047208658854,-0.5055491328239441,-9.700392723083496,-1.3721965948740642,1.6886862195201436e+18,16.996143880208333,0.0004072436131536,-0.0079412477789447,-0.0044796785999399,1.6886862195201436e+18,16.996143880208333,-0.0006617708131671,-0.0035124756395817,-0.0021889337028066,,,,,,,,,,,,1.6886862195238502e+18,16.999850292968752,-13.800639724731443,42.19735946655273,0.6856399655342102,1.6886862195238502e+18,16.999850292968752,-269.1466430664062,137.22315673828126,-132.03815612792968,1.688686219524472e+18,17.00047208658854,-0.6747892697652181,0.7237697243690491,-0.0438080889483292,0.1374690781037012,1.9237406253814695,1.4211819966634114,0.9600561062494912
2.05,1.6886862195763855e+18,17.052385579427085,0.0686576664447784,-0.0063775380452474,0.0104721784591675,1.6886862195677368e+18,17.043736816406252,-0.4681956271330516,-9.727621714274088,-1.2815559307734172,1.6886862195763855e+18,17.052385579427085,-0.5109944343566895,-9.700549125671388,-1.369072437286377,1.688686219572061e+18,17.048060791015626,-0.0102319931611418,-0.0738637894392013,-0.0212784726172684,1.688686219572061e+18,17.048060791015626,-0.0113010071218013,-0.0693841104706128,-0.0189877279723683,,,,,,,,,,,,1.6886862195738537e+18,17.049853662109378,-13.610319709777832,42.16563873291015,0.5807199746370315,1.6886862195738537e+18,17.049853662109378,-268.95631103515626,137.19143676757812,-132.14307861328126,1.6886862195763855e+18,17.052385579427085,-0.6743933955828348,0.7238825360933939,-0.0450906828045844,0.1383985877037048,1.9279762903849285,1.4212878942489624,0.952656884988149
2.1,1.6886862196283046e+18,17.1043046875,0.0096676448980967,-0.0046790440877278,0.0453882217407226,1.6886862196196518e+18,17.09565185546875,-0.4364907244841258,-9.735597610473633,-1.2911272446314497,1.6886862196283046e+18,17.1043046875,-0.5046465198198954,-9.70065212249756,-1.3706883589426675,1.6886862196239752e+18,17.099975260416667,0.0115555342442045,0.0252490956336259,0.0222965814173221,1.6886862196239752e+18,17.099975260416667,0.0104865198954939,0.0297796810045838,0.0246382318437099,,,,,,,,,,,,1.6886862196238533e+18,17.099853369140625,-13.595679664611817,42.23639831542969,0.5831599712371827,1.6886862196238533e+18,17.099853369140625,-268.9416748046875,137.26220092773437,-132.14063720703126,1.6886862196283046e+18,17.1043046875,-0.674570103486379,0.7236502567927042,-0.0452371935049692,0.1387045582135518,1.9235236644744873,1.4213584661483765,0.9564629594484964
2.15,1.6886862196802202e+18,17.15622005208333,-0.0912784337997436,0.0010964075724283,0.1151317755381265,1.6886862196715692e+18,17.147569091796875,-0.6376872261365255,-9.707282702128092,-1.1627124150594077,1.6886862196802202e+18,17.15622005208333,-0.5043983856836954,-9.700445810953775,-1.3722364902496338,1.688686219675889e+18,17.151888834635418,-0.0047342053924997,-0.0457130838185548,-0.0138971845929821,1.688686219675889e+18,17.151888834635418,-0.0058032199740409,-0.0412334045395255,-0.0116064397928615,,,,,,,,,,,,1.6886862196738511e+18,17.149851171875,-13.341919708251954,42.19491882324219,0.6221999764442444,1.6886862196738511e+18,17.149851171875,-268.6879150390625,137.22071533203126,-132.10159606933593,1.6886862196802202e+18,17.15622005208333,-0.6745466391245524,0.72363809744517,-0.0452906067172685,0.1388641446828841,1.9229984283447263,1.4212181568145752,0.9566829403241476
2.2,1.6886862197234775e+18,17.1994775390625,0.1629362255334854,-0.0221147537231445,0.0666165351867675,1.6886862197234757e+18,17.199475748697918,-0.3599204023679097,-9.740981419881184,-1.247657577196757,1.6886862197234775e+18,17.1994775390625,-0.5079648792743683,-9.700664043426514,-1.3693842887878418,1.6886862197278044e+18,17.20380452473958,0.0003054325934499,-0.0037670024515439,0.0009672036006425,1.6886862197278044e+18,17.20380452473958,-0.0007635814060146,0.0007126761289933,0.0033088535225639,,,,,,,,,,,,1.6886862197238472e+18,17.199847314453127,-13.4541597366333,42.30959930419922,0.5026399850845337,1.6886862197238472e+18,17.199847314453127,-268.8001647949219,137.335400390625,-132.22115478515624,1.6886862197234775e+18,17.1994775390625,-0.6742911636829376,0.7237089276313782,-0.0461643785238265,0.1394480615854263,1.9259682297706604,1.421366572380066,0.9516293108463288
2.25,1.6886862197667474e+18,17.24274747721354,0.0185926059881846,-0.0060113271077473,0.0083190202713012,1.688686219775398e+18,17.251398356119793,-0.5210371414820353,-9.705089251200356,-1.297707478205363,1.6886862197667474e+18,17.24274747721354,-0.5006103515625,-9.700915336608888,-1.370309154192607,1.6886862197797233e+18,17.25572314453125,0.006006841547787,0.0187332009615299,0.0216857163856426,1.6886862197797233e+18,17.25572314453125,0.0049378275095174,0.023263784435888,0.0239764607201019,1.6886862197622572e+18,17.238257080078125,0.0,0.0,0.98430734872818,11.416999816894531,0.2821057736873626,178.11668395996094,40.20000076293945,-122.753205,49.1903527,1.6886862197738534e+18,17.249853515625,-13.166239738464355,42.49503936767578,0.3903999924659729,1.6886862197738534e+18,17.249853515625,-268.5122375488281,137.52083740234374,-132.3333953857422,1.6886862197667474e+18,17.24274747721354,-0.6746325095494589,0.7234799861907959,-0.0456930175423621,0.1391396870215733,1.9210235675175984,1.4215381940205891,0.9576916297276816
2.3,1.688686219818658e+18,17.294658121744792,-0.1161233981450398,0.0196199417114257,0.0437942345937093,1.688686219827314e+18,17.303313802083334,-0.5686941941579183,-9.719446182250978,-1.2807583411534629,1.688686219818658e+18,17.294658121744792,-0.4953061540921529,-9.700823783874512,-1.3728830416997273,1.688686219831641e+18,17.30764152018229,0.0066177068899074,-0.0083993971347808,-0.0161370231459538,1.688686219831641e+18,17.30764152018229,0.005548692618807,-0.0039706241417054,-0.0138462785010536,,,,,,,,,,,,1.688686219823849e+18,17.299849169921874,-13.693279838562011,42.23883972167969,0.6051199793815613,1.688686219823849e+18,17.299849169921874,-269.0392822265625,137.26463928222657,-132.11867980957032,1.688686219818658e+18,17.294658121744792,-0.6748329599698385,0.723308245340983,-0.0454502167801062,0.1391401588916778,1.9170015255610149,1.4214758078257244,0.9620591799418132
2.35,1.6886862198705777e+18,17.34657763671875,0.1325854261716206,-0.0256557464599608,0.1150280237197876,1.6886862198792282e+18,17.355228190104167,-0.3571287790934245,-9.744770050048828,-1.1645070314407349,1.6886862198705777e+18,17.34657763671875,-0.5065273642539978,-9.699615478515623,-1.3773171504338582,1.6886862198749046e+18,17.350904418945312,0.0136681096628307,-0.0142026175744831,-0.0177150912350043,1.6886862198749046e+18,17.350904418945312,0.0125990957021712,-0.0096974857151507,-0.0154243467841297,,,,,,,,,,,,1.6886862198738516e+18,17.3498515625,-13.312639808654785,42.52919921875,0.7466399788856506,1.6886862198738516e+18,17.3498515625,-268.65863037109375,137.55499572753905,-131.97715759277344,1.6886862198705777e+18,17.34657763671875,-0.6743401487668356,0.7236950794855753,-0.0455855329831441,0.1394732296466827,1.9231698910395305,1.420650323232015,0.9552122553189596
2.4,1.6886862199224916e+18,17.39849178059896,-0.0171658198038737,-0.0150645573933919,0.0978010495503742,1.6886862199311442e+18,17.407144287109375,-0.5529414316018423,-9.718249956766764,-1.2388839324315388,1.6886862199224916e+18,17.39849178059896,-0.4907741844654083,-9.700236956278482,-1.3786346117655437,1.6886862199181622e+18,17.394162353515625,0.0037160969804971,0.0415897425264119,0.051159964253505,1.6886862199181622e+18,17.394162353515625,0.002647082787007,0.0461712305744488,0.0535016134381294,,,,,,,,,,,,1.6886862199238538e+18,17.3998537109375,-14.156879997253418,42.12171936035156,0.6612399816513062,1.6886862199238538e+18,17.3998537109375,-269.5028869628906,137.14751586914062,-132.06255798339845,1.6886862199224916e+18,17.39849178059896,-0.6749880711237589,0.723173181215922,-0.0450592425962288,0.1392163435618082,1.9127535025278728,1.4210742314656577,0.9667547543843588
2.45,1.688686219974407e+18,17.45040665690104,-0.150776187578837,0.0365613301595052,0.0380657911300659,1.6886862199744072e+18,17.45040734863281,-0.6454639136791229,-9.660423278808594,-1.272682547569275,1.688686219974407e+18,17.45040665690104,-0.4875726302464803,-9.700217564900717,-1.3799162705739338,1.6886862199700826e+18,17.44608251953125,0.0044796784253169,0.0127772645403941,-0.007686720850567,1.6886862199700826e+18,17.44608251953125,0.0034106643870472,0.0172569428881009,-0.0053959762056668,,,,,,,,,,,,1.6886862199738527e+18,17.449852929687502,-13.559079933166505,42.290079498291014,0.6270799934864044,1.6886862199738527e+18,17.449852929687502,-268.9050720214844,137.31587829589844,-132.09671630859376,1.688686219974407e+18,17.45040665690104,-0.6752218206723531,0.7231043577194214,-0.0443462580442428,0.1386688699324925,1.9104000329971311,1.4210606813430786,0.9709103107452391
2.5,1.6886862200263237e+18,17.50232373046875,0.0624357163906097,-0.0040947596232096,0.0569193760553995,1.688686220017668e+18,17.493668294270833,-0.4317050874233246,-9.73739242553711,-1.283151149749756,1.6886862200263237e+18,17.50232373046875,-0.4936059912045796,-9.699840545654297,-1.380424896876017,1.6886862200219983e+18,17.497998209635416,0.0015271631224701,-0.0128281700114408,-0.0054977871477603,1.6886862200219983e+18,17.497998209635416,0.0004581490065902,-0.0083484919741749,-0.0032070423476397,,,,,,,,,,,,1.6886862200238523e+18,17.499852392578127,-13.297999572753906,42.07535858154297,0.6368399992585182,1.6886862200238523e+18,17.499852392578127,-268.6440002441406,137.10115661621094,-132.0869598388672,1.6886862200263237e+18,17.50232373046875,-0.674932062625885,0.7232960065205892,-0.0446884520351886,0.1389696051677067,1.9141675233840945,1.4208025932312012,0.9662194848060608
2.55,1.6886862200782313e+18,17.55423128255208,-0.0422474841276804,0.0047512054443359,0.0499119758605956,1.6886862200695857e+18,17.54558553059896,-0.5004987319310507,-9.708678245544434,-1.240279754002889,1.6886862200782313e+18,17.55423128255208,-0.4894213279088338,-9.700311660766602,-1.3786019484202068,1.688686220073909e+18,17.549909016927085,-0.0047851111545848,0.025605434551835,0.0092138839730371,1.688686220073909e+18,17.549909016927085,-0.0058541253480749,0.0301360183705885,0.011504628540327,,,,,,,,,,,,1.6886862200738532e+18,17.54985322265625,-13.419999694824218,42.17539978027344,0.7685999751091004,1.6886862200738532e+18,17.54985322265625,-268.7659912109375,137.20119934082032,-131.9552001953125,1.6886862200782313e+18,17.55423128255208,-0.6751647790273031,0.7231669624646505,-0.044393453747034,0.1386049836874008,1.9118979374567668,1.4211246172587078,0.9694363872210184
2.6,1.6886862201301496e+18,17.60614982096354,-0.029155284166336,0.0288375218709309,0.0134171644846598,1.688686220121501e+18,17.597501139322915,-0.530409018198649,-9.695318539937338,-1.3106686274210613,1.6886862201301496e+18,17.60614982096354,-0.4913470149040222,-9.700469652811686,-1.3768030802408855,1.6886862201258258e+18,17.60182560221354,-0.0009672032125914,0.0014253522579868,-0.0057523143477737,1.6886862201258258e+18,17.60182560221354,-0.002036217561302,0.0059050304504732,-0.0034615697028736,,,,,,,,,,,,1.6886862201238513e+18,17.599851220703123,-13.785999870300293,42.14611968994141,0.5977999866008759,1.6886862201238513e+18,17.599851220703123,-269.1320007324219,137.1719177246094,-132.1260009765625,1.6886862201301496e+18,17.60614982096354,-0.6751495798428854,0.7232436736424764,-0.0442466711004574,0.13832555214564,1.9135480324427288,1.42123277982076,0.968397299448649
2.65,1.6886862201734164e+18,17.649416625976563,0.0037395060062408,0.0054035186767577,-0.0325320959091186,1.6886862201734157e+18,17.64941593424479,-0.4713860551516215,-9.71446132659912,-1.345364530881246,1.6886862201734164e+18,17.649416625976563,-0.4944312274456024,-9.70066499710083,-1.3743234276771543,1.6886862201777436e+18,17.65374357096354,-0.0055486924975411,0.0076358153795202,-0.0039706241029004,1.6886862201777436e+18,17.65374357096354,-0.0066177070063227,0.0120645887800491,-0.0016289741421739,,,,,,,,,,,,1.6886862201738552e+18,17.649855224609375,-13.678639793395996,42.11683959960938,0.6636799931526184,1.6886862201738552e+18,17.649855224609375,-269.0246337890625,137.14264221191405,-132.06011962890625,1.6886862201734164e+18,17.649416625976563,-0.6750425398349762,0.7233421206474304,-0.0444123446941375,0.1382801756262779,1.916106104850769,1.4213663935661316,0.9656684994697572
2.7,1.688686220216679e+18,17.692678792317707,0.0823746919631957,-0.0014959971110026,-0.0282679398854572,1.6886862202253322e+18,17.701332275390623,-0.41256249944369,-9.716255823771158,-1.3292129834493,1.688686220216679e+18,17.692678792317707,-0.4973934193452198,-9.700445493062338,-1.3747989734013877,1.68868622022966e+18,17.705659912109375,0.0047851110963771,0.0103847089534003,0.0032579482503933,1.68868622022966e+18,17.705659912109375,0.0037160969028869,0.0148134821405012,0.0055486926964173,,,,,,,,,,,,1.688686220223851e+18,17.699851171875,-13.734759521484374,42.29007873535157,0.7368799924850464,1.688686220223851e+18,17.699851171875,-269.08074340820315,137.31588134765624,-131.9869140625,1.688686220216679e+18,17.692678792317707,-0.6749657789866129,0.7234582901000977,-0.0442209442456563,0.1381082832813262,1.9179038604100545,1.421216328938802,0.964388926823934
2.75,1.688686220268591e+18,17.744591145833333,-0.0522980590661366,0.0241114298502604,0.0502684911092122,1.6886862202772457e+18,17.75324568684896,-0.5421737233797709,-9.681160926818848,-1.2673983971277871,1.688686220268591e+18,17.744591145833333,-0.489141434431076,-9.700529416402182,-1.3771638075510662,1.688686220281572e+18,17.75757185872396,0.0032070426580806,0.0011708252131939,0.015373441701134,1.688686220281572e+18,17.75757185872396,0.0021380283869802,0.0055995979540359,0.0177150924379626,,,,,,,,,,,,1.6886862202738534e+18,17.74985341796875,-14.178839683532717,42.13635864257813,0.6831999957561493,1.6886862202738534e+18,17.74985341796875,-269.5248291015625,137.162158203125,-132.04059753417968,1.688686220268591e+18,17.744591145833333,-0.6752845644950867,0.7231855193773905,-0.0439269902805487,0.1380721082290013,1.9120437701543171,1.4212729533513386,0.9707209467887878
2.8,1.6886862203205107e+18,17.796510498046874,0.0384866396586099,0.0130472183227539,-0.0561055342356363,1.6886862203291628e+18,17.805162760416668,-0.4458626210689544,-9.712666511535645,-1.3836497068405151,1.6886862203205107e+18,17.796510498046874,-0.4901953041553497,-9.700432459513346,-1.3774698575337727,1.6886862203248364e+18,17.800836303710938,0.0037415498518385,0.0332921547815203,-0.0145844081416725,1.6886862203248364e+18,17.800836303710938,0.0026725352508946,0.0377209288999438,-0.0122173051349818,,,,,,,,,,,,1.6886862203238523e+18,17.799852587890626,-13.644479751586914,42.170519256591795,0.7856799840927124,1.6886862203238523e+18,17.799852587890626,-268.9904724121094,137.19631652832032,-131.93811645507813,1.6886862203205107e+18,17.796510498046874,-0.6752786835034689,0.723234216372172,-0.0437363410989443,0.1379060993591943,1.912652889887492,1.4212069908777871,0.9706215461095176
2.85,1.6886862203724257e+18,17.848425455729167,0.0303168992201486,0.0268472035725911,-0.0077596505482991,1.6886862203810767e+18,17.85707666015625,-0.4476572374502817,-9.685946782430012,-1.324427326520284,1.6886862203724257e+18,17.848425455729167,-0.4919956624507904,-9.700074831644692,-1.3793550729751587,1.6886862203681006e+18,17.844100748697915,0.0009672033290068,-0.0060577473292748,0.0052941654964039,1.6886862203681006e+18,17.844100748697915,-0.0001018109420935,-0.0015271635105212,0.0075849099084734,,,,,,,,,,,,1.6886862203738537e+18,17.849853613281248,-13.688399696350098,42.1680793762207,0.6636799931526184,1.6886862203738537e+18,17.849853613281248,-269.0343933105469,137.19387817382812,-132.06011657714845,1.6886862203724257e+18,17.848425455729167,-0.6752408345540365,0.7233146627744039,-0.0434549575050671,0.1377586871385574,1.9133805831273396,1.4209616978963215,0.9705049991607666
2.9,1.6886862204243412e+18,17.900341064453126,-0.0509957571824391,-0.0029671986897786,-0.0509748458862304,1.6886862204243323e+18,17.900332641601562,-0.5276173800230026,-9.736395359039308,-1.3899308443069458,1.6886862204243412e+18,17.900341064453126,-0.4882503151893616,-9.700170516967772,-1.380008300145467,1.688686220420016e+18,17.89601603190104,0.0045814892898003,0.0314595599969227,0.0028507046711941,1.688686220420016e+18,17.89601603190104,0.0035124750186999,0.0359392383446295,0.0051414490056534,,,,,,,,,,,,1.6886862204238513e+18,17.899851220703123,-14.008039665222167,42.13880004882813,0.6417199850082398,1.6886862204238513e+18,17.899851220703123,-269.3540405273437,137.1645965576172,-132.0820770263672,1.6886862204243412e+18,17.900341064453126,-0.6754263838132223,0.723201851050059,-0.043137094626824,0.1375406384468078,1.91082227230072,1.4210267464319866,0.9738293091456096
2.95,1.688686220476255e+18,17.952254720052082,-0.0479045907656351,0.0068734486897786,0.1419729391733805,1.6886862204675976e+18,17.94359773763021,-0.5690929790337881,-9.694520950317385,-1.1782657305399578,1.688686220476255e+18,17.952254720052082,-0.4921391010284424,-9.700041135152182,-1.379536271095276,1.6886862204719316e+18,17.947931477864582,-0.0083993972900013,-0.0491237460325161,-0.0051414490056534,1.6886862204719316e+18,17.947931477864582,-0.0094684110178301,-0.0446440670639275,-0.0028507044383635,,,,,,,,,,,,1.688686220473852e+18,17.94985185546875,-13.610319709777832,42.080239868164064,0.6368400007486343,1.688686220473852e+18,17.94985185546875,-268.95631713867186,137.1060363769531,-132.0869567871094,1.688686220476255e+18,17.952254720052082,-0.6751968264579773,0.7233083049456278,-0.0436446654299894,0.1379472066958744,1.9134324391682944,1.420939286549886,0.9699118932088217
3.0,1.688686220528171e+18,18.004170979817708,-0.0293877323468526,0.0187129974365234,0.0863644282023111,1.6886862205195154e+18,17.995515462239585,-0.4911268452803294,-9.715258916219076,-1.229113221168518,1.688686220528171e+18,18.004170979817708,-0.4960996309916178,-9.700514793395996,-1.3747752110163372,1.688686220523847e+18,17.99984716796875,-0.0046833002318938,0.0197513094171881,-0.0096720332900683,1.688686220523847e+18,17.99984716796875,-0.0057523143477737,0.0242818935463825,-0.0073812886451681,,,,,,,,,,,,1.6886862205238508e+18,17.99985078125,-13.339479637145995,42.13391952514648,0.8905999898910523,1.6886862205238508e+18,17.99985078125,-268.6854736328125,137.159716796875,-131.83319702148438,1.688686220528171e+18,18.004170979817708,-0.6750762065251669,0.7234336535135905,-0.0438844636082648,0.1378044585386911,1.917084773381551,1.4212628205617268,0.9661241372426352
3.05,1.6886862205800878e+18,18.056087972005212,-0.0452990333239237,0.0136760075887044,0.0258787870407104,1.68868622057143e+18,18.047430175781248,-0.551346222559611,-9.70349407196045,-1.2771690686543782,1.6886862205800878e+18,18.056087972005212,-0.4943458537260691,-9.701459884643556,-1.3687262932459514,1.6886862205757563e+18,18.051756673177085,-0.0128281700114408,-0.0095193167217075,0.0017307850842674,1.6886862205757563e+18,18.051756673177085,-0.0138971842825411,-0.0050396385292212,0.0040215295739471,,,,,,,,,,,,1.6886862205738514e+18,18.049851416015624,-13.337039756774905,42.21443939208984,0.7881199836730957,1.6886862205738514e+18,18.049851416015624,-268.68303833007815,137.2402374267578,-131.93567810058593,1.6886862205800878e+18,18.056087972005212,-0.6751840710639954,0.7233584324518839,-0.0441014083723226,0.1376014898220698,1.9173583189646404,1.4219108422597249,0.965836544831594
3.1,1.6886862206233477e+18,18.099347412109378,-0.014773666858673,0.0098862648010253,0.1682139039039611,1.6886862206233508e+18,18.099350748697915,-0.507079005241394,-9.709276835123696,-1.157129128774007,1.6886862206233477e+18,18.099347412109378,-0.5055292248725891,-9.701857566833496,-1.3618090748786926,1.688686220627677e+18,18.103676757812497,-0.0218893376489479,0.0212275673014421,-0.0243327990174292,1.688686220627677e+18,18.103676757812497,-0.0229583516096074,0.0258090561255812,-0.0220420545277495,,,,,,,,,,,,1.68868622062385e+18,18.099850146484375,-13.746959686279297,42.21443939208984,0.644159984588623,1.68868622062385e+18,18.099850146484375,-269.09296264648435,137.2402374267578,-132.0796356201172,1.6886862206233477e+18,18.099347412109378,-0.6748606562614441,0.7237460911273956,-0.0442031528800725,0.137115828692913,1.9262176752090456,1.422183394432068,0.9575282037258148
3.15,1.6886862206666068e+18,18.14260693359375,0.0231288870175679,0.0351778666178385,0.0072799523671467,1.6886862206752635e+18,18.151263834635415,-0.4699902534484863,-9.694122314453123,-1.2941182851791384,1.6886862206666068e+18,18.14260693359375,-0.5087358554204305,-9.703819592793783,-1.3465382258097331,1.688686220679594e+18,18.15559415690104,-0.0346666021893421,0.0307977908911803,0.0012217305290202,1.688686220679594e+18,18.15559415690104,-0.0357356164604424,0.0352265615947544,0.0035633803345262,,,,,,,,,,,,1.6886862206738486e+18,18.149848681640623,-13.581039810180664,41.99484024047852,0.5270399928092957,1.6886862206738486e+18,18.149848681640623,-268.9270324707031,137.02063903808593,-132.1967559814453,1.6886862206666068e+18,18.14260693359375,-0.6748841603597006,0.7238342563311259,-0.0446071426073709,0.1364020506540934,1.9320002794265747,1.423541824022929,0.9522022207578024
3.2,1.6886862207185257e+18,18.194525634765625,-0.0316621263821919,-0.0113916397094726,0.0564912557601928,1.6886862207271762e+18,18.20317635091146,-0.5641079346338908,-9.745368321736654,-1.2103694677352903,1.6886862207185257e+18,18.194525634765625,-0.5175540447235107,-9.705504735310871,-1.3309439023335774,1.6886862207315046e+18,18.207504638671875,-0.0221438650041817,0.0670424612859884,-0.0231110683331886,1.6886862207315046e+18,18.207504638671875,-0.0232128792752821,0.0715730426212151,-0.0208203239987293,1.688686220725773e+18,18.20177294921875,0.0,0.0,0.9943446516990662,11.300999641418455,0.2830775082111358,175.3579864501953,40.20000076293945,-122.7532025,49.1903503,1.6886862207238487e+18,18.199848779296875,-13.61519947052002,42.1900390625,0.7881199836730957,1.6886862207238487e+18,18.199848779296875,-268.96119995117186,137.21583862304686,-131.93568115234376,1.6886862207185257e+18,18.194525634765625,-0.6748653848965963,0.7241710225741068,-0.0441754261652628,0.1348378310600916,1.94163711865743,1.4247159163157146,0.9454298416773478
3.25,1.6886862207704402e+18,18.246440104166663,0.0261537432670593,0.0142116546630859,-0.0260284741719563,1.688686220779097e+18,18.255097086588545,-0.4622135758399963,-9.703693389892578,-1.284546931584676,1.6886862207704402e+18,18.246440104166663,-0.5293081005414327,-9.706581751505531,-1.3184142510096233,1.6886862207747717e+18,18.250771484375,-0.0207694182172417,-0.0215329993516205,-0.0113773648627101,1.6886862207747717e+18,18.250771484375,-0.0218384321779012,-0.0171042268630116,-0.0090102623216807,,,,,,,,,,,,1.68868622077385e+18,18.2498498046875,-13.905559921264649,42.13879928588867,0.3903999865055084,1.68868622077385e+18,18.2498498046875,-269.2515563964844,137.1645965576172,-132.3333984375,1.6886862207704402e+18,18.246440104166663,-0.6746242046356201,0.7245872815450033,-0.0441294697423775,0.1338213384151458,1.9525407552719116,1.42547341187795,0.9360533157984416
3.3,1.6886862208223588e+18,18.29835888671875,0.0988755623499551,-0.0188474655151366,-0.0319431622823078,1.6886862208310065e+18,18.30700634765625,-0.4538386861483256,-9.759525934855144,-1.2867403825124104,1.6886862208223588e+18,18.29835888671875,-0.5330368677775065,-9.70742098490397,-1.3107049465179443,1.6886862208180344e+18,18.294034423828126,-0.0121663995087146,0.0310523168494304,-0.0079921535216271,1.6886862208180344e+18,18.294034423828126,-0.0132354134693741,0.0355829002413277,-0.0056505035609006,,,,,,,,,,,,1.6886862208238546e+18,18.29985458984375,-13.483439826965332,42.1680793762207,0.3903999805450439,1.6886862208238546e+18,18.29985458984375,-268.8294311523438,137.19387512207032,-132.3333984375,1.6886862208223588e+18,18.29835888671875,-0.6745554804801941,0.7247054775555929,-0.0443462592860062,0.1334551572799681,1.9570202430089312,1.4260650078455608,0.931792378425598
3.35,1.688686220874279e+18,18.350278564453124,-0.0421182910601297,-0.0291557312011718,-0.109893520673116,1.688686220874273e+18,18.350273071289067,-0.5802595019340515,-9.755537986755373,-1.3639089465141296,1.688686220874279e+18,18.350278564453124,-0.5368087490399679,-9.707481702168783,-1.308726708094279,1.6886862208699543e+18,18.345954345703124,-0.0020871229159335,-0.0344120742132266,-0.0013744470973809,1.6886862208699543e+18,18.345954345703124,-0.0031561370706185,-0.0299323983490466,0.0009162977027396,,,,,,,,,,,,1.6886862208738555e+18,18.349855712890623,-13.612759780883788,42.0631591796875,0.5733999848365784,1.6886862208738555e+18,18.349855712890623,-268.95875244140626,137.08895874023438,-132.15039672851563,1.688686220874279e+18,18.350278564453124,-0.6744423707326254,0.7248365879058838,-0.0443694454928239,0.1333066473404566,1.9600151379903157,1.426106611887614,0.9289767940839132
3.4,1.6886862209261855e+18,18.402185465494792,-0.0724669694900512,0.018602689107259,0.1119880278905232,1.6886862209175375e+18,18.393537353515622,-0.5816553036371866,-9.705487887064615,-1.2103694677352903,1.6886862209261855e+18,18.402185465494792,-0.5267990827560425,-9.706984837849935,-1.316450595855713,1.6886862209218632e+18,18.397863199869793,0.0164424556617934,-0.0611374291280905,0.005752314813435,1.6886862209218632e+18,18.397863199869793,0.0153734420115748,-0.0565559392174084,0.0080939646189411,,,,,,,,,,,,1.6886862209238502e+18,18.399850244140627,-13.973879623413088,42.25835952758789,0.3757599949836731,1.6886862209238502e+18,18.399850244140627,-269.319873046875,137.2841552734375,-132.34803771972656,1.6886862209261855e+18,18.402185465494792,-0.674521267414093,0.7244261105855306,-0.0453159573177496,0.1348117192586262,1.951418161392212,1.4257554213205974,0.9340647260348002
3.45,1.6886862209781023e+18,18.454102457682293,-0.1133603453636169,-8.74201456706001e-05,0.2309433817863464,1.6886862209694495e+18,18.445449462890625,-0.6414758761723837,-9.722835858662924,-0.9856435259183248,1.6886862209781023e+18,18.454102457682293,-0.5303723017374674,-9.706639607747396,-1.3175594409306843,1.688686220973773e+18,18.449773193359373,-0.0017307849678521,-0.0196494987855354,-0.0039706241029004,1.688686220973773e+18,18.449773193359373,-0.0027997989673167,-0.0152207255984345,-0.0016798795356105,,,,,,,,,,,,1.6886862209738547e+18,18.449854736328128,-13.415119743347168,42.17539901733399,0.4953199937939644,1.6886862209738547e+18,18.449854736328128,-268.7611145019531,137.20119934082032,-132.22847595214844,1.6886862209781023e+18,18.454102457682293,-0.6742868622144064,0.7245212197303772,-0.0458012372255325,0.1353089660406111,1.9534623622894287,1.4255129893620808,0.9306146105130514
3.5,1.6886862210300152e+18,18.506015462239585,-0.0281610886255899,-0.0585047403971354,0.143823226292928,1.688686221021365e+18,18.49736474609375,-0.5896313786506653,-9.763514200846354,-1.121236801147461,1.6886862210300152e+18,18.506015462239585,-0.5290311574935913,-9.706846237182615,-1.3165809710820515,1.6886862210256883e+18,18.501688395182292,0.0039197185542434,-0.0150680091852943,0.0027488935156725,1.6886862210256883e+18,18.501688395182292,0.0028507045159737,-0.0105883308375875,0.0050396381799751,,,,,,,,,,,,1.688686221023849e+18,18.499849169921873,-13.039359855651856,42.21931915283203,0.3513599947094917,1.688686221023849e+18,18.499849169921873,-268.3853515625,137.2451141357422,-132.3724365234375,1.6886862210300152e+18,18.506015462239585,-0.6742758949597677,0.724449098110199,-0.0461919928590456,0.1356165756781895,1.9528404474258425,1.4256581862767537,0.9302392403284708
3.55,1.688686221073273e+18,18.549273315429687,0.2109112292528152,-0.0464653968811035,0.2094222903251647,1.688686221073273e+18,18.549273111979165,-0.3397808074951172,-9.766305605570476,-1.0558329820632932,1.688686221073273e+18,18.549273315429687,-0.5305161476135254,-9.706522941589355,-1.3183713555336,1.6886862210776026e+18,18.5536025390625,0.0123700210824607,0.0724384362498918,0.0084503022953868,1.6886862210776026e+18,18.5536025390625,0.0113010071218013,0.0769181152184804,0.0107410467850665,,,,,,,,,,,,1.6886862210738452e+18,18.549845263671877,-13.290679740905762,42.27787857055664,0.4001599848270416,1.6886862210738452e+18,18.549845263671877,-268.6366821289063,137.30367736816407,-132.32363891601562,1.688686221073273e+18,18.549273315429687,-0.6743036806583405,0.7245376408100128,-0.0456221103668212,0.13519749045372,1.9533438086509705,1.4254297018051147,0.9311478734016418
3.6,1.6886862211165348e+18,18.592534749348957,0.0202951033910115,-0.0044775009155272,0.0034592946370442,1.6886862211251894e+18,18.601189208984376,-0.5320042272408804,-9.718050320943195,-1.304487148920695,1.6886862211165348e+18,18.592534749348957,-0.5154733856519064,-9.707433700561523,-1.317592938741048,1.6886862211295168e+18,18.60551668294271,-0.0047342056253303,0.0860301877061525,0.0736601675550142,1.6886862211295168e+18,18.60551668294271,-0.0058032198188204,0.0905098666747411,0.0759509118894735,,,,,,,,,,,,1.688686221123848e+18,18.599847998046876,-13.688399696350098,42.25347900390625,0.5636399805545806,1.688686221123848e+18,18.599847998046876,-269.0343933105469,137.2792755126953,-132.16015625,1.6886862211165348e+18,18.592534749348957,-0.6751449704170227,0.7241050203641256,-0.0440645615259805,0.1338238765796025,1.9436743259429932,1.42607315381368,0.9450139999389648
3.65,1.6886862211684544e+18,18.644454182942702,-0.1605852544307708,0.102313995361328,-0.1610767046610513,1.6886862211771052e+18,18.653104899088543,-0.6530411839485168,-9.635099093119305,-1.43389896551768,1.6886862211684544e+18,18.644454182942702,-0.4939151108264923,-9.708941459655762,-1.3147718906402588,1.6886862211814326e+18,18.657432291666662,-0.0047851110187668,0.0226529194042086,0.0014762587379663,1.6886862211814326e+18,18.657432291666662,-0.005854125212257,0.0271325979071359,0.0037670031500359,,,,,,,,,,,,1.6886862211738455e+18,18.6498455078125,-14.051959800720216,41.960679626464845,0.5270399808883667,1.6886862211738455e+18,18.6498455078125,-269.39796142578126,136.98647766113282,-132.19675903320314,1.6886862211684544e+18,18.644454182942702,-0.6761981646219889,0.72342316309611,-0.0427741954723993,0.1326095710198084,1.93012011051178,1.427141825358073,0.9621561765670776
3.7,1.6886862212203666e+18,18.696366699218743,0.0344498654206593,0.0475975672403971,-0.238543669382731,1.68868622122902e+18,18.705019856770836,-0.4139583309491475,-9.686943372090658,-1.46640149752299,1.6886862212203666e+18,18.696366699218743,-0.5035064915815989,-9.708462397257486,-1.314672827720642,1.6886862212246958e+18,18.70069580078125,-0.0081703225150703,-0.0658207293599843,-0.0313068432733416,1.6886862212246958e+18,18.70069580078125,-0.0092393369413911,-0.0613919552415609,-0.0290160989388823,,,,,,,,,,,,1.6886862212238454e+18,18.6998455078125,-13.688399696350098,42.2534797668457,0.4782400012016296,1.6886862212238454e+18,18.6998455078125,-269.0343994140625,137.27927856445314,-132.2455596923828,1.6886862212203666e+18,18.696366699218743,-0.6757954955101013,0.7237414320309957,-0.0430960108836491,0.1328206608692804,1.936516563097636,1.426801681518555,0.9549961487452188
3.75,1.6886862212722824e+18,18.748282552083335,0.0259890953699747,0.0189247131347656,-0.0326270659764607,1.688686221280936e+18,18.75693603515625,-0.5292125940322876,-9.702297846476236,-1.2323036591211955,1.6886862212722824e+18,18.748282552083335,-0.502024789651235,-9.708304087320965,-1.3164018789927163,1.688686221267956e+18,18.74395597330729,0.0067704229926069,0.0165442681560913,0.0064140850057204,1.688686221267956e+18,18.74395597330729,0.0057014090319474,0.0210748507330815,0.0087048296506206,,,,,,,,,,,,1.6886862212738473e+18,18.749847412109375,-13.94215965270996,42.2729995727539,0.2317999944090843,1.6886862212738473e+18,18.749847412109375,-269.2881591796875,137.29879760742188,-132.49199523925782,1.6886862212722824e+18,18.748282552083335,-0.675774872303009,0.7236731648445129,-0.0433691429595151,0.1332089652617772,1.9350995620091755,1.4266901810963948,0.95546684662501
3.8,1.6886862213241992e+18,18.80019921875,-0.0275193254152933,-0.0191831588745117,0.1145308415095011,1.688686221324199e+18,18.80019885253906,-0.5333003550767899,-9.738189697265629,-1.1359925866127014,1.6886862213241992e+18,18.80019921875,-0.5075393120447794,-9.707882563273111,-1.317398230234782,1.6886862213198738e+18,18.795873942057295,-0.004632394760847,-0.05029457124571,-0.0181732407460609,1.6886862213198738e+18,18.795873942057295,-0.0057014088767269,-0.0457639874269564,-0.0158824964116016,,,,,,,,,,,,1.688686221323846e+18,18.799846289062497,-13.932399940490722,42.12171936035156,0.4538399875164032,1.688686221323846e+18,18.799846289062497,-269.2783996582031,137.14751892089845,-132.26995849609375,1.6886862213241992e+18,18.80019921875,-0.6755088369051615,0.7238495747248331,-0.0436612976094086,0.1335033178329467,1.9384963909784951,1.4263912041982014,0.951229174931844
3.85,1.688686221376115e+18,18.852114990234377,0.1473146975040435,-0.032057762145996,0.1131662925084431,1.688686221367461e+18,18.84346101888021,-0.3555335601170857,-9.768698692321776,-1.1565309365590413,1.688686221376115e+18,18.852114990234377,-0.5086943109830221,-9.708168983459473,-1.3148372968037922,1.688686221371792e+18,18.84779215494791,-0.0019853119932425,-0.0437786770053207,0.0041742460646977,1.688686221371792e+18,18.84779215494791,-0.0030543260897199,-0.0392989983471731,0.0064649904767672,,,,,,,,,,,,1.688686221373846e+18,18.849846142578123,-12.975919723510742,42.29251937866211,0.6051199793815613,1.688686221373846e+18,18.849846142578123,-268.32191162109376,137.3183166503906,-132.1186767578125,1.688686221376115e+18,18.852114990234377,-0.6752630869547526,0.7238117257754008,-0.0449524112045764,0.1345199942588806,1.939918001492818,1.4265926678975422,0.9465106725692748
3.9,1.6886862214280397e+18,18.904039794921875,-0.1182621121406554,-0.0133094787597656,0.094362457593282,1.68868622141938e+18,18.895379882812502,-0.5531408190727234,-9.752347628275553,-1.1465608676274617,1.6886862214280397e+18,18.904039794921875,-0.4963578780492146,-9.708572387695312,-1.316571831703186,1.6886862214237143e+18,18.899714436848956,0.0092138842058677,0.0346156976496179,0.0198022156255319,1.6886862214237143e+18,18.899714436848956,0.0081448699347674,0.0391462817788123,0.022143865469843,,,,,,,,,,,,1.688686221423854e+18,18.899854248046875,-13.925079727172852,42.153438568115234,0.4294399980455637,1.688686221423854e+18,18.899854248046875,-269.2710815429688,137.17923889160156,-132.2943572998047,1.6886862214280397e+18,18.904039794921875,-0.6757859388987223,0.7234118382136027,-0.0443966252108414,0.1342299183209736,1.931303024291992,1.426879644393921,0.9563375115394592
3.95,1.6886862214799537e+18,18.955953776041667,-0.0517560144265492,0.0088844299316406,0.0300472180048624,1.6886862214712932e+18,18.947293212890624,-0.5866403381029764,-9.704092025756836,-1.2005987564722698,1.6886862214799537e+18,18.955953776041667,-0.4960643450419107,-9.70803419748942,-1.3206514120101929,1.688686221475625e+18,18.951625081380207,0.0078903428899744,-0.0476474898556867,-0.0018325957498746,1.688686221475625e+18,18.951625081380207,0.0068213287740945,-0.0431169054160515,0.0004581489386813,,,,,,,,,,,,1.6886862214738511e+18,18.949851220703124,-13.807959747314452,42.16075973510742,0.5197199761867524,1.6886862214738511e+18,18.949851220703124,-269.153955078125,137.18655700683593,-132.2040802001953,1.6886862214799537e+18,18.955953776041667,-0.6756877501805624,0.7233840028444926,-0.0446780001123746,0.1347792992989221,1.93008557955424,1.4264971017837524,0.9563635190327964
4.0,1.6886862215232166e+18,18.99921667480469,0.0452221632003783,-0.0292916297912597,0.0190605521202087,1.6886862215232166e+18,18.999216796875,-0.4556333124637604,-9.745368639628092,-1.2480564117431638,1.6886862215232166e+18,18.99921667480469,-0.4931422024965286,-9.70724630355835,-1.3275112509727478,1.6886862215275377e+18,19.003537841796874,0.0178678082302212,-0.0282016117125749,0.0076867208505669,1.6886862215275377e+18,19.003537841796874,0.0167987945800025,-0.0237728394567966,0.0100792762823402,,,,,,,,,,,,1.6886862215238538e+18,18.999853710937497,-13.678639793395996,42.18027954101562,0.3269599854946136,1.6886862215238538e+18,18.999853710937497,-269.0246337890625,137.2060791015625,-132.39683837890624,1.6886862215232166e+18,18.99921667480469,-0.6756332814693451,0.7232597470283508,-0.0450207442045211,0.1356027126312255,1.9264495372772217,1.4259397387504578,0.9583263099193572
4.05,1.6886862215664783e+18,19.042478515625003,-0.0892901420593261,0.0595531463623046,0.0155517260233561,1.688686221575133e+18,19.051132731119793,-0.5962116519610087,-9.647462209065756,-1.2931212584177654,1.6886862215664783e+18,19.042478515625003,-0.4826578497886657,-9.707257270812988,-1.331280589103699,1.6886862215794598e+18,19.055459960937497,-0.0100283707530858,-0.0640390415986378,0.0177659980642298,1.6886862215794598e+18,19.055459960937497,-0.0110973854122372,-0.0595593626300493,0.0201585528751214,,,,,,,,,,,,1.6886862215738583e+18,19.0498583984375,-13.922639656066895,42.29983901977539,0.651479983329773,1.6886862215738583e+18,19.0498583984375,-269.2686401367188,137.3256378173828,-132.07231750488282,1.6886862215664783e+18,19.042478515625003,-0.6758877237637838,0.722866932551066,-0.0453905425965785,0.1363039513429005,1.9185740152994792,1.4259474277496338,0.9646711349487304
4.1,1.6886862216183995e+18,19.094399658203127,-0.1307673553625742,0.1397765477498372,-0.2263818979263305,1.688686221627045e+18,19.103045003255207,-0.5657031635443369,-9.59023412068685,-1.5064812898635864,1.6886862216183995e+18,19.094399658203127,-0.4806621968746185,-9.707719802856444,-1.32862921555837,1.6886862216313715e+18,19.10737150065104,-0.0154752529536683,-0.1778635978698729,-0.0559450754274924,1.6886862216313715e+18,19.10737150065104,-0.0165442672247687,-0.1734348237514495,-0.0536543298512696,,,,,,,,,,,,1.688686221623857e+18,19.09985693359375,-13.554199600219729,42.077798461914064,0.3903999850153923,1.688686221623857e+18,19.09985693359375,-268.9001892089844,137.10359802246094,-132.3333984375,1.6886862216183995e+18,19.094399658203127,-0.6756420135498047,0.7226758003234863,-0.0472619583209355,0.1378865242004394,1.917880177497864,1.4262748161951702,0.9604288736979166
4.15,1.6886862216703127e+18,19.146312499999997,0.3123230536778767,0.0216410954793293,-0.2340677181879679,1.6886862216789637e+18,19.154963785807293,-0.1190429218113422,-9.724232037862144,-1.4807584285736084,1.6886862216703127e+18,19.146312499999997,-0.4978302121162414,-9.707032203674316,-1.3273242712020874,1.6886862216746337e+18,19.15063366699219,-0.0221438650041818,-0.2383901625871658,-0.0602465849369764,1.6886862216746337e+18,19.15063366699219,-0.0232128798961639,-0.233885034918785,-0.0579558387398719,,,,,,,,,,,,1.6886862216738514e+18,19.14985126953125,-13.29311981201172,42.258358764648435,0.2269199915230274,1.6886862216738514e+18,19.14985126953125,-268.639111328125,137.2841552734375,-132.49688110351562,1.6886862216703127e+18,19.146312499999997,-0.6742191314697266,0.7229886452356974,-0.0515327664713064,0.1416243215401967,1.9295860926310224,1.4257899125417073,0.9372588992118835
4.2,1.6886862217222216e+18,19.198221679687503,0.2137679656346639,0.0374924341837565,0.0461374123891194,1.6886862217308764e+18,19.20687638346354,-0.3688934793074925,-9.671390215555826,-1.1481560667355857,1.6886862217222216e+18,19.198221679687503,-0.4925951957702636,-9.707130750020346,-1.3285661935806274,1.6886862217179003e+18,19.193900472005208,0.0040724350449939,-0.0218384319450706,0.0105883307696785,1.6886862217179003e+18,19.193900472005208,0.0030034207738935,-0.0173587546062966,0.0128790755600978,1.6886862217216653e+18,19.19766528320313,0.0,0.0,1.0038282871246338,11.267000198364258,0.3094173371791839,172.88052368164062,40.20000076293945,-122.7531993,49.1903447,1.688686221723856e+18,19.199855859375,-13.312639808654785,42.36083908081055,0.1537199929356575,1.688686221723856e+18,19.199855859375,-268.65863647460935,137.3866394042969,-132.57007751464843,1.6886862217222216e+18,19.198221679687503,-0.6739993095397949,0.7226625482241312,-0.0535049239794412,0.143600324789683,1.9258311192194624,1.4258578221003215,0.9353630344072976
4.25,1.6886862217741412e+18,19.250141194661456,-0.1050504942735035,-0.0245068868001301,0.3941902120908101,1.688686221774147e+18,19.250147216796876,-0.6370890140533447,-9.766006469726562,-0.8303094506263733,1.6886862217741412e+18,19.250141194661456,-0.502590407927831,-9.70874055226644,-1.3129099210103352,1.688686221769816e+18,19.24581599934896,-0.0480547336240608,-0.0051923549423615,-0.0399607693155606,1.688686221769816e+18,19.24581599934896,-0.0491237460325161,-0.0006617703475057,-0.0376700237393378,,,,,,,,,,,,1.6886862217738532e+18,19.249853369140624,-13.246759796142578,42.13635940551758,0.1146799966692924,1.6886862217738532e+18,19.249853369140624,-268.5927490234375,137.162158203125,-132.60912170410157,1.6886862217741412e+18,19.250141194661456,-0.6737931569417318,0.722985029220581,-0.0539056944350401,0.1427907943725585,1.9364040295283,1.426999608675639,0.925386130809784
4.3,1.6886862218260529e+18,19.302052815755207,0.2343386511007944,-0.0333808263142903,-0.0550236304601033,1.6886862218174042e+18,19.293403971354167,-0.3012962490320205,-9.767302831013998,-1.143569827079773,1.6886862218260529e+18,19.302052815755207,-0.5267252127329508,-9.71242904663086,-1.2756603558858235,1.688686221821728e+18,19.297728190104166,-0.0655152971545854,0.0345647931098938,-0.0370591582419971,1.688686221821728e+18,19.297728190104166,-0.0665843126674492,0.0390444714576006,-0.0347684125105539,,,,,,,,,,,,1.688686221823851e+18,19.2998509765625,-13.18575954437256,42.170519256591795,-0.0487999990582466,1.688686221823851e+18,19.2998509765625,-268.53175048828126,137.19631958007812,-132.77259521484376,1.6886862218260529e+18,19.302052815755207,-0.6731741229693095,0.7237206697463989,-0.0554294946293035,0.1413940389951069,1.9623804092407229,1.42964772383372,0.8992548982302347
4.35,1.6886862218779712e+18,19.35397111002604,-0.1588898102442422,-0.0260006586710611,-0.2070391575495402,1.6886862218693192e+18,19.345319173177085,-0.6283153394858042,-9.756136258443195,-1.4983057578404744,1.6886862218779712e+18,19.35397111002604,-0.5265178283055624,-9.713029543558756,-1.2712022463480632,1.6886862218736443e+18,19.34964444986979,0.0179696194827556,0.0716748548050721,0.0230601634830235,1.6886862218736443e+18,19.34964444986979,0.0169006055220961,0.0761036289234955,0.0253509078174828,,,,,,,,,,,,1.6886862218738524e+18,19.349852490234376,-13.25163974761963,42.624359130859375,0.1463999927043914,1.6886862218738524e+18,19.349852490234376,-268.59763793945314,137.65015869140626,-132.57739868164063,1.6886862218779712e+18,19.35397111002604,-0.6735088427861532,0.7238150437672933,-0.054080077757438,0.1398314833641052,1.9634575843811035,1.4300816853841145,0.9023510217666626
4.4,1.6886862219298875e+18,19.40588753255209,-0.1064962744712829,-0.0871973037719726,0.4775294264157613,1.6886862219212237e+18,19.39722371419271,-0.6478567322095236,-9.801998774210611,-0.8199405471483866,1.6886862219298875e+18,19.40588753255209,-0.5362393856048584,-9.710656801859535,-1.285182277361552,1.6886862219255557e+18,19.40155533854167,0.0288633822153011,0.020871229469776,-0.0280488962307571,1.6886862219255557e+18,19.40155533854167,0.0277943688755233,0.0254018128228683,-0.0257581518962978,,,,,,,,,,,,1.6886862219238513e+18,19.3998513671875,-13.407799530029298,42.25103912353516,0.0634400002658367,1.6886862219238513e+18,19.3998513671875,-268.75379638671876,137.27683715820314,-132.6603576660156,1.6886862219298875e+18,19.40588753255209,-0.6731380224227905,0.7242258588473002,-0.0531522234280903,0.139846051732699,1.96605122089386,1.428368051846822,0.9010469516118368
4.45,1.688686221973146e+18,19.449145874023436,0.0055820941925048,-0.0015640258789062,0.3968069553375244,1.6886862219731474e+18,19.449147216796874,-0.5543372432390848,-9.746166229248049,-0.8334998885790507,1.688686221973146e+18,19.449145874023436,-0.5387463867664337,-9.7116436958313,-1.2766433358192444,1.6886862219774769e+18,19.453476643880208,-0.0346156964078545,0.0866410533587137,0.0245873257517813,1.6886862219774769e+18,19.453476643880208,-0.0356847125416,0.0910698274771372,0.0269289755572874,,,,,,,,,,,,1.6886862219738473e+18,19.449847314453127,-13.65179958343506,41.941159057617185,-0.0805200055241584,1.6886862219738473e+18,19.449847314453127,-268.99779052734374,136.96695556640626,-132.80431518554687,1.688686221973146e+18,19.449145874023436,-0.673287957906723,0.7243591248989105,-0.0525388903915881,0.1386603862047195,1.9701057076454165,1.4290786981582642,0.8995737433433533
4.5,1.6886862220164086e+18,19.492408528645836,-0.2528737783432006,0.0836896896362304,-0.1420916318893432,1.6886862220250624e+18,19.5010625,-0.8205387592315674,-9.635099411010742,-1.388435324033101,1.6886862220164086e+18,19.492408528645836,-0.5322348276774088,-9.714644114176432,-1.2563889821370442,1.6886862220293888e+18,19.505388753255207,-0.0211766612095136,0.0719293821603059,0.0222965811844915,1.6886862220293888e+18,19.505388753255207,-0.0222456764119366,0.0764599678417046,0.0245873256159635,,,,,,,,,,,,1.6886862220238495e+18,19.4998498046875,-13.549319648742676,42.09731903076172,0.3025599807500839,1.6886862220238495e+18,19.4998498046875,-268.89531860351565,137.12311706542968,-132.42123718261718,1.6886862220164086e+18,19.492408528645836,-0.6739724079767863,0.7241916259129842,-0.0516786587735016,0.1365157663822173,1.9714752435684204,1.43126118183136,0.902524451414744
4.55,1.6886862220683277e+18,19.544327880859377,-0.1089017987251281,-0.0204381942749023,-0.157782236735026,1.6886862220769797e+18,19.552979573567708,-0.5684947768847147,-9.773683547973633,-1.2793625195821126,1.6886862220683277e+18,19.544327880859377,-0.5432057579358419,-9.714205423990885,-1.25505534807841,1.6886862220813046e+18,19.55730460611979,0.0179187137012679,-0.0429132839975257,-0.0708094624181587,1.6886862220813046e+18,19.55730460611979,0.0168496997406084,-0.0384336047961066,-0.0685187156001726,,,,,,,,,,,,1.6886862220738522e+18,19.549852099609375,-13.724999618530273,42.23883895874023,-1.490116116609208e-09,1.6886862220738522e+18,19.549852099609375,-269.07099609375,137.26463928222657,-132.7237976074219,1.6886862220683277e+18,19.544327880859377,-0.6736870408058167,0.7246109445889791,-0.0512010492384433,0.1358782897392908,1.9792080720265703,1.4309412240982056,0.8963831067085266
4.6,1.6886862221202412e+18,19.59624129231771,0.2533582945664723,-0.0859508514404296,0.0997318824132282,1.6886862221288968e+18,19.60489689127604,-0.3136591613292693,-9.821739196777342,-1.1246266762415569,1.6886862221202412e+18,19.59624129231771,-0.5587059855461121,-9.712102254231771,-1.2645134925842283,1.6886862221245711e+18,19.60057116699219,0.0079412481281905,-0.0486401463858782,0.0311541276751086,1.6886862221245711e+18,19.60057116699219,0.006872234167531,-0.0441350145265459,0.0334448739886283,,,,,,,,,,,,1.6886862221238513e+18,19.5998513671875,-13.520039749145509,42.49259948730469,-0.0048799976706504,1.6886862221238513e+18,19.5998513671875,-268.86603393554685,137.51839599609374,-132.72867736816406,1.6886862221202412e+18,19.59624129231771,-0.6728347142537435,0.725095291932424,-0.0520569570362567,0.1371868550777435,1.9868070681889851,1.4294103384017944,0.8856744964917501
4.65,1.688686222172157e+18,19.64815633138021,-0.1857436498006184,0.0252310434977213,0.0322825113932291,1.6886862221808077e+18,19.656807698567707,-0.7670990427335104,-9.660423278808594,-1.1760723590850828,1.688686222172157e+18,19.64815633138021,-0.5309700767199198,-9.71301523844401,-1.2694470087687175,1.688686222167833e+18,19.643833414713544,0.0105883306823669,0.0029016101422409,0.0536543317139147,1.688686222167833e+18,19.643833414713544,0.0095193170321483,0.0073303825532396,0.0559959808985391,,,,,,,,,,,,1.688686222173849e+18,19.64984931640625,-13.563959693908693,42.107078552246094,0.0146399959921836,1.688686222173849e+18,19.64984931640625,-268.9099609375,137.13287658691405,-132.7091552734375,1.688686222172157e+18,19.64815633138021,-0.6738169193267822,0.7241405646006266,-0.0517690666019916,0.1375176807244618,1.9669217268625896,1.4300714333852131,0.9055036306381226
4.7,1.688686222224074e+18,19.700073893229163,-0.1808381676673889,0.0598843892415364,0.0211479266484577,1.6886862222240804e+18,19.700080322265624,-0.6981060206890106,-9.689436435699465,-1.1967104077339172,1.688686222224074e+18,19.700073893229163,-0.5251078605651855,-9.712573369344076,-1.275261600812276,1.6886862222197455e+18,19.69574552408854,0.0147116713536281,-0.0300342083598176,-0.0105883311480283,1.6886862222197455e+18,19.69574552408854,0.0136426570825278,-0.0255036239201822,-0.0082975865031281,,,,,,,,,,,,1.688686222223853e+18,19.699852929687506,-13.568839836120606,42.2973991394043,0.0024400003254413,1.688686222223853e+18,19.699852929687506,-268.9148376464844,137.3231994628906,-132.7213592529297,1.688686222224074e+18,19.700073893229163,-0.6739222208658854,0.7239251534144083,-0.0518909196058908,0.1380886286497116,1.961364984512329,1.429751753807068,0.9100666244824728
4.75,1.6886862222759846e+18,19.75198486328125,0.0857785046100616,-0.0474840799967447,0.014421542485555,1.688686222267337e+18,19.743336995442707,-0.4685944318771362,-9.761719385782875,-1.1956137418746948,1.6886862222759846e+18,19.75198486328125,-0.5281152725219727,-9.711087544759115,-1.285284956296285,1.6886862222716652e+18,19.7476650390625,0.020260363506774,-0.0542651961247125,0.0063631789137919,1.6886862222716652e+18,19.7476650390625,0.0191913501669962,-0.049734612305959,0.0086539244900147,,,,,,,,,,,,1.688686222273851e+18,19.74985087890625,-13.258959770202637,42.48283920288086,0.0976000025868415,1.688686222273851e+18,19.74985087890625,-268.6049560546875,137.50863647460938,-132.6261962890625,1.6886862222759846e+18,19.75198486328125,-0.6735254128774008,0.7239765524864197,-0.0526488088071345,0.1394613434871037,1.9606351852416992,1.4286781152089436,0.9077366590499878
4.8,1.6886862223279055e+18,19.80390568033854,-0.0285824139912923,-0.0086062749226888,-0.0072170893351236,1.6886862223192486e+18,19.79524861653646,-0.5210371216138204,-9.738987604777018,-1.2484552065531414,1.6886862223279055e+18,19.80390568033854,-0.5110624631245931,-9.709486643473308,-1.30412491162618,1.68868622232358e+18,19.799579915364586,0.0413861200213431,-0.0137444681798417,0.0345138857762018,1.68868622232358e+18,19.799579915364586,0.0403171057502428,-0.0092138838954269,0.0368555368234713,,,,,,,,,,,,1.6886862223238515e+18,19.7998515625,-13.434639930725098,42.29007873535157,0.3562399938702583,1.6886862223238515e+18,19.7998515625,-268.7806396484375,137.3158752441406,-132.3675567626953,1.6886862223279055e+18,19.80390568033854,-0.6739540894826254,0.7234093149503072,-0.0521907607714334,0.1405025621255238,1.944270571072896,1.4275314410527546,0.9232569336891174
4.85,1.6886862223798167e+18,19.855816650390626,0.0583148300647735,0.038519541422526,0.1233379046122232,1.6886862223711675e+18,19.84716780598958,-0.4566303193569183,-9.68076229095459,-1.1453644434611003,1.6886862223798167e+18,19.855816650390626,-0.4952677687009175,-9.708158175150553,-1.320023814837138,1.6886862223754906e+18,19.851490559895833,0.0212784732381502,-0.0654134874542553,0.0211257558936873,1.6886862223754906e+18,19.851490559895833,0.0202094583461681,-0.0608829036355018,0.0234165005385875,,,,,,,,,,,,1.6886862223738532e+18,19.849853320312494,-13.415119743347168,42.0436393737793,0.1122400015592575,1.6886862223738532e+18,19.849853320312494,-268.7611083984375,137.06943969726564,-132.61155700683594,1.6886862223798167e+18,19.855816650390626,-0.674238900343577,0.7228345076243082,-0.052443441003561,0.1419918189446131,1.929714322090149,1.4265848795572915,0.9353092908859252
4.9,1.6886862224230792e+18,19.8990791015625,0.102043643593788,0.0335416793823242,-0.0206491947174072,1.688686222423083e+18,19.89908284505208,-0.3936193188031514,-9.702497164408364,-1.2745768229166667,1.6886862224230792e+18,19.8990791015625,-0.4811700284481048,-9.70816469192505,-1.3251893520355225,1.6886862224274117e+18,19.903411376953127,0.0074321937281637,0.0195985928488274,0.0254527181386946,1.6886862224274117e+18,19.903411376953127,0.0063631796704915,0.0241291775212933,0.027743462473154,,,,,,,,,,,,1.6886862224238536e+18,19.899853515625,-13.624959754943848,42.26323928833008,0.1488399907946586,1.6886862224238536e+18,19.899853515625,-268.97095947265626,137.2890411376953,-132.57495727539063,1.6886862224230792e+18,19.8990791015625,-0.6746610999107361,0.7223354578018188,-0.0524747744202613,0.1425144001841545,1.9190699458122251,1.426588952541351,0.9451615512371064
4.95,1.6886862224663455e+18,19.942345703125,-0.0991979142030079,0.0311126708984374,0.0428179105122884,1.6886862224749996e+18,19.950999430338545,-0.5453641613324484,-9.6977113087972,-1.1892328262329102,1.6886862224663455e+18,19.942345703125,-0.4773362974325816,-9.708128929138184,-1.3268418312072754,1.688686222479331e+18,19.955331054687505,-0.0009672033290068,-0.0211257567910554,-0.0129808861141403,1.688686222479331e+18,19.955331054687505,-0.002036217522497,-0.0166460781668623,-0.010690141779681,,,,,,,,,,,,1.6886862224738575e+18,19.94985751953125,-13.30531997680664,42.20711898803711,0.3489199936389923,1.6886862224738575e+18,19.94985751953125,-268.65131225585935,137.23291931152343,-132.3748809814453,1.6886862224663455e+18,19.942345703125,-0.6748386224110922,0.7222238580385844,-0.0521469935774802,0.1423596441745757,1.9161123037338257,1.426563024520874,0.9488088289896648
5.0,1.688686222518256e+18,19.99425594075521,0.2198886275291443,-0.039928118387858,0.0687385400136311,1.6886862225269084e+18,20.00290861002604,-0.219940274953842,-9.774879773457846,-1.200399359067281,1.688686222518256e+18,19.99425594075521,-0.4855553408463796,-9.708075205485024,-1.32424799601237,1.688686222531238e+18,20.007237792968752,0.0008653924645235,0.0234165011594692,-0.006770422682166,1.688686222531238e+18,20.007237792968752,-0.0002036218841871,0.027896179507176,-0.0044796783477067,,,,,,,,,,,,1.6886862225238497e+18,19.999849658203125,-13.607879829406738,42.35595932006836,0.2757199957966804,1.6886862225238497e+18,19.999849658203125,-268.95387573242186,137.38175354003906,-132.4480773925781,1.688686222518256e+18,19.99425594075521,-0.6744793653488159,0.7224758664766947,-0.0526710910101731,0.142590378721555,1.9222198724746704,1.426524996757507,0.9416202505429586
5.05,1.6886862225701783e+18,20.04617814127604,0.1405057807763417,-0.0006071726481119,-0.0114428202311198,1.6886862225788293e+18,20.054829427083337,-0.4031906227270762,-9.71485996246338,-1.2955140272776289,1.6886862225701783e+18,20.04617814127604,-0.4763619601726532,-9.70831330617269,-1.3258214394251506,1.6886862225745042e+18,20.050504150390623,0.0100029183086007,0.1039998084306716,0.0636826995760202,1.6886862225745042e+18,20.050504150390623,0.0089339043479412,0.1085812970995902,0.0659734457731246,,,,,,,,,,,,1.6886862225738514e+18,20.0498513671875,-13.61763973236084,42.34131927490235,0.5270399808883667,1.6886862225738514e+18,20.0498513671875,-268.9636291503906,137.36711730957032,-132.1967559814453,1.6886862225701783e+18,20.04617814127604,-0.6750263174374899,0.7222400705019633,-0.0514425399402777,0.1416393319765726,1.915707031885783,1.4266935189565022,0.9512545267740884
5.1,1.6886862226220933e+18,20.09809318033854,-0.1883356769879658,0.1145871480305989,-0.1133641004562377,1.6886862226307443e+18,20.10674446614583,-0.6263213157653809,-9.616155942281088,-1.4015958309173584,1.6886862226220933e+18,20.09809318033854,-0.4615784486134847,-9.708652178446451,-1.3285861412684123,1.6886862226177677e+18,20.093767578125,0.0018325957159201,0.0430150932321945,0.0164424559722344,1.6886862226177677e+18,20.093767578125,0.0007635814448197,0.0474947722007831,0.0187841057777404,,,,,,,,,,,,1.68868622262385e+18,20.099849951171876,-14.149559593200683,42.02899932861328,0.3635599970817565,1.68868622262385e+18,20.099849951171876,-269.4955627441406,137.05479736328124,-132.36023864746093,1.6886862226220933e+18,20.09809318033854,-0.6758449673652649,0.7218363881111145,-0.0497557992736497,0.1403930932283401,1.9051491816838584,1.4269344806671145,0.9660129149754842
5.15,1.6886862226740078e+18,20.15000773111979,0.1540506780147552,0.0006685256958008,-0.1925185918807983,1.6886862226740024e+18,20.150002319335936,-0.2838485911488533,-9.731609344482422,-1.4817554354667664,1.6886862226740078e+18,20.15000773111979,-0.4731570978959401,-9.708392779032389,-1.3264007965723674,1.688686222669682e+18,20.145681884765622,-0.0079921535604322,-0.0372118744999169,-0.0320704250286022,1.688686222669682e+18,20.145681884765622,-0.0090611679139934,-0.0326812903707225,-0.0297796806941429,,,,,,,,,,,,1.6886862226738511e+18,20.149851220703123,-13.83723964691162,42.229078674316405,0.3318399861454963,1.6886862226738511e+18,20.149851220703123,-269.18323974609376,137.25487365722657,-132.39195861816407,1.6886862226740078e+18,20.15000773111979,-0.675320585568746,0.7221946517626444,-0.0504834527770677,0.1408135145902633,1.9134258031845093,1.4267507394154866,0.9560917615890504
5.2,1.6886862227259187e+18,20.201918701171873,-0.0466893812020619,0.022534688313802,0.1473757823308308,1.6886862227172672e+18,20.19326717122396,-0.4352943201859792,-9.714062372843424,-1.176072319348653,1.6886862227259187e+18,20.201918701171873,-0.4712207019329071,-9.70792547861735,-1.3305023908615112,1.6886862227216005e+18,20.19760001627604,0.0147625769798953,0.0577776705225308,0.0241800832251707,1.6886862227216005e+18,20.19760001627604,0.0136935623983541,0.0622064433991908,0.0265217330306768,,,,,,,,,,,,1.688686222723849e+18,20.199848974609377,-13.620079803466798,42.211998748779294,0.2049599975347519,1.688686222723849e+18,20.199848974609377,-268.9660705566406,137.2377960205078,-132.51883544921876,1.6886862227259187e+18,20.201918701171873,-0.6754621466000875,0.7221733927726746,-0.0498060497144857,0.1404834240674972,1.911161422729492,1.426418622334798,0.9597940047581992
5.25,1.68868622277784e+18,20.25383984375,-0.0667517979939778,0.0046132405598958,0.1873321930567423,1.6886862227691848e+18,20.245184651692707,-0.5870391428470612,-9.708080291748049,-1.0506485303243,1.68868622277784e+18,20.25383984375,-0.478276918331782,-9.707950592041016,-1.3277867635091145,1.68868622277351e+18,20.249509765625003,-0.0107919525665541,-0.0087557348112264,-0.0333939663444955,1.68868622277351e+18,20.249509765625003,-0.0118609672257055,-0.0042251513029138,-0.031001411533604,,,,,,,,,,,,1.6886862227738534e+18,20.249853515625,-13.83235969543457,42.22419967651367,0.2732799872756004,1.6886862227738534e+18,20.249853515625,-269.1783508300781,137.2499969482422,-132.4505157470703,1.68868622277784e+18,20.25383984375,-0.6753159562746683,0.7224459846814474,-0.0494607587655384,0.1399059842030207,1.916516621907552,1.4264368613560994,0.9557600021362304
5.3,1.6886862228297495e+18,20.305749511718748,0.1974318772554397,-0.0399449666341145,-0.0791117747624715,1.6886862228210998e+18,20.297099772135414,-0.28335007528464,-9.778868039449057,-1.3206386963526409,1.6886862228297495e+18,20.305749511718748,-0.4850327968597412,-9.708656628926596,-1.3201664686203003,1.688686222825425e+18,20.301424641927085,-0.008959356850634,0.0098756548638144,0.002647082787007,1.688686222825425e+18,20.301424641927085,-0.0100283714321752,0.0143044286717971,0.005039638839662,,,,,,,,,,,,1.6886862228238513e+18,20.299851416015628,-13.961679649353028,42.09975891113281,0.3464799910783768,1.6886862228238513e+18,20.299851416015628,-269.30767211914065,137.12555847167968,-132.3773162841797,1.6886862228297495e+18,20.305749511718748,-0.6750506162643433,0.7226372361183167,-0.0501470677554607,0.1399546613295873,1.9228732188542683,1.426937262217204,0.9483558734258016
5.35,1.6886862228816645e+18,20.357664306640626,-0.1289483308792114,0.0460532506306965,0.0424439907073974,1.6886862228730084e+18,20.349008626302084,-0.5531408389409384,-9.68933645884196,-1.241874933242798,1.6886862228816645e+18,20.357664306640626,-0.4828800459702809,-9.708313624064129,-1.3234769105911257,1.6886862228773376e+18,20.35333756510417,0.0132863189404208,0.1014545361200968,0.0114537231468905,1.6886862228773376e+18,20.35333756510417,0.0122173052902022,0.1058833102385202,0.0137444675977652,,,,,,,,,,,,1.688686222873851e+18,20.3498509765625,-13.951919555664062,42.031439208984374,0.3001199960708618,1.688686222873851e+18,20.3498509765625,-269.29791870117185,137.05723266601564,-132.42367858886718,1.6886862228816645e+18,20.357664306640626,-0.6754260857899984,0.7226836482683817,-0.0483513002594311,0.1385269065697987,1.9206305344899497,1.426693598429362,0.9552086790402732
5.4,1.6886862229249275e+18,20.400927368164066,-0.0176535993814468,0.0742211341857909,0.0693615078926086,1.68868622292493e+18,20.400929931640626,-0.517049103975296,-9.667402585347494,-1.198604742685954,1.6886862229249275e+18,20.400927368164066,-0.4957699477672577,-9.708166599273682,-1.319786250591278,1.6886862229292552e+18,20.405255208333333,-0.0266744485124944,-0.0111482909802968,-0.0415897419055302,1.6886862229292552e+18,20.405255208333333,-0.0277434638701378,-0.0066177065794666,-0.0392989975710709,,,,,,,,,,,,1.688686222923846e+18,20.39984609375,-13.66887969970703,42.25591888427734,0.6295199930667877,1.688686222923846e+18,20.39984609375,-269.01487426757814,137.28171997070314,-132.09427490234376,1.6886862229249275e+18,20.400927368164066,-0.6750618815422058,0.7231537997722626,-0.0481144823133945,0.1379311755299568,1.9301168322563171,1.426588535308838,0.9469116032123566
5.45,1.688686222968183e+18,20.44418318684896,0.089269737402598,-0.0449355443318684,-0.1004463831583658,1.6886862229768458e+18,20.452845947265622,-0.4329015016555786,-9.76550833384196,-1.3692927757898967,1.688686222968183e+18,20.44418318684896,-0.5072794953982035,-9.70964781443278,-1.3044151067733765,1.6886862229811732e+18,20.457173095703123,-0.0324776681760946,0.0228056358173489,-0.0029525149924059,1.6886862229811732e+18,20.457173095703123,-0.0335466843098401,0.027234408383568,-0.0006108650656339,1.6886862229598377e+18,20.435837646484377,0.0,0.0,1.0166043043136597,11.151000022888184,0.3370079100131988,171.87506103515625,40.20000076293945,-122.7531968,49.1903378,1.6886862229738552e+18,20.4498552734375,-13.639599609375,42.002159118652344,0.1341999962925911,1.6886862229738552e+18,20.4498552734375,-268.985595703125,137.0279541015625,-132.5895965576172,1.688686222968183e+18,20.44418318684896,-0.6747357646624247,0.723513662815094,-0.0488004026313622,0.1373978902896244,1.9416860739390056,1.427644689877828,0.935135046641032
5.5,1.688686223020109e+18,20.496109293619792,-0.092724323272705,0.083107312520345,-0.1579507191975911,1.6886862230287593e+18,20.504759277343748,-0.623330295085907,-9.639087359110514,-1.361914873123169,1.688686223020109e+18,20.496109293619792,-0.507339338461558,-9.711070696512856,-1.2937702337900798,1.6886862230244372e+18,20.500437255859374,-0.0090866205282508,0.0293215317651629,0.0063377267506438,1.6886862230244372e+18,20.500437255859374,-0.0101556344889103,0.0337503049522638,0.0086284717544912,,,,,,,,,,,,1.6886862230238513e+18,20.499851416015623,-13.727439880371094,42.05339889526367,0.1756799906492233,1.6886862230238513e+18,20.499851416015623,-269.07343139648435,137.0792022705078,-132.5481201171875,1.688686223020109e+18,20.496109293619792,-0.6749043265978495,0.7235230604807535,-0.0486918675402799,0.1365563422441482,1.9444965918858843,1.4286634127298992,0.933692216873169
5.55,1.6886862230720256e+18,20.548025716145833,-0.1228187680244445,0.0010846455891926,-0.0263303915659586,1.6886862230806774e+18,20.556677246093752,-0.6007978717486063,-9.745169321695965,-1.232901891072591,1.6886862230720256e+18,20.548025716145833,-0.5171252489089966,-9.711002349853516,-1.290395458539327,1.688686223067697e+18,20.54369685872396,-0.0112501016507545,-0.0530434666822353,-0.0307977888733148,1.688686223067697e+18,20.54369685872396,-0.0123191159218549,-0.0485637870927651,-0.0285070445388555,,,,,,,,,,,,1.6886862230738555e+18,20.5498556640625,-13.539559745788576,42.2534797668457,0.3977199852466583,1.6886862230738555e+18,20.5498556640625,-268.88555908203125,137.27927856445314,-132.32607421875,1.6886862230720256e+18,20.548025716145833,-0.6744893987973531,0.7238275011380514,-0.049279981603225,0.1367811262607574,1.951932072639465,1.4286152919133503,0.925094723701477
5.6,1.688686223123941e+18,20.599940917968752,0.0173291563987731,-0.0064058303833007,0.0768716732660929,1.688686223123939e+18,20.59993896484375,-0.5000999420881271,-9.71186876296997,-1.1473584175109863,1.688686223123941e+18,20.599940917968752,-0.527063767115275,-9.711089134216309,-1.2857210636138916,1.6886862231196152e+18,20.595615152994792,-0.0140499006956815,-0.0826195230086643,-0.0235183117911219,1.6886862231196152e+18,20.595615152994792,-0.0151189149667818,-0.0781907513737678,-0.0212275673790524,,,,,,,,,,,,1.6886862231238518e+18,20.599851953125,-13.215040016174315,42.23639831542969,-0.0024399995803832,1.6886862231238518e+18,20.599851953125,-268.5610290527344,137.26219787597657,-132.72623596191406,1.688686223123941e+18,20.599940917968752,-0.6738662123680115,0.7240559260050455,-0.0510306780536969,0.1379959136247634,1.9598225752512617,1.4286772012710571,0.9129618803660074
5.65,1.688686223175852e+18,20.651852132161455,-0.0892464915911356,-0.0210733413696288,0.1050704717636108,1.688686223167199e+18,20.643198974609376,-0.5978068510691324,-9.752147992451986,-1.1355937321980794,1.688686223175852e+18,20.651852132161455,-0.5255728960037231,-9.71197477976481,-1.2796227931976318,1.6886862231715308e+18,20.64753084309896,-0.0078394374189277,-0.0389426598946252,-0.0056505032504598,1.6886862231715308e+18,20.64753084309896,-0.0089084514571974,-0.0343611706048249,-0.0033597584697417,,,,,,,,,,,,1.6886862231738516e+18,20.64985146484375,-13.544439697265624,42.42915954589843,0.3464800000190735,1.6886862231738516e+18,20.64985146484375,-268.89043579101565,137.4549591064453,-132.3773162841797,1.688686223175852e+18,20.651852132161455,-0.6737634936968485,0.723912755648295,-0.0523033452530701,0.1387711366017659,1.9604957501093547,1.4293162027994792,0.9093647797902426
5.7,1.688686223227766e+18,20.703765950520832,0.031104157368342,-0.0773887634277343,0.3114705085754394,1.6886862232191183e+18,20.695118489583333,-0.5264209707578024,-9.792028427124023,-0.9373882611592612,1.688686223227766e+18,20.703765950520832,-0.5348567167917887,-9.711491902669271,-1.2794424692789714,1.6886862232234458e+18,20.69944580078125,0.0074321938057739,0.0042251509924729,-0.0117082505797346,1.6886862232234458e+18,20.69944580078125,0.0063631795346736,0.0087048294954001,-0.0094175056243935,,,,,,,,,,,,1.688686223223852e+18,20.699852099609377,-13.649359703063965,42.365719604492185,-0.0365999996662139,1.688686223223852e+18,20.699852099609377,-268.9953552246094,137.39151916503906,-132.7603973388672,1.688686223227766e+18,20.703765950520832,-0.6733672618865967,0.7242148121198019,-0.0526444800198077,0.138989100853602,1.9667389392852783,1.4289673964182537,0.9023173054059348
5.75,1.6886862232796877e+18,20.755687581380208,0.0661211113135019,-0.0418011347452799,0.3138717611630757,1.6886862232710298e+18,20.747029785156247,-0.4376871387163797,-9.786444981892904,-0.8600203394889832,1.6886862232796877e+18,20.755687581380208,-0.5285974740982056,-9.712383588155111,-1.2752634684244792,1.688686223275358e+18,20.751357991536455,-0.000458148861071,0.1207986027002334,0.0326303852101166,1.688686223275358e+18,20.751357991536455,-0.0015271632000803,0.125278279185295,0.0349211307863394,,,,,,,,,,,,1.6886862232738514e+18,20.74985126953125,-13.31507968902588,42.46575927734375,0.2439999923110008,1.6886862232738514e+18,20.74985126953125,-268.66107788085935,137.4915557861328,-132.47979736328125,1.6886862232796877e+18,20.755687581380208,-0.6739197969436646,0.7240955034891764,-0.0512357763946056,0.1374467561642328,1.9637244939804075,1.429612119992574,0.9095607002576191
5.8,1.688686223331597e+18,20.80759684244792,-0.0665493806203206,-0.0123558044433593,-0.0316843191782633,1.6886862233229496e+18,20.798949625651044,-0.5960122545560201,-9.745368639628092,-1.2075778245925903,1.688686223331597e+18,20.80759684244792,-0.5161662896474203,-9.713912645975748,-1.268690586090088,1.6886862233272758e+18,20.803275716145833,-0.0029525153804569,0.1173879380027452,0.0435241485635439,1.6886862233272758e+18,20.803275716145833,-0.0040215294187266,0.1218676169713337,0.0458148928980032,,,,,,,,,,,,1.6886862233238513e+18,20.799851171875,-13.663999938964844,42.124159240722655,0.2635199934244155,1.6886862233238513e+18,20.799851171875,-269.00999755859374,137.14996032714845,-132.46027526855468,1.688686223331597e+18,20.80759684244792,-0.6749141414960226,0.72382519642512,-0.0488163121044635,0.1348496923844019,1.9571752945582073,1.4307242234547932,0.9232945442199708
5.85,1.6886862233748588e+18,20.850858764648436,0.0013680160045624,0.0731358528137207,-0.0012128949165344,1.6886862233748644e+18,20.850864176432292,-0.5198407073815664,-9.667402585347494,-1.215952714284261,1.6886862233748588e+18,20.850858764648436,-0.5097067952156067,-9.7142596244812,-1.2686535120010376,1.688686223379193e+18,20.855193115234375,0.0125227374956011,0.1719076583782831,0.0226020142436026,1.688686223379193e+18,20.855193115234375,0.0114537232245007,0.1763873398303985,0.024892758578062,,,,,,,,,,,,1.6886862233738511e+18,20.849851220703123,-13.646919631958008,42.07047882080078,0.0317199997603893,1.6886862233738511e+18,20.849851220703123,-268.9929138183594,137.09627685546874,-132.69207763671875,1.6886862233748588e+18,20.850858764648436,-0.675541341304779,0.72373828291893,-0.0466847214847802,0.1329160705208778,1.9528129696846008,1.4309775233268738,0.9334715008735656
5.9,1.688686223418127e+18,20.894127115885414,-0.135498543580373,0.0398003260294596,-0.1297061045964558,1.6886862234267784e+18,20.902778645833333,-0.6323033769925436,-9.70907719930013,-1.373480200767517,1.688686223418127e+18,20.894127115885414,-0.5158113837242126,-9.714024861653646,-1.2679769198099773,1.6886862234311035e+18,20.907103597005207,-0.0132354133917639,0.033852116515239,-0.009366600619008,1.6886862234311035e+18,20.907103597005207,-0.0143044277404744,0.0383317930003007,-0.0070249502702305,,,,,,,,,,,,1.688686223423849e+18,20.899849072265624,-13.856759643554687,42.26567916870117,0.5855999886989594,1.688686223423849e+18,20.899849072265624,-269.2027587890625,137.2914794921875,-132.13819885253906,1.688686223418127e+18,20.894127115885414,-0.6757369041442871,0.7240938544273376,-0.0444539909561474,0.1307341456413269,1.9571369886398315,1.4308067162831624,0.9354528784751892
5.95,1.6886862234700408e+18,20.946040771484373,0.119372546672821,0.0383599599202473,-0.2326558430989583,1.6886862234786926e+18,20.95469262695312,-0.3822534283002217,-9.682357470194498,-1.4101701180140178,1.6886862234700408e+18,20.946040771484373,-0.5218289494514465,-9.714179674784342,-1.2643293142318726,1.68868622347437e+18,20.9503701171875,-0.0053450706764123,-0.0529162008315323,-0.0174860171973704,1.68868622347437e+18,20.9503701171875,-0.0064140852118726,-0.0484110694378614,-0.0151952728629111,,,,,,,,,,,,1.6886862234738516e+18,20.9498515625,-13.698159980773926,42.216879272460936,0.5587599873542786,1.6886862234738516e+18,20.9498515625,-269.0441589355469,137.24267578125,-132.1650360107422,1.6886862234700408e+18,20.946040771484373,-0.6754802266756693,0.7242751916249593,-0.0449462210138638,0.1308878908554712,1.9622154235839844,1.430919170379639,0.9294512867927552
6.0,1.6886862235219566e+18,20.99795662434896,0.025840808947881,0.0342286427815755,-0.126561959584554,1.68868622353061e+18,21.006610026041667,-0.5226323405901591,-9.699904759724935,-1.3343974749247234,1.6886862235219566e+18,20.99795662434896,-0.517828643321991,-9.713637669881184,-1.270124117533366,1.6886862235176333e+18,20.993633219401044,0.0114537232245007,0.0040215293411165,0.0129808862693607,1.6886862235176333e+18,20.993633219401044,0.0103847092638412,0.0085012082320948,0.015322536540528,,,,,,,,,,,,1.6886862235238523e+18,20.9998525390625,-13.729879570007324,42.15831909179688,0.3489199846982955,1.6886862235238523e+18,20.9998525390625,-269.07586669921875,137.18411865234376,-132.3748779296875,1.6886862235219566e+18,20.99795662434896,-0.6755505601565043,0.7241363128026327,-0.0449209772050379,0.1313018153111139,1.9579141934712727,1.4305226802825928,0.9331937829653422
6.05,1.688686223573873e+18,21.049872965494792,-0.0400024155775705,0.0495131810506184,-0.0763665040334065,1.6886862235738732e+18,21.049873046875,-0.5545366406440735,-9.686744213104248,-1.2819547653198242,1.688686223573873e+18,21.049872965494792,-0.515794018904368,-9.71297041575114,-1.2760523160298665,1.6886862235695483e+18,21.045548583984377,0.005548692618807,-0.0870992019772529,-0.0110973853152244,1.6886862235695483e+18,21.045548583984377,0.0044796784253169,-0.0826195230086643,-0.0088066405539089,,,,,,,,,,,,1.6886862235738534e+18,21.049853369140628,-13.68839988708496,42.23395919799805,0.4367599785327911,1.6886862235738534e+18,21.049853369140628,-269.0343933105469,137.25975646972657,-132.28703918457032,1.688686223573873e+18,21.049872965494792,-0.6753899256388346,0.7240117192268372,-0.0457628741860389,0.1325169801712035,1.9549158414204917,1.430036226908366,0.93324742714564
6.1,1.688686223625784e+18,21.101783854166666,0.0720458130041757,-0.0103076299031575,0.0289901892344156,1.688686223617136e+18,21.093135986328125,-0.4574279288450877,-9.729615529378256,-1.2159526745478313,1.688686223625784e+18,21.101783854166666,-0.5227574706077576,-9.711773554484049,-1.2823062340418498,1.6886862236214638e+18,21.09746378580729,0.0089084514960024,-0.0923424611488977,-0.0313068442046641,1.6886862236214638e+18,21.09746378580729,0.0078394371666944,-0.0878627821803092,-0.0290160992493231,,,,,,,,,,,,1.6886862236238492e+18,21.099849169921875,-13.202839660644532,42.16563873291015,0.6197599768638611,1.6886862236238492e+18,21.099849169921875,-268.54884033203126,137.19143676757812,-132.10403747558593,1.688686223625784e+18,21.101783854166666,-0.6747614542643229,0.7241551876068115,-0.0473455501099427,0.1343659063180287,1.95788570245107,1.4291702508926392,0.9253654082616172
6.15,1.688686223677701e+18,21.153701090494792,0.0834135214487711,-0.0179478327433268,0.1203184127807616,1.688686223669047e+18,21.145047037760417,-0.4099702735741933,-9.760523160298666,-1.1202398141225178,1.688686223677701e+18,21.153701090494792,-0.5185718337694804,-9.710913022359213,-1.290483872095744,1.6886862236733778e+18,21.149377848307292,0.0187841063986221,-0.0178678085406621,0.0145080496246615,1.6886862236733778e+18,21.149377848307292,0.0177150924379626,-0.0133881300377348,0.0167987939591208,,,,,,,,,,,,1.6886862236738511e+18,21.149851171875,-13.337039947509766,42.126599884033205,0.8271600008010864,1.6886862236738511e+18,21.149851171875,-268.68303833007815,137.15239562988282,-131.89663696289062,1.688686223677701e+18,21.153701090494792,-0.6746758619944254,0.7239649494489034,-0.0480027596155801,0.1355841159820556,1.952888091405233,1.4285508791605632,0.927677035331726
6.2,1.688686223729616e+18,21.205615885416663,-0.0953051646550496,0.0103727976481119,0.1774621804555257,1.6886862237209684e+18,21.196968424479167,-0.5936194260915121,-9.716255823771158,-1.0203394492467244,1.688686223729616e+18,21.205615885416663,-0.516722579797109,-9.710519790649414,-1.2941879431406658,1.6886862237252946e+18,21.201294759114585,0.0013235414905163,-0.0044796783477067,-0.0002036218065768,1.6886862237252946e+18,21.201294759114585,0.0002545271418057,2.32830666783516e-10,0.0020871229159335,,,,,,,,,,,,1.6886862237238523e+18,21.199852539062498,-13.566399574279783,42.23639907836914,0.4196799874305725,1.6886862237238523e+18,21.199852539062498,-268.9123962402344,137.26219787597657,-132.30411682128906,1.688686223729616e+18,21.205615885416663,-0.6747317910194397,0.723914384841919,-0.0477829339603582,0.1356531878312428,1.950662652651469,1.428267200787862,0.930113931496938
6.25,1.6886862237815345e+18,21.257534342447915,-0.1641456683476765,0.0900255839029947,-0.1601467927296956,1.6886862237728817e+18,21.248881754557292,-0.6662017107009888,-9.648459116617838,-1.347757379213969,1.6886862237815345e+18,21.257534342447915,-0.5172739426294962,-9.711209297180176,-1.2887825171152751,1.68868622377721e+18,21.253210123697915,-0.0117591561671966,-0.0315104654679695,-0.0055486924635867,1.68868622377721e+18,21.253210123697915,-0.0128281701666612,-0.0270816919704277,-0.0032579478962967,,,,,,,,,,,,1.6886862237738511e+18,21.249851123046874,-13.01007957458496,42.23395919799805,0.3098799899220467,1.6886862237738511e+18,21.249851123046874,-268.3560791015625,137.25975952148437,-132.4139190673828,1.6886862237815345e+18,21.257534342447915,-0.6746596097946167,0.7238880197207133,-0.0484666662911573,0.1359099447727203,1.9524686336517336,1.428763469060262,0.9269682963689168
6.3,1.6886862238247972e+18,21.300797241210937,-0.1098274886608123,0.0337052345275878,-0.0456763505935669,1.6886862238247974e+18,21.300797526041663,-0.631106952826182,-9.684151967366535,-1.2711870272954304,1.6886862238247972e+18,21.300797241210937,-0.5343039631843567,-9.710123538970947,-1.2899926900863647,1.688686223829122e+18,21.30512190755208,-0.0027997989867192,-0.0688750557601451,-0.0850120807687441,1.688686223829122e+18,21.30512190755208,-0.0038688132481183,-0.0644462835043668,-0.0827213364342848,,,,,,,,,,,,1.6886862238238482e+18,21.29984829101563,-13.620079803466798,42.32179946899414,0.3806399837136268,1.6886862238238482e+18,21.29984829101563,-268.96607666015626,137.34759521484375,-132.34315490722656,1.6886862238247972e+18,21.300797241210937,-0.6739013493061066,0.7244409024715424,-0.0491520650684833,0.1364779770374297,1.9634523391723633,1.427984595298767,0.9141835868358612
6.35,1.688686223868059e+18,21.344058756510417,0.2451292773087818,-0.0684305826822916,0.1233714421590169,1.6886862238767122e+18,21.352712076822915,-0.2695913513501484,-9.810772260030111,-1.0893325010935466,1.688686223868059e+18,21.344058756510417,-0.5636374950408936,-9.708685239156088,-1.2883524497350056,1.68868622388104e+18,21.357040120442708,-0.0097229385282843,-0.0837394456223895,-0.015526158735156,1.68868622388104e+18,21.357040120442708,-0.010791952566554,-0.0792088597081601,-0.0131336020616193,,,,,,,,,,,,1.6886862238738511e+18,21.34985126953125,-13.005199813842774,42.275438690185545,0.5001999855041503,1.6886862238738511e+18,21.34985126953125,-268.3511901855469,137.30123901367188,-132.22359924316407,1.688686223868059e+18,21.344058756510417,-0.672475258509318,0.7253283460934957,-0.0512284810344377,0.1380241215229034,1.9831862052281697,1.4269575277964277,0.8892588019371033
6.4,1.6886862239199724e+18,21.395972330729165,0.0275394717852274,-0.0416380564371744,0.2088016668955484,1.688686223928624e+18,21.404623942057288,-0.6109673976898193,-9.748359362284342,-1.0015956560770671,1.6886862239199724e+18,21.395972330729165,-0.5486399928728739,-9.709954579671225,-1.2852482398351033,1.6886862239243028e+18,21.400302978515622,0.0062613689806311,0.0822377316653727,0.0584903471171855,1.6886862239243028e+18,21.400302978515622,0.0051923546707257,0.0866665057837962,0.0607810914516448,,,,,,,,,,,,1.6886862239238484e+18,21.399848486328125,-13.378519630432129,42.39499893188477,0.1951999992132186,1.6886862239238484e+18,21.399848486328125,-268.72451171875,137.4207977294922,-132.52859802246093,1.6886862239199724e+18,21.395972330729165,-0.673013707002004,0.7247851292292277,-0.0514647488792736,0.138166939218839,1.9742439985275269,1.4278629620869954,0.8976683219273885
6.45,1.6886862239718904e+18,21.447890625,-0.1349064111709594,0.0107736587524413,0.1537652015686034,1.688686223980543e+18,21.456543050130207,-0.618943472703298,-9.723633766174316,-1.0973085562388103,1.6886862239718904e+18,21.447890625,-0.5425251722335815,-9.710721015930176,-1.2820562918980916,1.688686223967564e+18,21.44356412760417,-0.0033088533770448,0.0365501027554273,-0.0050905433793862,1.688686223967564e+18,21.44356412760417,-0.0043778674056132,0.0409788762529691,-0.0027997990449269,1.688686223965286e+18,21.4412861328125,0.0,0.0,1.0261812210083008,11.012999534606934,0.3596744537353515,171.13327026367188,40.20000076293945,-122.7531945,49.1903319,1.6886862239738524e+18,21.449852392578123,-12.87831974029541,42.565799713134766,0.185439994931221,1.6886862239738524e+18,21.449852392578123,-268.22431640625,137.5915985107422,-132.53835754394532,1.6886862239718904e+18,21.447890625,-0.6735042730967203,0.7246532837549845,-0.0502786015470822,0.1369002461433409,1.9711084763209024,1.4284117221832275,0.9043171604474386
6.5,1.6886862240238016e+18,21.499801513671873,0.108137438694636,-0.0275627772013346,-0.027087926864624,1.688686224023806e+18,21.499805786132814,-0.4085744619369507,-9.768698692321776,-1.2406785488128662,1.6886862240238016e+18,21.499801513671873,-0.5409029324849447,-9.711467425028482,-1.2770756085713704,1.6886862240194808e+18,21.495480957031248,-0.0023416501935571,0.0497855183978875,0.0299833020350585,1.6886862240194808e+18,21.495480957031248,-0.0034106642318268,0.0543161022166411,0.0323758580295058,,,,,,,,,,,,1.6886862240238492e+18,21.499849169921873,-13.295559692382811,42.45355987548828,0.3464799925684929,1.6886862240238492e+18,21.499849169921873,-268.6415649414063,137.47935791015624,-132.3773193359375,1.6886862240238016e+18,21.499801513671873,-0.6736688415209452,0.7246095736821493,-0.0500858388841151,0.1363901098569233,1.9714284340540569,1.4289488792419434,0.9050076007843018
6.55,1.688686224075719e+18,21.551718750000003,-0.0955249071121215,0.0106185277303059,0.0635792016983032,1.6886862240670676e+18,21.54306762695313,-0.5930212140083313,-9.719844818115234,-1.1944173177083333,1.688686224075719e+18,21.551718750000003,-0.5336514314015707,-9.711563110351562,-1.2794077396392822,1.688686224071393e+18,21.54739298502604,0.0115555341665942,0.0919352198640505,0.018122335585455,1.688686224071393e+18,21.54739298502604,0.0104865198954939,0.096414898832639,0.0204130799199143,,,,,,,,,,,,1.6886862240738514e+18,21.549851269531253,-13.58347969055176,42.185159301757814,0.5392399922013282,1.6886862240738514e+18,21.549851269531253,-268.9294738769531,137.2109588623047,-132.18455810546874,1.688686224075719e+18,21.551718750000003,-0.6742634574572245,0.7244870265324911,-0.0481302787860234,0.1347984572251637,1.965959390004476,1.429018537203471,0.9155508478482564
6.6,1.6886862241276365e+18,21.603636393229166,0.001956303914388,-0.002208391825358,0.0993862946828206,1.6886862241189847e+18,21.59498461914062,-0.5393821001052856,-9.725627581278482,-1.0809576114018755,1.6886862241276365e+18,21.603636393229166,-0.5308334628740946,-9.712095896402994,-1.2765308618545532,1.688686224123307e+18,21.599306884765625,-0.008297586076272,0.0288633834570645,0.0087048296894256,1.688686224123307e+18,21.599306884765625,-0.0093666004298331,0.0333430605630079,0.0109955741403002,,,,,,,,,,,,1.688686224123857e+18,21.599856884765625,-13.527359771728516,42.18515853881836,0.2659599900245666,1.688686224123857e+18,21.599856884765625,-268.87335815429685,137.2109588623047,-132.45783386230468,1.6886862241276365e+18,21.603636393229166,-0.6745508313179016,0.7244398991266886,-0.0473426356911658,0.1338906486829121,1.9648785591125488,1.4294026692708333,0.9190579652786256
