seconds_elapsed_rounded,accelerometer_time,accelerometer_seconds_elapsed,accelerometer_z,accelerometer_y,accelerometer_x,accelerometeruncalibrated_time,accelerometeruncalibrated_seconds_elapsed,accelerometeruncalibrated_z,accelerometeruncalibrated_y,accelerometeruncalibrated_x,gravity_time,gravity_seconds_elapsed,gravity_z,gravity_y,gravity_x,gyroscope_time,gyroscope_seconds_elapsed,gyroscope_z,gyroscope_y,gyroscope_x,gyroscopeuncalibrated_time,gyroscopeuncalibrated_seconds_elapsed,gyroscopeuncalibrated_z,gyroscopeuncalibrated_y,gyroscopeuncalibrated_x,location_time,location_seconds_elapsed,location_bearingAccuracy,location_speedAccuracy,location_verticalAccuracy,location_horizontalAccuracy,location_speed,location_bearing,location_altitude,location_longitude,location_latitude,magnetometer_time,magnetometer_seconds_elapsed,magnetometer_z,magnetometer_y,magnetometer_x,magnetometeruncalibrated_time,magnetometeruncalibrated_seconds_elapsed,magnetometeruncalibrated_z,magnetometeruncalibrated_y,magnetometeruncalibrated_x,orientation_time,orientation_seconds_elapsed,orientation_qz,orientation_qy,orientation_qx,orientation_qw,orientation_roll,orientation_pitch,orientation_yaw
0.0,1.6886862325205944e+18,29.996594401041666,-0.0920244852701822,0.0389204025268554,-0.1037246386210123,1.688686232529247e+18,30.005247070312503,-0.736590584119161,-9.70189889272054,-1.20478622118632,1.6886862325205944e+18,29.996594401041666,-0.6250880559285482,-9.72012424468994,-1.1681358019510906,1.6886862325249226e+18,30.00092260742187,-0.0081703227479009,0.041538837365806,0.0409279707819223,1.6886862325249226e+18,30.00092260742187,-0.0092393369413911,0.0459676086902618,0.0432187169790267,,,,,,,,,,,,1.6886862325238513e+18,29.999851123046874,-14.64731960296631,41.43607940673828,3.9015599727630614,1.6886862325238513e+18,29.999851123046874,-269.9933166503906,136.46187744140624,-128.82223815917968,1.6886862325205944e+18,29.996594401041666,-0.6821011304855347,0.7286710143089294,0.0299754148970047,0.0536466812094052,2.0621442794799805,1.4353307485580444,1.0458942254384358
0.05,1.68868623257251e+18,30.048509765625,-0.0759005546569823,0.0442428588867186,-0.0738942225774128,1.6886862325811643e+18,30.057164388020833,-0.6667999227841696,-9.686146100362144,-1.167498032251994,1.68868623257251e+18,30.048509765625,-0.6204741994539896,-9.720860481262209,-1.1644666989644368,1.6886862325681828e+18,30.044182779947917,-0.0088066404374936,0.0058032199740408,-0.0044796785029272,1.6886862325681828e+18,30.044182779947917,-0.0098756550190348,0.0102828983217477,-0.0021889337028065,,,,,,,,,,,,1.6886862325738524e+18,30.04985234375,-14.610719871520995,41.365319061279294,3.711239910125733,1.6886862325738524e+18,30.04985234375,-269.9567138671875,136.3911163330078,-129.01255493164064,1.68868623257251e+18,30.048509765625,-0.6823068857192993,0.7285020550092062,0.0301599813004334,0.0532212033867835,2.0603792667388916,1.435887575149536,1.0485249757766724
0.1,1.688686232624424e+18,30.100423990885417,-0.0838359793027242,0.0467106501261392,0.0039267539978027,1.688686232624425e+18,30.10042504882812,-0.715753048658371,-9.696914196014404,-1.0767702460289,1.688686232624424e+18,30.100423990885417,-0.6320801575978597,-9.720536231994627,-1.1609317064285278,1.6886862326200986e+18,30.0960986328125,-0.0035633804897466,0.0496837055931487,-0.0178678082302212,1.6886862326200986e+18,30.0960986328125,-0.004632394760847,0.0541633833199739,-0.015577063585321,,,,,,,,,,,,1.688686232623848e+18,30.099847949218752,-14.217879676818848,41.309199523925784,3.9381597995758058,1.688686232623848e+18,30.099847949218752,-269.5638732910156,136.33499755859376,-128.78563842773437,1.688686232624424e+18,30.100423990885417,-0.6819233894348145,0.7288906375567118,0.0305737908929586,0.0525744892656802,2.0693840185801187,1.4356417655944824,1.041024128595988
0.15,1.688686232676339e+18,30.15233911132813,-0.0727587143580118,0.0438674290974934,-0.0476021369298298,1.688686232667686e+18,30.14368644205729,-0.7704888979593912,-9.691131273905436,-1.1250254313151042,1.688686232676339e+18,30.15233911132813,-0.650934100151062,-9.72048473358154,-1.150878389676412,1.688686232672012e+18,30.148011881510417,-0.0333939672758181,-0.0473929612586895,-0.0476474886139233,1.688686232672012e+18,30.148011881510417,-0.0344629809260368,-0.042862377439936,-0.0453567436585823,,,,,,,,,,,,1.6886862326738547e+18,30.1498546875,-13.932399940490722,41.58003921508789,3.9308398723602296,1.6886862326738547e+18,30.1498546875,-269.2783996582031,136.6058380126953,-128.79295654296874,1.688686232676339e+18,30.15233911132813,-0.6812476714452108,0.7295644481976827,0.0302038074781497,0.0521969571709632,2.0855462551116943,1.4356025457382202,1.0248720248540242
0.2,1.6886862327282524e+18,30.204252278645836,0.3436326881249745,-0.0555311838785807,-0.0841570297876993,1.688686232719602e+18,30.19560205078125,-0.3142573833465575,-9.795817057291666,-1.1483554442723591,1.6886862327282524e+18,30.204252278645836,-0.6653313239415487,-9.72118600209554,-1.1366565227508545,1.6886862327239304e+18,30.19993058268229,-0.024230988540997,-0.0355829000473022,-0.0234674063200751,1.6886862327239304e+18,30.19993058268229,-0.025300002656877,-0.0311032216995954,-0.021176661675175,,,,,,,,,,,,1.6886862327238523e+18,30.199852294921875,-13.624959754943848,41.6385986328125,3.7453999519348145,1.6886862327238523e+18,30.199852294921875,-268.9709533691406,136.66439819335938,-128.9783966064453,1.6886862327282524e+18,30.204252278645836,-0.680649995803833,0.7301437060038248,0.0283036461720863,0.0529591552913188,2.1003758112589517,1.4361344575881958,1.0062683820724487
0.25,1.6886862327801664e+18,30.256166341145832,-0.0948500235875447,-0.0019022623697916,-0.1264472802480061,1.6886862327715174e+18,30.24751749674479,-0.6917251547177633,-9.73719278971354,-1.2111670573552449,1.6886862327801664e+18,30.256166341145832,-0.6505776047706604,-9.722372055053713,-1.1350442171096802,1.6886862327758408e+18,30.25184073893229,-0.0023925556063962,-0.0205148911724487,0.0405716337263583,1.6886862327758408e+18,30.25184073893229,-0.0034615697028735,-0.0160352125143011,0.0428623780608177,,,,,,,,,,,,1.6886862327738516e+18,30.24985151367188,-14.334999656677246,41.6190788269043,3.764919948577881,1.6886862327738516e+18,30.24985151367188,-269.6809936523438,136.6448760986328,-128.95887756347656,1.6886862327801664e+18,30.256166341145832,-0.6812104185422262,0.7296281456947327,0.0283149766425291,0.0528517415126164,2.091257890065511,1.437037984530131,1.015556772549947
0.3,1.688686232823433e+18,30.29943298339844,-0.0579956769943237,0.0500969886779785,0.0142637491226196,1.68868623282343e+18,30.299429931640628,-0.6973083813985189,-9.691729227701822,-1.0671988725662231,1.688686232823433e+18,30.29943298339844,-0.6396751999855042,-9.722626686096191,-1.1390653252601624,1.6886862328277573e+18,30.30375732421875,0.0108428578823804,-0.0519235444565613,7.761023363324811e-11,1.6886862328277573e+18,30.30375732421875,0.0097738439217209,-0.047494774373869,0.0022907448583282,,,,,,,,,,,,1.688686232823854e+18,30.29985405273437,-14.051959609985351,41.46779861450195,3.799079847335816,1.688686232823854e+18,30.29985405273437,-269.39794921875,136.49360046386718,-128.92471618652343,1.688686232823433e+18,30.29943298339844,-0.6815243661403656,0.7292840778827667,0.0273476904258131,0.054049240425229,2.082492709159851,1.4372320771217346,1.021251201629639
0.35,1.6886862328666918e+18,30.342691569010416,-0.0483937263488769,0.0296173095703125,0.0516824722290038,1.6886862328753492e+18,30.35134944661458,-0.6781658331553141,-9.722237904866535,-1.039880871772766,1.6886862328666918e+18,30.342691569010416,-0.6453888018925985,-9.721588770548502,-1.1446794271469116,1.6886862328796751e+18,30.35567504882813,0.0092647895216941,-0.0174096599221229,-0.0238237443069616,1.6886862328796751e+18,30.35567504882813,0.0081957752505937,-0.0129299803326527,-0.0215329999725023,,,,,,,,,,,,1.6886862328738504e+18,30.349850244140622,-13.951919555664062,41.48731918334961,3.677079916000366,1.6886862328738504e+18,30.349850244140622,-269.29791870117185,136.51311950683595,-129.04671936035157,1.6886862328666918e+18,30.342691569010416,-0.681276818116506,0.7294852137565613,0.0273040011525153,0.0544766448438167,2.0841851234436035,1.4364410638809204,1.018890619277954
0.4,1.6886862329186068e+18,30.39460693359375,0.1687538524468739,-0.0437924067179361,0.0597794850667317,1.6886862329272614e+18,30.403261555989584,-0.4769693116346995,-9.78823979695638,-1.0342976252237956,1.6886862329186068e+18,30.39460693359375,-0.6531644264856974,-9.720561981201172,-1.148987809816996,1.6886862329315912e+18,30.40759106445313,0.0109955742955207,-0.003003420929114,-0.0014253521027664,1.6886862329315912e+18,30.40759106445313,0.0099265603348612,0.0014253519475459,0.000865392309303,1.688686232922449e+18,30.398448974609376,0.0,0.0,1.008317947387695,10.010000228881836,0.3427043557167053,165.68478393554688,40.20000076293945,-122.7531754,49.1903005,1.6886862329238574e+18,30.39985732421875,-14.127599716186523,41.67763900756836,3.9796399116516112,1.6886862329238574e+18,30.39985732421875,-269.4736022949219,136.70343322753905,-128.74415893554686,1.6886862329186068e+18,30.39460693359375,-0.680942157904307,0.7297669251759847,0.0270357641081015,0.0550193724532921,2.0877156257629395,1.4356612364451091,1.014210224151611
0.45,1.6886862329705254e+18,30.446525390625,0.0544787049293517,-1.3669331868499992e-05,0.0038815736770629,1.6886862329791826e+18,30.4551826171875,-0.5934200286865234,-9.723633448282875,-1.1032906373341878,1.6886862329705254e+18,30.446525390625,-0.6457686622937521,-9.72047233581543,-1.1539074579874675,1.688686232974853e+18,30.45085302734375,0.0062613687478005,-0.0207694191485643,0.0287106661126017,1.688686232974853e+18,30.45085302734375,0.0051923546707256,-0.0162642872892319,0.0310014113783836,,,,,,,,,,,,1.6886862329738575e+18,30.449857666015625,-14.298399734497073,41.54831924438477,3.7429598331451417,1.6886862329738575e+18,30.449857666015625,-269.64439086914064,136.5741180419922,-128.9808319091797,1.6886862329705254e+18,30.446525390625,-0.6812001466751099,0.7295037508010864,0.0271676828463872,0.0552502249677975,2.08101216952006,1.435593883196513,1.0207734107971191
0.5,1.6886862330224407e+18,30.49844091796875,0.0008737444877624,0.0117235183715819,-0.0396276712417602,1.6886862330310932e+18,30.50709326171875,-0.6572286089261373,-9.732806205749512,-1.1214361985524497,1.6886862330224407e+18,30.49844091796875,-0.6320440769195557,-9.720644315083822,-1.160049279530843,1.6886862330181192e+18,30.49411922200521,0.0139989955350756,-0.0113519122824072,0.020667607585589,1.6886862330181192e+18,30.49411922200521,0.0129299807983139,-0.0069231394057472,0.0229583519200483,,,,,,,,,,,,1.688686233023849e+18,30.499848925781247,-13.944599723815918,41.41899948120117,3.8405599117279055,1.688686233023849e+18,30.499848925781247,-269.29059448242185,136.44479675292968,-128.88323669433595,1.6886862330224407e+18,30.49844091796875,-0.6816685597101847,0.7290282448132833,0.0270575794080893,0.0558011345565318,2.0696805318196616,1.435723622639974,1.0311685800552368
0.55,1.6886862330743488e+18,30.55034847005209,-0.0691607991854349,0.020059585571289,0.1010360320409138,1.6886862330743557e+18,30.55035559082031,-0.6894320249557495,-9.714262008666992,-0.9978070259094238,1.6886862330743488e+18,30.55034847005209,-0.6262169480323792,-9.720007260640465,-1.168509562810262,1.6886862330700268e+18,30.546026774088546,0.0147625768246749,-0.0051414490832636,0.0063122740636268,1.6886862330700268e+18,30.546026774088546,0.0136935623983541,-0.0005599597352557,0.008603018708527,,,,,,,,,,,,1.688686233073852e+18,30.549851953125,-14.215439605712891,41.49707946777344,3.652679967880249,1.688686233073852e+18,30.549851953125,-269.5614379882812,136.52287902832032,-129.0711212158203,1.6886862330743488e+18,30.55034847005209,-0.6818627317746481,0.7288120985031128,0.0273929803321758,0.0560883420209089,2.062767505645752,1.4352434873580933,1.03814963499705
0.6,1.688686233126271e+18,30.602270833333336,0.0092943906784057,-0.0039717356363932,0.0619682868321736,1.6886862331176154e+18,30.593615315755205,-0.622333288192749,-9.736594518025717,-1.0476575295130413,1.688686233126271e+18,30.602270833333336,-0.6263071894645691,-9.719903945922852,-1.1693221728007,1.6886862331219466e+18,30.59794669596354,-0.0005599597934633,-0.0133372242562472,0.0030034210843344,1.6886862331219466e+18,30.59794669596354,-0.001628974006356,-0.0088575459085404,0.0052941655740141,,,,,,,,,,,,1.6886862331238528e+18,30.599852880859373,-13.98119945526123,41.702039337158205,4.018680000305176,1.6886862331238528e+18,30.599852880859373,-269.3271911621094,136.72783508300782,-128.70511779785156,1.688686233126271e+18,30.602270833333336,-0.6818318963050842,0.7288262446721395,0.027099210768938,0.0564200542867183,2.062537590662638,1.4351644118626912,1.0374910831451416
0.65,1.6886862331781847e+18,30.6541845703125,-0.0090630650520324,0.0021470387776692,0.1270087957382201,1.6886862331695342e+18,30.64553450520833,-0.6209374666213989,-9.741978645324709,-0.9838489095369974,1.6886862331781847e+18,30.6541845703125,-0.619515061378479,-9.720239957173666,-1.1701552867889404,1.688686233173862e+18,30.64986197916667,0.0060577470188338,0.0168496997406084,0.0155261584247151,1.688686233173862e+18,30.64986197916667,0.0049887329029539,0.0213293783987561,0.0178169030696152,,,,,,,,,,,,1.6886862331738578e+18,30.649857666015624,-14.25447998046875,41.42387924194336,3.647799921035767,1.6886862331738578e+18,30.649857666015624,-269.60048217773436,136.44967651367188,-129.07599487304688,1.6886862331781847e+18,30.6541845703125,-0.6821004350980123,0.7285789847373962,0.0273627564311027,0.0562407796581585,2.05772066116333,1.435417652130127,1.0429373184839883
0.7,1.6886862332301007e+18,30.706100911458336,-0.0467326839764912,0.0164998372395833,0.0086466471354166,1.6886862332214484e+18,30.69744832356771,-0.6444668968518575,-9.725228945414225,-1.071585734685262,1.6886862332301007e+18,30.706100911458336,-0.6099610924720764,-9.720834096272789,-1.1702378590901692,1.6886862332257743e+18,30.7017744140625,0.0008144869789247,0.0142535221142072,0.0242818935463825,1.6886862332257743e+18,30.7017744140625,-0.000254527190312,0.0187332012380162,0.0265726378808418,,,,,,,,,,,,1.688686233223851e+18,30.699851025390625,-14.3764799118042,41.54831924438477,3.867399930953979,1.688686233223851e+18,30.699851025390625,-269.72247314453125,136.57411499023436,-128.856396484375,1.6886862332301007e+18,30.706100911458336,-0.6824766000111898,0.7282345493634542,0.0276341550052165,0.056004699319601,2.051292578379313,1.435866395632426,1.0500850677490234
0.75,1.6886862332733637e+18,30.749363525390628,-0.043156087398529,0.0199699401855468,-0.0297842025756835,1.6886862332733617e+18,30.74936173502604,-0.6269195278485616,-9.720243771870932,-1.132403294245402,1.6886862332733637e+18,30.749363525390628,-0.6060601472854614,-9.720914363861084,-1.1715876460075378,1.6886862332776868e+18,30.753686767578127,0.006006841547787,0.0288124773651361,0.0024943663738668,1.6886862332776868e+18,30.753686767578127,0.0049378274319071,0.0332921557128429,0.0047851109072022,,,,,,,,,,,,1.6886862332738575e+18,30.749857519531247,-14.266679763793944,41.39215927124023,3.8576398849487306,1.6886862332738575e+18,30.749857519531247,-269.6126647949219,136.41795654296874,-128.86615600585938,1.6886862332733637e+18,30.749363525390628,-0.6826472580432892,0.7280815541744232,0.0280681736767291,0.055697588250041,2.0482014417648315,1.4359285235404968,1.0542267560958862
0.8,1.6886862333166213e+18,30.792621256510415,0.0520526965459188,0.0208336512247721,0.0433004697163899,1.68868623332528e+18,30.80127978515625,-0.5778666536013285,-9.734999338785808,-1.066600680351257,1.6886862333166213e+18,30.792621256510415,-0.6070515116055807,-9.720781008402506,-1.172189752260844,1.688686233329606e+18,30.805605957031247,-0.0010181087418459,0.0447967847188313,0.011606439637641,1.688686233329606e+18,30.805605957031247,-0.0020871229935437,0.0493273697793483,0.0138971841273207,,,,,,,,,,,,1.6886862333238533e+18,30.7998533203125,-14.320359802246092,41.477560424804686,3.7990798950195312,1.6886862333238533e+18,30.7998533203125,-269.666357421875,136.50335693359375,-128.92472229003906,1.6886862333166213e+18,30.792621256510415,-0.6826531688372294,0.7280925710995992,0.0286775001635153,0.0551673260827858,2.0486607551574707,1.435826579729716,1.0553832451502485
0.85,1.6886862333685384e+18,30.844538655598956,-0.0676557620366414,-0.0117362340291341,0.0232949256896972,1.6886862333771912e+18,30.85319116210938,-0.6683951218922933,-9.725228945414225,-1.0879366795221963,1.6886862333685384e+18,30.844538655598956,-0.6016003489494324,-9.721511522928871,-1.1689339478810628,1.6886862333815217e+18,30.857521809895832,-0.0032579480515171,0.0454076503713925,0.0135408461404342,1.6886862333815217e+18,30.857521809895832,-0.004326962167397,0.0498873280982176,0.0158315909405548,,,,,,,,,,,,1.6886862333738514e+18,30.84985146484375,-14.452119827270508,41.55075912475586,4.055279874801636,1.6886862333738514e+18,30.84985146484375,-269.79811401367186,136.5765594482422,-128.66851806640625,1.6886862333685384e+18,30.844538655598956,-0.6829275290171305,0.7278736631075541,0.0293850923577943,0.0542812459170818,2.046119213104248,1.4363813797632854,1.060185194015503
0.9,1.688686233420456e+18,30.8964560546875,-0.0574731429417927,0.0319163004557291,-0.0241351524988809,1.6886862334291087e+18,30.905108642578124,-0.6426722804705302,-9.728020350138346,-1.1262218554814656,1.688686233420456e+18,30.8964560546875,-0.604006290435791,-9.721694310506184,-1.1661699215571086,1.688686233424784e+18,30.9007841796875,-0.0022907446546014,0.035735617391765,-0.0144316917285322,1.688686233424784e+18,30.9007841796875,-0.0033597588771953,0.0402407478541135,-0.0121409471612423,,,,,,,,,,,,1.688686233423849e+18,30.899849072265624,-14.344759559631347,41.39459915161133,4.004039859771728,1.688686233423849e+18,30.899849072265624,-269.6907531738281,136.42039794921874,-128.71975708007812,1.688686233420456e+18,30.8964560546875,-0.6829091310501099,0.7279269496599833,0.0301405377686023,0.0533758824070294,2.048709233601888,1.4365193843841553,1.0599483648935957
0.95,1.688686233472368e+18,30.948367919921875,0.0247161785761515,0.0940332412719726,-0.1165586312611897,1.6886862334810245e+18,30.957024007161458,-0.6079763770103455,-9.623733520507812,-1.2464611927668254,1.688686233472368e+18,30.948367919921875,-0.6193959712982178,-9.720999717712402,-1.1638760964075725,1.6886862334680463e+18,30.94404638671875,-0.010893763663868,-0.0151698204378287,-0.0391462805370489,1.6886862334680463e+18,30.94404638671875,-0.0119627780125786,-0.0106901420901219,-0.0368555362025896,,,,,,,,,,,,1.6886862334738516e+18,30.949851562499997,-14.21055965423584,41.53855972290039,3.950359964370727,1.6886862334738516e+18,30.949851562499997,-269.5565612792969,136.56435546875,-128.7734375,1.688686233472368e+18,30.948367919921875,-0.6823468009630839,0.7284664312998453,0.0301196426153182,0.0532186118264992,2.059873898824056,1.435991644859314,1.0489767789840698
1.0,1.6886862335242862e+18,31.000286295572916,0.028155376513799,0.004458745320638,-0.1824748913447061,1.6886862335242875e+18,31.000287719726565,-0.633499801158905,-9.748658180236816,-1.280160129070282,1.6886862335242862e+18,31.000286295572916,-0.6379897197087606,-9.7203582127889,-1.159176230430603,1.688686233519962e+18,30.995961832682298,-0.0177150924379626,-0.1150462875763574,-0.0509563436110813,1.688686233519962e+18,30.995961832682298,-0.0187841063986221,-0.1105666110912958,-0.0486655967930952,,,,,,,,,,,,1.6886862335238518e+18,30.999851953125,-14.261799812316896,41.5995590209961,3.764919900894165,1.6886862335238518e+18,30.999851953125,-269.60780029296876,136.62535705566407,-128.95888061523436,1.6886862335242862e+18,31.000286295572916,-0.6815421382586161,0.7291905879974365,0.0282638520002364,0.0546047290166218,2.0739447275797525,1.435506780942281,1.030309756596883
1.05,1.6886862335762012e+18,31.052201171875,0.4432112375895182,-0.0542790095011392,-0.0167715152104695,1.688686233567549e+18,31.043548990885416,-0.2221337010463078,-9.772088368733725,-1.1493524710337322,1.6886862335762012e+18,31.052201171875,-0.6648101409276327,-9.718250592549644,-1.1617688337961831,1.6886862335718707e+18,31.04787076822917,0.0058032199740409,-0.0391971863185366,-0.0688241521517435,1.6886862335718707e+18,31.04787076822917,0.004734205858161,-0.0346666028102239,-0.0665334053337573,,,,,,,,,,,,1.6886862335738527e+18,31.049852832031252,-13.978759574890136,41.36531829833984,3.686839962005615,1.6886862335738527e+18,31.049852832031252,-269.324755859375,136.3911163330078,-129.03695983886718,1.6886862335762012e+18,31.052201171875,-0.6804118951161703,0.7301847139994303,0.026756294692556,0.0561602798600991,2.0905633767445884,1.4339229265848796,1.0093467235565186
1.1,1.6886862336281132e+18,31.104113362630205,-0.0438830455144245,-0.0138219197591145,-0.0387692054112752,1.6886862336194642e+18,31.095464111328123,-0.634496808052063,-9.77129077911377,-1.110469102859497,1.6886862336281132e+18,31.104113362630205,-0.6506970922152201,-9.718827565511068,-1.16489577293396,1.6886862336237924e+18,31.099792236328124,-0.0001018106704578,-0.0372627812127272,0.0639881355067094,1.6886862336237924e+18,31.099792236328124,-0.0011708251549862,-0.0328340077151854,0.0663297822078068,,,,,,,,,,,,1.6886862336238584e+18,31.09985830078125,-14.169079780578612,41.399479675292966,3.794199895858765,1.6886862336238584e+18,31.09985830078125,-269.51507568359375,136.42527465820314,-128.92959899902343,1.6886862336281132e+18,31.104113362630205,-0.6809121370315552,0.7296958367029825,0.0266502741724252,0.0564972907304762,2.080204486846924,1.434354583422343,1.019077221552531
1.15,1.6886862336800315e+18,31.156031494140624,-0.0864305893580118,0.104411760965983,-0.1766383647918701,1.6886862336713705e+18,31.147370442708336,-0.6969096064567566,-9.640881856282553,-1.287139177322388,1.6886862336800315e+18,31.156031494140624,-0.6354676087697347,-9.719613393147789,-1.1668073733647664,1.6886862336757002e+18,31.151700276692708,-0.0064649905155722,-0.140957161784172,-0.0126754535983006,1.6886862336757002e+18,31.151700276692708,-0.0075340045150368,-0.1364774778485298,-0.0103847091086208,,,,,,,,,,,,1.688686233673849e+18,31.149849365234378,-13.84699993133545,41.44095993041992,3.964999914169311,1.688686233673849e+18,31.149849365234378,-269.1929931640625,136.46676025390624,-128.75879516601563,1.6886862336800315e+18,31.156031494140624,-0.6812921166419983,0.7292417685190836,0.0244128530224164,0.0587420438726742,2.06952174504598,1.434943477312724,1.0234065055847168
1.2,1.688686233723298e+18,31.199297973632813,-0.1906608343124389,0.0229473114013672,0.0091270804405212,1.6886862337232955e+18,31.19929532877604,-0.8085746566454569,-9.69452095031738,-1.1062816778818767,1.688686233723298e+18,31.199297973632813,-0.6356242597103119,-9.718807220458984,-1.1734102368354795,1.688686233727622e+18,31.20362215169271,0.0116573451086878,-0.0828231448928514,-0.0253000025792668,1.688686233727622e+18,31.20362215169271,0.0105883309928078,-0.0783943732579548,-0.0230092569254338,,,,,,,,,,,,1.6886862337238513e+18,31.199851416015623,-14.137359619140623,41.51659927368164,3.740519905090332,1.6886862337238513e+18,31.199851416015623,-269.483349609375,136.5424011230469,-128.9832763671875,1.688686233723298e+18,31.199297973632813,-0.681120365858078,0.7292972505092621,0.0228757951408624,0.0606404207646845,2.0672558546066284,1.4343392848968506,1.0207999348640442
1.25,1.6886862337665556e+18,31.24255558268229,-0.0265626708666483,0.0407323837280273,0.090504765510559,1.6886862337752092e+18,31.251209228515624,-0.6462615132331848,-9.716056187947592,-1.0285149415334065,1.6886862337665556e+18,31.24255558268229,-0.6624342203140259,-9.71675173441569,-1.1755256255467732,1.6886862337795372e+18,31.255537109375,-0.0113010068113604,-0.068773246059815,-0.0941241507728894,1.6886862337795372e+18,31.255537109375,-0.0123700213929016,-0.0643444719413916,-0.0918334101637204,,,,,,,,,,,,1.6886862337738527e+18,31.249852734375004,-13.925079917907714,41.489759826660155,3.5892399311065675,1.6886862337738527e+18,31.249852734375004,-269.2710815429688,136.51555786132812,-129.13455810546876,1.6886862337665556e+18,31.24255558268229,-0.6800204316775004,0.7302649021148682,0.0218384520461161,0.0617077238857745,2.083942174911499,1.432808756828308,1.0011264483133953
1.3,1.6886862338184724e+18,31.294472656249997,0.2163862387339273,-0.0729522705078124,0.0783649285634358,1.688686233827124e+18,31.303123697916664,-0.4753741025924682,-9.810572624206545,-1.0311071872711182,1.6886862338184724e+18,31.294472656249997,-0.691225508848826,-9.715330123901367,-1.1707636912663777,1.6886862338314478e+18,31.30744807942709,-0.014151711637775,-0.078852521876494,-0.0129808864245812,1.6886862338314478e+18,31.30744807942709,-0.0152207259088754,-0.0744237477580705,-0.0106901420901219,,,,,,,,,,,,1.6886862338238492e+18,31.2998494140625,-13.493199729919434,41.78255844116211,3.713679885864258,1.6886862338238492e+18,31.2998494140625,-268.8391967773438,136.80835876464843,-129.01011657714844,1.6886862338184724e+18,31.294472656249997,-0.6788277824719747,0.7313189705212911,0.0200990065932273,0.0629375005761781,2.104149023691813,1.431757132212321,0.9767053723335266
1.35,1.688686233870385e+18,31.346384847005208,-0.0228861172993977,0.0008598963419596,0.0551973978678385,1.6886862338790395e+18,31.35503963216146,-0.738584578037262,-9.70748202006022,-1.0562318166097004,1.688686233870385e+18,31.346384847005208,-0.6816641290982565,-9.716560363769531,-1.1661405165990193,1.6886862338747162e+18,31.350716064453124,-0.009850202128291,-0.0758236460387706,0.0301614711061119,1.6886862338747162e+18,31.350716064453124,-0.0109192160889505,-0.0713185183703898,0.0324522154405712,,,,,,,,,,,,1.6886862338738555e+18,31.34985561523437,-13.737199783325195,41.54343948364258,3.5111599445343016,1.6886862338738555e+18,31.34985561523437,-269.08319702148435,136.5692352294922,-129.21263732910157,1.688686233870385e+18,31.346384847005208,-0.6790745457013448,0.7310284972190857,0.0184837734947601,0.0641340638200441,2.0997889041900635,1.4326653480529783,0.9770798087120056
1.4,1.688686233922303e+18,31.398302978515627,-0.1567274729410807,0.056230862935384,-0.0050567785898844,1.688686233930952e+18,31.40695198567708,-0.8085746367772421,-9.692527135213217,-1.117248773574829,1.688686233922303e+18,31.398302978515627,-0.6754399736722311,-9.717095375061035,-1.1653080781300862,1.6886862339179738e+18,31.39397387695313,-0.004326962167397,-0.0629700248440106,-0.0136426572377483,1.6886862339179738e+18,31.39397387695313,-0.0053959762056667,-0.058541253209114,-0.0113519125928481,1.688686233922476e+18,31.39847607421875,0.0,0.0,1.0186963081359863,10.180999755859377,0.2762512862682342,165.89190673828125,40.20000076293945,-122.753179,49.1903091,1.6886862339238513e+18,31.39985126953125,-13.766479873657229,41.609318542480466,3.242759943008423,1.6886862339238513e+18,31.39985126953125,-269.1124755859375,136.63511352539064,-129.4810363769531,1.688686233922303e+18,31.398302978515627,-0.6791946689287821,0.7308437824249268,0.0171512768914301,0.0653272221485773,2.096110979715983,1.4330626328786211,0.977176328500112
1.45,1.6886862339742134e+18,31.45021346028646,0.0846480329831441,-0.0321483612060546,0.0070255200068156,1.6886862339742172e+18,31.450217041015627,-0.5886343717575073,-9.768997192382812,-1.095613658428192,1.6886862339742134e+18,31.45021346028646,-0.6980716188748678,-9.715456008911133,-1.1656256914138794,1.688686233969887e+18,31.44588680013021,-0.0026470827482019,-0.0485128822426,-0.0568104684352874,1.688686233969887e+18,31.44588680013021,-0.0037160968252767,-0.0440332032740116,-0.0544688180088996,,,,,,,,,,,,1.6886862339738514e+18,31.4498513671875,-13.556639671325684,41.687399291992186,3.4379598617553713,1.6886862339738514e+18,31.4498513671875,-268.9026306152344,136.71319580078125,-129.28583984375,1.6886862339742134e+18,31.45021346028646,-0.6782541076342264,0.7316561937332153,0.0161099632581074,0.0662641078233718,2.110399087270101,1.4318516254425049,0.9600798487663268
1.5,1.6886862340261322e+18,31.50213232421875,0.0353801846504211,-0.0115941365559895,0.0367286602656046,1.6886862340174797e+18,31.493479736328123,-0.6109673778216044,-9.752347310384115,-1.0572288036346436,1.6886862340261322e+18,31.50213232421875,-0.7016452550888062,-9.715272585550943,-1.1650197505950928,1.688686234021808e+18,31.497808268229164,-0.0057523143477737,-0.0551305897533893,0.0105883308375875,1.688686234021808e+18,31.497808268229164,-0.006821328618874,-0.0506509107848008,0.0128790757929285,,,,,,,,,,,,1.6886862340238495e+18,31.499849853515627,-13.10279960632324,41.85575942993164,3.381839895248413,1.6886862340238495e+18,31.499849853515627,-268.44879150390625,136.88155517578124,-129.34195861816406,1.6886862340261322e+18,31.50213232421875,-0.6780325770378113,0.7318023641904196,0.0151002264271179,0.0671493982275326,2.112890084584554,1.4317160844802856,0.954900562763214
1.55,1.6886862340780475e+18,31.554047526041668,-0.1052287618319193,0.0584856669108072,-0.0016578435897827,1.6886862340693934e+18,31.545393554687504,-0.7800601919492086,-9.675378481547035,-1.1010972261428833,1.6886862340780475e+18,31.554047526041668,-0.6886535286903381,-9.71635913848877,-1.163721998532613,1.688686234073723e+18,31.54972273763021,-0.0090611679479479,-0.0866919582088788,0.0058541249794264,1.688686234073723e+18,31.54972273763021,-0.0101301819086074,-0.0821613743901252,0.0081957752505938,,,,,,,,,,,,1.6886862340738514e+18,31.549851318359373,-13.417559623718262,41.63127899169922,3.1402799129486083,1.6886862340738514e+18,31.549851318359373,-268.7635559082031,136.65707702636718,-129.58351440429686,1.6886862340780475e+18,31.554047526041668,-0.6783817807833353,0.7313803831736246,0.013540107756853,0.0685374314586321,2.105161984761556,1.4325168132781982,0.9584492643674216
1.6,1.688686234129961e+18,31.6059609375,-0.0480765302975971,0.0100091298421223,0.0373485485712686,1.688686234121306e+18,31.59730623372396,-0.7513463298479716,-9.712267557779947,-1.0689935286839802,1.688686234129961e+18,31.6059609375,-0.6963541110356649,-9.715938250223797,-1.162648598353068,1.6886862341256369e+18,31.60163704427083,-0.0033088534061485,-0.0244346090282002,-0.025605434551835,1.6886862341256369e+18,31.60163704427083,-0.0043778676384438,-0.0198531202040612,-0.0233146902173757,,,,,,,,,,,,1.688686234123851e+18,31.599851074218748,-13.693279838562011,41.71423873901367,3.396479940414429,1.688686234123851e+18,31.599851074218748,-269.0392822265625,136.7400360107422,-129.3273193359375,1.688686234129961e+18,31.6059609375,-0.6780102849006653,0.7316660086313883,0.0125635225946703,0.0693476969997087,2.110449473063151,1.4322054783503215,0.9506247440973916
1.65,1.6886862341732247e+18,31.64922473144531,-0.0691001117229461,-0.0340147018432616,0.1115742325782775,1.6886862341732252e+18,31.64922517903646,-0.7641080220540365,-9.76550801595052,-0.9784650405248008,1.6886862341732247e+18,31.64922473144531,-0.707234799861908,-9.715384483337402,-1.1607028245925903,1.6886862341775534e+18,31.653553385416668,-0.0077376263216136,-0.0466802865266799,-0.0201585525646805,1.6886862341775534e+18,31.653553385416668,-0.0088066407479345,-0.0421497020870446,-0.0178678080750007,,,,,,,,,,,,1.688686234173854e+18,31.64985395507812,-13.720119667053222,41.79963989257813,3.171999931335449,1.688686234173854e+18,31.64985395507812,-269.06611328125,136.8254364013672,-129.55179748535156,1.6886862341732247e+18,31.64922473144531,-0.6775671541690826,0.7320538461208344,0.0120267653837799,0.0696798898279666,2.118054509162903,1.4317981004714966,0.9417853057384492
1.7,1.6886862342164877e+18,31.692487630208333,-0.0325656334559122,-0.0216534932454427,0.2080232302347818,1.688686234225141e+18,31.70114111328125,-0.7232306599617004,-9.751948674519856,-0.8933204412460327,1.6886862342164877e+18,31.692487630208333,-0.7090733448664347,-9.715781529744469,-1.1562544107437134,1.6886862342294725e+18,31.705472412109373,-0.0114028177534539,-0.0237728394567965,-0.0055995982450742,1.6886862342294725e+18,31.705472412109373,-0.0124718320245543,-0.0192931609538693,-0.0033088534449536,,,,,,,,,,,,1.6886862342238508e+18,31.699850830078123,-13.71767978668213,41.792318725585936,2.9816799640655516,1.6886862342238508e+18,31.699850830078123,-269.0636779785156,136.818115234375,-129.74211730957032,1.6886862342164877e+18,31.692487630208333,-0.6774412393569946,0.7321324944496155,0.0110907377675175,0.0702309037248293,2.1209173997243247,1.432090202967326,0.936812937259674
1.75,1.688686234268408e+18,31.74440828450521,-0.0258195002873738,0.0281985600789387,0.0244371891021727,1.6886862342770532e+18,31.753052978515623,-0.7369893789291382,-9.705886840820312,-1.0913265546162922,1.688686234268408e+18,31.74440828450521,-0.7090398271878561,-9.716580708821615,-1.1495378414789836,1.6886862342813796e+18,31.75737947591146,-0.0130826973666746,-0.0191913495461145,0.0053959762056667,1.6886862342813796e+18,31.75737947591146,-0.014151711637775,-0.0147116711984077,0.0076867211610078,,,,,,,,,,,,1.688686234273852e+18,31.749851806640624,-13.907999992370604,41.684959411621094,3.001199960708618,1.688686234273852e+18,31.749851806640624,-269.2539978027344,136.71075744628905,-129.72259521484375,1.688686234268408e+18,31.74440828450521,-0.6774330536524454,0.7321402629216512,0.0104861098031202,0.0703221832712491,2.123494863510132,1.4326810836791992,0.9332502484321594
1.8,1.6886862343203185e+18,31.79631827799479,-0.0070113539695739,-0.0235865910847981,-0.0448853572209675,1.6886862343289697e+18,31.804969645182293,-0.679162840048472,-9.758329391479492,-1.1216355959574382,1.6886862343203185e+18,31.79631827799479,-0.7083065907160441,-9.717238108317057,-1.1444226900736492,1.6886862343246454e+18,31.800645507812497,-0.0102319931611418,-0.0119118723087012,-0.0116827976889907,1.6886862343246454e+18,31.800645507812497,-0.0113010071218013,-0.0074067409150302,-0.0093920533545314,1.688686234306e+18,31.781999755859378,0.0,0.0,0.9668427109718324,10.42199993133545,0.2282159030437469,165.9081573486328,40.20000076293945,-122.7531819,49.1903166,1.6886862343238518e+18,31.799851660156246,-13.666439819335938,41.81671905517578,3.064639949798584,1.6886862343238518e+18,31.799851660156246,-269.0124450683594,136.84251403808594,-129.6591583251953,1.6886862343203185e+18,31.79631827799479,-0.6774454315503439,0.7321221431096395,0.009943278816839,0.0704698935151099,2.12502384185791,1.4331681330998738,0.9307422439257304
1.85,1.688686234372233e+18,31.848232910156252,0.0961379210154215,0.0293105443318684,-0.0851431290308634,1.6886862343808817e+18,31.85688159179687,-0.6187440554300944,-9.707083384195965,-1.1752747297286987,1.688686234372233e+18,31.848232910156252,-0.7145465413729349,-9.717294057210289,-1.1400572856267293,1.6886862343679086e+18,31.84390852864583,-0.0094684114058811,0.0031561370318134,-0.0120136834836254,1.6886862343679086e+18,31.84390852864583,-0.0105374253665406,0.007686720850567,-0.009722938411869,,,,,,,,,,,,1.6886862343738537e+18,31.84985356445312,-13.700599479675294,41.62151947021484,2.8255199432373046,1.6886862343738537e+18,31.84985356445312,-269.0466003417969,136.6473175048828,-129.89827575683594,1.688686234372233e+18,31.848232910156252,-0.6772299806276957,0.7323413888613383,0.0097970484445492,0.0702831620971361,2.13067634900411,1.433210293451945,0.925147533416748
1.9,1.688686234424148e+18,31.900148111979167,0.0078282554944356,0.0185308456420898,-0.0446016788482665,1.6886862344241464e+18,31.900146484375,-0.6939185559749603,-9.71605634689331,-1.1222338676452637,1.688686234424148e+18,31.900148111979167,-0.7073934475580851,-9.717879931131998,-1.1395219167073567,1.6886862344198198e+18,31.895819661458333,-0.0025961773159603,-0.0578794802228609,0.0166969833274681,1.6886862344198198e+18,31.895819661458333,-0.0036651914512427,-0.0533488976458708,0.0189877282828092,,,,,,,,,,,,1.6886862344238556e+18,31.8998556640625,-13.742079734802246,42.07047958374024,2.9377599239349363,1.6886862344238556e+18,31.8998556640625,-269.08807373046875,137.09627685546874,-129.78603820800782,1.688686234424148e+18,31.900148111979167,-0.6774253646532694,0.7321025133132935,0.0090165613219141,0.0709885135293006,2.1263691584269204,1.4336462020874023,0.927348574002584
1.95,1.6886862344760625e+18,31.9520625,-0.0368004838625589,-0.0240532557169596,0.098668615023295,1.688686234467411e+18,31.943411051432292,-0.7369893789291382,-9.754142125447592,-1.0037890871365864,1.6886862344760625e+18,31.9520625,-0.7060349384943644,-9.717569351196287,-1.1430115302403767,1.6886862344717384e+18,31.947738281249997,0.0089593571610748,-0.0074321934953332,-0.0121154945227317,1.6886862344717384e+18,31.947738281249997,0.007890342734754,-0.0029525151476264,-0.009824749159937,,,,,,,,,,,,1.6886862344738524e+18,31.949852587890625,-13.94215965270996,41.628839111328126,2.847479963302612,1.6886862344738524e+18,31.949852587890625,-269.2881591796875,136.654638671875,-129.87631530761718,1.6886862344760625e+18,31.9520625,-0.6774083971977234,0.7320603926976522,0.0085827512666582,0.0716370691855748,2.124138593673706,1.4334150552749634,0.9280426303545634
2.0,1.68868623452797e+18,32.00397013346355,0.0378120342890421,0.0109977722167968,0.0288832585016886,1.6886862345193254e+18,31.995325358072915,-0.669990340868632,-9.736594518025717,-1.0336993932724,1.68868623452797e+18,32.00397013346355,-0.7072675426801046,-9.71712652842204,-1.146007815996806,1.688686234523652e+18,31.999652099609374,0.0037160970193022,-0.0232128794305025,0.0065158962582548,1.688686234523652e+18,31.999652099609374,0.0026470827433513,-0.0187332002727391,0.0088066406703243,,,,,,,,,,,,1.688686234523857e+18,31.999856933593747,-13.820159530639648,41.75815963745117,3.064639949798584,1.688686234523857e+18,31.999856933593747,-269.16615600585936,136.7839569091797,-129.6591552734375,1.68868623452797e+18,32.00397013346355,-0.6773325602213541,0.732104221979777,0.0085044593239823,0.0719146927197774,2.1237494945526123,1.4330860773722331,0.9279254078865052
2.05,1.6886862345798932e+18,32.055893147786456,-0.1200500528017679,0.050581932067871,-0.0122578938802083,1.688686234571237e+18,32.04723714192708,-0.7912267049153646,-9.67697334289551,-1.0947163899739585,1.6886862345798932e+18,32.055893147786456,-0.6963646411895752,-9.717827796936035,-1.1467411120732625,1.6886862345755727e+18,32.05157275390625,-0.0029525153028467,-0.0416406479974587,0.0164424564572982,1.6886862345755727e+18,32.05157275390625,-0.0040215295739471,-0.0371609684079885,0.0187332009275753,,,,,,,,,,,,1.6886862345738537e+18,32.0498537109375,-13.480999755859376,41.748399353027345,2.9377599716186524,1.6886862345738537e+18,32.0498537109375,-268.827001953125,136.7741943359375,-129.78603515625,1.6886862345798932e+18,32.055893147786456,-0.6776700615882874,0.731731633345286,0.0078578018583356,0.0725972826282182,2.1165438493092856,1.4336079756418865,0.9332465529441832
2.1,1.6886862346231557e+18,32.09915576171875,0.0049692392349242,0.0021853446960449,-0.0701600909233092,1.6886862346231552e+18,32.0991552734375,-0.7016952435175577,-9.73440138498942,-1.1535398960113523,1.6886862346231557e+18,32.09915576171875,-0.702041894197464,-9.71748685836792,-1.1461669206619265,1.688686234627482e+18,32.10348201497396,-0.0055995980898538,-0.0272853144754965,-0.0332412502417961,1.688686234627482e+18,32.10348201497396,-0.0066686123609541,-0.0228565412883956,-0.0309505059073368,,,,,,,,,,,,1.6886862346238533e+18,32.09985341796875,-13.58835964202881,41.66787948608398,2.4546399116516113,1.6886862346238533e+18,32.09985341796875,-268.9343627929687,136.6936767578125,-130.26915893554687,1.6886862346231557e+18,32.09915576171875,-0.6773950159549713,0.7319362759590149,0.0071766807232051,0.0731702484190463,2.1203736066818237,1.4333544373512268,0.9276367127895356
2.15,1.6886862346664148e+18,32.14241495768229,0.0338661670684813,0.0079002380371093,-0.0512632528940836,1.688686234675071e+18,32.15107080078125,-0.6779664158821106,-9.718648592631022,-1.1118649244308472,1.6886862346664148e+18,32.14241495768229,-0.7095031142234802,-9.71682071685791,-1.147217313448588,1.6886862346793984e+18,32.15539827473958,0.0065158957925934,-0.0302378286918003,0.0023416501159469,1.6886862346793984e+18,32.15539827473958,0.0054977873029807,-0.0257072461148102,0.0046323946056266,,,,,,,,,,,,1.688686234673849e+18,32.14984921875,-13.910439682006835,42.0411979675293,2.601039981842041,1.688686234673849e+18,32.14984921875,-269.2564453125,137.06700134277344,-130.1227600097656,1.6886862346664148e+18,32.14241495768229,-0.6770737767219543,0.7321993311246237,0.0068272167506317,0.0735433896382649,2.1246860027313232,1.4328594605127971,0.9222962061564128
2.2,1.688686234718333e+18,32.194332682291666,0.0535039703051249,-0.0010331471761067,0.047715147336324,1.6886862347269837e+18,32.20298347981771,-0.6414758563041687,-9.731808980305988,-1.0446664889653523,1.688686234718333e+18,32.194332682291666,-0.7072067260742188,-9.716461499532064,-1.1516791979471843,1.6886862347313103e+18,32.20731022135417,0.005599598167464,-0.0018325959099456,-0.0035124751739203,1.6886862347313103e+18,32.20731022135417,0.0045305838575586,0.0025961771607398,-0.0012217305290202,,,,,,,,,,,,1.6886862347238554e+18,32.19985546875,-13.44927978515625,41.86795883178711,2.7571999073028564,1.6886862347238554e+18,32.19985546875,-268.7952819824219,136.8937561035156,-129.9665985107422,1.688686234718333e+18,32.194332682291666,-0.6770930488904318,0.732122520605723,0.0065070884302258,0.0741576254367828,2.121507406234741,1.432592550913493,0.9241484800974528
2.25,1.6886862347702484e+18,32.24624837239583,0.0106808145840962,0.0186669031778971,0.000743826230367,1.6886862347789018e+18,32.25490169270834,-0.7066802779833475,-9.713663419087728,-1.089531938234965,1.6886862347702484e+18,32.24624837239583,-0.7056597471237183,-9.716420809427897,-1.152963161468506,1.6886862347745746e+18,32.25057458496094,0.0010690141934901,0.0037415494443848,0.0106137837283312,1.6886862347745746e+18,32.25057458496094,0.0,0.0082466807216405,0.0129045280627905,,,,,,,,,,,,1.6886862347738483e+18,32.2498482421875,-13.76891975402832,41.73619918823242,2.642519950866699,1.6886862347738483e+18,32.2498482421875,-269.1149108886719,136.76199951171876,-130.0812744140625,1.6886862347702484e+18,32.24624837239583,-0.67715456088384,0.7320674856503805,0.0066419619445999,0.0741272394855816,2.120035489400228,1.432563106218974,0.9258545835812888
2.3,1.688686234822159e+18,32.29815909830729,-0.016710619131724,0.0140536626180012,-0.0093378623326619,1.688686234830816e+18,32.30681599934896,-0.7050850788752238,-9.72024408976237,-1.0929217338562012,1.688686234822159e+18,32.29815909830729,-0.7037917574246725,-9.716593424479166,-1.152652144432068,1.688686234817838e+18,32.29383813476563,-0.0033597589160004,-0.0240782710413137,-0.0015780685595624,1.688686234817838e+18,32.29383813476563,-0.0044287730318803,-0.0195985933144886,0.0007126761289934,,,,,,,,,,,,1.6886862348238513e+18,32.29985131835937,-13.600559997558594,41.931399536132815,2.73767991065979,1.6886862348238513e+18,32.29985131835937,-268.94655151367186,136.9571960449219,-129.98611755371093,1.688686234822159e+18,32.29815909830729,-0.6771939198176066,0.7320052981376648,0.0063204624069232,0.0744088913003603,2.118976593017578,1.4326903025309246,0.9260570605595908
2.35,1.6886862348740792e+18,32.35007902018229,-0.0190516511599222,0.0346794128417968,-0.0214677651723225,1.688686234874073e+18,32.350072875976565,-0.7154539525508881,-9.69930648803711,-1.1198409795761108,1.6886862348740792e+18,32.35007902018229,-0.7046411633491516,-9.71648120880127,-1.1530845562616985,1.688686234869754e+18,32.34575390625,0.003767002490349,0.0255545297016699,-0.0002545271660588,1.688686234869754e+18,32.34575390625,0.0026979881367878,0.0300851128995418,0.0020362175321981,,,,,,,,,,,,1.6886862348738496e+18,32.34984965820313,-13.620079803466798,41.86307907104492,2.818199968338013,1.6886862348738496e+18,32.34984965820313,-268.96607666015626,136.88887939453124,-129.90559997558594,1.6886862348740792e+18,32.35007902018229,-0.6771752238273621,0.7320334116617838,0.0064802051832277,0.0742885544896125,2.119345267613729,1.4326069752375286,0.9260856906572976
2.4,1.68868623492599e+18,32.40198990885417,-0.0030638178189595,-0.0171168645222981,0.0205843051274617,1.688686234917337e+18,32.393337402343754,-0.7222336332003275,-9.750552813212076,-1.0869396527608235,1.68868623492599e+18,32.40198990885417,-0.7078672647476196,-9.716130892435707,-1.1540598471959431,1.6886862349216653e+18,32.3976650390625,0.0003563380984512,-0.0132863192508618,-0.0063122739860166,1.6886862349216653e+18,32.3976650390625,-0.0007126761289934,-0.0087557351216673,-0.0039706240834978,1.688686234922469e+18,32.39846923828125,0.0,0.0,0.9740259051322936,10.543999671936035,0.2024045139551162,165.77001953125,40.20000076293945,-122.7531831,49.19032,1.6886862349238528e+18,32.39985278320312,-13.7079195022583,41.87527923583984,2.6547199726104735,1.6886862349238528e+18,32.39985278320312,-269.0539184570313,136.9010772705078,-130.06907653808594,1.68868623492599e+18,32.40198990885417,-0.6770580609639486,0.732144812742869,0.006584820182373,0.0742495035131772,2.1210033098856607,1.432347536087036,0.9246309796969095
2.45,1.688686234977908e+18,32.453907877604166,0.0011751850446065,0.0292552312215168,0.059320290883382,1.6886862349692562e+18,32.44525626627604,-0.6989036202430725,-9.7046906153361,-1.0255239009857178,1.688686234977908e+18,32.453907877604166,-0.7061242262522379,-9.71644083658854,-1.1525166034698486,1.688686234973584e+18,32.44958390299479,-0.0041233402929112,0.0100283715873956,0.0052432600835648,1.688686234973584e+18,32.44958390299479,-0.005192354787141,0.0145080490037798,0.0075340046702573,,,,,,,,,,,,1.688686234973849e+18,32.44984931640625,-13.424879837036134,41.76303939819336,2.7083999633789064,1.688686234973849e+18,32.44984931640625,-268.7708740234375,136.78883666992186,-130.01539916992186,1.688686234977908e+18,32.453907877604166,-0.6771174470583597,0.732085645198822,0.0064127833272019,0.0743066693345704,2.1205005645751953,1.4325769742329917,0.9248096346855164
2.5,1.6886862350298245e+18,32.50582454427083,0.0128210981686909,-0.0004221598307291,-0.0093368689219156,1.6886862350211674e+18,32.497167399088546,-0.7034898400306702,-9.72323481241862,-1.1008978287378948,1.6886862350298245e+18,32.50582454427083,-0.7107910712560018,-9.716673851013184,-1.1476680835088091,1.6886862350254912e+18,32.50149153645833,-0.007890342734754,0.0258090570569037,-0.0092138840506473,1.6886862350254912e+18,32.50149153645833,-0.0089593570058543,0.0303396402547756,-0.0069231396385778,,,,,,,,,,,,1.688686235023853e+18,32.499853076171874,-13.74695987701416,41.73863906860352,2.9377599716186524,1.688686235023853e+18,32.499853076171874,-269.09296264648435,136.76443481445312,-129.78603820800782,1.6886862350298245e+18,32.50582454427083,-0.6770129998524984,0.7322450478871664,0.0067345330802102,0.073656457165877,2.1253220240275064,1.4327504237492878,0.921367903550466
2.55,1.688686235073086e+18,32.549086059570314,-0.0089834034442901,0.0201506614685058,0.0720943212509155,1.6886862350730867e+18,32.54908691406251,-0.7244270443916321,-9.722237586975098,-1.0179466406504314,1.688686235073086e+18,32.549086059570314,-0.7126156985759735,-9.716907501220703,-1.1445528268814087,1.688686235077413e+18,32.553413248697915,-0.0092647895216941,0.0094684110954403,-0.0014762577290336,1.688686235077413e+18,32.553413248697915,-0.0103338040256251,0.0140499011613428,0.0008144869546716,,,,,,,,,,,,1.68868623507385e+18,32.54985014648438,-14.117840003967284,41.792318725585936,2.732799959182739,1.68868623507385e+18,32.54985014648438,-269.4638305664063,136.8181121826172,-129.99100036621093,1.688686235073086e+18,32.549086059570314,-0.6769864559173584,0.7323068976402283,0.0069134922232478,0.0732682608067989,2.1276891231536865,1.432923674583435,0.9198068380355836
2.6,1.688686235116345e+18,32.59234521484375,-0.03097798426946,-0.0040356318155924,-0.0283978780110676,1.688686235124999e+18,32.60099861653646,-0.6951149900754293,-9.74556795756022,-1.1330015261967976,1.688686235116345e+18,32.59234521484375,-0.7146490414937338,-9.717646598815918,-1.1369819243748982,1.6886862351293297e+18,32.60532975260417,-0.018835011559228,-0.0391971866289774,-0.0110973852376142,1.6886862351293297e+18,32.60532975260417,-0.0199040264512101,-0.034615697339177,-0.0088066407479345,,,,,,,,,,,,1.6886862351238548e+18,32.59985498046875,-13.258959770202637,41.56051864624023,2.9060399532318115,1.6886862351238548e+18,32.59985498046875,-268.60496215820314,136.58631591796876,-129.81775512695313,1.688686235116345e+18,32.59234521484375,-0.6769120891888937,0.7323827147483826,0.0063591968889037,0.0732468118270237,2.13195808728536,1.433472712834676,0.914783239364624
2.65,1.6886862351682665e+18,32.64426668294271,0.0587868491808573,0.0104621251424153,-0.0817701816558837,1.6886862351769157e+18,32.652915445963544,-0.6811568339665731,-9.726624488830566,-1.1246266762415569,1.6886862351682665e+18,32.64426668294271,-0.7170758446057638,-9.717787424723308,-1.134257713953654,1.6886862351812406e+18,32.65724080403646,0.0060577469800287,-0.0083993971347808,0.0043778675608336,1.6886862351812406e+18,32.65724080403646,0.0049887329369084,-0.0039197186997625,0.0067195176767806,,,,,,,,,,,,1.6886862351738537e+18,32.649853808593754,-13.754279708862304,41.78743896484375,2.6059199810028075,1.6886862351738537e+18,32.649853808593754,-269.10027465820315,136.81323852539063,-130.11788024902344,1.6886862351682665e+18,32.64426668294271,-0.6767757534980774,0.7324726581573486,0.0056969728320836,0.0736613124608993,2.134567658106486,1.433577020963033,0.9106460412343343
2.7,1.6886862352201766e+18,32.69617651367187,-0.0353937943776448,0.0013484954833984,0.1139823198318481,1.688686235228829e+18,32.70482885742188,-0.7326025366783142,-9.732207616170246,-0.9429715077082316,1.6886862352201766e+18,32.69617651367187,-0.7140218615531921,-9.717646598815918,-1.137388030687968,1.6886862352245066e+18,32.700506591796874,0.0027488935447763,-0.0130572444759308,-0.0029016097541898,1.6886862352245066e+18,32.700506591796874,0.0016798794968053,-0.0085521133150904,-0.0006108651868999,,,,,,,,,,,,1.6886862352238515e+18,32.699851416015626,-13.66887969970703,42.05095901489258,2.747440004348755,1.6886862352238515e+18,32.699851416015626,-269.01487426757814,137.0767578125,-129.97635803222656,1.6886862352201766e+18,32.69617651367187,-0.6768592198689779,0.7323668797810873,0.0056308745406567,0.0739502385258674,2.1313987572987876,1.4334715604782104,0.9133094350496928
2.75,1.688686235272094e+18,32.74809391276042,-0.0006946325302124,0.0082108179728189,0.0516756772994995,1.6886862352807437e+18,32.75674365234375,-0.724427064259847,-9.73300552368164,-1.0532407760620115,1.688686235272094e+18,32.74809391276042,-0.718411942323049,-9.717729568481444,-1.1339049339294434,1.6886862352677655e+18,32.74376570638021,-0.007279477547854,0.0142026167983809,-0.0049378275871276,1.6886862352677655e+18,32.74376570638021,-0.0083484915085136,0.0187332009275753,-0.0026470824765662,,,,,,,,,,,,1.688686235273854e+18,32.74985400390625,-13.551759719848633,41.91431884765625,2.50831995010376,1.688686235273854e+18,32.74985400390625,-268.89775390625,136.94011840820312,-130.2154754638672,1.688686235272094e+18,32.74809391276042,-0.6767175396283468,0.7325198451677958,0.0055854311212896,0.0737355525294939,2.1355461279551187,1.4335346221923828,0.9094037016232808
2.8,1.688686235324004e+18,32.80000390625,0.0125669439633687,0.0111039479573567,-0.0296631256739298,1.6886862353240082e+18,32.80000817871094,-0.6963113844394684,-9.718449115753174,-1.0959128141403198,1.688686235324004e+18,32.80000390625,-0.7139267524083456,-9.718429247538248,-1.1307317018508911,1.6886862353196808e+18,32.79568082682292,-0.0053450710450608,-0.0107919524113336,0.0089084515348076,1.6886862353196808e+18,32.79568082682292,-0.0064140850833305,-0.0062613687478005,0.0111991963349282,,,,,,,,,,,,1.6886862353238505e+18,32.799850634765626,-13.58347969055176,41.89235916137695,2.5302799701690675,1.6886862353238505e+18,32.799850634765626,-268.9294677734375,136.91815795898438,-130.19351806640626,1.688686235324004e+18,32.80000390625,-0.6768921415011088,0.7323649724324545,0.0054178925541539,0.0736838430166244,2.133980909983317,1.4340571562449138,0.9108064572016398
2.85,1.68868623537592e+18,32.851919921875,-0.0140161315600077,0.0223630269368488,-0.0461270809173583,1.6886862353672722e+18,32.843271972656254,-0.7162515918413798,-9.721639633178713,-1.1086744864781697,1.68868623537592e+18,32.851919921875,-0.7112719019254049,-9.71852207183838,-1.13161567846934,1.6886862353716006e+18,32.847600667317714,0.0030034208515037,0.0142026171088218,0.0074321939609944,1.6886862353716006e+18,32.847600667317714,0.0019344065804034,0.0187841060881812,0.0097229382954537,,,,,,,,,,,,1.6886862353738506e+18,32.849850537109376,-13.380959510803224,41.7435188293457,2.6205599784851072,1.6886862353738506e+18,32.849850537109376,-268.72694702148436,136.76931457519532,-130.10323486328124,1.68868623537592e+18,32.851919921875,-0.6770036617914835,0.7322712540626526,0.0056099902528027,0.0735763857762018,2.131950775782267,1.434125820795695,0.91326238711675
2.9,1.6886862354278395e+18,32.903839680989584,0.0231936375300089,0.00959841410319,-0.0512204567591349,1.688686235419183e+18,32.89518310546875,-0.6779664158821106,-9.72323481241862,-1.1198409795761108,1.6886862354278395e+18,32.903839680989584,-0.7117917140324911,-9.71851921081543,-1.1313079198201497,1.6886862354235146e+18,32.89951448567708,-0.0031052315801691,-0.0051923544767001,-0.0060068417806177,1.6886862354235146e+18,32.89951448567708,-0.0041742459094771,-0.0007126761483959,-0.0037160968689324,,,,,,,,,,,,1.6886862354238505e+18,32.899850488281245,-13.72499942779541,41.82647933959961,2.85723991394043,1.6886862354238505e+18,32.899850488281245,-269.07099609375,136.85227661132814,-129.8665557861328,1.6886862354278395e+18,32.903839680989584,-0.676984171072642,0.7322895129521688,0.0055864377257724,0.0735750620563824,2.132402181625366,1.434123198191325,0.9127779006958008
2.95,1.688686235479751e+18,32.95575089518229,-0.0316560665766397,0.0078039169311522,0.0047992467880248,1.6886862354711017e+18,32.9471015625,-0.7322037220001221,-9.723434130350748,-1.0849456787109375,1.688686235479751e+18,32.95575089518229,-0.7111793359120687,-9.71851921081543,-1.1316944758097331,1.6886862354754284e+18,32.95142830403646,-0.0017816903661392,-0.033699399481217,0.0004072435355434,1.6886862354754284e+18,32.95142830403646,-0.0028507045547787,-0.0292706272254387,0.0026979881804436,,,,,,,,,,,,1.6886862354738488e+18,32.949848974609374,-13.856759643554687,41.85575866699219,2.6107999324798583,1.6886862354738488e+18,32.949848974609374,-269.2027526855469,136.88155517578124,-130.1129943847656,1.688686235479751e+18,32.95575089518229,-0.6769622365633646,0.7322712143262228,0.0051708857839306,0.073988102376461,2.131860335667928,1.4341237545013428,0.912144402662913
3.0,1.6886862355316692e+18,33.00766927083333,0.0196559031804402,-0.0102170308430989,0.07407808303833,1.688686235523019e+18,32.99901896158854,-0.6955137848854065,-9.746165911356607,-1.003589749336243,1.6886862355316692e+18,33.00766927083333,-0.7114444176355997,-9.718443870544434,-1.1321797370910645,1.6886862355273454e+18,33.00334545898438,0.0023416501159469,-0.0183768624750276,-0.0017307850066572,1.6886862355273454e+18,33.00334545898438,0.0012726358448465,-0.0138971844377617,0.0005599597352557,,,,,,,,,,,,1.688686235523849e+18,32.99984916992187,-13.837239456176755,41.88015975952148,2.96703987121582,1.688686235523849e+18,32.99984916992187,-269.18323974609376,136.90595397949218,-129.7567596435547,1.6886862355316692e+18,33.00766927083333,-0.6768936912218729,0.7322839697202047,0.0046270744254191,0.0745237320661544,2.1318325996398926,1.4340674877166748,0.9106400012969972
3.05,1.6886862355749317e+18,33.05093151855469,-0.0381247103214264,0.0218033790588378,0.0708078742027282,1.6886862355749307e+18,33.05093058268229,-0.7435696125030518,-9.714261690775553,-1.003589669863383,1.6886862355749317e+18,33.05093151855469,-0.7074025869369507,-9.718560218811035,-1.133695125579834,1.6886862355792558e+18,33.05525594075521,0.0041742459288798,0.0144571440760045,0.0141008058562874,1.6886862355792558e+18,33.05525594075521,0.0031052315995717,0.0188859165646135,0.0163915511220693,,,,,,,,,,,,1.688686235573855e+18,33.049855078125,-13.439519500732422,41.79963836669922,2.64739990234375,1.688686235573855e+18,33.049855078125,-268.7855224609375,136.825439453125,-130.07639770507814,1.6886862355749317e+18,33.05093151855469,-0.6770572662353516,0.7321417331695557,0.0048685004003345,0.0744194090366363,2.1286685466766357,1.4341554045677185,0.9142947793006896
3.1,1.688686235618192e+18,33.09419213867188,-0.10024623076121,0.024127960205078,0.0307186841964721,1.68868623562684e+18,33.10284016927083,-0.7864410479863485,-9.713663419087728,-1.0580264329910278,1.688686235618192e+18,33.09419213867188,-0.7048025528589884,-9.718891143798828,-1.132489283879598,1.6886862356311667e+18,33.10716674804687,-0.0064649904767671,-0.005548692618807,-0.00213802830937,1.6886862356311667e+18,33.10716674804687,-0.0075340047478675,-0.0010181087418458,0.0001527162918743,,,,,,,,,,,,1.68868623562385e+18,33.09984995117187,-13.66887969970703,41.84355926513672,2.674240016937256,1.68868623562385e+18,33.09984995117187,-269.01488037109374,136.8693603515625,-130.0495574951172,1.688686235618192e+18,33.09419213867188,-0.6771637201309204,0.7320511142412821,0.0048698495763043,0.0743426556388536,2.1274918715159097,1.4344030618667605,0.9155836304028828
3.15,1.688686235670107e+18,33.14610668945313,0.0231589476267496,0.0323718388875325,-0.0465918779373168,1.688686235678759e+18,33.154759114583335,-0.669990340868632,-9.716853777567543,-1.1084750890731812,1.688686235670107e+18,33.14610668945313,-0.7085666060447693,-9.718959172566732,-1.129555622736613,1.688686235674433e+18,33.15043298339844,-0.0074067409150301,0.0012217306066304,-0.0113773648627101,1.688686235674433e+18,33.15043298339844,-0.0084757553413509,0.0058032198285217,-0.0090866205282508,,,,,,,,,,,,1.6886862356738514e+18,33.1498513671875,-13.5712797164917,41.928958892822266,2.469279909133911,1.6886862356738514e+18,33.1498513671875,-268.9172790527344,136.9547576904297,-130.2545135498047,1.688686235670107e+18,33.14610668945313,-0.6770259737968445,0.7321833968162537,0.0046738761787612,0.0743071710069974,2.131050189336141,1.4344536860783894,0.911797841389974
3.2,1.688686235722023e+18,33.19802278645833,0.0033164620399475,0.0277786254882811,-0.0195168256759643,1.688686235730677e+18,33.206677001953125,-0.7130611538887024,-9.699306488037111,-1.078365405400594,1.688686235722023e+18,33.19802278645833,-0.7110571265220642,-9.719151814778646,-1.1263216336568196,1.6886862357176988e+18,33.1936991373698,-0.007177666760981,0.001730784929047,-0.0007126761677985,1.6886862357176988e+18,33.1936991373698,-0.0082466808768609,0.006159557805707,0.0015780685935169,,,,,,,,,,,,1.6886862357238543e+18,33.199854541015625,-13.358999633789065,42.00459899902344,2.364359951019287,1.6886862357238543e+18,33.199854541015625,-268.7049987792969,137.03040161132813,-130.35943603515625,1.688686235722023e+18,33.19802278645833,-0.6769513090451559,0.7322705785433451,0.0046112687947848,0.074131650229295,2.1339265505472818,1.4345982472101848,0.9090819358825684
3.25,1.6886862357739377e+18,33.24993782552084,0.0141195654869079,0.023358662923177,-0.0191118717193603,1.6886862357739392e+18,33.24993920898437,-0.6963113844394684,-9.704092025756836,-1.074377357959747,1.6886862357739377e+18,33.24993782552084,-0.7154793739318848,-9.719517389933268,-1.1203457117080688,1.6886862357696154e+18,33.24561531575521,-0.0163406453405816,-0.0238237439965207,-0.0189368223461011,1.6886862357696154e+18,33.24561531575521,-0.017409659611682,-0.0192931600225467,-0.0166460778564214,,,,,,,,,,,,1.6886862357738532e+18,33.249853369140624,-13.893359756469726,41.84111862182617,2.8181999206542967,1.6886862357738532e+18,33.249853369140624,-269.23935546875,136.86691589355468,-129.9055969238281,1.6886862357739377e+18,33.24993782552084,-0.6767789522806803,0.7324275175730387,0.0040869072545319,0.0741854657729466,2.1391393343607583,1.4348734219868975,0.9030500849088032
3.3,1.6886862358258524e+18,33.30185237630209,0.1262014508247375,-0.0117886861165364,-0.0633500417073567,1.688686235817203e+18,33.29320304361979,-0.596610446770986,-9.755537986755373,-1.1084750890731812,1.6886862358258524e+18,33.30185237630209,-0.7206818461418152,-9.719863573710125,-1.1139939228693645,1.688686235821529e+18,33.29752954101563,-0.0127263592245677,-0.0283034242068726,-0.008195775328204,1.688686235821529e+18,33.29752954101563,-0.013795373495668,-0.0238237449278433,-0.0058541252898672,,,,,,,,,,,,1.6886862358238538e+18,33.29985385742187,-13.53467960357666,41.87771835327148,2.444879961013794,1.6886862358238538e+18,33.29985385742187,-268.88067626953125,136.9035186767578,-130.27891235351564,1.6886862358258524e+18,33.30185237630209,-0.6765408515930176,0.7326130469640096,0.0031739183856794,0.0745692600806553,2.145020008087158,1.4351341327031453,0.8953293959299723
3.35,1.6886862358777692e+18,33.35376936848959,-0.0023475289344787,0.020676294962565,-0.0227149327596028,1.6886862358691172e+18,33.345117106119794,-0.6971090038617452,-9.713862737019856,-1.073579748471578,1.6886862358777692e+18,33.35376936848959,-0.7213452855745951,-9.720025698343912,-1.1121563911437988,1.6886862358734449e+18,33.34944490559896,-0.0026470827093968,0.0080939646189411,-0.0056505034832904,1.6886862358734449e+18,33.34944490559896,-0.0037160969804971,0.0126754534624826,-0.00335975876078,,,,,,,,,,,,1.688686235873856e+18,33.34985610351562,-13.851879692077636,41.760599517822264,2.4399999141693116,1.688686235873856e+18,33.34985610351562,-269.1978698730469,136.7863983154297,-130.28379821777344,1.6886862358777692e+18,33.35376936848959,-0.6765253742535909,0.7326364318529764,0.0031279943262536,0.0744815568129221,2.1461941401163735,1.4352548917134602,0.8942140539487203
3.4,1.6886862359296847e+18,33.40568448893229,0.0416938662528991,0.0153185526529947,-0.0295385917027791,1.688686235921031e+18,33.39703076171875,-0.6891329089800516,-9.725427945454916,-1.0640084743499756,1.6886862359296847e+18,33.40568448893229,-0.7271015048027039,-9.719852129618326,-1.10991899172465,1.6886862359253596e+18,33.401359700520835,-0.0089593568506339,-0.0318158976733684,-0.0147625766694545,1.6886862359253596e+18,33.401359700520835,-0.0100283708112934,-0.0272853138546148,-0.0124209265535075,1.688686235922557e+18,33.398556884765625,0.0,0.0,0.9844226837158204,10.539999961853027,0.1852956116199493,165.96951293945312,40.20000076293945,-122.7531838,49.1903213,1.6886862359238438e+18,33.3998439453125,-13.297999954223632,41.95091934204102,2.3423999309539796,1.6886862359238438e+18,33.3998439453125,-268.643994140625,136.97671813964843,-130.381396484375,1.6886862359296847e+18,33.40568448893229,-0.6762790679931641,0.7328385710716248,0.0026499022108812,0.0747476617495218,2.1507534186045327,1.435124357541402,0.8885987401008606
3.45,1.6886862359815987e+18,33.45759879557292,0.0077891151110331,-0.0115779240926106,-0.0319699048995971,1.688686235972947e+18,33.44894694010417,-0.7082754969596863,-9.743972778320312,-1.091525912284851,1.6886862359815987e+18,33.45759879557292,-0.7298867106437683,-9.71987501780192,-1.107886473337809,1.6886862359772736e+18,33.45327376302083,-0.0048360164898136,-0.036550103376309,-0.0081957754058141,1.6886862359772736e+18,33.45327376302083,-0.0059050307997191,-0.0320704259599248,-0.005905030760914,,,,,,,,,,,,1.6886862359738534e+18,33.449853417968754,-13.524919700622558,42.01435928344726,2.38875994682312,1.6886862359738534e+18,33.449853417968754,-268.87091064453125,137.0401580810547,-130.3350341796875,1.6886862359815987e+18,33.45759879557292,-0.6761024196942648,0.7329382300376892,0.0017881302628665,0.0753918190797169,2.1533518632253013,1.4351420402526855,0.8838632504145304
3.5,1.688686236024854e+18,33.50085400390625,-0.0615899562835692,0.0488910675048827,0.0826544165611266,1.6886862360248627e+18,33.50086254882813,-0.7772685686747233,-9.701699574788412,-0.9702896078427632,1.688686236024854e+18,33.50085400390625,-0.7344857454299927,-9.719326972961426,-1.109649360179901,1.68868623602919e+18,33.505189778645835,0.0080430593031147,0.0251472856228549,-0.0167987942695616,1.68868623602919e+18,33.505189778645835,0.0069740447215735,0.0295760581890741,-0.0145080494694411,,,,,,,,,,,,1.6886862360238495e+18,33.499849414062496,-13.559079551696778,41.98263931274414,2.493680000305176,1.6886862360238495e+18,33.499849414062496,-268.90508422851565,137.00843505859376,-130.23011474609376,1.688686236024854e+18,33.50085400390625,-0.6759259104728699,0.7330978810787201,0.0018733393517322,0.0754198767244815,2.1555075645446777,1.4347292184829712,0.8817867934703827
3.55,1.688686236068121e+18,33.544121256510415,-0.0145179033279418,-0.0025396347045898,0.0928310950597127,1.6886862360767734e+18,33.55277335611979,-0.7577271660168966,-9.730413118998207,-0.9686943888664246,1.688686236068121e+18,33.544121256510415,-0.7444690664609274,-9.718544642130531,-1.1098559300104778,1.688686236081104e+18,33.557103759765624,-0.0051923543990899,0.006974044876794,-0.0114537230692803,1.688686236081104e+18,33.557103759765624,-0.0062613688642158,0.0115046286955475,-0.0091629786135551,,,,,,,,,,,,1.6886862360738534e+18,33.54985341796875,-13.456599807739256,42.10219955444336,2.3521599769592285,1.6886862360738534e+18,33.54985341796875,-268.80259399414064,137.12799987792968,-130.37163696289062,1.688686236068121e+18,33.544121256510415,-0.6755910714467367,0.7334436972935995,0.0022565214118609,0.0750465417901674,2.1616501013437905,1.4341418743133545,0.876716156800588
3.6,1.6886862361200397e+18,33.59603987630208,-0.05279141664505,0.0127178827921548,0.0150866508483886,1.688686236128688e+18,33.60468790690104,-0.8151549299558004,-9.715458234151203,-1.0295119285583496,1.6886862361200397e+18,33.59603987630208,-0.749066948890686,-9.718846638997396,-1.1040955384572346,1.6886862361243674e+18,33.60036755371094,-0.0160352122038602,-0.0106137831462546,-0.0123700213152914,1.6886862361243674e+18,33.60036755371094,-0.0171042270958423,-0.0061086523928679,-0.0100792767480015,,,,,,,,,,,,1.6886862361238513e+18,33.599851171875,-13.200399780273438,41.87283935546875,2.527839994430542,1.6886862361238513e+18,33.599851171875,-268.54639892578126,136.8986389160156,-130.19595642089843,1.6886862361200397e+18,33.59603987630208,-0.6754323045412699,0.733604351679484,0.001948703196831,0.0749137997627258,2.166919946670532,1.4343688488006592,0.871198316415151
3.65,1.6886862361719552e+18,33.647955078125,-0.0912940502166747,0.0543549855550129,-0.0127994616826375,1.6886862361806042e+18,33.656604248046875,-0.8454640110333761,-9.689735412597656,-1.0454641183217366,1.6886862361719552e+18,33.647955078125,-0.7648016214370728,-9.718609174092611,-1.095352053642273,1.6886862361676298e+18,33.64362980143229,-0.0177150921275217,0.0108428581928212,-0.0371100641787052,1.6886862361676298e+18,33.64362980143229,-0.0187841063986221,0.0152716313799221,-0.0348193198442458,,,,,,,,,,,,1.6886862361738565e+18,33.64985620117188,-13.461479568481446,41.98019866943359,2.38875994682312,1.6886862361738565e+18,33.64985620117188,-268.80747680664064,137.00599670410156,-130.3350402832031,1.6886862361719552e+18,33.647955078125,-0.6748827894528707,0.7341512640317281,0.0016643525644515,0.0745137905081113,2.180333058039347,1.4341907898585002,0.8579485813776652
3.7,1.6886862362238697e+18,33.69986954752604,0.0953056414922078,-0.0526075363159179,-0.0384060144424438,1.6886862362238712e+18,33.69987121582031,-0.6864410042762756,-9.793224811553957,-1.0603195428848269,1.6886862362238697e+18,33.69986954752604,-0.7898857792218527,-9.71752961476644,-1.087093432744344,1.6886862362195415e+18,33.695541666666664,-0.013897184592982,0.0115555341665942,-0.0519744517902532,1.6886862362195415e+18,33.695541666666664,-0.0149661982432007,0.0160861182957887,-0.0496837062140305,,,,,,,,,,,,1.688686236223851e+18,33.69985112304688,-12.81487979888916,41.95091857910156,2.50831995010376,1.688686236223851e+18,33.69985112304688,-268.16087646484374,136.97671508789062,-130.2154754638672,1.6886862362238697e+18,33.69986954752604,-0.6739840507507324,0.735021968682607,0.0014315693018336,0.0740683699647585,2.199152946472168,1.433385690053304,0.8394286632537842
3.75,1.6886862362757786e+18,33.75177848307292,0.1448501745859781,-0.0341857274373372,0.0035565694173177,1.688686236267136e+18,33.74313582356771,-0.6285147468249003,-9.781460444132486,-1.044865886370341,1.6886862362757786e+18,33.75177848307292,-0.7983535130818685,-9.717007954915363,-1.085586428642273,1.6886862362714555e+18,33.74745556640625,0.0025961771607398,0.001272636000067,0.0058541249794264,1.6886862362714555e+18,33.74745556640625,0.0015271630448599,0.0057523145417992,0.0081448700899879,,,,,,,,,,,,1.6886862362738511e+18,33.74985126953125,-13.068639945983886,42.11927947998047,2.6230000019073487,1.6886862362738511e+18,33.74985126953125,-268.4146362304688,137.14507751464845,-130.10079650878907,1.6886862362757786e+18,33.75177848307292,-0.673682431379954,0.7353156606356303,0.0014738455647602,0.0738962069153785,2.2049047152201333,1.432996392250061,0.8339787324269613
3.8,1.6886862363276964e+18,33.8036962890625,-0.1010341842969258,0.0196406046549479,0.0375984112421671,1.6886862363190508e+18,33.79505061848958,-0.8550352851549784,-9.73021380106608,-0.966102143128713,1.6886862363276964e+18,33.8036962890625,-0.78218013048172,-9.717793464660645,-1.0903161764144895,1.6886862363233764e+18,33.79937630208334,0.0115046290059883,0.0005599598710735,0.0293724375466505,1.6886862363233764e+18,33.79937630208334,0.0104356145796675,0.0049887330581744,0.0316631818811098,,,,,,,,,,,,1.6886862363238536e+18,33.799853515625,-13.463919639587402,42.06803970336914,2.2862799406051635,1.6886862363238536e+18,33.799853515625,-268.809912109375,137.09383850097657,-130.43751220703126,1.6886862363276964e+18,33.8036962890625,-0.674278974533081,0.7347545027732849,0.001743882933321,0.0740318025151888,2.193110942840576,1.4335814714431765,0.8459663788477579
3.85,1.6886862363796152e+18,33.85561507161459,-0.0085614323616027,0.0254821777343749,0.0203845898310343,1.6886862363709612e+18,33.84696085611979,-0.8392825325330099,-9.70907719930013,-1.024925688902537,1.6886862363796152e+18,33.85561507161459,-0.7823298176129659,-9.717453320821129,-1.0932419300079346,1.6886862363752906e+18,33.851290690104165,0.0011199196548356,-0.0403680112212896,-0.0098247493927676,1.6886862363752906e+18,33.851290690104165,5.0905393436566707e-05,-0.0358883334944645,-0.0075340047478675,,,,,,,,,,,,1.6886862363738552e+18,33.849855273437505,-12.971039581298829,42.20467910766602,2.3350799560546873,1.6886862363738552e+18,33.849855273437505,-268.31703491210936,137.23047790527343,-130.3887176513672,1.6886862363796152e+18,33.85561507161459,-0.674202581246694,0.7347605228424072,0.0012645045450577,0.07467416425546,2.1919309298197427,1.4333281517028809,0.8455528219540914
3.9,1.688686236431527e+18,33.90752644856771,-0.0525288383165995,0.0011650721232096,0.0575727621714274,1.6886862364228774e+18,33.89887744140625,-0.7770691514015198,-9.734999656677246,-0.9718848069508872,1.688686236431527e+18,33.90752644856771,-0.7814332246780396,-9.71706485748291,-1.0973294576009114,1.6886862364272046e+18,33.90320450846354,0.0153734417011339,0.0486146931846936,0.0108428580376008,1.6886862364272046e+18,33.90320450846354,0.0143044280509153,0.0531961830953756,0.0131336028377214,,,,,,,,,,,,1.6886862364238508e+18,33.89985092773437,-13.480999755859376,42.03875885009766,2.7035199642181396,1.6886862364238508e+18,33.89985092773437,-268.8269958496094,137.06455688476564,-130.02027893066406,1.688686236431527e+18,33.90752644856771,-0.6742585698763529,0.7347283164660136,0.0017951962072401,0.0744738802313804,2.1896255811055503,1.4330391883850098,0.8488947153091431
3.95,1.6886862364747873e+18,33.95078747558594,-0.0712008774280547,-0.0205879211425781,0.0862760841846465,1.688686236474789e+18,33.9507890625,-0.8313064575195312,-9.739785194396973,-0.9483553767204284,1.6886862364747873e+18,33.95078747558594,-0.7769187092781067,-9.717146396636965,-1.0998114347457886,1.6886862364791222e+18,33.95512223307292,0.0048360165674238,-0.0033597585279494,0.0211766616751749,1.6886862364791222e+18,33.95512223307292,0.0037670022963235,0.0012217303349946,0.0234674060096342,,,,,,,,,,,,1.6886862364738545e+18,33.94985444335937,-12.7660795211792,42.05583953857422,2.3911999702453612,1.6886862364738545e+18,33.94985444335937,-268.11207885742186,137.08163452148438,-130.3325958251953,1.6886862364747873e+18,33.95078747558594,-0.6744444966316223,0.7345707714557648,0.0021499355789273,0.0743359439074993,2.18582284450531,1.4330996870994568,0.8533969819545746
4.0,1.6886862365180552e+18,33.99405509440104,0.0143364270528157,0.0423723856608072,0.1617912650108337,1.6886862365267077e+18,34.00270776367187,-0.7888338565826416,-9.695717493693031,-0.8871390024820963,1.6886862365180552e+18,33.99405509440104,-0.7661449114481608,-9.717793464660645,-1.1016475756963091,1.6886862365310354e+18,34.00703556315104,0.0170533219352364,0.1329140961170196,0.0328849119444687,1.6886862365310354e+18,34.00703556315104,0.0159843073536951,0.1373937726020812,0.035175656278928,,,,,,,,,,,,1.6886862365238533e+18,33.999853271484376,-12.96615982055664,41.821598815917966,2.393639945983886,1.6886862365238533e+18,33.999853271484376,-268.312158203125,136.84739685058594,-130.3301544189453,1.6886862365180552e+18,33.99405509440104,-0.6749264995257059,0.7341933250427246,0.0030764091449478,0.0736482664942741,2.178476015726725,1.4335811138153076,0.8630368113517761
4.05,1.6886862365699666e+18,34.04596647135417,-0.1076594988505045,-0.0196701685587564,0.0367692907651265,1.6886862365786191e+18,34.054619140625,-0.8007979790369669,-9.755139032999674,-1.0376874009768169,1.6886862365699666e+18,34.04596647135417,-0.7625937064488729,-9.71816349029541,-1.1008529663085938,1.6886862365742976e+18,34.050297729492186,-0.0058795781806111,0.0401643891818821,0.0027488938067108,1.6886862365742976e+18,34.050297729492186,-0.0069485922576859,0.0446695201098918,0.0050396382575854,,,,,,,,,,,,1.6886862365738516e+18,34.04985161132812,-13.151599502563476,41.98019943237305,2.591279935836792,1.6886862365738516e+18,34.04985161132812,-268.4975952148437,137.00599975585936,-130.1325225830078,1.6886862365699666e+18,34.04596647135417,-0.6752718091011047,0.7340585390726725,0.0051591182127594,0.0716894716024398,2.1766371726989746,1.4338572025299072,0.8706120053927103
4.1,1.6886862366218854e+18,34.097885335286456,0.1906470656394957,-0.010541280110677,-0.1163608233133951,1.688686236630534e+18,34.1065341796875,-0.5934200088183085,-9.732805887858072,-1.136790156364441,1.6886862366218854e+18,34.097885335286456,-0.759604016939799,-9.719116846720375,-1.094482660293579,1.6886862366175603e+18,34.09356038411458,-0.0124209265535075,0.0411315935974319,0.0154243467841297,1.6886862366175603e+18,34.09356038411458,-0.0134899409798283,0.0456621771057446,0.017715091574549,,,,,,,,,,,,1.6886862366238515e+18,34.09985151367188,-13.244319915771484,41.989958953857425,2.4912399291992187,1.6886862366238515e+18,34.09985151367188,-268.59031372070314,137.01575622558593,-130.23255615234376,1.6886862366218854e+18,34.097885335286456,-0.6754604776700338,0.7339525024096171,0.0054698302410542,0.0709700708587964,2.1775126457214355,1.4345706303914387,0.8712003827095032
4.15,1.6886862366738002e+18,34.149800048828126,-0.1531884272893269,0.1011851628621418,0.0104087988535562,1.6886862366738e+18,34.14979992675781,-0.9122636318206788,-9.620343208312988,-1.001097172498703,1.6886862366738002e+18,34.149800048828126,-0.7495672702789307,-9.720773696899414,-1.0866560141245525,1.6886862366694756e+18,34.145475667317704,-0.0155261584247151,0.0674497031917174,0.0220929597271606,1.6886862366694756e+18,34.145475667317704,-0.0165951726958154,0.071929384022951,0.0244346096102768,,,,,,,,,,,,1.6886862366738504e+18,34.149850390625,-13.49563980102539,41.95091857910156,2.50831995010376,1.6886862366738504e+18,34.149850390625,-268.8416320800781,136.97671813964843,-130.215478515625,1.6886862366738002e+18,34.149800048828126,-0.6760047078132629,0.733594278494517,0.0066439712730546,0.0693749859929084,2.174653689066569,1.4358210961023967,0.8779941201210022
4.2,1.688686236725714e+18,34.20171394856771,0.0940549373626709,0.0332860946655273,-0.0765119791030883,1.688686236717062e+18,34.19306193033854,-0.7485546867052714,-9.68514919281006,-1.054636557896932,1.688686236725714e+18,34.20171394856771,-0.7655044595400492,-9.721668243408203,-1.0673324664433796,1.6886862367213855e+18,34.19738549804688,-0.0470366229613621,-0.0188859170302748,-0.0501927609244982,1.6886862367213855e+18,34.19738549804688,-0.0481056384742259,-0.0144062386825679,-0.0479020165900389,,,,,,,,,,,,1.6886862367238513e+18,34.19985131835937,-13.090599822998048,42.22419967651367,2.5473599433898926,1.6886862367238513e+18,34.19985131835937,-268.4365966796875,137.2499969482422,-130.1764343261719,1.688686236725714e+18,34.20171394856771,-0.6754745841026306,0.7341538866360983,0.0058853096949557,0.0686832442879676,2.192996342976888,1.436501185099284,0.8595584630966187
4.25,1.6886862367776305e+18,34.25363037109375,0.1627974510192871,-0.0100809733072916,-0.1004604101181029,1.6886862367689756e+18,34.244975341796874,-0.5328018367290497,-9.773284594217936,-1.1001001993815105,1.6886862367776305e+18,34.25363037109375,-0.7732299963633219,-9.723166783650717,-1.0479702552159629,1.6886862367733056e+18,34.24930558268229,-0.0302887347837288,0.069994976123174,0.010231992850701,1.6886862367733056e+18,34.24930558268229,-0.0313577496757109,0.0744746550917625,0.0125227374956011,,,,,,,,,,,,1.6886862367738537e+18,34.24985356445312,-13.232119750976562,42.170519256591795,2.6913199424743652,1.6886862367738537e+18,34.24985356445312,-268.57810668945314,137.19631958007812,-130.03247680664063,1.6886862367776305e+18,34.25363037109375,-0.6753153204917908,0.7344226042429606,0.0058291878861685,0.0673671811819076,2.206479549407959,1.4376465479532878,0.847865362962087
4.3,1.6886862368295455e+18,34.305545491536456,-0.1050703128178914,0.0415754318237304,-0.2235591808954874,1.688686236820902e+18,34.296901774088546,-0.8819545308748881,-9.682756106058756,-1.1463614304860432,1.6886862368295455e+18,34.305545491536456,-0.7711649338404337,-9.725570360819498,-1.0269652605056765,1.6886862368252204e+18,34.301220458984375,-0.0567086574931939,-0.0823140926659107,-0.0156279696772495,1.6886862368252204e+18,34.301220458984375,-0.0577776705225308,-0.0777326039969921,-0.0133372250323494,,,,,,,,,,,,1.6886862368238566e+18,34.29985678710938,-13.495639610290528,42.141239166259766,2.500999927520752,1.6886862368238566e+18,34.29985678710938,-268.8416320800781,137.1670379638672,-130.22279663085936,1.6886862368295455e+18,34.305545491536456,-0.6754522522290548,0.7343571186065674,0.00489368623433,0.0667745396494865,2.2149055004119873,1.439505139986674,0.838958203792572
4.35,1.688686236881453e+18,34.35745320638021,0.2055233120918274,-0.0472567876180012,-0.1999709208806356,1.6886862368728044e+18,34.34880436197917,-0.5940182209014893,-9.81216812133789,-1.2221341927846272,1.688686236881453e+18,34.35745320638021,-0.7786677082379659,-9.725472132364908,-1.0222384532292683,1.688686236877136e+18,34.35313590494791,-0.0022907440628235,-0.1705841223398844,-0.0288124779860177,1.688686236877136e+18,34.35313590494791,-0.0033597586831698,-0.1661553482214609,-0.0265217333411176,,,,,,,,,,,,1.68868623687385e+18,34.349849951171876,-13.219919776916504,42.141239166259766,2.1447598934173584,1.68868623687385e+18,34.349849951171876,-268.56591796875,137.1670349121094,-130.57903747558595,1.688686236881453e+18,34.35745320638021,-0.6748691399892172,0.7346330285072327,0.001288601119692,0.0697373499472935,2.221778313318888,1.4394285678863523,0.8227671186129252
4.4,1.6886862369247232e+18,34.40072302246094,-0.0672187507152557,0.0231881141662597,0.2432447969913482,1.6886862369247194e+18,34.40071940104166,-0.8179465333620707,-9.722237904866535,-0.7501499056816101,1.6886862369247232e+18,34.40072302246094,-0.7773116230964661,-9.723833560943604,-1.0387341380119324,1.6886862369290468e+18,34.40504703776042,0.0390444702158371,0.0069740445663531,-0.0026979881028334,1.6886862369290468e+18,34.40504703776042,0.0379754565656184,0.0114537235349416,-0.0004072436131537,1.688686236922492e+18,34.398491943359375,0.0,0.0,0.993984580039978,10.696999549865724,0.1701643913984298,166.14376831054688,40.20000076293945,-122.7531844,49.1903224,1.6886862369238513e+18,34.399851171875,-13.202839851379396,42.02167892456055,2.239919924736023,1.6886862369238513e+18,34.399851171875,-268.5488342285156,137.04747619628907,-130.48387451171874,1.6886862369247232e+18,34.40072302246094,-0.6747818291187286,0.7345866858959198,0.0010902107460423,0.0710687898099422,2.2132400274276733,1.4381588697433472,0.8291304409503937
4.45,1.6886862369679828e+18,34.44398266601562,-0.1480104128519693,-0.0191542307535807,0.3368650674819946,1.6886862369766382e+18,34.45263834635417,-0.8797611395517985,-9.749555905659994,-0.6662017107009888,1.6886862369679828e+18,34.44398266601562,-0.7856525977452596,-9.722468058268229,-1.0452157656351726,1.688686236980967e+18,34.456966796875,-0.0015780686711271,-0.0760527240733305,-0.0270816919704277,1.688686236980967e+18,34.456966796875,-0.002647082787007,-0.0715221402545769,-0.0247909476359684,,,,,,,,,,,,1.6886862369738532e+18,34.449853222656245,-13.171119689941406,42.08023910522461,2.3911999702453612,1.6886862369738532e+18,34.449853222656245,-268.5171142578125,137.1060363769531,-130.3325988769531,1.6886862369679828e+18,34.44398266601562,-0.6744164824485779,0.7348759373029073,0.001032886483396,0.0715433458487192,2.2153706550598145,1.4371105432510376,0.8262410759925842
4.5,1.688686237019902e+18,34.495902099609374,0.064145525296529,-0.022900899251302,0.0904037356376647,1.6886862370285489e+18,34.50454899088542,-0.7481558720270792,-9.775478045145672,-0.9320044120152792,1.688686237019902e+18,34.495902099609374,-0.7896329760551453,-9.72251001993815,-1.0418253739674883,1.6886862370242273e+18,34.50022741699219,-0.0083993973676114,-0.0058795772492885,0.0078648902708664,1.6886862370242273e+18,34.50022741699219,-0.0094684113282709,-0.0013744467869401,0.0101556347217409,,,,,,,,,,,,1.688686237023851e+18,34.499851074218746,-13.539559745788576,42.02655868530273,2.0569199085235597,1.688686237023851e+18,34.499851074218746,-268.88555297851565,137.05235595703124,-130.66687927246093,1.688686237019902e+18,34.495902099609374,-0.674167255560557,0.7350146770477295,-0.0002486834127921,0.0724707220991452,2.219365119934082,1.4371432463328044,0.8191125790278116
4.55,1.6886862370718164e+18,34.54781640625,-0.123441735903422,0.0473184585571288,-0.0350952943166096,1.6886862370804682e+18,34.556468098958334,-0.9028917153676352,-9.689735412597656,-1.0205388466517131,1.6886862370718164e+18,34.54781640625,-0.786891241868337,-9.722739219665527,-1.0417501131693525,1.6886862370674844e+18,34.54348461914062,0.0064140850057203,0.0280488957650958,0.0055995980898538,1.6886862370674844e+18,34.54348461914062,0.0053450708898404,0.032528574578464,0.0078903428899745,,,,,,,,,,,,1.6886862370738547e+18,34.549854638671874,-13.0466796875,42.033879089355466,1.8226799488067629,1.6886862370738547e+18,34.549854638671874,-268.3926696777344,137.05967712402344,-130.9011199951172,1.6886862370718164e+18,34.54781640625,-0.6743170420328776,0.7349196275075277,0.0002260941910207,0.072039338449637,2.217726945877075,1.4373188813527424,0.8220368027687073
4.6,1.6886862371237304e+18,34.59973046875,-0.0427907705307006,0.0192495981852213,-0.0538604656855264,1.6886862371237297e+18,34.59972961425781,-0.8207381665706635,-9.71605634689331,-1.0342975854873655,1.6886862371237304e+18,34.59973046875,-0.7925671140352885,-9.721789042154947,-1.0463149547576904,1.6886862371194033e+18,34.595403157552084,0.0068722340899208,-0.0219911485910415,-0.0130317920508483,1.6886862371194033e+18,34.595403157552084,0.0058032198188204,-0.0175114708642164,-0.0107410472507277,,,,,,,,,,,,1.6886862371238513e+18,34.59985126953125,-13.019839859008789,42.182718658447264,2.2521199703216555,1.6886862371238513e+18,34.59985126953125,-268.36583251953124,137.2085174560547,-130.4716796875,1.6886862371237304e+18,34.59973046875,-0.6740672787030538,0.7351163625717163,0.0001911998260766,0.0723686615626017,2.21907901763916,1.4365923802057905,0.8201649188995361
4.65,1.6886862371756454e+18,34.65164542643229,-0.0313915411631266,0.0183083216349283,-0.0368142127990722,1.6886862371669926e+18,34.642992838541666,-0.8135596911112467,-9.718648592631022,-1.0311071475346882,1.6886862371756454e+18,34.65164542643229,-0.7959902683893839,-9.721047401428224,-1.050599495569865,1.688686237171317e+18,34.64731713867187,0.0049887327477335,-0.0264708269387483,-0.0102319929283111,1.688686237171317e+18,34.64731713867187,0.0039197187094638,-0.02204205468297,-0.0079412481669956,,,,,,,,,,,,1.688686237173848e+18,34.649848046875,-13.178439712524414,42.231519317626955,2.127679967880249,1.688686237173848e+18,34.649848046875,-268.52443237304686,137.25731811523437,-130.5961181640625,1.6886862371756454e+18,34.65164542643229,-0.6738743185997009,0.7352350354194641,-0.0001401284037759,0.0729577541351318,2.2191861470540366,1.436028242111206,0.8187498251597086
4.7,1.6886862372275576e+18,34.703557454427084,-0.0496658086776733,-0.006993293762207,0.0595999360084533,1.688686237218909e+18,34.694909016927085,-0.8486544291178385,-9.74138037363688,-0.9483553965886434,1.6886862372275576e+18,34.703557454427084,-0.8000490069389343,-9.720272064208984,-1.0546905597050984,1.6886862372232356e+18,34.69923567708333,0.0073812883347272,-0.0199549319222569,-0.0060068416253973,1.6886862372232356e+18,34.69923567708333,0.0063122742188472,-0.0153734417011339,-0.0037160970387048,,,,,,,,,,,,1.6886862372238528e+18,34.699852880859375,-13.171119499206544,42.16320037841797,2.2106399059295656,1.6886862372238528e+18,34.699852880859375,-268.51710815429686,137.18899536132812,-130.5131591796875,1.6886862372275576e+18,34.703557454427084,-0.6736570398012797,0.7353754838307699,-0.0004875110074256,0.0735455453395843,2.219763199488322,1.4354410568873088,0.8168437679608663
4.75,1.6886862372794757e+18,34.755475585937496,-0.0614202618598937,0.0242198308308918,0.0907683571179707,1.6886862372708209e+18,34.746820719401036,-0.850847860177358,-9.716255823771158,-0.8923234542210897,1.6886862372794757e+18,34.755475585937496,-0.8048449158668518,-9.719780604044596,-1.0555498997370405,1.688686237275151e+18,34.751150797526044,0.00122173045141,0.0161879292378822,-0.0100283709665138,1.688686237275151e+18,34.751150797526044,0.0001527162579198,0.0206676069647073,-0.0077376263216136,,,,,,,,,,,,1.6886862372738488e+18,34.74984892578125,-13.171119880676269,42.14367904663086,2.0788799285888673,1.6886862372738488e+18,34.74984892578125,-268.5171142578125,137.1694763183594,-130.64491577148436,1.6886862372794757e+18,34.755475585937496,-0.6734861135482788,0.7355417410532633,-0.0003351520184271,0.0734489088257153,2.222249428431193,1.435071547826131,0.8147093653678894
4.8,1.688686237331384e+18,34.807383951822914,0.0077372988065083,-0.010470708211263,0.0102022886276245,1.6886862373227338e+18,34.79873380533854,-0.8215357661247253,-9.757332801818846,-0.9770692586898804,1.688686237331384e+18,34.807383951822914,-0.8081998427708944,-9.719786008199057,-1.0529500246047974,1.688686237327062e+18,34.803061930338544,-0.0073812881795067,-0.0283034226546684,-0.006363179689894,1.688686237327062e+18,34.803061930338544,-0.0084503026058275,-0.0237728388359148,-0.0040724348897734,,,,,,,,,,,,1.6886862373238533e+18,34.7998533203125,-12.870999526977538,42.39499893188477,2.0959598779678346,1.6886862373238533e+18,34.7998533203125,-268.2169982910156,137.4207977294922,-130.62783813476562,1.688686237331384e+18,34.807383951822914,-0.6733386715253195,0.7356574932734171,-0.0007512022663528,0.0736379052201906,2.225445111592611,1.4350749254226685,0.8106544216473898
4.85,1.6886862373746483e+18,34.85064831542969,-0.0589953958988189,0.0401897430419921,-0.0241155624389648,1.6886862373746537e+18,34.85065372721354,-0.8502496480941772,-9.705687204996744,-1.0183454155921936,1.6886862373746483e+18,34.85064831542969,-0.8085658848285675,-9.719897747039797,-1.05163311958313,1.6886862373789806e+18,34.85498071289063,-0.0003563380644967,0.0105883314584692,-0.0028507045159737,1.6886862373789806e+18,34.85498071289063,-0.0014253522385842,0.0151189149667819,-0.000559960026294,,,,,,,,,,,,1.68868623737385e+18,34.8498501953125,-13.1637996673584,42.304718780517575,2.3838799953460694,1.68868623737385e+18,34.8498501953125,-268.5098022460937,137.3305206298828,-130.3399169921875,1.6886862373746483e+18,34.85064831542969,-0.673335462808609,0.7356702387332916,-0.0007452490099239,0.0735399387776851,2.226269364356994,1.4351587295532229,0.8099780082702637
4.9,1.6886862374179123e+18,34.89391219075521,-0.0209906299908955,-0.0503203074137369,-0.0622686147689819,1.6886862374265654e+18,34.902565511067706,-0.8035896023114523,-9.801799456278482,-1.021934688091278,1.6886862374179123e+18,34.89391219075521,-0.8153642614682516,-9.719218254089355,-1.0526625315348308,1.6886862374309005e+18,34.9069003092448,0.0021380284645905,-0.0744237502415974,-0.0209221346691871,1.6886862374309005e+18,34.9069003092448,0.0010690139606595,-0.0699440712730089,-0.0186313902183125,,,,,,,,,,,,1.6886862374238564e+18,34.89985649414062,-13.236999702453613,41.98507843017578,2.1984399557113647,1.6886862374238564e+18,34.89985649414062,-268.5830017089844,137.01087951660156,-130.52535705566407,1.6886862374179123e+18,34.89391219075521,-0.6730223894119263,0.7359048128128052,-0.0012492256355471,0.0740482384959856,2.2298414707183833,1.4346483548482258,0.8049676616986593
4.95,1.688686237469827e+18,34.9458271484375,0.1272255380948384,-0.048328399658203,0.2072979013125101,1.6886862374784788e+18,34.95447892252604,-0.688534696896871,-9.768698374430338,-0.7591229875882467,1.688686237469827e+18,34.9458271484375,-0.8132313887278239,-9.718618392944336,-1.0598161617914836,1.6886862374741478e+18,34.95014770507812,0.029397889971733,0.0423024167539551,0.0246636839583515,1.6886862374741478e+18,34.95014770507812,0.0283288760110735,0.0468075484968721,0.0269544282928108,,,,,,,,,,,,1.6886862374738488e+18,34.949848876953126,-13.36631965637207,42.260799407958984,2.2569999217987062,1.6886862374738488e+18,34.949848876953126,-268.7123168945312,137.2865966796875,-130.466796875,1.688686237469827e+18,34.9458271484375,-0.6730011900266012,0.7358300884564718,-0.0017067328638706,0.074969691534837,2.225304365158081,1.4341987371444702,0.8075452844301859
5.0,1.688686237521743e+18,34.99774308268229,-0.0820371309916178,0.0207567214965819,0.2323508858680724,1.688686237530398e+18,35.00639819335938,-0.8891330162684122,-9.72024408976237,-0.7838488221168518,1.688686237521743e+18,34.99774308268229,-0.803570012251536,-9.71871026357015,-1.066324790318807,1.6886862375174216e+18,34.993421549479166,0.0213802832489211,0.1026253600915273,0.0320704250286022,1.6886862375174216e+18,34.993421549479166,0.0203112699091434,0.1071559463938077,0.0343611699839432,,,,,,,,,,,,1.6886862375238513e+18,34.999851318359376,-13.163799476623534,42.109518432617186,2.291159963607788,1.6886862375238513e+18,34.999851318359376,-268.5097900390625,137.13531799316405,-130.4326385498047,1.688686237521743e+18,34.99774308268229,-0.6735242406527201,0.7354971766471863,0.0003831809541831,0.0735419417421022,2.21659255027771,1.4342674016952517,0.8212500611941019
5.05,1.6886862375736614e+18,35.04966153971355,-0.0162393848101297,-0.0161358515421549,0.0968994498252868,1.6886862375736604e+18,35.04966040039062,-0.7971090376377106,-9.750452995300291,-0.9026923477649688,1.6886862375736614e+18,35.04966153971355,-0.7939938505490621,-9.719504674275717,-1.066267212231954,1.688686237569336e+18,35.0453359375,0.002952515380457,0.0475965825219948,0.0204639857014019,1.688686237569336e+18,35.0453359375,0.0018835012257719,0.0521271663407484,0.0227547300358612,,,,,,,,,,,,1.6886862375738555e+18,35.0498556640625,-12.914919662475588,42.22175903320313,2.2325999259948732,1.6886862375738555e+18,35.0498556640625,-268.2609130859375,137.24755859375,-130.49119567871094,1.6886862375736614e+18,35.04966153971355,-0.673992931842804,0.7351639866828918,0.0014850581840921,0.0725609660148619,2.2108664512634277,1.434863011042277,0.8299344778060913
5.1,1.6886862376255724e+18,35.10157242838542,0.0563352704048156,0.046640396118164,-0.155996561050415,1.6886862376169193e+18,35.09291918945312,-0.7433702349662781,-9.707083066304524,-1.1232308546702068,1.6886862376255724e+18,35.10157242838542,-0.7911945780118307,-9.720067342122396,-1.0632217725118,1.6886862376212475e+18,35.09724763997396,-0.0006108652645101,0.0835358227292696,0.0100283709665138,1.6886862376212475e+18,35.09724763997396,-0.0016798793997925,0.0880155016978581,0.012319115611414,,,,,,,,,,,,1.6886862376238533e+18,35.09985327148438,-13.73963966369629,41.91920013427735,2.298479986190796,1.6886862376238533e+18,35.09985327148438,-269.08563232421875,136.94499816894532,-130.42532043457032,1.6886862376255724e+18,35.10157242838542,-0.6742552717526754,0.735062837600708,0.0028673986283441,0.071091279387474,2.2105467319488525,1.435286521911621,0.8343038360277811
5.15,1.688686237677491e+18,35.15349072265625,-0.0145442485809326,0.0170221328735351,-0.2153693437576294,1.6886862376688353e+18,35.144835367838546,-0.7924231092135111,-9.710872014363607,-1.2273186445236206,1.688686237677491e+18,35.15349072265625,-0.785120685895284,-9.720160166422524,-1.0668600002924602,1.6886862376731638e+18,35.149163655598954,0.0074321938057739,5.090500538550031e-05,0.0176132808749873,1.6886862376731638e+18,35.149163655598954,0.006363179689894,0.0045305830232488,0.0199040261407692,,,,,,,,,,,,1.6886862376738555e+18,35.14985541992188,-13.312639808654785,42.07291870117187,2.139879894256592,1.6886862376738555e+18,35.14985541992188,-268.658642578125,137.09871520996094,-130.58391723632812,1.688686237677491e+18,35.15349072265625,-0.6745297908782959,0.7348490556081136,0.0036302641965448,0.0706630597511926,2.205229918162028,1.4353569746017456,0.8413114547729492
5.2,1.688686237729406e+18,35.20540584309896,0.0850178400675455,0.0341386795043945,-0.0462635358174641,1.688686237720748e+18,35.19674812825521,-0.7084749142328898,-9.712068239847818,-1.0879367192586265,1.688686237729406e+18,35.20540584309896,-0.7833866079648336,-9.71953010559082,-1.073852022488912,1.688686237725085e+18,35.20108487955729,0.0122682101403672,-0.0108937630429863,-0.0060577471740543,1.688686237725085e+18,35.20108487955729,0.0111991963349282,-0.0064649900111058,-0.0037670022575184,,,,,,,,,,,,1.6886862377238513e+18,35.19985112304687,-13.19307975769043,42.304718780517575,2.50831995010376,1.6886862377238513e+18,35.19985112304687,-268.5390686035156,137.33051452636718,-130.2154754638672,1.688686237729406e+18,35.20540584309896,-0.6745322148005167,0.7347893913586935,0.0035102144659806,0.0712639242410659,2.2010605335235596,1.4348825613657634,0.8444557388623556
5.25,1.6886862377813128e+18,35.25731290690104,-0.0264679392178853,0.0219729741414388,0.0898120999336242,1.6886862377726676e+18,35.248667480468754,-0.7868398427963257,-9.6889378229777,-0.9459625482559204,1.6886862377813128e+18,35.25731290690104,-0.7805748581886292,-9.718929290771484,-1.0813134908676143,1.6886862377769953e+18,35.252995361328125,0.0131336028377214,-0.0042251516909649,0.0098247492375472,1.6886862377769953e+18,35.252995361328125,0.0120645887218414,0.0002036220394074,0.0121154940376678,,,,,,,,,,,,1.688686237773849e+18,35.24984951171875,-13.524919700622558,42.22663879394531,2.5302799701690675,1.688686237773849e+18,35.24984951171875,-268.87091674804685,137.2524383544922,-130.19351806640626,1.6886862377813128e+18,35.25731290690104,-0.6746181646982828,0.7346900304158529,0.0038750735887636,0.0714557617902755,2.196059068044027,1.4344311952590942,0.8497018814086914
5.3,1.6886862378245832e+18,35.30058325195313,0.1036843359470367,-0.0288124084472655,0.0874984562397002,1.6886862378245857e+18,35.30058536783854,-0.6863412857055664,-9.759525934855144,-0.9332008361816406,1.6886862378245832e+18,35.30058325195313,-0.7798197865486145,-9.71879243850708,-1.0830876231193542,1.688686237828912e+18,35.30491170247396,0.0046833001542835,0.0116573449534673,-0.0021380283869802,1.688686237828912e+18,35.30491170247396,0.0036142861160138,0.0161370234563946,0.0001527163355301,,,,,,,,,,,,1.6886862378238495e+18,35.29984970703125,-13.061319732666016,42.031439208984374,2.535159969329834,1.6886862378238495e+18,35.29984970703125,-268.4073120117188,137.05723876953124,-130.18863830566406,1.6886862378245832e+18,35.30058325195313,-0.6746126115322113,0.7346650063991547,0.0036623855121433,0.0717765726149081,2.194823145866394,1.4343292713165283,0.8501806259155273
5.35,1.6886862378678474e+18,35.34384724934896,-0.0019810001055399,0.0373484293619791,-0.033413290977478,1.6886862378764984e+18,35.35249829101563,-0.8201399644215902,-9.692925453186035,-1.0773683786392212,1.6886862378678474e+18,35.34384724934896,-0.7761485377947489,-9.719150225321451,-1.0825148820877075,1.688686237880826e+18,35.356826171875,-0.0055486924829892,0.034259358420968,0.0235692175726095,1.688686237880826e+18,35.356826171875,-0.0066177069772189,0.0387899425501624,0.0258599619070688,,,,,,,,,,,,1.6886862378738511e+18,35.349851123046875,-13.544439888000488,42.033879089355466,2.4082799434661863,1.6886862378738511e+18,35.349851123046875,-268.89043579101565,137.05968017578124,-130.31551818847657,1.6886862378678474e+18,35.34384724934896,-0.6748297810554504,0.7345332900683085,0.0044410730091233,0.0710331052541732,2.192835569381714,1.4345963795979817,0.8543280363082886
5.4,1.6886862379197583e+18,35.39575821940104,-0.0849106510480244,0.1078354517618814,-0.2040288845698038,1.688686237928407e+18,35.40440706380208,-0.8245267868041992,-9.626125971476236,-1.2556336720784504,1.6886862379197583e+18,35.39575821940104,-0.771185020605723,-9.720046361287435,-1.0780010620752971,1.6886862379240888e+18,35.40008874511719,-0.0226783724501728,-0.0673478934913873,-0.0113010073546319,1.6886862379240888e+18,35.40008874511719,-0.0237473864108323,-0.0627664048224687,-0.0090102619724347,1.688686237922589e+18,35.3985888671875,0.0,0.0,1.004366755485535,10.75100040435791,0.157031774520874,166.32554626464844,40.20000076293945,-122.7531849,49.1903234,1.6886862379238538e+18,35.39985390625,-13.390719604492189,41.96799774169922,2.4887999534606933,1.6886862379238538e+18,35.39985390625,-268.73671875,136.993798828125,-130.23499755859376,1.6886862379197583e+18,35.39575821940104,-0.6750168005625407,0.7343627611796061,0.0041104496146241,0.0710391278068224,2.191776911417643,1.4352721373240154,0.8549115061759949
5.45,1.688686237971676e+18,35.44767569986979,-0.0254818399747212,0.0898990631103515,-0.4419009288152059,1.6886862379803249e+18,35.456324869791665,-0.8141579031944275,-9.647262573242186,-1.4538391431172688,1.688686237971676e+18,35.44767569986979,-0.7801651557286581,-9.72005558013916,-1.0714351733525591,1.688686237967349e+18,35.44334920247396,-0.0319177092363436,-0.0982474933067957,-0.0339030213654041,1.688686237967349e+18,35.44334920247396,-0.0329867228865623,-0.0937169094880421,-0.0316122770309447,,,,,,,,,,,,1.688686237973854e+18,35.44985405273438,-13.363879776000976,42.09243927001953,2.5619999408721923,1.688686237973854e+18,35.44985405273438,-268.7098815917969,137.1182373046875,-130.16179809570312,1.688686237971676e+18,35.44767569986979,-0.6745439171791077,0.7346823811531067,0.0022140648992111,0.0722963362932205,2.2001704374949136,1.4352787733078003,0.8420431017875671
5.5,1.688686238023585e+18,35.499585286458334,-0.0524825453758239,0.1040474573771158,-0.3194015026092529,1.6886862380235912e+18,35.49959118652344,-0.8515457510948181,-9.637691497802734,-1.3169497847557068,1.688686238023585e+18,35.499585286458334,-0.7936430176099142,-9.72024631500244,-1.0597371260325117,1.6886862380192625e+18,35.49526228841146,-0.0519744505484898,-0.2417499174674352,-0.0547742508351802,1.6886862380192625e+18,35.49526228841146,-0.0530434660613536,-0.2371684263149897,-0.0524835052589574,,,,,,,,,,,,1.6886862380238548e+18,35.499854980468754,-12.748999786376952,42.19247894287109,2.1057199478149413,1.6886862380238548e+18,35.499854980468754,-268.0949951171875,137.21827697753906,-130.61807861328126,1.688686238023585e+18,35.499585286458334,-0.6737047036488851,0.735149065653483,-0.001997539079942,0.0753008251388867,2.2136013507843018,1.4354233741760254,0.81837131579717
5.55,1.6886862380755095e+18,35.55150952148438,0.1366970737775166,0.0302168528238932,-0.0948283672332763,1.688686238066852e+18,35.542852132161464,-0.6971090038617452,-9.68475023905436,-1.1389835675557454,1.6886862380755095e+18,35.55150952148438,-0.8189142743746439,-9.71859868367513,-1.0555963118871052,1.688686238071179e+18,35.54717887369792,-0.0192931610314796,-0.2079487045605977,-0.0842994029323259,1.688686238071179e+18,35.54717887369792,-0.0203621750697493,-0.2035199304421742,-0.0819577525059381,,,,,,,,,,,,1.6886862380738532e+18,35.549853222656246,-12.844159698486328,42.20223770141602,2.020319938659668,1.6886862380738532e+18,35.549853222656246,-268.1901550292969,137.22804260253906,-130.70347900390624,1.6886862380755095e+18,35.55150952148438,-0.6722761591275533,0.7359956304232279,-0.0069068111479282,0.0794076174497604,2.230578819910685,1.4341848293940227,0.7885852456092834
5.6,1.688686238127421e+18,35.60342081705729,0.1813584168752033,-0.0737813313802082,0.2198943893114725,1.6886862381187638e+18,35.59476391601563,-0.6514459649721781,-9.788837750752768,-0.8277172446250916,1.688686238127421e+18,35.60342081705729,-0.8418408234914144,-9.715697606404625,-1.0642371972401936,1.688686238123093e+18,35.59909285481771,0.0273362202569841,-0.0044796781730838,-0.0408770665526389,1.688686238123093e+18,35.59909285481771,0.0262672050545612,5.0904617334368574e-05,-0.0385863222181796,,,,,,,,,,,,1.6886862381238523e+18,35.599852294921874,-12.666039848327635,42.35107879638672,2.115479922294617,1.6886862381238523e+18,35.599852294921874,-268.0120361328125,137.3768798828125,-130.6083190917969,1.688686238127421e+18,35.60342081705729,-0.6712204813957214,0.7367781599362692,-0.0080664309983451,0.0809685985247293,2.2400463422139487,1.4320313930511477,0.7752456068992615
5.65,1.688686238179332e+18,35.65533227539063,0.2187085549036661,-0.1676219304402668,0.6096371014912924,1.6886862381706842e+18,35.64668416341146,-0.6265207131703695,-9.91266663869222,-0.4689932465553283,1.688686238179332e+18,35.65533227539063,-0.8576555848121643,-9.713382403055826,-1.0727235078811646,1.6886862381750108e+18,35.651010986328124,0.0356847109893957,0.1877392505606015,-0.0126754540639619,1.6886862381750108e+18,35.651010986328124,0.034615697339177,0.19221892952919,-0.0103847092638413,,,,,,,,,,,,1.6886862381738555e+18,35.649855810546875,-12.592839813232422,42.41451873779297,1.8031599283218385,1.6886862381738555e+18,35.649855810546875,-267.9388366699219,137.44031677246093,-130.92063903808594,1.688686238179332e+18,35.65533227539063,-0.6708459655443827,0.7373486558596293,-0.0054005760078628,0.0790631994605064,2.245247999827067,1.4303335348765056,0.776528557141622
5.7,1.6886862382312476e+18,35.70724739583333,-0.1604111989339192,0.0255324045817057,0.5449517766634623,1.688686238222595e+18,35.69859513346354,-0.9180462757746378,-9.72742207845052,-0.3563311596711476,1.6886862382312476e+18,35.70724739583333,-0.8587952256202698,-9.715509732564293,-1.0523054202397664,1.6886862382269256e+18,35.702925455729165,-0.0242309878813102,0.26796622077624,0.0460694214950004,1.6886862382269256e+18,35.702925455729165,-0.0253000018807748,0.2723949899276097,0.0483601645876963,,,,,,,,,,,,1.6886862382238546e+18,35.69985463867188,-12.805119705200196,42.57311935424805,2.169159984588623,1.6886862382238546e+18,35.69985463867188,-268.1511169433594,137.59891662597656,-130.554638671875,1.6886862382312476e+18,35.70724739583333,-0.6714226206143697,0.7374076247215271,-0.0009580916618385,0.0736040423313776,2.2553138732910156,1.4318943818410237,0.7805283665657043
5.75,1.6886862382745134e+18,35.750513305664064,-0.3206692337989807,0.0510988235473632,-0.1604222059249877,1.6886862382745132e+18,35.75051310221354,-1.1465608676274617,-9.679166793823242,-1.098305622736613,1.6886862382745134e+18,35.750513305664064,-0.8498831987380981,-9.719740390777588,-1.0200124979019165,1.6886862382788416e+18,35.754841878255206,-0.0739655991395314,0.0060577456218501,0.0088066402822732,1.6886862382788416e+18,35.754841878255206,-0.0750346158941586,0.0104865193522224,0.0110973852376143,,,,,,,,,,,,1.6886862382738488e+18,35.74984892578125,-13.075959777832033,42.54627990722656,2.088639926910401,1.6886862382738488e+18,35.74984892578125,-268.4219543457031,137.57207946777345,-130.63515625,1.6886862382745134e+18,35.750513305664064,-0.6720834374427795,0.7371003925800323,-9.691170998845e-05,0.0706179291009902,2.2654799222946167,1.4350428581237793,0.7758355438709259
5.8,1.6886862383177723e+18,35.7937724609375,0.0519796013832092,-0.0370890299479166,-0.4546449780464172,1.6886862383264287e+18,35.80242854817708,-0.741974413394928,-9.791828791300455,-1.3631112972895305,1.6886862383177723e+18,35.7937724609375,-0.8602188229560852,-9.720884323120115,-1.0002664128939311,1.6886862383307564e+18,35.80675651041667,-0.0235692172621687,0.0169006042803327,-0.038077267507712,1.6886862383307564e+18,35.80675651041667,-0.0246382307571669,0.0213293768465518,-0.0357865231732527,,,,,,,,,,,,1.6886862383238523e+18,35.79985244140625,-12.95151958465576,42.565798950195315,2.0642399311065676,1.6886862383238523e+18,35.79985244140625,-268.2975158691406,137.5915954589844,-130.65955810546876,1.6886862383177723e+18,35.7937724609375,-0.6716919740041097,0.7374557058016459,-0.0016276037398104,0.0706132054328918,2.2810655434926352,1.4359053770701091,0.7580865422884623
5.85,1.6886862383696916e+18,35.84569181315104,0.0210864941279093,-0.0011994043986002,0.0201544364293416,1.688686238378343e+18,35.8543427734375,-0.9240283370018004,-9.72602653503418,-0.8336992661158243,1.6886862383696916e+18,35.84569181315104,-0.8743905226389567,-9.719884872436523,-0.997697691122691,1.6886862383740186e+18,35.8500185546875,0.0161115704104303,0.1261436678469181,0.0012217303737998,1.6886862383740186e+18,35.8500185546875,0.0150425569154321,0.1306488029658793,0.003512475406751,,,,,,,,,,,,1.6886862383738532e+18,35.84985327148438,-12.76851978302002,42.31203842163086,2.0495999336242674,1.6886862383738532e+18,35.84985327148438,-268.11451416015626,137.33783874511718,-130.6741973876953,1.6886862383696916e+18,35.84569181315104,-0.6713004112243652,0.7379469871520996,-0.0003258522580533,0.0692039504647254,2.2904327710469565,1.4351497491200764,0.7525644699732462
5.9,1.688686238421606e+18,35.89760595703125,-0.2649829983711242,0.0942808787027994,0.2167050043741861,1.6886862384302584e+18,35.90625838216146,-1.1272188822428386,-9.65264638264974,-0.7403791944185892,1.688686238421606e+18,35.89760595703125,-0.8760579625765482,-9.720250447591146,-0.992652952671051,1.6886862384172762e+18,35.89327620442708,-0.0223474867913561,-0.080786930086712,-0.0018325957935303,1.6886862384172762e+18,35.89327620442708,-0.0234165008102232,-0.0762563434739907,0.0004581489677851,,,,,,,,,,,,1.688686238423849e+18,35.89984892578125,-13.078399848937988,42.336438751220705,1.988599920272827,1.688686238423849e+18,35.89984892578125,-268.4243957519531,137.36223754882812,-130.73519592285157,1.688686238421606e+18,35.89760595703125,-0.6712578336397806,0.7380041281382242,-0.0004967390753639,0.0690054645140965,2.2938926219940186,1.4354262351989746,0.7491437991460165
5.95,1.688686238473521e+18,35.94952075195312,-0.1068488359451293,-0.0757271448771158,-0.0770033200581868,1.6886862384735155e+18,35.949515502929685,-0.977767139673233,-9.830912113189695,-1.007378339767456,1.688686238473521e+18,35.94952075195312,-0.8808520833651224,-9.720930417378744,-0.9816964864730836,1.6886862384691963e+18,35.945196451822916,-0.0264708269387483,-0.1160643945137658,-0.0307977891837556,1.6886862384691963e+18,35.945196451822916,-0.0275398421411712,-0.1115338106950123,-0.0285070445388554,,,,,,,,,,,,1.688686238473854e+18,35.949853955078126,-12.907599639892576,42.43159942626953,2.012999939918518,1.688686238473854e+18,35.949853955078126,-268.2535827636719,137.4574005126953,-130.7107940673828,1.688686238473521e+18,35.94952075195312,-0.6708757281303406,0.7381616234779358,-0.0034605695400386,0.0709274013837178,2.3021016915639243,1.4359408219655354,0.7340023318926493
6.0,1.688686238525436e+18,36.001435953776046,0.1021607518196105,-0.0478083292643228,-0.0622010032335917,1.688686238516787e+18,35.99278686523437,-0.8211369713147482,-9.79541842142741,-1.0173484086990356,1.688686238525436e+18,36.001435953776046,-0.8944478233655294,-9.719138145446776,-0.9871269464492798,1.6886862385211098e+18,35.99710970052083,0.019038632706118,-0.0593048346539338,-0.0205148914828896,1.6886862385211098e+18,35.99710970052083,0.0179696193275352,-0.0547742508351802,-0.0182241471484303,,,,,,,,,,,,1.688686238523846e+18,35.99984584960937,-12.605039596557615,42.46819915771484,1.829999923706055,1.688686238523846e+18,35.99984584960937,-267.95103759765624,137.4939971923828,-130.8937957763672,1.688686238525436e+18,36.001435953776046,-0.6702134211858114,0.7386249303817749,-0.0046014855615794,0.0722899958491325,2.3069890340169272,1.434589147567749,0.7255571087201437
6.05,1.6886862385773466e+18,36.053346516927085,-0.0271432598431904,-0.0046377182006836,0.2117321093877156,1.688686238568695e+18,36.04469523111979,-0.8317052721977234,-9.755537986755373,-0.7663014531135559,1.6886862385773466e+18,36.053346516927085,-0.8742166558901469,-9.719038645426432,-1.0060250361760457,1.688686238573026e+18,36.04902612304688,0.0384845100343227,0.00885754575332,0.0548760617772737,1.688686238573026e+18,36.04902612304688,0.0374154957632223,0.0133372247219085,0.057166806111733,,,,,,,,,,,,1.6886862385738511e+18,36.04985102539062,-12.66359977722168,42.516998291015625,1.8543999195098877,1.6886862385738511e+18,36.04985102539062,-268.0095947265625,137.5427978515625,-130.86939697265626,1.6886862385773466e+18,36.053346516927085,-0.6708699067433676,0.7379288673400879,-0.0042246415590245,0.0733248715599377,2.286203304926554,1.4345142841339111,0.7454079786936442
6.1,1.6886862386292667e+18,36.10526684570313,-0.2184540033340453,0.0499483744303385,0.0853957136472066,1.6886862386206124e+18,36.09661214192708,-1.0995020071665444,-9.687342643737791,-0.8201399644215902,1.6886862386292667e+18,36.10526684570313,-0.8565849661827087,-9.719586690266928,-1.0158801476160686,1.688686238624941e+18,36.10094108072917,0.0153734423220157,-0.0401134855734805,0.0221438645385205,1.688686238624941e+18,36.10094108072917,0.0143044277404744,-0.0356847119207183,0.0244346096490819,,,,,,,,,,,,1.688686238623856e+18,36.09985595703125,-13.027159690856934,42.44135971069336,1.954439902305603,1.688686238623856e+18,36.09985595703125,-268.37315673828124,137.4671600341797,-130.76935729980468,1.6886862386292667e+18,36.10526684570313,-0.6714858214060465,0.7373211781183878,-0.0039439889757582,0.0738145684202511,2.2713306744893393,1.4349262714385986,0.7599854667981466
6.15,1.688686238681177e+18,36.15717724609375,0.17239777247111,-0.0027456283569336,-0.023267646630605,1.6886862386725276e+18,36.14852758789063,-0.7339983383814493,-9.723833401997885,-1.0083753665288289,1.688686238681177e+18,36.15717724609375,-0.8580048481623331,-9.718139012654625,-1.0284531116485596,1.688686238676852e+18,36.152852050781256,0.0292197211335102,-5.09045397241679e-05,-0.0135917517667014,1.688686238676852e+18,36.152852050781256,0.0281507068624098,0.0044796795555157,-0.0113010071218013,,,,,,,,,,,,1.6886862386738511e+18,36.149851171875,-12.634319877624511,42.365719604492185,1.988599920272827,1.6886862386738511e+18,36.149851171875,-267.9803161621094,137.39151611328126,-130.73519897460938,1.688686238681177e+18,36.15717724609375,-0.6713132858276367,0.7373688419659933,-0.0041743635665624,0.0748876432577768,2.2660914262135825,1.4338415066401164,0.7633699774742126
6.2,1.688686238724434e+18,36.20043395996094,0.2384952902793884,-0.1162180900573729,0.2081418335437774,1.6886862387244442e+18,36.2004443359375,-0.6227320830027262,-9.835497856140137,-0.7846464316050211,1.688686238724434e+18,36.20043395996094,-0.8575021028518677,-9.716331481933594,-1.0458046793937683,1.6886862387287685e+18,36.20476822916667,0.0621555385490258,0.1295543362696965,0.0321722365915774,1.6886862387287685e+18,36.20476822916667,0.0610865242779254,0.1340849225719769,0.0344629809260367,,,,,,,,,,,,1.6886862387238523e+18,36.199852294921875,-12.519639778137208,42.1680793762207,2.4570799827575684,1.6886862387238523e+18,36.199852294921875,-267.8656311035156,137.19387512207032,-130.26671447753907,1.688686238724434e+18,36.20043395996094,-0.6714150309562683,0.7373604774475098,-0.0020352702122181,0.0741405896842479,2.257589101791382,1.432497262954712,0.7759644389152527
6.25,1.688686238767706e+18,36.24370597330729,0.0351979335149129,0.0456295013427734,0.1779987414677937,1.6886862387763546e+18,36.252354329427085,-0.8368897040685018,-9.662217775980633,-0.8855438033739725,1.688686238767706e+18,36.24370597330729,-0.8398479024569193,-9.716264724731444,-1.060626705487569,1.6886862387806843e+18,36.2566845703125,0.0169006052116553,0.0625118766135225,0.0521271688242752,1.6886862387806843e+18,36.2566845703125,0.0158315915614366,0.0670424606651067,0.0544179131587346,,,,,,,,,,,,1.6886862387738488e+18,36.24984877929687,-12.563559532165527,42.32911834716797,2.7181599140167236,1.6886862387738488e+18,36.24984877929687,-267.90955810546876,137.35491943359375,-130.0056396484375,1.688686238767706e+18,36.24370597330729,-0.6722241044044495,0.7367528875668844,0.0005577289072486,0.0728633031249045,2.2405412991841636,1.432448148727417,0.7985065380732218
6.3,1.688686238819617e+18,36.29561710611979,-0.0305236180623372,0.0391979217529296,-0.3106018702189127,1.6886862388282688e+18,36.30426896158854,-0.8111668825149536,-9.684550603230797,-1.3726826111475627,1.688686238819617e+18,36.29561710611979,-0.8231792251269022,-9.717809359232584,-1.0595637162526448,1.6886862388239396e+18,36.29993957519531,-0.0297796819359063,-0.0930042304098605,0.004810563812498,1.6886862388239396e+18,36.29993957519531,-0.0308486949652433,-0.0884991027414798,0.0071013082924764,,,,,,,,,,,,1.6886862388238446e+18,36.29984467773438,-12.956399726867676,42.36083908081055,2.3448399543762206,1.6886862388238446e+18,36.29984467773438,-268.302392578125,137.38663635253906,-130.378955078125,1.688686238819617e+18,36.29561710611979,-0.6728553573290507,0.7361761530240377,0.0005352564815742,0.0728672842184702,2.2313008308410645,1.433594544728597,0.8077131311098734
6.35,1.6886862388715356e+18,36.347535644531256,0.0714866916338601,0.1596190134684244,-0.5322895844777426,1.6886862388801884e+18,36.3561884765625,-0.7475576599438986,-9.573683420817057,-1.5090734958648682,1.6886862388715356e+18,36.347535644531256,-0.8169143199920654,-9.718788464864096,-1.055423418680827,1.688686238867211e+18,36.3432109375,-0.0231619742698966,-0.1224784801403681,-0.0054468816767136,1.688686238867211e+18,36.3432109375,-0.0242309883857766,-0.1180497060219446,-0.0031561371094237,,,,,,,,,,,,1.6886862388738511e+18,36.34985107421875,-12.878319931030273,42.1900390625,2.274079966545105,1.6886862388738511e+18,36.34985107421875,-268.22431640625,137.21583862304686,-130.44971618652343,1.6886862388715356e+18,36.347535644531256,-0.672879954179128,0.7359570066134135,-0.0018728274153545,0.0748038565119107,2.2294978300730386,1.434325933456421,0.8033514420191447
6.4,1.6886862389234514e+18,36.3994512532552,-0.0280659794807433,0.0637369155883788,-0.1528424819310506,1.6886862389234452e+18,36.39944506835938,-0.8614161312580109,-9.655637741088867,-1.153938710689545,1.6886862389234514e+18,36.3994512532552,-0.8278302947680155,-9.716226895650228,-1.0703639189402263,1.6886862389191227e+18,36.39512272135417,0.0280488962307571,-0.1081740533312161,-0.046731191376845,1.6886862389191227e+18,36.39512272135417,0.0269798810283342,-0.1037452816963195,-0.0444404470423857,1.688686238922577e+18,36.398576904296874,0.0,0.0,1.0147426128387451,10.545000076293944,0.1645133048295974,166.31362915039062,40.20000076293945,-122.7531838,49.1903206,1.6886862389238582e+18,36.399858203125,-12.57819995880127,42.336438751220705,2.364359951019287,1.6886862389238582e+18,36.399858203125,-267.9241882324219,137.36224060058595,-130.35943603515625,1.6886862389234514e+18,36.3994512532552,-0.6721850434939066,0.7363289793332418,-0.0035080533319462,0.0772909224033355,2.2291154066721597,1.43242347240448,0.7978740135828654
6.45,1.6886862389753582e+18,36.4513583984375,0.0970323880513508,-0.1553796132405598,0.3102620244026184,1.6886862389667144e+18,36.44271419270834,-0.7768697539965311,-9.886345545450846,-0.7714859048525492,1.6886862389753582e+18,36.4513583984375,-0.8464480439821879,-9.712464332580566,-1.089799205462138,1.6886862389710395e+18,36.44703979492187,0.0307977894941965,-0.0820595646897951,-0.0456112722555796,1.6886862389710395e+18,36.44703979492187,0.0297287758439778,-0.0775289808710415,-0.0433205279211202,,,,,,,,,,,,1.6886862389738511e+18,36.44985102539063,-12.766079711914063,42.32911987304688,2.052039957046509,1.6886862389738511e+18,36.44985102539063,-268.11207885742186,137.35491943359375,-130.6717559814453,1.6886862389753582e+18,36.4513583984375,-0.6711986660957336,0.7369662324587504,-0.0047437123333413,0.0796891277035076,2.23116930325826,1.429667552312215,0.7906480232874552
6.5,1.688686239027281e+18,36.50328076171875,0.0985377629597981,-0.0798985163370767,0.523310641447703,1.688686239018625e+18,36.49462483723958,-0.7034898598988851,-9.81635570526123,-0.513659248749415,1.688686239027281e+18,36.50328076171875,-0.8461588025093079,-9.711175600687662,-1.1014519135157268,1.6886862390229576e+18,36.49895760091146,0.0413861200213431,0.0910698280980189,0.0314086546810964,1.6886862390229576e+18,36.49895760091146,0.0403171057502428,0.0954986015955606,0.0336994004125396,,,,,,,,,,,,1.688686239023849e+18,36.49984897460938,-12.6757999420166,42.443798828125,2.535159969329834,1.688686239023849e+18,36.49984897460938,-268.02178955078125,137.46959533691407,-130.1886413574219,1.688686239027281e+18,36.50328076171875,-0.6712195078531901,0.7369617025057474,-0.0037638948609431,0.0796030561129252,2.225863854090373,1.428734262784322,0.7974634170532227
6.55,1.688686239079196e+18,36.555195882161456,-0.2409999966621398,0.0345172882080078,0.275084376335144,1.6886862390705426e+18,36.54654264322917,-1.0251251061757407,-9.712267875671388,-0.7002994219462076,1.688686239079196e+18,36.555195882161456,-0.8232712348302206,-9.712729771931969,-1.1050702333450315,1.6886862390748677e+18,36.550867431640626,0.0158824967220425,0.1406008203824361,0.0665334065755208,1.6886862390748677e+18,36.550867431640626,0.0148134817524502,0.1450804968674977,0.0688241484264532,,,,,,,,,,,,1.6886862390738473e+18,36.54984736328125,-13.022279930114744,42.40231857299805,2.5327199697494507,1.6886862390738473e+18,36.54984736328125,-268.36827392578124,137.42811889648436,-130.19107971191406,1.688686239079196e+18,36.555195882161456,-0.6723812818527222,0.7361794511477152,-0.0006328805999752,0.0770844767491022,2.211087147394816,1.429859717686971,0.8202681740125021
6.6,1.6886862391311076e+18,36.60710774739584,-0.0444760123888651,0.0261748631795246,-0.2536506255467732,1.6886862391224594e+18,36.59845930989584,-0.9102696180343628,-9.699705441792808,-1.213559865951538,1.6886862391311076e+18,36.60710774739584,-0.8124172488848368,-9.714158058166504,-1.1005627711613972,1.6886862391267853e+18,36.60278548177084,-0.0062104634319742,0.0464257585505644,0.0147116719745099,1.6886862391267853e+18,36.60278548177084,-0.0072794774605426,0.0509054375191529,0.0170024164253845,,,,,,,,,,,,1.6886862391238508e+18,36.5998509765625,-12.900279808044434,42.22907943725586,2.6278799533843995,1.6886862391238508e+18,36.5998509765625,-268.24627685546875,137.2548797607422,-130.09591979980468,1.6886862391311076e+18,36.60710774739584,-0.6729447841644287,0.7358037034670512,0.0005296317588848,0.0757492532332737,2.2066977818806968,1.4308995803197224,0.828208307425181
