seconds_elapsed_rounded,accelerometer_time,accelerometer_seconds_elapsed,accelerometer_z,accelerometer_y,accelerometer_x,accelerometeruncalibrated_time,accelerometeruncalibrated_seconds_elapsed,accelerometeruncalibrated_z,accelerometeruncalibrated_y,accelerometeruncalibrated_x,gravity_time,gravity_seconds_elapsed,gravity_z,gravity_y,gravity_x,gyroscope_time,gyroscope_seconds_elapsed,gyroscope_z,gyroscope_y,gyroscope_x,gyroscopeuncalibrated_time,gyroscopeuncalibrated_seconds_elapsed,gyroscopeuncalibrated_z,gyroscopeuncalibrated_y,gyroscopeuncalibrated_x,location_time,location_seconds_elapsed,location_bearingAccuracy,location_speedAccuracy,location_verticalAccuracy,location_horizontalAccuracy,location_speed,location_bearing,location_altitude,location_longitude,location_latitude,magnetometer_time,magnetometer_seconds_elapsed,magnetometer_z,magnetometer_y,magnetometer_x,magnetometeruncalibrated_time,magnetometeruncalibrated_seconds_elapsed,magnetometeruncalibrated_z,magnetometeruncalibrated_y,magnetometeruncalibrated_x,orientation_time,orientation_seconds_elapsed,orientation_qz,orientation_qy,orientation_qx,orientation_qw,orientation_roll,orientation_pitch,orientation_yaw
0.0,1.6886866339208868e+18,104.9948868815104,0.0291285316149393,-0.0159422556559244,-0.0312503973642984,1.6886866339208868e+18,104.9948868815104,-0.7459624608357748,-9.25105126698812,3.2967113653818765,1.6886866339208868e+18,104.9948868815104,-0.7809370160102844,-9.217604319254557,3.2652743657430015,1.6886866339252183e+18,104.99921826171877,-0.0116064394824206,0.0100029185414313,-0.0010690141934901,1.6886866339252183e+18,104.99921826171877,-0.0126754539087414,0.0145844076760112,0.0012217306066304,1.688686633927286e+18,105.0012861328125,0.0,0.4494810700416565,0.864668071269989,5.718999862670898,0.0129208853468298,0.0,40.20000076293945,-122.7531534,49.1903755,1.6886866339288824e+18,105.00288247070311,21.46711959838867,37.827318572998045,-21.535439682006835,1.6886866339288824e+18,105.00288247070311,-233.87887573242188,132.85311889648438,-154.25923767089844,1.6886866339208868e+18,104.9948868815104,-0.2422228902578354,0.0181228524694839,-0.7344905336697897,0.6336586872736613,-1.805559237798055,1.221495230992635,2.181643803914388
0.05,1.6886866339728023e+18,105.04680208333332,-0.0155059496561685,0.0154666900634765,-0.0229016145070393,1.6886866339728023e+18,105.04680208333332,-0.7846464117368063,-9.219146728515623,3.307877858479818,1.6886866339728023e+18,105.04680208333332,-0.7749864856402079,-9.217108726501465,3.268092075983683,1.6886866339684774e+18,105.04247729492188,-0.0035124750186999,-0.0018835011093566,0.0159843067328134,1.6886866339684774e+18,105.04247729492188,-0.0045814892898002,0.0026979882968589,0.0182750519985953,,,,,,,,,,,,1.688686633978886e+18,105.05288588867188,21.29387969970703,38.115238189697266,-21.645239639282227,1.688686633978886e+18,105.05288588867188,-234.05211486816407,133.1410369873047,-154.3690399169922,1.6886866339728023e+18,105.04680208333332,-0.2423803309599558,0.0179958933343489,-0.7342871427536011,0.6338378389676412,-1.803640921910604,1.2213477691014607,2.1797749996185303
0.1,1.688686634024711e+18,105.0987108561198,0.0162935455640157,0.013258934020996,0.0641237099965413,1.688686634024711e+18,105.0987108561198,-0.7515457073847452,-9.22114086151123,3.3958141803741455,1.688686634024711e+18,105.0987108561198,-0.7736852765083313,-9.21689510345459,3.26900307337443,1.6886866340203889e+18,105.0943887532552,0.0008144870128792,0.0176641867340852,-0.0096211278966317,1.6886866340203889e+18,105.0943887532552,-0.000254527258221,0.0222456755970293,-0.0072794777030746,,,,,,,,,,,,1.6886866340288868e+18,105.10288676757814,21.281679534912108,38.06155853271484,-21.708679580688475,1.6886866340288868e+18,105.10288676757814,-234.06431579589844,133.0873596191406,-154.43247985839844,1.688686634024711e+18,105.0987108561198,-0.2425152212381362,0.0180609244853257,-0.734240194161733,0.6338386734326681,-1.803200085957845,1.221284031867981,2.179628531138102
0.15,1.6886866340766267e+18,105.15062662760418,-0.0619276165962218,0.0459365844726562,0.0381939411163329,1.6886866340766267e+18,105.15062662760418,-0.8342974980672201,-9.1874418258667,3.3716864585876465,1.6886866340766267e+18,105.15062662760418,-0.7782159050305685,-9.215873718261715,3.2708051204681396,1.6886866340723028e+18,105.14630305989584,-0.0004581488901749,0.0574213328460852,-0.0332921550919611,1.6886866340723028e+18,105.14630305989584,-0.0014762577629881,0.0619519166648387,-0.0309505052864551,,,,,,,,,,,,1.6886866340788838e+18,105.152883984375,21.45735969543457,38.08351974487304,-21.606199264526367,1.6886866340788838e+18,105.152883984375,-233.88863525390624,133.10932006835938,-154.3299987792969,1.6886866340766267e+18,105.15062662760418,-0.2434880435466765,0.0191099730630715,-0.734370748202006,0.6332834164301554,-1.804386854171753,1.2209806044896443,2.1837817827860513
0.2,1.6886866341285356e+18,105.20253556315102,-0.0851634740829467,0.0003843307495117,-0.0501617590586344,1.6886866341285356e+18,105.20253556315102,-0.8669994076093038,-9.229914665222168,3.289732297261556,1.6886866341285356e+18,105.20253556315102,-0.7876819570859274,-9.21279430389404,3.2772066593170166,1.688686634124207e+18,105.19820703125,-0.0199549309909343,-0.0517199256428284,-0.0009162979549728,1.688686634124207e+18,105.19820703125,-0.0210239458829164,-0.04713843545566,0.00137444678694,,,,,,,,,,,,1.6886866341288868e+18,105.20288676757814,21.586679458618164,37.9127197265625,-21.681839752197263,1.6886866341288868e+18,105.20288676757814,-233.75931396484376,132.93851623535156,-154.4056365966797,1.6886866341285356e+18,105.20253556315102,-0.2435374706983565,0.0187933525691429,-0.734707236289978,0.6328833103179932,-1.806679368019104,1.2200659116109211,2.1857146422068277
0.25,1.6886866341804485e+18,105.2544483235677,0.117976148923238,-0.0277010599772135,-0.0154518286387125,1.6886866341804485e+18,105.2544483235677,-0.6743771632512411,-9.256035804748535,3.3274192810058594,1.6886866341804485e+18,105.2544483235677,-0.7981993357340494,-9.210830052693684,3.280183712641398,1.6886866341761298e+18,105.25012947591146,-0.0090611675987019,-0.0769181139767169,0.0067704231478273,1.6886866341761298e+18,105.25012947591146,-0.0100792768256117,-0.0723875301579634,0.0091120730406448,,,,,,,,,,,,1.6886866341788844e+18,105.25288447265623,21.637919616699214,37.9127197265625,-21.76236000061035,1.6886866341788844e+18,105.25288447265623,-233.70807800292968,132.93851623535156,-154.4861572265625,1.6886866341804485e+18,105.2544483235677,-0.2421015898386636,0.0170390785982211,-0.7351147135098776,0.6330108642578125,-1.809502045313517,1.2194836139678955,2.183892567952474
0.3,1.688686634232364e+18,105.30636401367188,0.0661469101905821,0.0135348637898762,0.0153794288635253,1.688686634232364e+18,105.30636401367188,-0.728813886642456,-9.214759826660158,3.3577284018198648,1.688686634232364e+18,105.30636401367188,-0.8008068203926086,-9.210789998372396,3.2796615759531655,1.688686634228039e+18,105.3020390625,0.0051923544767001,0.040927971402804,-0.0174605650827287,1.688686634228039e+18,105.3020390625,0.0041742459094771,0.045509461313486,-0.0151189152772227,,,,,,,,,,,,1.6886866342288858e+18,105.30288569335936,21.52323989868164,37.86147918701172,-21.55495948791504,1.6886866342288858e+18,105.30288569335936,-233.8227569580078,132.88727416992188,-154.27875671386718,1.688686634232364e+18,105.30636401367188,-0.242215539018313,0.0172501740356286,-0.7352001667022705,0.6328622897466024,-1.810288985570272,1.2194713751475017,2.185154994328817
0.35,1.6886866342756186e+18,105.34961853027345,-0.0502786934375762,0.0209407806396484,0.0107134580612182,1.6886866342756186e+18,105.34961853027345,-0.842871755361557,-9.207282543182371,3.3538401126861572,1.6886866342756186e+18,105.34961853027345,-0.798439085483551,-9.210718631744385,3.280439257621765,1.6886866342799557e+18,105.35395597330728,-0.0002036218065768,0.0308996010571717,0.0034106640766064,1.6886866342799557e+18,105.35395597330728,-0.0012726359612618,0.0354301848759253,0.0057523145029942,,,,,,,,,,,,1.6886866342788902e+18,105.352890234375,21.615959930419923,38.13963928222656,-21.730639266967778,1.6886866342788902e+18,105.352890234375,-233.7300323486328,133.16543884277343,-154.45443725585938,1.6886866342756186e+18,105.34961853027345,-0.2429477497935295,0.0180050479248165,-0.7351000010967255,0.6326770186424255,-1.8095527291297917,1.2194504737854004,2.186593770980835
0.4,1.6886866343188836e+18,105.39288338216146,-0.0794579982757568,0.0296910603841145,-0.0119115511576334,1.6886866343188836e+18,105.39288338216146,-0.8675976196924845,-9.198209444681805,3.3332018852233887,1.6886866343188836e+18,105.39288338216146,-0.793985644976298,-9.21039581298828,3.282426039377848,1.6886866343318628e+18,105.40586263020832,-0.0107410472507277,-0.0453058381875355,0.0154752526432275,1.6886866343318628e+18,105.40586263020832,-0.0118100615218281,-0.0407752562314271,0.0178169030696152,,,,,,,,,,,,1.6886866343288886e+18,105.40288857421876,21.711119842529296,38.02251968383789,-21.735519790649413,1.6886866343288886e+18,105.40288857421876,-233.63487243652344,133.04831237792968,-154.45931701660157,1.6886866343188836e+18,105.39288338216146,-0.2429780960083007,0.0178179033100604,-0.7349500854810079,0.6328447659810384,-1.8081318537394209,1.2193547487258911,2.184946854909261
0.45,1.6886866343707945e+18,105.44479451497396,-0.0300740996996561,-0.0353730519612629,-0.0559196472167968,1.6886866343707945e+18,105.44479451497396,-0.8239285945892334,-9.262018203735352,3.2913275559743247,1.6886866343707945e+18,105.44479451497396,-0.7997005184491476,-9.209140459696451,3.2845598061879477,1.6886866343751204e+18,105.44912060546876,-0.0090102623216807,-0.0878882370889186,0.0085521133150904,1.6886866343751204e+18,105.44912060546876,-0.0100792762823402,-0.0833831056952476,0.0108428583480417,,,,,,,,,,,,1.6886866343788823e+18,105.45288237304688,21.306079864501953,37.95907897949219,-21.676959609985353,1.6886866343788823e+18,105.45288237304688,-234.0399200439453,132.98487854003906,-154.4007568359375,1.6886866343707945e+18,105.44479451497396,-0.2419060269991556,0.0164838029692569,-0.7351792256037394,0.6330252091089884,-1.809626221656799,1.2189830938975017,2.182936032613118
0.5,1.6886866344227052e+18,105.4967051595052,0.0692918896675109,0.0120426813761393,0.0303417046864827,1.6886866344227052e+18,105.4967051595052,-0.732203741868337,-9.214760144551596,3.3752756913503013,1.6886866344227052e+18,105.4967051595052,-0.8073416550954183,-9.209298133850098,3.2822465896606445,1.6886866344183836e+18,105.49238330078124,0.0022907447225103,-0.0587957793225844,0.0107919528769949,1.6886866344183836e+18,105.49238330078124,0.0012726359224567,-0.0542142906536658,0.0130826973666746,,,,,,,,,,,,1.6886866344288855e+18,105.50288544921877,21.852639770507817,38.03227920532227,-21.50371971130371,1.6886866344288855e+18,105.50288544921877,-233.49335632324215,133.0580810546875,-154.2275177001953,1.6886866344227052e+18,105.4967051595052,-0.2405029336611429,0.0151467444375157,-0.7354729374249777,0.6332522829373678,-1.8119851350784304,1.2190301020940144,2.181288560231527
0.55,1.6886866344746168e+18,105.54861686197916,0.0636589527130126,0.0528593063354491,0.1512386004130045,1.6886866344746168e+18,105.54861686197916,-0.737587591012319,-9.175477663675943,3.4919258753458657,1.6886866344746168e+18,105.54861686197916,-0.807092567284902,-9.210832277933756,3.2779998779296875,1.6886866344702968e+18,105.5442971191406,0.016747888488074,0.0599156996856132,-0.0207185130566358,1.6886866344702968e+18,105.5442971191406,0.0157297799984613,0.06439537803332,-0.0183768630959092,,,,,,,,,,,,1.6886866344788844e+18,105.55288457031251,21.603759765625,37.90051956176758,-21.598879623413087,1.6886866344788844e+18,105.55288457031251,-233.742236328125,132.926318359375,-154.3226776123047,1.6886866344746168e+18,105.54861686197916,-0.2407292773326237,0.0157453628877798,-0.7354517579078674,0.6331760485967001,-1.8122151295344036,1.2194841702779131,2.182708978652954
0.6,1.6886866345265344e+18,105.60053450520832,-0.0709331631660461,0.0761871337890624,0.1266299088795979,1.6886866345265344e+18,105.60053450520832,-0.865005373954773,-9.152745882670084,3.4673994382222495,1.6886866345265344e+18,105.60053450520832,-0.7999182343482971,-9.21142832438151,3.2780821323394775,1.6886866345222054e+18,105.59620564778643,0.0081957754640218,0.1139772733052571,-0.0165951728510359,1.6886866345222054e+18,105.59620564778643,0.007177666586358,0.1185587594906488,-0.0142535219589868,,,,,,,,,,,,1.6886866345288845e+18,105.60288461914062,21.681839752197263,38.112799072265624,-21.523239517211913,1.6886866345288845e+18,105.60288461914062,-233.6641540527344,133.1385955810547,-154.24703369140624,1.6886866345265344e+18,105.60053450520832,-0.2425965319077173,0.0178061171124378,-0.7351560791333517,0.6327517628669739,-1.8101450602213545,1.2196605205535889,2.1863747437795005
0.65,1.6886866345784435e+18,105.65244376627604,-0.1116755008697509,0.0040849049886067,0.0176939964294433,1.6886866345784435e+18,105.65244376627604,-0.9024929404258728,-9.222337086995443,3.3663026491800943,1.6886866345784435e+18,105.65244376627604,-0.7966634631156921,-9.208917299906412,3.285921255747477,1.688686634574121e+18,105.6481210123698,-0.0187332012380162,0.0083484911980727,-0.0081957754058141,1.688686634574121e+18,105.6481210123698,-0.0198022151986757,0.0128790773451328,-0.0058541252898672,,,,,,,,,,,,1.688686634578887e+18,105.65288681640624,21.552519607543942,38.09083938598633,-21.56471977233887,1.688686634578887e+18,105.65288681640624,-233.79347229003903,133.11663818359375,-154.28851623535155,1.6886866345784435e+18,105.65244376627604,-0.2437568654616674,0.0184823138018449,-0.7350267966588339,0.6324370503425598,-1.8086603879928589,1.218917449315389,2.1876006921132407
0.7,1.688686634630352e+18,105.70435188802082,0.0387818217277526,-0.0115915934244791,-0.1151887575785318,1.688686634630352e+18,105.70435188802082,-0.7603193918863932,-9.234700202941896,3.2406794230143228,1.688686634630352e+18,105.70435188802082,-0.8049472371737162,-9.20560391743978,3.293180783589681,1.6886866346260337e+18,105.70003385416663,-0.0171042270958423,-0.0521271675825118,0.0037670023157261,1.6886866346260337e+18,105.70003385416663,-0.01817324043562,-0.0476474886139233,0.0061086524898806,,,,,,,,,,,,1.688686634628886e+18,105.70288623046876,21.47199935913086,37.86391830444336,-21.36951904296875,1.688686634628886e+18,105.70288623046876,-233.87398986816407,132.88971862792968,-154.09331665039062,1.688686634630352e+18,105.70435188802082,-0.2432100574175516,0.0173859434823195,-0.7353406548500061,0.6323137283325195,-1.8105310996373496,1.2179385423660278,2.1871016025543213
0.75,1.6886866346822676e+18,105.75626741536458,0.1066008210182189,-0.0348647435506184,-0.0475153923034667,1.6886866346822676e+18,105.75626741536458,-0.6967101891835531,-9.257631619771322,3.3082767327626548,1.6886866346822676e+18,105.75626741536458,-0.8091570337613424,-9.205262184143066,3.2931047280629477,1.6886866346779471e+18,105.75194694010416,0.0041742457542568,0.0166969833274682,-0.0164933617537219,1.6886866346779471e+18,105.75194694010416,0.0031561371870338,0.0212784729277094,-0.0142026169536013,,,,,,,,,,,,1.6886866346788846e+18,105.75288461914064,21.606199645996092,37.920040130615234,-21.43051986694336,1.6886866346788846e+18,105.75288461914064,-233.739794921875,132.94583435058593,-154.1543182373047,1.6886866346822676e+18,105.75626741536458,-0.2430127660433451,0.0172228918721278,-0.7354904611905416,0.6322198708852133,-1.811742901802063,1.217837969462077,2.1877899964650473
0.8,1.688686634725529e+18,105.79952941894533,-0.0155993700027466,0.0042057037353515,-0.0825378894805908,1.688686634725529e+18,105.79952941894533,-0.8210372924804688,-9.218648433685305,3.272484064102173,1.688686634725529e+18,105.79952941894533,-0.8112839460372925,-9.205349445343018,3.29233455657959,1.688686634729858e+18,105.80385799153646,0.0005599597352556,0.0509054390713571,-0.0243327993278701,1.688686634729858e+18,105.80385799153646,-0.000509054303014,0.0554360207170247,-0.0219911493671436,,,,,,,,,,,,1.6886866347288886e+18,105.80288852539064,21.66719970703125,37.86635894775391,-21.60131950378418,1.6886866347288886e+18,105.80288852539064,-233.67879333496097,132.89215393066405,-154.3251190185547,1.688686634725529e+18,105.79952941894533,-0.2438861429691314,0.0183313786983489,-0.7355374097824097,0.631797581911087,-1.8124067187309263,1.2178638577461245,2.191351294517517
0.85,1.6886866347687918e+18,105.84279191080728,-0.1225830316543579,-0.0777543385823567,-0.1848133405049642,1.6886866347687918e+18,105.84279191080728,-0.9284151792526244,-9.300901412963867,3.1692936420440674,1.6886866347687918e+18,105.84279191080728,-0.8116781711578369,-9.205642382303871,3.291419585545858,1.6886866347817636e+18,105.85576342773436,0.0039197186318536,-0.1070541317264238,0.0601193203280369,1.6886866347817636e+18,105.85576342773436,0.0028507045935839,-0.1025744539995987,0.0624609726170698,,,,,,,,,,,,1.6886866347788844e+18,105.85288427734376,22.08444023132324,37.87855911254883,-21.598879623413087,1.6886866347788844e+18,105.85288427734376,-233.26155700683591,132.90436096191405,-154.3226745605469,1.6886866347687918e+18,105.84279191080728,-0.2435780564943949,0.0180515560011068,-0.7355577747027079,0.6319004495938619,-1.8125830094019573,1.2179501454035442,2.1906649271647134
0.9,1.6886866348206994e+18,105.89469938151042,0.1035795211791991,0.0340957641601562,0.0611642201741536,1.6886866348206994e+18,105.89469938151042,-0.690927525361379,-9.1944211324056,3.402992566426595,1.6886866348206994e+18,105.89469938151042,-0.8003530701001486,-9.21101220448812,3.2791409492492676,1.6886866348336794e+18,105.90767936197916,0.03089960043629,-0.049530990421772,0.0407752559209862,1.6886866348336794e+18,105.90767936197916,0.0298305855443079,-0.044949498027563,0.0430659990136821,,,,,,,,,,,,1.6886866348288868e+18,105.90288686523438,21.955119323730468,37.98591995239258,-21.21823959350586,1.6886866348288868e+18,105.90288686523438,-233.3908721923828,133.01171875,-153.94203491210936,1.6886866348206994e+18,105.89469938151042,-0.2411202440659205,0.0160137570152679,-0.735212484995524,0.6332981983820597,-1.8101952870686848,1.21953809261322,2.1816510359446206
0.95,1.6886866348726157e+18,105.94661564127604,0.0660715699195862,0.0910746256510415,0.2617350419362386,1.6886866348726157e+18,105.94661564127604,-0.714257558186849,-9.142975489298502,3.5914273262023926,1.6886866348726157e+18,105.94661564127604,-0.7861751516660055,-9.216545422871906,3.26700488726298,1.6886866348769426e+18,105.95094262695312,0.0339030213654041,0.1621847227215766,-0.0268017132766544,1.6886866348769426e+18,105.95094262695312,0.0328340074047446,0.1666898503899573,-0.0245109684765338,,,,,,,,,,,,1.6886866348788818e+18,105.95288188476562,22.118599319458006,38.039599609375,-21.44515914916992,1.6886866348788818e+18,105.95288188476562,-233.2273956298828,133.06539611816407,-154.16895446777343,1.6886866348726157e+18,105.94661564127604,-0.2414386669794718,0.0171502841015656,-0.7346946398417155,0.6337472597757975,-1.806951880455017,1.2211803197860718,2.180479367574056
1.0,1.688686634924528e+18,105.99852799479169,-0.1961593031883239,0.1123444239298501,0.1387168566385904,1.688686634924528e+18,105.99852799479169,-0.9702895879745485,-9.12223752339681,3.4683964252471924,1.688686634924528e+18,105.99852799479169,-0.7799763083457947,-9.217077255249023,3.266992171605428,1.688686634920194e+18,105.99419425455729,0.0055995982450743,0.1223766667147477,-0.036550103376309,1.688686634920194e+18,105.99419425455729,0.0045305839739739,0.1269581615924834,-0.0342084535708029,1.688686634927278e+18,106.00127807617189,0.0,0.4508149921894073,0.8701200485229492,5.739999771118164,0.0138509310781955,0.0,40.20000076293945,-122.7531536,49.1903755,1.688686634928887e+18,106.002887109375,21.706239318847658,38.11035995483398,-21.62815933227539,1.688686634928887e+18,106.002887109375,-233.63975219726564,133.1361541748047,-154.35195617675782,1.688686634924528e+18,105.99852799479169,-0.2440601785977681,0.0201029516756534,-0.7344051003456116,0.6329922676086426,-1.8051587343215945,1.2213390270868938,2.186830520629883
1.05,1.6886866349764403e+18,106.05044034830728,-0.1366020639737446,0.0001586278279622,-0.0434761047363281,1.6886866349764403e+18,106.05044034830728,-0.9166504740715028,-9.23111089070638,3.294119199117025,1.6886866349764403e+18,106.05044034830728,-0.7858944535255432,-9.213764826456703,3.274907906850179,1.6886866349721157e+18,106.04611564127605,-0.0247400421649217,-0.0830776753524938,0.0146607657273609,1.6886866349721157e+18,106.04611564127605,-0.025809056436022,-0.0785470890502134,0.0170533217024057,,,,,,,,,,,,1.688686634978884e+18,106.05288413085935,21.640359115600585,37.995679473876955,-21.17187957763672,1.688686634978884e+18,106.05288413085935,-233.70563659667968,133.02147827148437,-153.8956756591797,1.6886866349764403e+18,106.05044034830728,-0.2440039912859598,0.0194923629363377,-0.7346265117327372,0.6327758630116781,-1.8063201506932576,1.2203542391459148,2.1870503425598145
1.1,1.6886866350283525e+18,106.1023524576823,0.127501090367635,-0.0510063171386718,-0.0923153559366861,1.6886866350283525e+18,106.1023524576823,-0.6675975124041239,-9.279565493265787,3.249253749847412,1.6886866350283525e+18,106.1023524576823,-0.8009446263313293,-9.21105448404948,3.2788817087809243,1.6886866350240274e+18,106.0980274251302,-0.0154243470169603,-0.1202895467480023,0.0023925558198243,1.6886866350240274e+18,106.0980274251302,-0.0164424562826752,-0.1158607775966326,0.0047342057029406,,,,,,,,,,,,1.6886866350288847e+18,106.10288461914062,21.955119323730468,37.94688034057617,-21.48907928466797,1.6886866350288847e+18,106.10288461914062,-233.39087829589843,132.9726776123047,-154.21287536621094,1.6886866350283525e+18,106.1023524576823,-0.2419040997823079,0.0169523420433203,-0.7352114915847778,0.6329759359359741,-1.8103808561960857,1.2195498545964558,2.184353748957316
1.15,1.688686635080264e+18,106.15426416015625,0.1990272005399068,-0.0417652130126952,-0.0550819238026936,1.688686635080264e+18,106.15426416015625,-0.6073781450589498,-9.27059237162272,3.2829527060190835,1.688686635080264e+18,106.15426416015625,-0.8122513691584269,-9.211322466532389,3.2753472328186035,1.6886866350759404e+18,106.14994042968748,0.0135408462956546,0.0418951741109291,-0.0277943685650824,1.6886866350759404e+18,106.14994042968748,0.0125227376508215,0.0464257591714461,-0.0254527187595764,,,,,,,,,,,,1.6886866350788833e+18,106.15288334960935,21.450039291381835,37.96639862060547,-21.511039352416994,1.6886866350788833e+18,106.15288334960935,-233.89595642089844,132.99219665527343,-154.2348388671875,1.688686635080264e+18,106.15426416015625,-0.2415033380190531,0.0169295240193605,-0.7356041272481283,0.6326735417048136,-1.8138870000839231,1.219629446665446,2.1872379779815674
1.2,1.6886866351321807e+18,106.20618090820312,-0.0141998132069905,0.0149869918823242,-0.0278747876485188,1.6886866351321807e+18,106.20618090820312,-0.8099704583485922,-9.217352231343588,3.3028928438822427,1.6886866351321807e+18,106.20618090820312,-0.8016166687011719,-9.214834531148275,3.268080234527588,1.6886866351278523e+18,106.2018525390625,0.0238746497780084,0.096720332900683,-0.0031561374974747,1.6886866351278523e+18,106.2018525390625,0.0228565409779548,0.1012509167194366,-0.0008653923869132,,,,,,,,,,,,1.688686635128882e+18,106.20288203124998,21.835559463500974,38.17136001586914,-21.374399185180664,1.688686635128882e+18,106.20288203124998,-233.51043395996095,133.19715576171876,-154.09819946289062,1.6886866351321807e+18,106.20618090820312,-0.2429639945427576,0.0190555012474457,-0.7351834774017334,0.6325426896413168,-1.8113375504811604,1.22067129611969,2.1898969809214273
1.25,1.6886866351754373e+18,106.2494373779297,-0.0585963726043701,-0.0002293586730957,0.0260272026062011,1.6886866351754373e+18,106.2494373779297,-0.8377870321273804,-9.235996723175049,3.3511481285095215,1.6886866351754373e+18,106.2494373779297,-0.7850366830825806,-9.218262672424316,3.2624335289001465,1.688686635179767e+18,106.25376692708332,0.0130317920508483,0.0258599622175097,0.0339030219862858,1.688686635179767e+18,106.25376692708332,0.0119627777797479,0.0304414511968691,0.0361937669416268,1.688686635154e+18,106.22799975585936,0.0,0.4508149921894073,0.8216913342475891,5.798999786376953,0.0127304745838046,0.0,40.20000076293945,-122.7531536,49.1903755,1.688686635178884e+18,106.25288403320312,21.01571922302246,37.98835983276367,-21.464679336547853,1.688686635178884e+18,106.25288403320312,-234.3302764892578,133.0141571044922,-154.1884735107422,1.6886866351754373e+18,106.2494373779297,-0.2435737624764442,0.0199750307947397,-0.7345841526985168,0.632976233959198,-1.8069393634796145,1.221691906452179,2.187700629234314
1.3,1.6886866352186918e+18,106.29269165039062,-0.0445656776428222,0.0299018224080403,-0.0133427778879801,1.6886866352186918e+18,106.29269165039062,-0.8115656773249308,-9.207780838012695,3.309273640314738,1.6886866352186918e+18,106.29269165039062,-0.7728460232416788,-9.2201779683431,3.2599290211995444,1.688686635231673e+18,106.30567309570311,0.0040215295739471,-0.0100283713157598,0.0204639857014019,1.688686635231673e+18,106.30567309570311,0.0030034206962833,-0.0054977872253705,0.0227547306567429,,,,,,,,,,,,1.688686635228887e+18,106.30288706054688,21.276799392700195,38.13231964111328,-21.64279975891113,1.688686635228887e+18,106.30288706054688,-234.06919555664064,133.15812072753906,-154.3665985107422,1.6886866352186918e+18,106.29269165039062,-0.2435944080352782,0.0200221352279186,-0.7341598471005758,0.6334589322408041,-1.8035770654678345,1.2222635348637898,2.1844178835550943
1.35,1.6886866352706102e+18,106.3446101888021,-0.042192796866099,-0.0207923253377278,-0.0509246985117593,1.6886866352706102e+18,106.3446101888021,-0.803190807501475,-9.260422706604006,3.267598787943522,1.6886866352706102e+18,106.3446101888021,-0.7668440341949463,-9.22212568918864,3.255836089452108,1.6886866352835858e+18,106.35758585611978,0.0107919527217745,-0.036550103376309,0.0246891366938749,1.6886866352835858e+18,106.35758585611978,0.0097738440769413,-0.0320704256494839,0.0269798822700977,,,,,,,,,,,,1.6886866352788815e+18,106.352881640625,21.20115966796875,38.14939956665039,-21.496399688720704,1.6886866352788815e+18,106.352881640625,-234.14483642578125,133.17519836425782,-154.22019653320314,1.6886866352706102e+18,106.3446101888021,-0.2430813511212667,0.019667075946927,-0.7339612245559692,0.6338971058527628,-1.8021148045857749,1.222845156987508,2.181666533152262
1.4,1.6886866353225224e+18,106.39652221679688,0.0084060827891031,0.023109753926595,0.0475226243336995,1.6886866353225224e+18,106.39652221679688,-0.7479564746220907,-9.219346046447754,3.359124183654785,1.6886866353225224e+18,106.39652221679688,-0.7622085809707642,-9.224951108296716,3.2489141623179116,1.6886866353268472e+18,106.40084729003904,0.0131336031481623,-0.009468411677517,0.0093920531217008,1.6886866353268472e+18,106.40084729003904,0.0120645882561802,-0.0049632799346,0.0117591558955609,,,,,,,,,,,,1.6886866353288896e+18,106.40288969726564,21.17431983947754,38.04447860717774,-21.459799575805665,1.6886866353288896e+18,106.40288969726564,-234.1716766357422,133.07027893066407,-154.18359985351563,1.6886866353225224e+18,106.39652221679688,-0.2423498580853144,0.0193045710523922,-0.7338099877039591,0.6343633135159811,-1.801239053408305,1.2236905495325725,2.1791630585988364
1.45,1.6886866353744343e+18,106.44843440755209,-0.0480227271715799,0.0628019968668619,0.0698672135670979,1.6886866353744343e+18,106.44843440755209,-0.8009973963101705,-9.181060791015623,3.3782668113708496,1.6886866353744343e+18,106.44843440755209,-0.7588206926981608,-9.22635809580485,3.2457122008005777,1.6886866353701097e+18,106.44410970052084,0.0080430589150636,0.0399098619818687,-0.0080939645413308,1.6886866353701097e+18,106.44410970052084,0.0069740448767939,0.0444404470423857,-0.005752314464189,,,,,,,,,,,,1.6886866353788846e+18,106.45288461914063,21.18652000427246,38.100599670410155,-21.396359252929688,1.6886866353788846e+18,106.45288461914063,-234.15947570800785,133.12639770507812,-154.12015686035156,1.6886866353744343e+18,106.44843440755209,-0.2426713903745015,0.0198823617150385,-0.7336766521135966,0.6343767046928406,-1.8004673719406128,1.2241123914718628,2.179691791534424
1.5,1.6886866354263437e+18,106.50034342447915,-0.1136579910914102,-0.0185003280639648,-0.0876278082529703,1.6886866354263437e+18,106.50034342447915,-0.8713862498601278,-9.261420249938965,3.2223344643910727,1.6886866354263437e+18,106.50034342447915,-0.7635742823282877,-9.225415229797363,3.247274875640869,1.6886866354220214e+18,106.49602124023438,-0.0089593568506339,-0.0443386367551284,0.00366519135423,1.6886866354220214e+18,106.49602124023438,-0.0099774658059079,-0.0398589582182467,0.0060068412373462,,,,,,,,,,,,1.688686635428884e+18,106.50288408203126,21.25971908569336,38.188438415527344,-21.432959747314452,1.688686635428884e+18,106.50288408203126,-234.08627319335935,133.21423950195313,-154.15675659179686,1.6886866354263437e+18,106.50034342447915,-0.242600346604983,0.0197443272918462,-0.7338451544443766,0.6342131296793619,-1.801746129989624,1.2238301038742063,2.180674393971761
1.55,1.68868663547826e+18,106.55226000976565,0.074960966904958,-0.0345220565795897,-0.075503905614217,1.68868663547826e+18,106.55226000976565,-0.6897311210632324,-9.27797031402588,3.231307586034139,1.68868663547826e+18,106.55226000976565,-0.7705381115277609,-9.225943565368652,3.244124094645182,1.688686635473932e+18,106.54793196614582,0.0002545270641954,-0.1179478963216145,0.0248418537278969,1.688686635473932e+18,106.54793196614582,-0.0008144869740741,-0.1134173149863878,0.027234408383568,,,,,,,,,,,,1.688686635478887e+18,106.55288686523438,21.70135955810547,38.09327926635742,-21.562279510498048,1.688686635478887e+18,106.55288686523438,-233.64463806152344,133.11907653808595,-154.28607788085938,1.68868663547826e+18,106.55226000976565,-0.2406401336193084,0.0178265000383058,-0.7341359257698059,0.6346796949704488,-1.8039957682291667,1.223988652229309,2.1772510210673013
1.6,1.6886866355301714e+18,106.60417138671876,0.1463318864504496,0.0244019826253255,0.0101862748463948,1.6886866355301714e+18,106.60417138671876,-0.6207380692164103,-9.22114086151123,3.3104701042175293,1.6886866355301714e+18,106.60417138671876,-0.7729159792264303,-9.22803815205892,3.2375964323679605,1.688686635525847e+18,106.59984684244792,0.0129299809535343,0.0033597589160005,-0.0020362176001071,1.688686635525847e+18,106.59984684244792,0.0119627779349684,0.0079412478953599,0.0003054327486704,,,,,,,,,,,,1.6886866355288794e+18,106.60287939453126,21.58423957824707,38.234799194335935,-21.515919876098632,1.6886866355288794e+18,106.60287939453126,-233.76175842285156,133.260595703125,-154.23971557617188,1.6886866355301714e+18,106.60417138671876,-0.2396450837453206,0.0172285456210374,-0.7342330813407898,0.6349607904752096,-1.8051448265711467,1.2246170441309612,2.1760520140329995
1.65,1.688686635582083e+18,106.65608300781253,-0.0354594389597574,-0.0106592178344726,-0.0046007633209227,1.688686635582083e+18,106.65608300781253,-0.7952147324879965,-9.258827845255531,3.2899317741394043,1.688686635582083e+18,106.65608300781253,-0.7656013170878092,-9.230663935343424,3.2318451404571533,1.68868663557776e+18,106.65176000976562,0.0156279690563678,0.0317140867312748,0.0099265600244203,1.68868663557776e+18,106.65176000976562,0.0145589550957083,0.0362446708604693,0.0122173050573716,,,,,,,,,,,,1.688686635578887e+18,106.65288666992188,21.393919372558592,38.26651840209961,-21.25971908569336,1.688686635578887e+18,106.65288666992188,-233.95207824707032,133.29232177734374,-153.9835205078125,1.688686635582083e+18,106.65608300781253,-0.2401499152183532,0.0181664681682983,-0.7339566946029663,0.6350634495417277,-1.803405523300171,1.2254064480463662,2.17639430363973
1.7,1.6886866356253396e+18,106.6993397216797,-0.0001061260700225,0.0625548362731933,0.0608398914337157,1.6886866356253396e+18,106.6993397216797,-0.7498507797718048,-9.188438892364502,3.349652647972107,1.6886866356253396e+18,106.6993397216797,-0.7555906772613525,-9.23348903656006,3.2261253595352173,1.6886866356296714e+18,106.70367138671875,0.0105883309928078,-0.0141517113273341,0.0264199220885832,1.6886866356296714e+18,106.70367138671875,0.0095702221927542,-0.0095702221927542,0.028761572514971,,,,,,,,,,,,1.6886866356288842e+18,106.70288427734374,21.630599594116212,38.132318115234376,-21.35243911743164,1.6886866356288842e+18,106.70288427734374,-233.71539611816405,133.15812072753906,-154.07623901367188,1.6886866356253396e+18,106.6993397216797,-0.2399055659770965,0.0181975113227963,-0.7336082756519318,0.6355573236942291,-1.8008641004562378,1.2262582778930664,2.173513412475586
1.75,1.688686635668605e+18,106.74260473632812,0.0077087879180907,0.035443623860677,0.0391147931416829,1.688686635668605e+18,106.74260473632812,-0.7367899616559347,-9.216156005859377,3.3274192810058594,1.688686635668605e+18,106.74260473632812,-0.7503447731335958,-9.234094937642416,3.2256170908610025,1.688686635681586e+18,106.7555860188802,-0.008144870167598,-0.0042760566672464,0.0077376263216137,1.688686635681586e+18,106.7555860188802,-0.0092138842058677,0.0002545271224031,0.0101301819086074,,,,,,,,,,,,1.688686635678888e+18,106.75288789062502,21.376839447021485,38.21527938842773,-21.096239471435545,1.688686635678888e+18,106.75288789062502,-233.96915283203128,133.24107971191407,-153.82003784179688,1.688686635668605e+18,106.74260473632812,-0.2397915671269098,0.0180323452999194,-0.7334300875663757,0.635810653368632,-1.7993570566177368,1.2264411449432373,2.171592632929484
1.8,1.6886866357205166e+18,106.7945165201823,-0.0335476994514465,-0.0314881006876627,-0.0736904939015706,1.6886866357205166e+18,106.7945165201823,-0.7742775281270345,-9.28215789794922,3.218147118886312,1.6886866357205166e+18,106.7945165201823,-0.7465758522351583,-9.23316510518392,3.2291502157847085,1.6886866357334925e+18,106.8074921875,-0.0045305839739739,-0.0381790778289238,0.027896179507176,1.6886866357334925e+18,106.8074921875,-0.0055995980122436,-0.0335975885391234,0.0302378299335638,,,,,,,,,,,,1.6886866357288863e+18,106.80288618164062,21.603759765625,38.23479843139648,-21.323159408569335,1.6886866357288863e+18,106.80288618164062,-233.7422332763672,133.260595703125,-154.04695739746094,1.6886866357205166e+18,106.7945165201823,-0.2396281907955804,0.0175100446989138,-0.733311673005422,0.6360233426094055,-1.7980072100957234,1.2261604865392048,2.16925040880839
1.85,1.6886866357724257e+18,106.84642553710935,0.0452610651652018,0.0166546503702799,0.0026106039683023,1.6886866357724257e+18,106.84642553710935,-0.6887341141700745,-9.235298792521158,3.2923245429992676,1.6886866357724257e+18,106.84642553710935,-0.7398412028948466,-9.234448750813804,3.2270265420277915,1.6886866357767572e+18,106.85075732421876,0.0092393367085605,0.0030543259344995,0.00832303869538,1.6886866357767572e+18,106.85075732421876,0.0081703225150703,0.0076358157675713,0.0107664995302911,,,,,,,,,,,,1.6886866357788849e+18,106.85288491210936,21.48907928466797,38.2494400024414,-21.34267921447754,1.6886866357788849e+18,106.85288491210936,-233.8569152832031,133.27523498535157,-154.06647644042968,1.6886866357724257e+18,106.84642553710935,-0.239099899927775,0.0169752985239028,-0.7330901821454366,0.636491854985555,-1.7961695194244385,1.226548155148824,2.1658475399017334
1.9,1.6886866358243412e+18,106.89834138997396,-0.0419785380363464,0.0244092941284179,0.0343993504842122,1.6886866358243412e+18,106.89834138997396,-0.776470939318339,-9.228718121846518,3.320639689763387,1.6886866358243412e+18,106.89834138997396,-0.7403384248415629,-9.2356227238973,3.223552942276001,1.6886866358200223e+18,106.8940225423177,0.010893763663868,0.0442877300083636,-0.0209221349408228,1.6886866358200223e+18,106.8940225423177,0.0098247493927676,0.0487674102187155,-0.018580484514435,,,,,,,,,,,,1.6886866358288868e+18,106.90288681640624,21.403679656982423,38.32263870239258,-21.17187957763672,1.6886866358288868e+18,106.90288681640624,-233.94231567382812,133.3484375,-153.8956787109375,1.6886866358243412e+18,106.89834138997396,-0.2395593871672947,0.0177873764187097,-0.7330881158510844,0.6362991730372111,-1.7965505123138428,1.2269028425216673,2.1680739720662436
1.95,1.6886866358762465e+18,106.95024658203126,0.0085909366607665,0.0009129842122395,-0.0158890883127848,1.6886866358762465e+18,106.95024658203126,-0.73320072889328,-9.25244681040446,3.2679975032806396,1.6886866358762465e+18,106.95024658203126,-0.7476376891136169,-9.235855102539062,3.2211991945902505,1.6886866358719245e+18,106.94592456054689,0.0026979882192486,-0.0233655953779816,-0.0110973850823938,1.6886866358719245e+18,106.94592456054689,0.0016289739724015,-0.018835011559228,-0.008806640592714,,,,,,,,,,,,1.6886866358788872e+18,106.95288720703124,20.88151969909668,38.33483810424805,-21.379279327392577,1.6886866358788872e+18,106.95288720703124,-234.4644775390625,133.3606384277344,-154.103076171875,1.6886866358762465e+18,106.95024658203126,-0.2395421117544173,0.0180569334576526,-0.7333351969718933,0.6360133290290833,-1.7988604704538982,1.226973056793213,2.1707502206166587
2.0,1.6886866359281646e+18,107.00216455078125,0.1015197833379109,-0.0045763651529948,0.0021212100982666,1.6886866359281646e+18,107.00216455078125,-0.6374878287315369,-9.25922679901123,3.282952626546224,1.6886866359281646e+18,107.00216455078125,-0.7448536356290182,-9.2371457417806,3.2181440194447837,1.6886866359238382e+18,106.99783829752604,0.0066686123609542,0.0008653926973541,0.0210239452620346,1.6886866359238382e+18,106.99783829752604,0.0056505034832903,0.0054468816767136,0.0233146902173757,1.688686635927298e+18,107.00129809570312,0.0,0.4325167834758758,0.8263130187988281,5.840000152587891,0.0143836792558431,0.0,40.20000076293945,-122.7531538,49.1903755,1.6886866359288824e+18,107.00288251953124,21.637919616699214,38.3982795715332,-21.188959884643555,1.6886866359288824e+18,107.00288251953124,-233.70807189941405,133.42408142089843,-153.91275634765626,1.6886866359281646e+18,107.00216455078125,-0.239135334889094,0.0177913916607697,-0.7332449356714884,0.636277993520101,-1.7982479731241865,1.2273635864257812,2.169142961502075
2.05,1.6886866359800783e+18,107.05407828776042,0.0078800519307454,0.0141528447469075,-0.0064764817555745,1.6886866359800783e+18,107.05407828776042,-0.714257558186849,-9.242875417073568,3.2713874181111655,1.6886866359800783e+18,107.05407828776042,-0.7279836336771647,-9.239523569742838,3.215176502863566,1.68868663597575e+18,107.04975,0.0075849102189142,0.0364482924342155,0.0210239458829164,1.68868663597575e+18,107.04975,0.0065158960254241,0.0409788774947324,0.0234165011594692,,,,,,,,,,,,1.6886866359788849e+18,107.05288491210938,21.69403953552246,38.62763900756836,-21.115759658813477,1.6886866359788849e+18,107.05288491210938,-233.6519561767578,133.65343627929687,-153.83955993652344,1.6886866359800783e+18,107.05407828776042,-0.2395837157964706,0.0183055816839138,-0.7326456904411316,0.6367847323417664,-1.7934653759002686,1.2280839681625366,2.165742715199789
2.1,1.6886866360319946e+18,107.10599462890625,-0.0702147682507832,0.0411005020141601,0.0258112748463948,1.6886866360319946e+18,107.10599462890625,-0.7766703367233276,-9.217352231343588,3.303092241287231,1.6886866360319946e+18,107.10599462890625,-0.7123015920321146,-9.240948041280111,3.2145935694376626,1.6886866360276623e+18,107.10166235351562,0.0039197185154382,0.0392989975710709,0.0178678088511029,1.6886866360276623e+18,107.10166235351562,0.0028507044820191,0.0438804862399895,0.0202603641276557,,,,,,,,,,,,1.6886866360288845e+18,107.1028845703125,20.781479263305663,38.35435943603515,-21.147479629516603,1.6886866360288845e+18,107.1028845703125,-234.56451416015625,133.38015747070312,-153.87127685546875,1.6886866360319946e+18,107.10599462890625,-0.2402754475673039,0.0189254327366748,-0.7320842742919922,0.6371515790621439,-1.7888596852620442,1.228516658147176,2.163038571675618
2.15,1.6886866360752584e+18,107.14925830078124,-0.1154996156692504,0.0458798408508299,-0.0406059026718139,1.6886866360752584e+18,107.14925830078124,-0.8258229196071625,-9.211470127105716,3.2389845848083496,1.6886866360752584e+18,107.14925830078124,-0.7161693274974823,-9.239845275878906,3.2169030904769897,1.688686636079575e+18,107.1535751953125,-0.0135408461404342,-0.0506000050033131,-0.0150680093405146,1.688686636079575e+18,107.1535751953125,-0.0146098608771959,-0.0460694208741187,-0.0127772646956145,,,,,,,,,,,,1.6886866360788849e+18,107.15288496093748,20.99375915527344,38.19820022583008,-21.450039672851563,1.6886866360788849e+18,107.15288496093748,-234.35223388671875,133.22399291992187,-154.17383422851563,1.6886866360752584e+18,107.14925830078124,-0.2403071001172065,0.0188335785642266,-0.7322209477424622,0.6369852423667908,-1.7898510098457336,1.228182017803192,2.163952946662903
2.2,1.6886866361185108e+18,107.19251106770832,0.0400831103324889,-0.06483523050944,-0.1042509078979491,1.6886866361185108e+18,107.19251106770832,-0.6831508676211039,-9.320642471313477,3.176870822906494,1.6886866361185108e+18,107.19251106770832,-0.7290800015131632,-9.2383025487264,3.2184343338012695,1.6886866361314875e+18,107.20548738606772,0.0009162979743753,-0.0774780760208765,0.0045814894062156,1.6886866361314875e+18,107.20548738606772,-0.0001527160687449,-0.0728965873519579,0.0069231394445522,,,,,,,,,,,,1.6886866361288837e+18,107.20288354492187,21.254840087890624,38.27627868652344,-21.27924003601074,1.6886866361288837e+18,107.20288354492187,-234.0911590576172,133.3020782470703,-154.00303344726564,1.6886866361185108e+18,107.19251106770832,-0.2391586750745773,0.0175737192233403,-0.7327013810475668,0.6369008421897888,-1.793569604555766,1.2277144193649292,2.1641695499420166
2.25,1.6886866361704271e+18,107.24442700195311,0.1866882840792338,0.0152963002522786,0.0295581817626953,1.6886866361704271e+18,107.24442700195311,-0.5439683397610983,-9.242077827453612,3.304488023122152,1.6886866361704271e+18,107.24442700195311,-0.7365026473999023,-9.239869435628254,3.2122424443562827,1.6886866361833997e+18,107.25739973958332,0.0133881298825144,0.0263690172384182,-0.0123700210824607,1.6886866361833997e+18,107.25739973958332,0.0123700212376812,0.0309505065282186,-0.0099774656506875,,,,,,,,,,,,1.688686636178887e+18,107.25288671875,20.84247932434082,38.283599853515625,-21.342679595947267,1.688686636178887e+18,107.25288671875,-234.5035186767578,133.30939636230468,-154.0664794921875,1.6886866361704271e+18,107.24442700195311,-0.238129715124766,0.0169849861413239,-0.7329736550649008,0.6369893352190653,-1.7961830298105876,1.2281893889109294,2.164405584335327
2.3,1.6886866362223355e+18,107.29633561197916,0.0101061860720316,0.0250991185506184,0.013773759206136,1.6886866362223355e+18,107.29633561197916,-0.7126623392105103,-9.233304341634115,3.287538925806681,1.6886866362223355e+18,107.29633561197916,-0.7286145488421122,-9.240898768107096,3.2110777695973716,1.6886866362266634e+18,107.30066333007812,-0.0019853120902553,0.0645226407796143,0.0163406454958021,1.6886866362266634e+18,107.30066333007812,-0.0030543261673301,0.069104129448533,0.0186313898302614,,,,,,,,,,,,1.688686636228885e+18,107.30288515625,21.101119232177737,38.25919876098633,-21.259719848632812,1.688686636228885e+18,107.30288515625,-234.2448760986328,133.28499755859374,-153.98351440429687,1.6886866362223355e+18,107.29633561197916,-0.2389908333619435,0.0179575545092423,-0.7326762080192566,0.6369822223981222,-1.7939276297887166,1.2285017172495525,2.1648173332214355
2.35,1.688686636274248e+18,107.348248046875,-0.1001124779383341,0.0085074106852213,-0.0316528479258218,1.688686636274248e+18,107.348248046875,-0.8015955885251363,-9.250452677408854,3.2452657222747803,1.688686636274248e+18,107.348248046875,-0.7073291341463724,-9.24145539601644,3.214231173197428,1.6886866362699172e+18,107.3439170735677,-0.0068722339347004,-0.0126754542191823,0.0517199250559011,1.6886866362699172e+18,107.3439170735677,-0.007890342734754,-0.0080939636876185,0.0541124790906905,,,,,,,,,,,,1.688686636278885e+18,107.35288530273438,21.157239532470705,38.188439178466794,-21.306079864501953,1.688686636278885e+18,107.35288530273438,-234.18875427246093,133.2142364501953,-154.02987670898438,1.688686636274248e+18,107.348248046875,-0.2394015292326608,0.0178807328144708,-0.7319373885790507,0.6376791795094808,-1.787408431371053,1.2286709944407146,2.1587801774342856
2.4,1.6886866363261563e+18,107.40015649414065,-0.0244019428888956,0.0260772705078124,0.0180283387502034,1.6886866363261563e+18,107.40015649414065,-0.7160521745681763,-9.233503659566244,3.295315663019816,1.6886866363261563e+18,107.40015649414065,-0.697496255238851,-9.24207623799642,3.214599927266439,1.688686636321835e+18,107.39583487955728,-0.001170825062824,-0.0258599622175096,0.0151189149667819,1.688686636321835e+18,107.39583487955728,-0.0022398392126584,-0.0212784733157604,0.0174096593012412,,,,,,,,,,,,1.6886866363288847e+18,107.40288457031252,21.43051948547363,38.61055908203125,-21.386599731445312,1.6886866363288847e+18,107.40288457031252,-233.9154754638672,133.63635864257813,-154.110400390625,1.6886866363261563e+18,107.40015649414065,-0.2388720115025837,0.0171063014616568,-0.7316135764122009,0.6382704178492228,-1.7844659090042114,1.2288596232732136,2.1539276440938315
2.45,1.688686636378073e+18,107.45207332356772,0.0010131994883219,0.0032787322998046,-0.0324874718983967,1.688686636378073e+18,107.45207332356772,-0.7026922504107157,-9.255637486775717,3.244069258371989,1.688686636378073e+18,107.45207332356772,-0.709551473458608,-9.241411526997885,3.213869333267212,1.6886866363737416e+18,107.44774161783852,0.0032070425222627,0.0030034207932961,-0.0361428608496983,1.6886866363737416e+18,107.44774161783852,0.0021889337416117,0.0075340047478675,-0.0337503049522638,,,,,,,,,,,,1.688686636378886e+18,107.45288588867189,21.63059921264648,38.239678955078126,-21.303639221191407,1.688686636378886e+18,107.45288588867189,-233.71539611816405,133.265478515625,-154.02743835449218,1.688686636378073e+18,107.45207332356772,-0.2387800614039103,0.017227300753196,-0.7320304910341898,0.6378233234087626,-1.7880921761194866,1.2286575237909954,2.157602866490682
2.5,1.688686636429988e+18,107.5039881184896,0.0130632718404134,0.0061616897583007,0.0242693424224853,1.688686636429988e+18,107.5039881184896,-0.6999006271362305,-9.252845764160154,3.298506021499634,1.688686636429988e+18,107.5039881184896,-0.7188099225362142,-9.24150276184082,3.2115492820739746,1.6886866364256604e+18,107.49966023763022,0.0029525154580672,-0.0095702225031952,-0.00733038270846,1.6886866364256604e+18,107.49966023763022,0.0019344065804034,-0.0049887328253438,-0.0050396381411701,,,,,,,,,,,,1.6886866364288827e+18,107.50288276367186,21.26947975158691,38.15671997070312,-21.20359992980957,1.6886866364288827e+18,107.50288276367186,-234.0765167236328,133.18251953125,-153.92739868164062,1.688686636429988e+18,107.5039881184896,-0.2386894673109054,0.0174366782108942,-0.7323478658994039,0.6374871929486593,-1.7909919023513794,1.228685696919759,2.160675128300985
2.55,1.6886866364818964e+18,107.5558964029948,0.0799964269002278,0.0236962636311848,0.0079984664916992,1.6886866364818964e+18,107.5558964029948,-0.6299105683962504,-9.23529847462972,3.2829527060190835,1.6886866364818964e+18,107.5558964029948,-0.7157530188560486,-9.241490046183268,3.2122668425242105,1.6886866364775724e+18,107.551572265625,-0.002188933858027,-0.0067195172111192,0.0193949714303016,1.6886866364775724e+18,107.551572265625,-0.0032579479642057,-0.002188933858027,0.0217366212358076,,,,,,,,,,,,1.6886866364788856e+18,107.55288569335936,21.413439178466795,38.1445198059082,-21.288999557495117,1.6886866364788856e+18,107.55288569335936,-233.93255310058595,133.17031555175782,-154.0127960205078,1.6886866364818964e+18,107.5558964029948,-0.2384207199017206,0.0170284050206342,-0.7322511076927185,0.637709895769755,-1.7900378306706746,1.2286818027496338,2.1587327321370444
2.6,1.688686636525159e+18,107.59915856933594,-0.0282663702964782,0.0144453048706054,0.0309232473373412,1.688686636525159e+18,107.59915856933594,-0.7256234884262085,-9.245268821716309,3.306581735610962,1.688686636525159e+18,107.59915856933594,-0.7032031416893005,-9.242209434509276,3.2129710912704468,1.688686636529488e+18,107.60348763020832,0.0006108652839126,0.0395535249263047,0.0082466810320814,1.688686636529488e+18,107.60348763020832,-0.0004581489095774,0.0441350142161051,0.0105883311480283,,,,,,,,,,,,1.6886866365288847e+18,107.602884765625,21.423199462890626,38.28115997314453,-21.364639663696288,1.6886866365288847e+18,107.602884765625,-233.9227996826172,133.3069580078125,-154.08843688964845,1.688686636525159e+18,107.59915856933594,-0.2389316707849502,0.0173836518079042,-0.7318059504032135,0.6380200386047363,-1.7862679362297058,1.2289006114006042,2.1562204360961914
2.65,1.688686636568418e+18,107.6424178873698,-0.0607240597407022,0.013297398885091,-0.0273457368214924,1.688686636568418e+18,107.6424178873698,-0.7555337349573771,-9.245866775512695,3.250450134277344,1.688686636568418e+18,107.6424178873698,-0.7006556987762451,-9.24165948232015,3.2151084740956626,1.6886866365813972e+18,107.65539721679689,-0.0052941654187936,0.005701408876727,0.0011199195190177,1.6886866365813972e+18,107.65539721679689,-0.0063631795346736,0.0102828984769682,0.0034615699357042,,,,,,,,,,,,1.6886866365788826e+18,107.6528825683594,21.425639724731447,38.281158447265625,-21.32071914672851,1.6886866365788826e+18,107.6528825683594,-233.92035522460935,133.3069610595703,-154.04451904296874,1.688686636568418e+18,107.6424178873698,-0.2393931647141774,0.0177080401529867,-0.7317094206809998,0.6379488110542297,-1.7853724956512451,1.2287334601084392,2.1564778486887612
2.7,1.68868663662033e+18,107.694330078125,-0.0427552858988443,-0.0077873865763345,-0.0410575071970621,1.68868663662033e+18,107.694330078125,-0.7377869685490926,-9.26660442352295,3.2376884619394937,1.68868663662033e+18,107.694330078125,-0.7008777062098185,-9.241312344868978,3.2160585721333823,1.6886866366333084e+18,107.70730843098958,-0.001985312012645,-0.040927971402804,-0.00335975876078,1.6886866366333084e+18,107.70730843098958,-0.0030543262449403,-0.0363464827338853,-0.0010181085575217,,,,,,,,,,,,1.6886866366288868e+18,107.70288681640623,21.41343994140625,38.35191879272461,-21.276799774169923,1.6886866366288868e+18,107.70288681640623,-233.93255615234375,133.37771911621093,-154.00059509277344,1.68868663662033e+18,107.694330078125,-0.2392295002937317,0.0174484383314847,-0.7317235072453817,0.6380011638005575,-1.7853781779607136,1.2286279598871868,2.155868927637736
2.75,1.6886866366722388e+18,107.74623885091148,0.1131853659947713,-0.0089604059855143,-0.0434829394022623,1.6886866366722388e+18,107.74623885091148,-0.5944170355796814,-9.266804059346518,3.235295613606771,1.6886866366722388e+18,107.74623885091148,-0.7134484251340231,-9.240338961283364,3.2160911560058594,1.688686636676564e+18,107.75056408691408,-0.0060322943609207,-0.0201585530303418,-0.023594669997692,1.688686636676564e+18,107.75056408691408,-0.0071013085544108,-0.0155770638957619,-0.0213039256632327,,,,,,,,,,,,1.6886866366788846e+18,107.75288466796876,21.669639587402344,38.28847961425781,-21.320719909667968,1.6886866366788846e+18,107.75288466796876,-233.67635192871097,133.31427917480468,-154.04451904296874,1.6886866366722388e+18,107.74623885091148,-0.2385582576195398,0.0168514835337797,-0.7321751912434896,0.6377503673235575,-1.7891043821970622,1.2283323605855303,2.1577529112497964
2.8,1.6886866367241546e+18,107.79815470377604,0.0450946688652038,-0.0067386627197265,0.0086363951365152,1.6886866367241546e+18,107.79815470377604,-0.6584250330924988,-9.2654078801473,3.2859437465667725,1.6886866367241546e+18,107.79815470377604,-0.709365725517273,-9.241164525349935,3.2146199544270835,1.68868663671983e+18,107.793830078125,0.0094684113282709,0.0290670050308107,0.0193440661920854,1.68868663671983e+18,107.793830078125,0.0084503024312046,0.0335975885391235,0.0216348112250366,,,,,,,,,,,,1.6886866367288906e+18,107.80289057617188,20.77171974182129,38.49099884033203,-21.369519424438476,1.6886866367288906e+18,107.80289057617188,-234.57427673339845,133.5167999267578,-154.09331665039062,1.6886866367241546e+18,107.79815470377604,-0.2387356807788213,0.0171146821230649,-0.732027014096578,0.6378469864527384,-1.7879902521769206,1.2285829782485962,2.157274007797241
2.85,1.6886866367760668e+18,107.85006681315105,-0.0263371070226033,0.0699752171834309,0.0653701623280842,1.6886866367760668e+18,107.85006681315105,-0.7148557702700297,-9.190632502237955,3.3403804302215576,1.6886866367760668e+18,107.85006681315105,-0.6943646868069967,-9.24310302734375,3.2123228708902993,1.6886866367717425e+18,107.84574251302084,0.0049887328835514,0.0344120748341083,0.016035212514301,1.6886866367717425e+18,107.84574251302084,0.0039706242969259,0.0389935647447903,0.0183259571592012,,,,,,,,,,,,1.6886866367788846e+18,107.85288461914062,21.03767967224121,38.39339904785156,-21.29143943786621,1.6886866367788846e+18,107.85288461914062,-234.30831298828124,133.41919555664063,-154.0152374267578,1.6886866367760668e+18,107.85006681315105,-0.2392627000808715,0.0176909075429041,-0.7314908305803934,0.6382487614949545,-1.7836841344833374,1.2291722695032756,2.154559771219889
2.9,1.688686636827975e+18,107.90197493489582,-0.1301084160804748,0.0150276819864908,-0.0108646551767984,1.688686636827975e+18,107.90197493489582,-0.8033902049064636,-9.246066093444824,3.2660035292307534,1.688686636827975e+18,107.90197493489582,-0.6791278123855591,-9.243589083353678,3.2141807874043784,1.6886866368236506e+18,107.89765063476564,-0.0015780685547117,0.0304414510416487,0.018122335585455,1.6886866368236506e+18,107.89765063476564,-0.002647082787007,0.0349720362573861,0.0204639855461815,,,,,,,,,,,,1.6886866368288868e+18,107.90288681640628,21.31095962524414,38.50319900512695,-21.474440002441405,1.6886866368288868e+18,107.90288681640628,-234.0350372314453,133.52900085449218,-154.1982391357422,1.688686636827975e+18,107.90197493489582,-0.2400056322415669,0.0181804516663153,-0.7309477726618449,0.6385782361030579,-1.7790309985478718,1.2293206453323364,2.1517014503479004
2.95,1.6886866368798925e+18,107.95389233398436,-0.0291815201441446,-0.0051002502441406,-0.0331556797027587,1.6886866368798925e+18,107.95389233398436,-0.7140581409136454,-9.265208880106607,3.244069258371989,1.6886866368798925e+18,107.95389233398436,-0.690722644329071,-9.24260393778483,3.2145375410715737,1.6886866368755668e+18,107.94956673177084,-0.0044287730318803,-0.0554360194752613,-0.0254527193804581,1.6886866368755668e+18,107.94956673177084,-0.0054977871477603,-0.0508545308063427,-0.0231619734937945,,,,,,,,,,,,1.688686636878885e+18,107.95288510742186,21.064519500732423,38.39583969116211,-21.274359130859377,1.688686636878885e+18,107.95288510742186,-234.2814788818359,133.42163696289063,-153.99815673828124,1.6886866368798925e+18,107.95389233398436,-0.239507645368576,0.0177450565000374,-0.7313624421755472,0.6383024255434672,-1.78245747089386,1.2290210326512654,2.1537747383117676
3.0,1.688686636931809e+18,108.00580883789064,0.1425116062164306,0.0098050435384114,0.0145305792490641,1.688686636931809e+18,108.00580883789064,-0.556730051835378,-9.249854723612469,3.2899317741394043,1.688686636931809e+18,108.00580883789064,-0.705087681611379,-9.242155075073242,3.2127137978871665,1.6886866369274831e+18,108.00148339843751,0.0060068414604756,0.0034615701685348,-0.0144062385273475,1.6886866369274831e+18,108.00148339843751,0.0049378274319072,0.0079921536768476,-0.0121154940376678,1.688686636927312e+18,108.00131176757812,0.0,0.4314402937889099,0.8400677442550659,5.883999824523926,0.0148019613698124,0.0,40.20000076293945,-122.753154,49.1903755,1.6886866369288868e+18,108.00288681640625,21.281679534912108,38.298239135742186,-21.30119972229004,1.6886866369288868e+18,108.00288681640625,-234.06431579589844,133.32403869628905,-154.02499694824218,1.688686636931809e+18,108.00580883789064,-0.2389179418484369,0.017415036757787,-0.7318708697954813,0.6379498243331909,-1.786845048268636,1.22888445854187,2.1568237940470376
3.05,1.6886866369750584e+18,108.04905822753906,0.0230125486850738,0.0479722023010253,0.1112940311431884,1.6886866369750584e+18,108.04905822753906,-0.671186774969101,-9.212367057800291,3.385844111442566,1.6886866369750584e+18,108.04905822753906,-0.7000453472137451,-9.242834568023682,3.2118626832962036,1.6886866369793905e+18,108.05339038085935,0.0030034206962833,0.0542142900327841,-0.0025452717673033,1.6886866369793905e+18,108.05339038085935,0.0019853120514502,0.0586430629094441,-0.0001527162579198,,,,,,,,,,,,1.688686636978884e+18,108.05288432617188,21.318280029296876,38.34703903198242,-21.359759521484374,1.688686636978884e+18,108.05288432617188,-234.02771911621093,133.37283630371093,-154.08355407714845,1.6886866369750584e+18,108.04905822753906,-0.2396227493882179,0.0182200269773602,-0.7316756546497345,0.6378869116306305,-1.7854021191596985,1.2290908098220823,2.157578706741333
3.1,1.6886866370183242e+18,108.0923243815104,-0.0634702642758687,0.0626242955525716,0.0807424386342366,1.6886866370183242e+18,108.0923243815104,-0.7483552893002828,-9.197013219197592,3.359323581059774,1.6886866370183242e+18,108.0923243815104,-0.6907310485839844,-9.242132822672524,3.2158937454223633,1.6886866370313e+18,108.10529996744792,-0.010995574761182,0.0382299832999705,0.0122682102955877,1.6886866370313e+18,108.10529996744792,-0.0120136829403538,0.04281147227933,0.0146098602563142,,,,,,,,,,,,1.688686637028886e+18,108.10288623046874,20.837599563598634,38.24455947875977,-21.49151954650879,1.688686637028886e+18,108.10288623046874,-234.5083984375,133.27035827636718,-154.21531677246094,1.6886866370183242e+18,108.0923243815104,-0.2405240386724472,0.0188028384000062,-0.731336255868276,0.6379199226697286,-1.7823736667633057,1.2288776636123655,2.156724770863851
3.15,1.6886866370702344e+18,108.1442344563802,-0.0625064174334208,-0.0174674987792968,-0.0272334416707356,1.6886866370702344e+18,108.1442344563802,-0.7473582824071249,-9.2747802734375,3.2580273946126304,1.6886866370702344e+18,108.1442344563802,-0.6906978885332743,-9.239808082580566,3.222573439280192,1.6886866370832146e+18,108.15721451822915,-0.0144062386825679,-0.0549778739611307,-0.0252490968753893,1.6886866370832146e+18,108.15721451822915,-0.0154752526432275,-0.0504472889006137,-0.02295835254093,,,,,,,,,,,,1.688686637078889e+18,108.15288876953124,21.284119415283204,38.38119964599609,-21.523239517211913,1.688686637078889e+18,108.15288876953124,-234.06187438964844,133.40699462890626,-154.24703979492188,1.6886866370702344e+18,108.1442344563802,-0.240821341673533,0.0186146665364503,-0.7313398122787476,0.6378092169761658,-1.7819364070892334,1.2281721035639446,2.156469980875651
3.2,1.6886866371221466e+18,108.1961467285156,0.1973318258921305,-0.0422871907552082,-0.111799399058024,1.6886866371221466e+18,108.1961467285156,-0.5064807931582133,-9.297113100687662,3.1764721075693765,1.6886866371221466e+18,108.1961467285156,-0.709658662478129,-9.237321217854818,3.225584109624227,1.6886866371264773e+18,108.20047717285156,-0.0047342055477201,-0.0115300822071731,-0.018173241522163,1.6886866371264773e+18,108.20047717285156,-0.0057268614764324,-0.0070249503478408,-0.0158824960235505,,,,,,,,,,,,1.6886866371288847e+18,108.20288461914063,21.57447929382324,38.13719940185547,-21.145039749145507,1.6886866371288847e+18,108.20288461914063,-233.77151184082032,133.16299743652343,-153.86883544921875,1.6886866371221466e+18,108.1961467285156,-0.2401226311922073,0.0178427199522653,-0.7320196231206259,0.6373147765795389,-1.7873605887095134,1.2274182240168254,2.159770647684733
3.25,1.6886866371740623e+18,108.24806233723956,0.073102593421936,-0.0086952845255533,-0.0627607504526773,1.6886866371740623e+18,108.24806233723956,-0.6231308976809183,-9.26520856221517,3.2223344643910727,1.6886866371740623e+18,108.24806233723956,-0.7020795146624247,-9.23900858561198,3.222407817840576,1.6886866371697388e+18,108.24373868815104,0.0117591560507813,0.0441859203080335,0.0125227376508215,1.6886866371697388e+18,108.24373868815104,0.0106901417796809,0.0487165028850237,0.0149152932378152,,,,,,,,,,,,1.688686637178889e+18,108.25288896484376,21.26947937011719,38.23967971801758,-21.43051986694336,1.688686637178889e+18,108.25288896484376,-234.0765167236328,133.26547546386718,-154.1543182373047,1.6886866371740623e+18,108.24806233723956,-0.2405403008063633,0.0184667048354943,-0.731740136941274,0.6374602913856506,-1.7853220701217651,1.2279290755589805,2.159236987431844
3.3,1.6886866372259743e+18,108.299974609375,-0.0770303805669148,0.0284376144409179,0.0193529923756916,1.6886866372259743e+18,108.299974609375,-0.7589235703150431,-9.230113983154297,3.301696459452311,1.6886866372259743e+18,108.299974609375,-0.6877392133076986,-9.241046905517578,3.219656070073446,1.6886866372216512e+18,108.29565087890626,0.0036651914706453,0.0124209264758973,0.0249436646699905,1.6886866372216512e+18,108.29565087890626,0.0025961773935705,0.0170024156880874,0.0272853144754965,,,,,,,,,,,,1.6886866372288865e+18,108.302886328125,21.215799713134764,38.41047821044922,-21.501280212402342,1.6886866372288865e+18,108.302886328125,-234.13019409179688,133.436279296875,-154.2250732421875,1.6886866372259743e+18,108.299974609375,-0.2409099290768305,0.0189051957180102,-0.7312294244766235,0.6378938555717468,-1.781244953473409,1.2285476922988892,2.156320095062256
3.35,1.6886866372778854e+18,108.35188533528644,-0.054738720258077,0.0507558186848957,0.0208331743876139,1.6886866372778854e+18,108.35188533528644,-0.7335995435714722,-9.207980473836264,3.3032917181650796,1.6886866372778854e+18,108.35188533528644,-0.6847068468729655,-9.241231600443522,3.219771146774292,1.6886866372735598e+18,108.34755973307291,-0.0019344065610008,-0.0399607686946788,0.0058032198188205,1.6886866372735598e+18,108.34755973307291,-0.0030034207738935,-0.0354810897260903,0.008144869779547,,,,,,,,,,,,1.688686637278886e+18,108.35288603515626,20.86443977355957,38.371439361572264,-21.39879989624023,1.688686637278886e+18,108.35288603515626,-234.48155822753907,133.39723510742186,-154.12259521484376,1.6886866372778854e+18,108.35188533528644,-0.2405073692401249,0.0183917141209045,-0.7311366200447083,0.6381670236587524,-1.780335585276286,1.2286041577657063,2.1540706952412925
3.4,1.688686637329798e+18,108.40379817708332,0.0669299364089965,-0.0060656865437825,0.0670360724131265,1.688686637329798e+18,108.40379817708332,-0.6251249114672343,-9.264211654663086,3.3483564058939614,1.688686637329798e+18,108.40379817708332,-0.6979008714358012,-9.240641276041666,3.218632936477661,1.6886866373254715e+18,108.39947127278646,0.0032579479739069,-0.0079921537544578,-0.0274380308886368,1.6886866373254715e+18,108.39947127278646,0.0021889337416116,-0.0034615699939119,-0.0250963810831308,,,,,,,,,,,,1.6886866373288845e+18,108.40288457031252,20.60579948425293,38.29091949462891,-21.48907928466797,1.6886866373288845e+18,108.40288457031252,-234.74019775390624,133.31671752929688,-154.21287536621094,1.688686637329798e+18,108.40379817708332,-0.2400079071521758,0.0180955696851014,-0.7316036025683085,0.6378283103307089,-1.784324288368225,1.228424708048503,2.156903346379598
3.45,1.6886866373817098e+18,108.45570963541668,0.0954787532488505,0.0123777389526367,0.0079261461893717,1.6886866373817098e+18,108.45570963541668,-0.6061817208925883,-9.244869550069174,3.2897323767344155,1.6886866373817098e+18,108.45570963541668,-0.7075064977010092,-9.239742596944174,3.21911883354187,1.6886866373773878e+18,108.45138785807292,-0.0016289739869534,0.0213293780883152,-0.0225002039223908,1.6886866373773878e+18,108.45138785807292,-0.0026470827093968,0.0259108667572338,-0.0201585527199009,,,,,,,,,,,,1.6886866373788864e+18,108.452886328125,21.00352020263672,38.35923843383789,-21.191399765014648,1.6886866373788864e+18,108.452886328125,-234.3424743652344,133.38504028320312,-153.91519775390626,1.6886866373817098e+18,108.45570963541668,-0.2403092483679453,0.0185384421298901,-0.7319269180297852,0.6373310089111328,-1.7871402104695635,1.2281515995661418,2.1608150005340576
3.5,1.6886866374336202e+18,108.50762019856772,-0.0359753171602884,0.0140275955200194,0.0365796089172363,1.6886866374336202e+18,108.50762019856772,-0.7256234685579935,-9.243274370829264,3.3208390871683755,1.6886866374336202e+18,108.50762019856772,-0.6954941749572754,-9.239797274271648,3.2215720812479653,1.6886866374292982e+18,108.50329809570312,-0.0019344065901046,0.0199040261407692,0.0353283726920683,1.6886866374292982e+18,108.50329809570312,-0.0030034208515037,0.0244346099595228,0.0376191170265276,,,,,,,,,,,,1.6886866374288847e+18,108.50288481445313,21.013279724121094,38.161599731445314,-21.579359436035155,1.6886866374288847e+18,108.50288481445313,-234.33271484375,133.18739624023436,-154.30315856933595,1.6886866374336202e+18,108.50762019856772,-0.2408023526271183,0.0187398251146077,-0.731503446896871,0.6376250386238098,-1.7834205230077107,1.2281681299209597,2.158109267552694
3.55,1.688686637476883e+18,108.55088305664064,-0.0665976107120513,0.0903019905090331,0.0195977687835693,1.688686637476883e+18,108.55088305664064,-0.7474579811096191,-9.16660451889038,3.3068809509277344,1.688686637476883e+18,108.55088305664064,-0.6867063939571381,-9.239401817321776,3.224595785140991,1.6886866374812063e+18,108.55520629882812,-0.0121663993534941,-0.0141517111721137,0.0017307846962164,1.6886866374812063e+18,108.55520629882812,-0.0132354137798149,-0.0096211274746261,0.0040215297679727,,,,,,,,,,,,1.6886866374788849e+18,108.55288500976562,20.903479766845702,38.234799194335935,-21.240199661254884,1.6886866374788849e+18,108.55288500976562,-234.44251708984376,133.2605987548828,-153.96399841308593,1.688686637476883e+18,108.55088305664064,-0.2409197017550468,0.0185104198753833,-0.7312030494213104,0.6379319727420807,-1.7806215286254885,1.2280482649803162,2.155150532722473
3.6,1.6886866375201403e+18,108.59414013671876,-0.0323001941045125,-0.0562210083007812,-0.0728232065836588,1.6886866375201403e+18,108.59414013671876,-0.7198408246040344,-9.311270713806152,3.218346436818441,1.6886866375201403e+18,108.59414013671876,-0.6933866540590922,-9.237545013427734,3.228482246398926,1.6886866375331236e+18,108.60712369791666,-0.0029016099094102,-0.0194967823723951,-0.0144062386825679,1.6886866375331236e+18,108.60712369791666,-0.0039197185542433,-0.0149152930825948,-0.0120136834060151,,,,,,,,,,,,1.6886866375288878e+18,108.60288793945313,21.34511947631836,38.36655960083008,-21.213359832763672,1.6886866375288878e+18,108.60288793945313,-234.00087280273436,133.3923553466797,-153.9371551513672,1.6886866375201403e+18,108.59414013671876,-0.2407719741264978,0.0181281138211488,-0.7314454714457194,0.637720783551534,-1.782355507214864,1.2274856567382812,2.156128724416097
3.65,1.688686637572055e+18,108.64605493164063,0.0774205327033996,0.0296847025553385,-0.0338964462280273,1.688686637572055e+18,108.64605493164063,-0.6201398770014445,-9.2255277633667,3.2546375592549643,1.688686637572055e+18,108.64605493164063,-0.7034064332644144,-9.2377077738444,3.225846608479818,1.6886866375763825e+18,108.65038256835938,0.0095447693020104,0.0067195175215602,-0.0189368221908807,1.6886866375763825e+18,108.65038256835938,0.0084757553413509,0.0111482911161147,-0.0165697196498512,,,,,,,,,,,,1.688686637578887e+18,108.65288676757814,20.859559631347658,38.3543586730957,-21.274359893798827,1.688686637578887e+18,108.65288676757814,-234.48643493652344,133.38015747070312,-153.99815368652344,1.688686637572055e+18,108.64605493164063,-0.2404588957627614,0.0181191706409056,-0.731794555981954,0.6374386151631674,-1.7854891618092854,1.2275349696477251,2.158790349960327
3.7,1.688686637623965e+18,108.69796516927084,-0.0215391119321186,0.0142202377319335,0.0326673984527587,1.688686637623965e+18,108.69796516927084,-0.7190431952476501,-9.241679509480797,3.319243907928467,1.688686637623965e+18,108.69796516927084,-0.7033501068751017,-9.238395055135092,3.223889112472534,1.6886866376196396e+18,108.69363972981772,0.0032070426580806,0.0241800820610175,-0.0045305839739739,1.6886866376196396e+18,108.69363972981772,0.0021380283869802,0.0287615709627667,-0.0021380283869802,,,,,,,,,,,,1.6886866376288883e+18,108.70288813476564,21.15967979431152,38.3982795715332,-21.24751968383789,1.6886866376288883e+18,108.70288813476564,-234.18631286621093,133.42407836914063,-153.9713134765625,1.688686637623965e+18,108.69796516927084,-0.2408150732517242,0.0186822426815827,-0.7317784031232198,0.6373064517974854,-1.785598357518514,1.2277433077494304,2.160235563913981
3.75,1.6886866376758812e+18,108.7498810221354,-0.0198296904563903,0.0012741088867187,-0.0041187604268391,1.6886866376758812e+18,108.7498810221354,-0.7172485987345377,-9.254042307535808,3.284149090449015,1.6886866376758812e+18,108.7498810221354,-0.7032649318377177,-9.237811724344889,3.2255804538726807,1.6886866376715558e+18,108.74555558268229,-0.0054977873029807,-0.0248418537278969,0.0118100613666076,1.6886866376715558e+18,108.74555558268229,-0.0065158957925934,-0.0203621744488675,0.0141517113273341,,,,,,,,,,,,1.688686637678886e+18,108.7528859375,21.696479415893556,38.41291885375976,-21.31339988708496,1.688686637678886e+18,108.7528859375,-233.6495147705078,133.4387176513672,-154.03719787597657,1.6886866376758812e+18,108.7498810221354,-0.2406617651383082,0.0183711691449085,-0.7317832509676615,0.6373678048451742,-1.7854636510213215,1.2275666395823162,2.159428278605143
3.8,1.688686637727789e+18,108.8017891438802,0.0020185510317484,0.021855354309082,0.0271409352620441,1.688686637727789e+18,108.8017891438802,-0.6921239495277405,-9.23390293121338,3.314857006072998,1.688686637727789e+18,108.8017891438802,-0.6999885241190592,-9.238253593444824,3.22502867380778,1.6886866377234609e+18,108.7974611816406,0.0032579479739069,-0.0033597588383902,0.0073812885287528,1.6886866377234609e+18,108.7974611816406,0.002188933790118,0.0012217303737997,0.0097229384506741,,,,,,,,,,,,1.6886866377288868e+18,108.80288681640624,21.3817195892334,38.19331970214843,-21.408559799194336,1.6886866377288868e+18,108.80288681640624,-233.96427307128903,133.2191162109375,-154.13235778808593,1.688686637727789e+18,108.8017891438802,-0.2403895705938339,0.0180561350037653,-0.7316770156224569,0.6376014550526937,-1.7845293680826824,1.2277003129323325,2.1576319535573325
3.85,1.6886866377797038e+18,108.85370393880208,-0.0108910997708638,0.0175787607828775,0.003419001897176,1.6886866377797038e+18,108.85370393880208,-0.7080760995546976,-9.23809019724528,3.290729363759359,1.6886866377797038e+18,108.85370393880208,-0.7030310233434042,-9.23816426595052,3.224622964859009,1.6886866377753777e+18,108.84937760416666,0.0015271631224701,0.0124209265535075,-0.0165442672247687,1.6886866377753777e+18,108.84937760416666,0.0005090543612216,0.0169515103722611,-0.014151711637775,,,,,,,,,,,,1.688686637778889e+18,108.85288886718747,20.815639114379884,38.388518524169925,-21.25239944458008,1.688686637778889e+18,108.85288886718747,-234.53035888671872,133.41431884765626,-153.9761962890625,1.6886866377797038e+18,108.85370393880208,-0.2405599504709243,0.018326872959733,-0.7317761778831482,0.6374156475067139,-1.7854557434717817,1.2276732921600342,2.1592034498850503
3.9,1.6886866378316178e+18,108.90561767578124,-0.0092657605806986,0.0166412989298502,0.0282526016235351,1.6886866378316178e+18,108.90561767578124,-0.7112665375073751,-9.238488833109535,3.3160533905029297,1.6886866378316178e+18,108.90561767578124,-0.7078468004862467,-9.237625439961752,3.2251133918762207,1.6886866378272873e+18,108.90128743489583,-0.0013235413741009,0.0009672033290068,-0.0082975861926872,1.6886866378272873e+18,108.90128743489583,-0.0023925554511757,0.0055486927740275,-0.0059559362319607,,,,,,,,,,,,1.688686637828888e+18,108.90288828125,20.774159622192386,38.08595962524414,-21.31339988708496,1.688686637828888e+18,108.90288828125,-234.57183532714845,133.11175537109375,-154.03719787597657,1.6886866378316178e+18,108.90561767578124,-0.2406925757726033,0.0185084051142136,-0.7319392164548238,0.6371730963389078,-1.786848266919454,1.2275100549062092,2.161060174306234
3.95,1.6886866378835223e+18,108.9575225423177,0.0701226592063903,0.0186195373535156,-0.0216121673583984,1.6886866378835223e+18,108.9575225423177,-0.6392824451128641,-9.235098838806152,3.2685956954956055,1.6886866378835223e+18,108.9575225423177,-0.7152511278788248,-9.236213684082031,3.22752046585083,1.6886866378792038e+18,108.95320385742188,-0.0073812884899476,-0.0157806851590672,-0.0142026171088218,1.6886866378792038e+18,108.95320385742188,-0.0083993971347808,-0.011250101495534,-0.0118609666824339,,,,,,,,,,,,1.6886866378788846e+18,108.95288461914063,21.054759979248047,38.33971939086914,-21.462239456176754,1.6886866378788846e+18,108.95288461914063,-234.2912353515625,133.36551513671876,-154.1860382080078,1.6886866378835223e+18,108.9575225423177,-0.2405436336994171,0.018251326556007,-0.7322034438451132,0.6369331081708273,-1.7888798713684082,1.22708261013031,2.16251277923584
4.0,1.6886866379267896e+18,109.00078967285155,0.0326874554157257,-0.0282897949218749,-0.0598975419998168,1.6886866379267896e+18,109.00078967285155,-0.6795616447925568,-9.281160831451416,3.2321051359176636,1.6886866379267896e+18,109.00078967285155,-0.7180951237678528,-9.235366344451904,3.229315280914306,1.6886866379311176e+18,109.00511751302083,-0.0045814892898002,-0.007075855663667,0.0066686125161747,1.6886866379311176e+18,109.00511751302083,-0.005650503716121,-0.0024943665290872,0.0089593570834646,1.688686637927333e+18,109.0013330078125,0.0,0.4315006136894226,0.8496571779251099,5.914999961853027,0.0147517342120409,0.0,40.20000076293945,-122.7531542,49.1903755,1.6886866379288812e+18,109.00288120117187,21.249959564208982,38.47147979736328,-21.393919372558592,1.6886866379288812e+18,109.00288120117187,-234.09603576660157,133.49728088378907,-154.11771545410156,1.6886866379267896e+18,109.00078967285155,-0.240519843995571,0.0181218422949313,-0.732305645942688,0.6368283629417419,-1.7896021008491516,1.2268263697624209,2.16301953792572
4.05,1.6886866379700503e+18,109.04405021158856,0.0183965365091959,-0.0013043085734049,-0.0148260593414306,1.6886866379700503e+18,109.04405021158856,-0.6903293331464132,-9.254241625467936,3.2777682145436606,1.6886866379700503e+18,109.04405021158856,-0.7145718932151794,-9.235432624816896,3.2299068768819175,1.688686637983026e+18,109.05702579752604,-0.0008144869934767,-0.0216857156871507,0.0125227374956011,1.688686637983026e+18,109.05702579752604,-0.001883501264577,-0.0171551322176431,0.0148643874563276,,,,,,,,,,,,1.6886866379788856e+18,109.052885546875,21.206039810180663,38.10547943115235,-21.059639358520503,1.6886866379788856e+18,109.052885546875,-234.13995666503905,133.13127746582032,-153.78343505859374,1.6886866379700503e+18,109.04405021158856,-0.2402607202529906,0.0177273067335287,-0.7321927150090536,0.6370670000712076,-1.7885239124298096,1.2268462578455608,2.1609858671824136
4.1,1.6886866380219617e+18,109.09596126302084,0.0361426870028177,-0.008923848470052,0.0236083666483561,1.6886866380219617e+18,109.09596126302084,-0.6697909235954285,-9.262616475423178,3.3146576086680093,1.6886866380219617e+18,109.09596126302084,-0.7117796341578165,-9.236187934875488,3.2283618450164795,1.68868663802629e+18,109.10028991699218,0.0108428578823803,0.0401643896475434,-0.0085521135479211,1.68868663802629e+18,109.10028991699218,0.0097738439217209,0.0446695201098918,-0.0061086526839062,,,,,,,,,,,,1.688686638028884e+18,109.10288388671874,21.33779945373535,38.33484039306641,-21.276799774169923,1.688686638028884e+18,109.10288388671874,-234.00819396972656,133.3606384277344,-154.00059814453124,1.6886866380219617e+18,109.09596126302084,-0.2402474929889043,0.0177951219181219,-0.7320938309033712,0.6371837059656779,-1.7877999941507976,1.2270747820536296,2.1603341897328696
4.15,1.6886866380738757e+18,109.14787548828126,-0.048333187898,0.0434020360310872,0.0624666213989257,1.6886866380738757e+18,109.14787548828126,-0.7547361453374227,-9.211569468180338,3.3497522672017417,1.6886866380738757e+18,109.14787548828126,-0.7122489809989929,-9.237466812133787,3.224598248799642,1.6886866380695498e+18,109.1435498046875,0.010282898438163,0.040418917313218,-0.0197513103485107,1.6886866380695498e+18,109.1435498046875,0.0092138840846018,0.0449495011319716,-0.0174605647722879,,,,,,,,,,,,1.688686638078887e+18,109.15288681640624,21.206039810180663,38.27627868652344,-21.281679534912108,1.688686638078887e+18,109.15288681640624,-234.13995666503905,133.3020751953125,-154.00547485351564,1.6886866380738757e+18,109.14787548828126,-0.2409010529518127,0.0188513360917568,-0.7320837179819742,0.6369181275367737,-1.7881840467453003,1.2274619340896606,2.163203239440918
4.2,1.688686638125787e+18,109.19978694661457,-0.0061357418696085,0.0281457901000976,0.0347920258839924,1.688686638125787e+18,109.19978694661457,-0.7144569555918375,-9.225926399230955,3.324228843053182,1.688686638125787e+18,109.19978694661457,-0.7141672372817993,-9.236567497253418,3.2267494201660156,1.688686638121462e+18,109.19546215820314,-0.0060577470188338,-0.0003054327050146,0.0049378272766868,1.688686638121462e+18,109.19546215820314,-0.007075855663667,0.004174245831867,0.0072794772374133,,,,,,,,,,,,1.688686638128889e+18,109.20288891601562,21.125519943237304,38.234799194335935,-21.57447967529297,1.688686638128889e+18,109.20288891601562,-234.2204742431641,133.260595703125,-154.29827575683595,1.688686638125787e+18,109.19978694661457,-0.2411225934823354,0.0189627756675084,-0.7321475545565287,0.6367576519648234,-1.7886099020640056,1.2271898587544758,2.1641244093577066
4.25,1.6886866381776986e+18,109.25169824218747,-0.0212437510490417,0.0329955418904622,-0.0419477621714273,1.6886866381776986e+18,109.25169824218747,-0.7238288521766663,-9.220343271891275,3.250848929087321,1.6886866381776986e+18,109.25169824218747,-0.7084311246871948,-9.235834121704102,3.2301092942555747,1.6886866381733714e+18,109.24737141927083,-0.0057014090319473,0.025096380462249,0.0029016098318,1.6886866381733714e+18,109.24737141927083,-0.00671951752156,0.0296778697520494,0.0052432600641622,,,,,,,,,,,,1.6886866381788884e+18,109.2528884277344,21.371959686279297,38.26163940429687,-21.42807960510254,1.6886866381788884e+18,109.2528884277344,-233.97403564453128,133.28743896484374,-154.1518798828125,1.6886866381776986e+18,109.25169824218747,-0.2415178318818409,0.0190691146999597,-0.7319450179735819,0.6368375023206075,-1.7866960763931274,1.2269682884216306,2.1629506746927896
4.3,1.6886866382296123e+18,109.30361230468748,-0.107439915339152,-0.0183270772298177,-0.0385196208953857,1.6886866382296123e+18,109.30361230468748,-0.8063812255859375,-9.271190643310549,3.256432215372721,1.6886866382296123e+18,109.30361230468748,-0.7047873338063558,-9.235358874003092,3.232264439264933,1.688686638225287e+18,109.29928686523438,-0.0034615696834709,-0.0090611679479479,0.0041233403608202,1.688686638225287e+18,109.29928686523438,-0.0045305838963637,-0.0045814888241389,0.0064649903215467,,,,,,,,,,,,1.688686638228885e+18,109.30288505859376,21.39879989624023,38.449519348144534,-21.625719451904295,1.688686638228885e+18,109.30288505859376,-233.94719543457032,133.4753173828125,-154.34951782226562,1.6886866382296123e+18,109.30361230468748,-0.2417775144179661,0.0191448076317707,-0.7318161527315775,0.6368848085403442,-1.7854804595311482,1.2268248001734414,2.1622299353281655
4.35,1.6886866382815224e+18,109.35552270507812,0.0538416902224222,0.002810796101888,0.0010101795196533,1.6886866382815224e+18,109.35552270507812,-0.6586244304974874,-9.249655405680338,3.294119119644165,1.6886866382815224e+18,109.35552270507812,-0.71831214427948,-9.23496150970459,3.230421543121338,1.6886866382771986e+18,109.35119840494792,0.0039197187094638,-0.0124209268639485,-0.028608855480949,1.6886866382771986e+18,109.35119840494792,0.002850704496571,-0.0079412482058008,-0.0261653947333494,,,,,,,,,,,,1.6886866382788849e+18,109.35288500976564,21.349999237060548,38.25675888061524,-21.53055953979492,1.6886866382788849e+18,109.35288500976564,-233.99599609375,133.28255920410157,-154.25435791015624,1.6886866382815224e+18,109.35552270507812,-0.2412719130516051,0.0189024439702431,-0.7322932481765747,0.6365353266398112,-1.7895920674006145,1.2267046769460044,2.1652525266011557
4.4,1.6886866383334372e+18,109.40743717447916,0.0658105611801147,-0.001386006673177,-0.0172204176584879,1.6886866383334372e+18,109.40743717447916,-0.6554339925448099,-9.254042307535808,3.2733813921610513,1.6886866383334372e+18,109.40743717447916,-0.727090577284495,-9.235151608784994,3.2279144128163657,1.6886866383291118e+18,109.40311173502604,0.0064140851609408,0.0199549309909343,-0.0188350118696689,1.6886866383291118e+18,109.40311173502604,0.0053959763608872,0.0245364209016163,-0.0164933613656709,,,,,,,,,,,,1.6886866383288817e+18,109.40288173828124,21.34023933410645,38.31043930053711,-21.52811965942383,1.6886866383288817e+18,109.40288173828124,-234.00575561523436,133.33623962402345,-154.25191650390624,1.6886866383334372e+18,109.40743717447916,-0.2414638499418894,0.0194475060949722,-0.7325846552848816,0.6361106038093567,-1.792348305384318,1.2267616589864094,2.169083833694458
4.45,1.6886866383766963e+18,109.4506962890625,0.0034685432910919,0.0035395622253417,-0.0115772485733031,1.6886866383766963e+18,109.4506962890625,-0.7109674215316772,-9.250054359436035,3.277867913246155,1.6886866383766963e+18,109.4506962890625,-0.7202819883823395,-9.23608922958374,3.226757764816284,1.6886866383810202e+18,109.45502026367188,0.0016289740209079,0.0138462789085072,0.0312559387336174,1.6886866383810202e+18,109.45502026367188,0.0005599598322684,0.0184277684117356,0.0335975885391235,,,,,,,,,,,,1.6886866383788846e+18,109.45288471679687,21.45004005432129,38.176239013671875,-21.452479553222656,1.6886866383788846e+18,109.45288471679687,-233.89595642089844,133.20203857421876,-154.17627868652343,1.6886866383766963e+18,109.4506962890625,-0.2417347729206084,0.0197537150233983,-0.7323397994041443,0.6362802088260651,-1.7904178500175476,1.2270447611808777,2.16798734664917
4.5,1.688686638419954e+18,109.49395410156252,-0.0815158685048421,0.0152289072672525,-0.0037542184193928,1.688686638419954e+18,109.49395410156252,-0.7794619798660278,-9.23968537648519,3.2855449517567954,1.688686638419954e+18,109.49395410156252,-0.703792134920756,-9.237409591674805,3.226611773173014,1.688686638432936e+18,109.50693603515624,-0.0005599598322684,-0.0219402437408764,0.0423024185001849,1.688686638432936e+18,109.50693603515624,-0.0016289739772521,-0.0174096589908003,0.0446440676848093,,,,,,,,,,,,1.6886866384288858e+18,109.50288583984374,21.276799774169923,38.17379989624023,-21.39391975402832,1.6886866384288858e+18,109.50288583984374,-234.0691925048828,133.19959716796876,-154.11771240234376,1.688686638419954e+18,109.49395410156252,-0.2416611512502033,0.0194448623806238,-0.7317739923795065,0.6369682550430298,-1.7855536937713623,1.227444847424825,2.1625510851542153
4.55,1.6886866384718643e+18,109.5458643391927,-0.0546867648760477,0.0305802027384439,0.0292857487996418,1.6886866384718643e+18,109.5458643391927,-0.7447660565376282,-9.22532844543457,3.31744917233785,1.6886866384718643e+18,109.5458643391927,-0.6959253152211508,-9.23840395609538,3.225476026535034,1.6886866384761958e+18,109.55019567871092,0.00503963814117,-0.0097738436888902,-0.0072540249675512,1.6886866384761958e+18,109.55019567871092,0.0039706240640952,-0.0051923546707257,-0.0048869224265218,,,,,,,,,,,,1.688686638478889e+18,109.5528890625,21.34023971557617,38.225039672851565,-21.515919876098632,1.688686638478889e+18,109.5528890625,-234.00575561523436,133.25083923339844,-154.23971862792968,1.6886866384718643e+18,109.5458643391927,-0.2413094490766525,0.0190185972799857,-0.7315111955006918,0.6374162634213766,-1.7832980155944824,1.2277459303538003,2.1591487725575766
4.6,1.6886866385237755e+18,109.5977754720052,-0.0068907936414082,0.011480967203776,0.0151806672414143,1.6886866385237755e+18,109.5977754720052,-0.7112665375073751,-9.244470914204914,3.3001012802124023,1.6886866385237755e+18,109.5977754720052,-0.7102217674255371,-9.238447189331056,3.222233215967814,1.688686638519452e+18,109.59345198567708,0.0078394374189276,-0.0017816903612886,-0.0347684125105539,1.688686638519452e+18,109.59345198567708,0.0067704231478273,0.0027997990109724,-0.0324776681760946,,,,,,,,,,,,1.6886866385288847e+18,109.60288481445312,20.95227966308594,38.33727874755859,-21.31583938598633,1.6886866385288847e+18,109.60288481445312,-234.39371337890623,133.36307373046876,-154.03964233398438,1.6886866385237755e+18,109.5977754720052,-0.2411014238993326,0.0192402787506579,-0.732003370920817,0.636923094590505,-1.7877416610717771,1.2277588446935015,2.163611888885498
4.65,1.6886866385756923e+18,109.64969238281247,0.071902056535085,0.0142380396525065,0.0316342512766519,1.6886866385756923e+18,109.64969238281247,-0.6442674994468689,-9.241878509521484,3.3134611447652182,1.6886866385756923e+18,109.64969238281247,-0.7220155795415243,-9.238611857096354,3.219139496485392,1.6886866385713695e+18,109.64536971028645,0.0047342056253303,-0.0170024161537487,-0.010537425832202,1.6886866385713695e+18,109.64536971028645,0.0037160968252767,-0.0124718320245543,-0.0082466804111997,,,,,,,,,,,,1.6886866385788882e+18,109.65288818359376,21.30119972229004,38.281159210205075,-21.215799713134764,1.6886866385788882e+18,109.65288818359376,-234.0447998046875,133.3069610595703,-153.93959350585936,1.6886866385756923e+18,109.64969238281247,-0.2407771547635396,0.0192806497216224,-0.7324129541714987,0.6365736325581869,-1.7914357582728069,1.2278090318044026,2.1668895880381265
4.7,1.6886866386276065e+18,109.70160668945311,0.0408013463020324,0.0053911209106445,0.0182286898295084,1.6886866386276065e+18,109.70160668945311,-0.666600505510966,-9.251250584920246,3.30049999554952,1.6886866386276065e+18,109.70160668945311,-0.7132478753725687,-9.239137013753256,3.2195839087168374,1.6886866386232735e+18,109.69727376302085,-0.0025961773499147,0.0130826974442849,0.0271325974414745,1.6886866386232735e+18,109.69727376302085,-0.0036651914706453,0.0176641869669158,0.0294233423968155,,,,,,,,,,,,1.6886866386288868e+18,109.70288681640623,21.059639358520503,38.26895980834961,-21.42807960510254,1.6886866386288868e+18,109.70288681640623,-234.2863555908203,133.2947570800781,-154.1518768310547,1.6886866386276065e+18,109.70160668945311,-0.2408397247393925,0.0191926471889018,-0.7321102023124695,0.6369007031122843,-1.788812518119812,1.227967898050944,2.164224068323771
4.75,1.6886866386795226e+18,109.75352262369792,-0.0510456562042235,0.0159104665120442,-0.0584533214569091,1.6886866386795226e+18,109.75352262369792,-0.7441678444544474,-9.2408816019694,3.2265219688415527,1.6886866386795226e+18,109.75352262369792,-0.6989682118097941,-9.239287376403809,3.222287893295288,1.688686638675196e+18,109.74919604492186,-0.0059050306833038,-0.0098756551742553,0.0265217330306768,1.688686638675196e+18,109.74919604492186,-0.0069740447215735,-0.00534507073462,0.0288633828361828,,,,,,,,,,,,1.6886866386788846e+18,109.75288461914064,21.11332015991211,38.30799865722656,-21.25727996826172,1.6886866386788846e+18,109.75288461914064,-234.23267517089843,133.33380126953125,-153.9810760498047,1.6886866386795226e+18,109.75352262369792,-0.2409833818674086,0.0189406046022971,-0.7316195567448934,0.6374175548553467,-1.7844072580337524,1.2280136744181316,2.159658908843994
4.8,1.68868663873143e+18,109.80543025716143,-0.0337317387262979,-0.0134878158569335,-0.0178257624308268,1.68868663873143e+18,109.80543025716143,-0.722034235795339,-9.271389961242676,3.2650064627329507,1.68868663873143e+18,109.80543025716143,-0.6941485206286112,-9.240397453308104,3.220144828160604,1.6886866387271045e+18,109.8011046549479,0.007686720889372,-0.0089593570398089,0.0092138839730371,1.6886866387271045e+18,109.8011046549479,0.0066177068559529,-0.0044287730318804,0.0115555344770351,,,,,,,,,,,,1.6886866387288888e+18,109.80288891601565,21.149919509887695,38.342160034179685,-21.296319580078126,1.6886866387288888e+18,109.80288891601565,-234.19607543945312,133.36795654296876,-154.02011413574218,1.68868663873143e+18,109.80543025716143,-0.2406690816084543,0.0186813517163196,-0.7314583857854208,0.6377288699150085,-1.7831159830093384,1.2283509174982707,2.1575187842051187
4.85,1.6886866387833393e+18,109.85733902994792,-0.0051399668057759,0.0283578236897786,0.0461699962615966,1.6886866387833393e+18,109.85733902994792,-0.7016952435175577,-9.230512619018556,3.3244282404581704,1.6886866387833393e+18,109.85733902994792,-0.7024013002713522,-9.241365750630695,3.2155708471934,1.688686638779016e+18,109.85301603190103,0.0089084515348076,0.0097738439993311,-0.0319177086154619,1.688686638779016e+18,109.85301603190103,0.0078394374965379,0.0143553335219621,-0.0296269642810026,,,,,,,,,,,,1.688686638778887e+18,109.85288681640624,21.11331977844238,38.30799865722656,-21.21579933166504,1.688686638778887e+18,109.85288681640624,-234.23267517089843,133.33379821777345,-153.939599609375,1.6886866387833393e+18,109.85733902994792,-0.240610326329867,0.0190933346748351,-0.7317352294921875,0.6374211510022482,-1.785860021909078,1.228645086288452,2.160768985748291
4.9,1.6886866388266097e+18,109.90060961914062,0.0603461563587188,-0.0064287185668944,0.027692437171936,1.6886866388266097e+18,109.90060961914062,-0.646660327911377,-9.265008926391602,3.3044880628585815,1.6886866388266097e+18,109.90060961914062,-0.7128525078296661,-9.24107551574707,3.2141082286834717,1.6886866388309266e+18,109.90492626953124,0.0029525153804569,-0.0020362174448867,-0.0075849103741347,1.6886866388309266e+18,109.90492626953124,0.0018835012063694,0.0025452717673033,-0.0051923543602849,,,,,,,,,,,,1.6886866388288847e+18,109.902884765625,20.922999572753906,38.30067901611328,-21.38415946960449,1.6886866388288847e+18,109.902884765625,-234.4229949951172,133.32648010253905,-154.107958984375,1.6886866388266097e+18,109.90060961914062,-0.240548089146614,0.0192861417308449,-0.7320939898490906,0.6370267570018768,-1.7890554070472715,1.228556752204895,2.1641581058502197
4.95,1.6886866388698632e+18,109.94386303710938,0.0650257269541422,0.0459884007771809,-0.0257952213287353,1.6886866388698632e+18,109.94386303710938,-0.6376872460047404,-9.21276601155599,3.251447121302286,1.6886866388698632e+18,109.94386303710938,-0.708558996518453,-9.241249720255531,3.214554945627848,1.6886866388828426e+18,109.95684261067709,-0.0071267612899342,-0.0071267611347138,0.0323249517629543,1.6886866388828426e+18,109.95684261067709,-0.0081957752505937,-0.002647082787007,0.0346666034311055,,,,,,,,,,,,1.6886866388788818e+18,109.9528818359375,21.38415946960449,38.42023849487305,-21.354879760742183,1.6886866388788818e+18,109.9528818359375,-233.9618347167969,133.44603881835937,-154.07867736816405,1.6886866388698632e+18,109.94386303710938,-0.2405472397804259,0.0191887461890776,-0.731947124004364,0.637198785940806,-1.7877532641092937,1.2286097208658855,2.162710746129354
5.0,1.6886866389217743e+18,109.99577449544272,-0.0562404990196227,-0.045093536376953,-0.0692181587219238,1.6886866389217743e+18,109.99577449544272,-0.7405786116917928,-9.30449072519938,3.2101709842681885,1.6886866389217743e+18,109.99577449544272,-0.6901841362317404,-9.241892496744793,3.2167017459869385,1.6886866389260977e+18,110.00009765625,-0.0049632801674305,-0.0402407478541135,0.0496328007429838,1.6886866389260977e+18,110.00009765625,-0.00603229412809,-0.0356592582538723,0.051923545077443,1.688686638927348e+18,110.00134790039064,0.0,0.4844619035720825,0.8600250482559204,6.355000019073486,0.0146548803895711,0.0,40.20000076293945,-122.7531544,49.1903755,1.6886866389288863e+18,110.00288671875,21.09623985290527,38.32507934570312,-21.359759902954103,1.6886866389288863e+18,110.00288671875,-234.2497528076172,133.35087890625,-154.08355712890625,1.6886866389217743e+18,109.99577449544272,-0.2403388867775598,0.0185194543252388,-0.7313243349393209,0.6380115747451782,-1.7821585337320964,1.2288049062093098,2.1558276812235513
5.05,1.6886866389736817e+18,110.0476818033854,0.0497833490371703,-0.0140498479207356,-0.039308468500773,1.6886866389736817e+18,110.0476818033854,-0.6325027743975321,-9.27477995554606,3.236691395441691,1.6886866389736817e+18,110.0476818033854,-0.6881321469942728,-9.24322541554769,3.2133124669392905,1.6886866389693627e+18,110.04336279296876,0.0088066405151038,-0.0110464800770083,-0.0038688130055864,1.6886866389693627e+18,110.04336279296876,0.0077376264768341,-0.0064649912528693,-0.0015271632000803,,,,,,,,,,,,1.6886866389788884e+18,110.05288862304688,20.774159622192386,38.3348388671875,-21.08891944885254,1.6886866389788884e+18,110.05288862304688,-234.57183227539065,133.3606384277344,-153.81271667480468,1.6886866389736817e+18,110.0476818033854,-0.2396757205327351,0.0179986972361802,-0.7312660813331604,0.6383428772290548,-1.781766653060913,1.2292107741038003,2.153693437576294
5.1,1.6886866390255995e+18,110.09959985351564,-0.0673086444536844,0.0586099624633789,0.0454585552215575,1.6886866390255995e+18,110.09959985351564,-0.746361255645752,-9.204790115356444,3.314458131790161,1.6886866390255995e+18,110.09959985351564,-0.6848986347516378,-9.245895385742186,3.2063121795654297,1.6886866390212751e+18,110.0952753092448,0.0191913495461145,0.0305432622941831,0.0030543262449403,1.6886866390212751e+18,110.0952753092448,0.0181732413669426,0.0351247523600855,0.0053450709674507,,,,,,,,,,,,1.6886866390288842e+18,110.10288432617187,21.21091995239258,38.376319122314456,-21.608638763427734,1.6886866390288842e+18,110.10288432617187,-234.13507690429688,133.40211486816406,-154.33243713378906,1.6886866390255995e+18,110.09959985351564,-0.2399868915478388,0.0188631614049275,-0.7311316529909769,0.6383549571037292,-1.7812496026357014,1.230024258295695,2.154866854349772
5.15,1.688686639077509e+18,110.15150919596356,-0.0056978464126586,0.0688918431599934,0.1015545527140299,1.688686639077509e+18,110.15150919596356,-0.683150847752889,-9.19561735788981,3.367698431015014,1.688686639077509e+18,110.15150919596356,-0.6832990248998007,-9.247004508972168,3.203456481297811,1.6886866390731868e+18,110.14718684895831,0.0026470827093968,0.0067195176767806,-0.0036142860384037,1.6886866390731868e+18,110.14718684895831,0.0015780685159067,0.0113010068501655,-0.0012726361164823,,,,,,,,,,,,1.688686639078888e+18,110.15288774414064,21.35487937927246,38.298239135742186,-21.298759841918944,1.688686639078888e+18,110.15288774414064,-233.99111328125,133.32403564453125,-154.02255554199218,1.688686639077509e+18,110.15150919596356,-0.2400282273689905,0.0191137542327244,-0.7310693661371866,0.6384032567342123,-1.780954082806905,1.2303621768951416,2.15498677889506
5.2,1.6886866391294246e+18,110.20342456054688,-0.0408834218978881,-0.0295950571695963,-0.0282893180847167,1.6886866391294246e+18,110.20342456054688,-0.7216354211171468,-9.292327245076498,3.2422746817270913,1.6886866391294246e+18,110.20342456054688,-0.686598022778829,-9.245227495829264,3.2078766028086343,1.6886866391251008e+18,110.19910083007812,-0.011606439637641,-0.018631389675041,-0.0003563380644967,1.6886866391251008e+18,110.19910083007812,-0.0126754539087414,-0.0141008064771691,0.0019344065415983,,,,,,,,,,,,1.6886866391288896e+18,110.20288950195314,21.501279449462892,38.405599975585936,-21.313399505615234,1.6886866391288896e+18,110.20288950195314,-233.8447143554687,133.4313995361328,-154.03719787597657,1.6886866391294246e+18,110.20342456054688,-0.2401368965705235,0.0189353718111912,-0.731188952922821,0.6382307608922323,-1.781656304995219,1.2298205296198528,2.155604680379232
5.25,1.6886866391813368e+18,110.2553368326823,0.1431234578291574,-0.026501973470052,-0.0422488848368326,1.6886866391813368e+18,110.2553368326823,-0.5399802923202515,-9.289336204528809,3.2275189558664956,1.6886866391813368e+18,110.2553368326823,-0.6889497836430868,-9.24532953898112,3.2070804437001548,1.6886866391770084e+18,110.25100830078124,0.0039197184766332,-0.0420478911449511,0.010435614734888,1.6886866391770084e+18,110.25100830078124,0.0029016099094102,-0.037466402320812,0.0127263590693473,,,,,,,,,,,,1.6886866391788826e+18,110.25288251953124,21.213359451293947,38.52027893066406,-21.26459999084473,1.6886866391788826e+18,110.25288251953124,-234.13263549804688,133.54607849121095,-153.98839721679687,1.6886866391813368e+18,110.2553368326823,-0.2393056899309158,0.0180794348319371,-0.7312926650047302,0.6384488542874655,-1.7824086745580037,1.2298510869344077,2.1538923581441245
5.3,1.6886866392332485e+18,110.30724820963542,0.0608965754508971,0.0434141159057617,0.0134307543436685,1.6886866392332485e+18,110.30724820963542,-0.6091727614402771,-9.22253672281901,3.276970545450846,1.6886866392332485e+18,110.30724820963542,-0.6759153604507446,-9.248446146647137,3.200852394104004,1.6886866392289183e+18,110.30291845703124,0.0180205249538023,0.0722348156074682,0.0136426569273073,1.6886866392289183e+18,110.30291845703124,0.0169515103722611,0.0767653994262218,0.0159843073536951,,,,,,,,,,,,1.688686639228883e+18,110.30288286132811,20.940079498291016,38.41047973632813,-21.16699981689453,1.688686639228883e+18,110.30288286132811,-234.40591430664065,133.4362762451172,-153.8907958984375,1.6886866392332485e+18,110.30724820963542,-0.2397479017575581,0.0188940775891144,-0.7308178345362345,0.6388027667999268,-1.778914451599121,1.2308029333750408,2.152202526728312
5.35,1.6886866392765092e+18,110.35050915527344,-0.1605845987796783,0.0414600372314452,0.0537251234054565,1.6886866392765092e+18,110.35050915527344,-0.8162516355514526,-9.226126194000244,3.3155548572540283,1.6886866392765092e+18,110.35050915527344,-0.6615130603313446,-9.250081539154053,3.199142336845398,1.6886866392808333e+18,110.35483317057292,0.000101810908139,0.030136019612352,0.0069740449447029,1.6886866392808333e+18,110.35483317057292,-0.0008653922122903,0.0346666040519873,0.0092647893664736,,,,,,,,,,,,1.6886866392788813e+18,110.35288139648438,20.718039321899415,38.57883834838867,-21.215799713134764,1.6886866392788813e+18,110.35288139648438,-234.6279541015625,133.60464172363282,-153.939599609375,1.6886866392765092e+18,110.35050915527344,-0.2407657876610756,0.0199889233335852,-0.7302863597869873,0.638994574546814,-1.7747094631195068,1.2313024401664734,2.1510668992996216
5.4,1.6886866393197714e+18,110.39377156575522,-0.0567724704742431,-0.0298601786295572,-0.0866426626841227,1.6886866393197714e+18,110.39377156575522,-0.7182456056276957,-9.296514828999838,3.1766714255015054,1.6886866393197714e+18,110.39377156575522,-0.6673191587130228,-9.249149958292644,3.2006266911824546,1.688686639332749e+18,110.40674894205728,-0.0027488935738801,-0.0798197264472642,0.0032070425028602,1.688686639332749e+18,110.40674894205728,-0.0037160970581074,-0.0752891401449838,0.0055486925023918,,,,,,,,,,,,1.6886866393288847e+18,110.402884765625,20.915679931640625,38.388519287109375,-21.354879760742183,1.6886866393288847e+18,110.402884765625,-234.43031616210936,133.41431579589843,-154.07867736816405,1.6886866393197714e+18,110.39377156575522,-0.2402716229359308,0.0193891779830058,-0.7305049896240234,0.6389489968617758,-1.776356299718221,1.2310179471969604,2.151125431060791
5.45,1.688686639371681e+18,110.44568107096354,0.1560274759928385,0.0057264963785807,0.026529312133789,1.688686639371681e+18,110.44568107096354,-0.510269433259964,-9.262616475423178,3.283949613571167,1.688686639371681e+18,110.44568107096354,-0.6721429427464803,-9.25083827972412,3.194732904434204,1.688686639376009e+18,110.45000891113284,0.0208457764238118,-0.0006108656525611,0.0058795781296793,1.688686639376009e+18,110.45000891113284,0.0197767624631523,0.0038942657411098,0.0081703226314857,,,,,,,,,,,,1.6886866393788872e+18,110.45288701171876,20.993759536743163,38.217718505859374,-21.264599609375,1.6886866393788872e+18,110.45288701171876,-234.35223388671875,133.24351501464844,-153.98839416503907,1.688686639371681e+18,110.44568107096354,-0.2391230861345926,0.0186098646372556,-0.7306938171386719,0.6391872962315878,-1.7781728108723958,1.2315344015757244,2.1501100858052573
5.5,1.6886866394235924e+18,110.49759220377602,0.0459044774373372,0.0576397577921549,0.0904897848765055,1.6886866394235924e+18,110.49759220377602,-0.6127620140711466,-9.213164647420248,3.342374404271444,1.6886866394235924e+18,110.49759220377602,-0.6645125150680542,-9.253299713134766,3.189197222391764,1.688686639419266e+18,110.49326603190104,0.0137953731852272,0.0793106704950332,-0.0067704230605158,1.688686639419266e+18,110.49326603190104,0.0127772648508349,0.0838412543137868,-0.0044796784253169,,,,,,,,,,,,1.688686639428887e+18,110.50288691406249,20.747319412231445,38.51296005249024,-21.09623985290527,1.688686639428887e+18,110.50288691406249,-234.5986755371094,133.53876037597655,-153.82003479003907,1.6886866394235924e+18,110.49759220377602,-0.2398793995380401,0.0198034079124529,-0.730396052201589,0.6392080783843994,-1.7762298981348674,1.2322888771692913,2.150989850362142
5.55,1.688686639475503e+18,110.54950309244788,-0.1495266159375508,0.0265836715698241,-0.0417585372924804,1.688686639475503e+18,110.54950309244788,-0.7936195135116577,-9.24407196044922,3.213560740152994,1.688686639475503e+18,110.54950309244788,-0.6499389211336771,-9.253150939941406,3.1926318804423013,1.688686639471181e+18,110.54518115234374,-0.0087048296506205,0.0358883334944645,0.0186313896750409,1.688686639471181e+18,110.54518115234374,-0.0097229384506741,0.0404189168475568,0.0209730404118696,,,,,,,,,,,,1.688686639478883e+18,110.5528831542969,20.73755989074707,38.539798736572266,-21.408559799194336,1.688686639478883e+18,110.5528831542969,-234.60843505859376,133.5655944824219,-154.13235778808593,1.688686639475503e+18,110.54950309244788,-0.2411331137021382,0.0207568363596995,-0.7298609813054403,0.639317512512207,-1.7716360489527383,1.2322429418563845,2.1496209303538003
5.6,1.688686639527419e+18,110.6014188639323,-0.094365358352661,0.0117737452189127,0.0029823780059814,1.688686639527419e+18,110.6014188639323,-0.7377869685490926,-9.257232666015623,3.2632118860880532,1.688686639527419e+18,110.6014188639323,-0.6492676337560018,-9.2515017191569,3.197542111078898,1.6886866395230912e+18,110.59709098307292,-0.0151698201273877,-0.0634281747043132,0.0075340047478675,1.6886866395230912e+18,110.59709098307292,-0.0161879289274413,-0.058897592127323,0.0098756545533736,,,,,,,,,,,,1.6886866395288847e+18,110.60288481445312,21.064519500732423,38.30799942016601,-21.19627914428711,1.6886866395288847e+18,110.60288481445312,-234.2814788818359,133.33379821777345,-153.92007751464843,1.688686639527419e+18,110.6014188639323,-0.240654096007347,0.019813032199939,-0.7298635840415955,0.6395248174667358,-1.7711326678593953,1.231737732887268,2.1470558643341064
5.65,1.688686639579331e+18,110.6533311360677,0.1825821002324422,-0.0628344217936197,-0.1130050023396809,1.688686639579331e+18,110.6533311360677,-0.482353150844574,-9.32901732126872,3.1509486039479575,1.688686639579331e+18,110.6533311360677,-0.6707812945048014,-9.24867820739746,3.2012662092844644,1.6886866395750062e+18,110.64900618489582,-0.0079921535216271,-0.036193765544643,-0.0362446717917918,1.6886866395750062e+18,110.64900618489582,-0.0090611679479479,-0.0316122767205039,-0.0339539274573325,,,,,,,,,,,,1.688686639578885e+18,110.65288515625,20.981560134887697,38.26895980834961,-21.11087989807129,1.688686639578885e+18,110.65288515625,-234.36443481445312,133.2947570800781,-153.83467712402344,1.688686639579331e+18,110.6533311360677,-0.239736388127009,0.018775771682461,-0.7306418021519979,0.6390120983123779,-1.7773518959681194,1.2308732668558755,2.1504482428232827
5.7,1.6886866396312433e+18,110.7052432454427,0.0847375690937042,0.0028870900472005,0.0067518552144368,1.6886866396312433e+18,110.7052432454427,-0.5802594820658366,-9.265607198079428,3.2640095551808677,1.6886866396312433e+18,110.7052432454427,-0.6708430846532186,-9.25098959604899,3.194570302963257,1.688686639626919e+18,110.7009187825521,0.0236201230436563,0.0805324018001556,-0.0070249505030612,1.688686639626919e+18,110.7009187825521,0.0226020142436026,0.0850629856189091,-0.0047342057029405,,,,,,,,,,,,1.6886866396288847e+18,110.70288491210938,20.74243927001953,37.963959503173825,-21.276799392700195,1.6886866396288847e+18,110.70288491210938,-234.60355529785156,132.98975524902343,-154.00060119628907,1.6886866396312433e+18,110.7052432454427,-0.2403927892446517,0.0200559788693984,-0.7306099732716879,0.6387626926104227,-1.7777921358744304,1.231580336888631,2.153693675994873
5.75,1.6886866396831557e+18,110.75715551757813,-0.0812222957611083,0.0358819961547851,0.0252095063527424,1.6886866396831557e+18,110.75715551757813,-0.7334001262982687,-9.233503659566244,3.2825539112091064,1.6886866396831557e+18,110.75715551757813,-0.6580238540967306,-9.251880963643393,3.19465700785319,1.6886866396788314e+18,110.75283113606773,-0.0102828983217477,0.0008653922316928,0.022907447690765,1.6886866396788314e+18,110.75283113606773,-0.0113519122824072,0.0054468824334132,0.0251981920252243,,,,,,,,,,,,1.6886866396788805e+18,110.75288041992188,20.935200119018553,38.49832000732422,-20.99619941711426,1.6886866396788805e+18,110.75288041992188,-234.41079711914065,133.52412109375,-153.7199951171875,1.6886866396831557e+18,110.75715551757813,-0.2410756697257359,0.0206469936917225,-0.7301461497942606,0.6390170256296793,-1.7739399274190266,1.2318532864252727,2.151693264643351
5.8,1.6886866397264102e+18,110.80041040039065,-0.0747740566730498,-0.019597053527832,-0.078607678413391,1.6886866397264102e+18,110.80041040039065,-0.7175476849079132,-9.28774118423462,3.1842488050460815,1.6886866397264102e+18,110.80041040039065,-0.6486196517944336,-9.25063943862915,3.200169086456299,1.6886866397307436e+18,110.80474357096357,-0.0096211277802164,-0.0490728418032327,0.0402662009000778,1.6886866397307436e+18,110.80474357096357,-0.0106901421240763,-0.0444913518925507,0.0426078500847021,,,,,,,,,,,,1.6886866397288827e+18,110.80288271484372,21.235319519042967,38.734999084472655,-21.14991989135742,1.6886866397288827e+18,110.80288271484372,-234.1106750488281,133.76079406738282,-153.87371826171875,1.6886866397264102e+18,110.80041040039065,-0.2406773418188095,0.0196230197325348,-0.7298459708690643,0.6395421922206879,-1.770776867866516,1.231473445892334,2.1464650630950928
5.85,1.6886866397696763e+18,110.84367659505207,0.0117230812708536,0.0301796595255533,0.0314766565958658,1.6886866397696763e+18,110.84367659505207,-0.6315057675043741,-9.238488833109535,3.2927234172821045,1.6886866397696763e+18,110.84367659505207,-0.6490748723347982,-9.251163800557457,3.198559363683065,1.6886866397826552e+18,110.85665551757812,0.0062104634319741,-0.0167478887985149,-0.0272853143202761,1.6886866397826552e+18,110.85665551757812,0.0051414491608738,-0.0122173049797614,-0.0249945692873248,,,,,,,,,,,,1.688686639778888e+18,110.852887890625,20.99131965637207,38.41291885375976,-21.2548397064209,1.688686639778888e+18,110.852887890625,-234.35467529296875,133.43871459960937,-153.9786376953125,1.6886866397696763e+18,110.84367659505207,-0.2399706840515136,0.0189501543839771,-0.7298796971638998,0.6397894819577535,-1.7710119883219402,1.2316340605417888,2.1446804205576577
5.9,1.6886866398215877e+18,110.89558740234376,0.0861611564954121,0.0092849731445312,0.0053024291992186,1.6886866398215877e+18,110.89558740234376,-0.5706882079442342,-9.25922679901123,3.264208873112997,1.6886866398215877e+18,110.89558740234376,-0.6626953879992167,-9.251007080078123,3.196219046910604,1.6886866398259187e+18,110.89991870117188,0.0075594575610011,0.0536034256219863,-0.0345138860866427,1.6886866398259187e+18,110.89991870117188,0.0064904431346803,0.0581849142909049,-0.0322231417521833,,,,,,,,,,,,1.6886866398288876e+18,110.9028876953125,20.913239669799804,38.371439361572264,-21.396360015869146,1.6886866398288876e+18,110.9028876953125,-234.43275451660156,133.3972381591797,-154.12015380859376,1.6886866398215877e+18,110.89558740234376,-0.2401424795389175,0.0195240372171004,-0.7303401231765747,0.639181931813558,-1.7752453883488972,1.2315858602523804,2.1500043074289956
5.95,1.688686639873497e+18,110.94749707031252,-0.0296870867411295,0.0158446629842122,0.0140994389851888,1.688686639873497e+18,110.94749707031252,-0.6869394977887472,-9.252646764119463,3.272982597351074,1.688686639873497e+18,110.94749707031252,-0.6630984346071879,-9.25098673502604,3.196195761362711,1.688686639869176e+18,110.94317610677084,-0.0026470827093968,-0.0007635822985321,0.0074321939609944,1.688686639869176e+18,110.94317610677084,-0.0036142859607934,0.0038179072240987,0.0097738439217209,,,,,,,,,,,,1.688686639878887e+18,110.95288681640623,21.086479568481444,38.542239379882815,-20.927879333496097,1.688686639878887e+18,110.95288681640623,-234.25951538085937,133.5680389404297,-153.65167541503905,1.688686639873497e+18,110.94749707031252,-0.240579292178154,0.0200307667255401,-0.7303406000137329,0.6390015681584676,-1.7753684918085737,1.2315795421600342,2.1515055497487388
6.0,1.688686639925413e+18,110.9994131673177,0.054422120253245,-0.0010217030843098,0.0048817793528238,1.688686639925413e+18,110.9994131673177,-0.5962116320927938,-9.268797556559244,3.267199993133545,1.688686639925413e+18,110.9994131673177,-0.6564797759056091,-9.2502711613973,3.1996308167775473,1.6886866399210844e+18,110.99508439127604,-0.0092647895216941,-0.0356338070705532,0.025503624541064,1.6886866399210844e+18,110.99508439127604,-0.010333803637574,-0.0310523168494303,0.0277943688755233,1.688686639927339e+18,111.00133911132812,0.0,0.4353449940681457,0.8706114888191223,6.36299991607666,0.0123568968847393,0.0,40.20000076293945,-122.7531545,49.1903754,1.6886866399288873e+18,111.0028873046875,21.274359512329102,38.57883834838867,-21.240199661254884,1.6886866399288873e+18,111.0028873046875,-234.07163696289064,133.6046356201172,-153.96399841308593,1.688686639925413e+18,110.9994131673177,-0.240065852801005,0.0190792040278513,-0.7301351229349772,0.639458417892456,-1.773171106974284,1.2313605546951294,2.1471757888793945
6.05,1.6886866399773253e+18,111.05132519531249,0.0189350446065266,0.0331471761067708,0.0089386304219563,1.6886866399773253e+18,111.05132519531249,-0.6283153295516968,-9.235098838806152,3.270589749018351,1.6886866399773253e+18,111.05132519531249,-0.6530963977177938,-9.250741322835283,3.198963721593221,1.6886866399730017e+18,111.04700162760416,0.0093666005413978,0.051159964253505,-0.0142026171088218,1.6886866399730017e+18,111.04700162760416,0.008297586464323,0.0556905486931403,-0.0119118723863114,,,,,,,,,,,,1.6886866399788854e+18,111.05288525390624,21.213359832763672,38.45928039550781,-20.830279922485353,1.6886866399788854e+18,111.05288525390624,-234.13263549804688,133.48507690429688,-153.5540771484375,1.6886866399773253e+18,111.05132519531249,-0.2404357691605885,0.0195061440269151,-0.7300057411193848,0.6394541263580322,-1.7721974452336628,1.2315043608347576,2.1473612785339355
6.1,1.6886866400292375e+18,111.10323746744793,-0.0850544969240824,0.0312827428181965,0.0659602483113606,1.6886866400292375e+18,111.10323746744793,-0.735194742679596,-9.236893653869627,3.3272198836008706,1.6886866400292375e+18,111.10323746744793,-0.6559862693150839,-9.25067170461019,3.1985722382863364,1.688686640024913e+18,111.09891300455728,-0.0016798794385977,0.0183768632511297,-0.0211257568250099,1.688686640024913e+18,111.09891300455728,-0.0027488936514904,0.0229583506782849,-0.0187332006171345,,,,,,,,,,,,1.6886866400288845e+18,111.10288471679686,20.63507957458496,38.24455947875977,-21.115759658813477,1.6886866400288845e+18,111.10288471679686,-234.7109161376953,133.27035827636718,-153.8395568847656,1.6886866400292375e+18,111.10323746744793,-0.2411790738503137,0.020427186662952,-0.730081578095754,0.6390589078267416,-1.7730886936187744,1.2314831415812175,2.150684038798014
6.15,1.6886866400811512e+18,111.1551513671875,0.1055412689844766,-0.0309594472249348,-0.1018297672271728,1.6886866400811512e+18,111.1551513671875,-0.5559324622154236,-9.296913782755531,3.1635109583536782,1.6886866400811512e+18,111.1551513671875,-0.6673197547594706,-9.248449643452965,3.2026533285776773,1.6886866400768246e+18,111.15082470703123,-0.0103338037927944,-0.0316631820363302,-0.0030034212395548,1.6886866400768246e+18,111.15082470703123,-0.0113519122824072,-0.0271325980623562,-0.0006108653033152,,,,,,,,,,,,1.688686640078885e+18,111.15288500976564,21.708679580688475,38.38119888305664,-21.08891944885254,1.688686640078885e+18,111.15288500976564,-233.63731384277344,133.40699768066406,-153.81271667480468,1.6886866400811512e+18,111.1551513671875,-0.2407961537440617,0.0198289398103952,-0.7304935057957967,0.6387513478597006,-1.7762317260106404,1.23080309232076,2.152416149775187
6.2,1.6886866401330586e+18,111.2070586751302,-0.0293811957041422,0.0381444295247395,0.0599160989125569,1.6886866401330586e+18,111.2070586751302,-0.6793622175852457,-9.228917439778646,3.3244282404581704,1.6886866401330586e+18,111.2070586751302,-0.6558270454406738,-9.249557177225748,3.20182474454244,1.6886866401287373e+18,111.20273738606772,0.0044796783477067,0.0147625763590136,0.0244855154305696,1.6886866401287373e+18,111.20273738606772,0.0034106643094369,0.0192931611090898,0.0267762597650289,1.688686640129e+18,111.203,0.0,0.4353449940681457,0.8173018097877502,6.3420000076293945,0.0113017074763774,0.0,40.20000076293945,-122.7531545,49.1903754,1.6886866401288824e+18,111.20288251953124,21.342679595947267,38.24211883544922,-21.386599731445312,1.6886866401288824e+18,111.20288251953124,-234.00331420898436,133.267919921875,-154.1103973388672,1.6886866401330586e+18,111.2070586751302,-0.2408567319313684,0.0197999794036149,-0.7300933599472046,0.6391867399215698,-1.772841850916545,1.2311420440673828,2.1490612824757895
6.25,1.68868664017632e+18,111.25032006835936,-0.0523119568824767,0.0519137382507323,0.0570677518844604,1.68868664017632e+18,111.25032006835936,-0.7019943594932556,-9.214460849761965,3.323630690574646,1.68868664017632e+18,111.25032006835936,-0.6555284261703491,-9.24886989593506,3.2038755416870117,1.6886866401806495e+18,111.25464973958331,-0.0091629788124312,-0.0093156949927409,-0.0251472860885162,1.6886866401806495e+18,111.25464973958331,-0.0102319928507009,-0.0047851111739873,-0.0228056349636365,,,,,,,,,,,,1.6886866401788826e+18,111.25288251953124,20.893719482421876,38.30555953979492,-21.17187957763672,1.6886866401788826e+18,111.25288251953124,-234.45227661132813,133.33135681152345,-153.8956787109375,1.68868664017632e+18,111.25032006835936,-0.2410525679588317,0.0198575025424361,-0.7300812900066376,0.6391249299049377,-1.7726256251335144,1.2309314012527466,2.1492221355438232
6.3,1.6886866402195858e+18,111.2935857747396,0.0144972602526346,-0.0386152267456054,-0.1212519804636637,1.6886866402195858e+18,111.2935857747396,-0.6496513684590658,-9.302895863850912,3.1483564376831055,1.6886866402195858e+18,111.2935857747396,-0.6699946522712708,-9.24677594502767,3.2069210211435952,1.6886866402325586e+18,111.30655843098958,-0.0051414492578866,-0.0413352139294147,0.0008653925421337,1.6886866402325586e+18,111.30655843098958,-0.0062104634513767,-0.036753725260496,0.003207042813301,,,,,,,,,,,,1.688686640228887e+18,111.30288686523438,20.886399841308595,38.26895980834961,-21.320719909667968,1.688686640228887e+18,111.30288686523438,-234.4595947265625,133.2947570800781,-154.04451904296874,1.6886866402195858e+18,111.2935857747396,-0.2407109687725702,0.0194324670980373,-0.7305975953737894,0.6386765440305074,-1.7767663796742756,1.2302921215693157,2.152263959248861
6.35,1.6886866402714944e+18,111.3454943033854,0.1020956834157307,-0.0011819203694661,0.0247774918874104,1.6886866402714944e+18,111.3454943033854,-0.5661019682884216,-9.265607515970864,3.293122132619222,1.6886866402714944e+18,111.3454943033854,-0.6740436752637228,-9.246920903523764,3.2056572437286377,1.6886866402758216e+18,111.34982165527344,0.0003054326225538,-0.0430659987032413,0.0012217306066304,1.6886866402758216e+18,111.34982165527344,-0.0006872233861941,-0.0384845100343227,0.0035124752903356,,,,,,,,,,,,1.688686640278888e+18,111.35288798828124,21.264599609375,38.434878540039065,-21.271919631958006,1.688686640278888e+18,111.35288798828124,-234.081396484375,133.46067810058594,-153.99571533203124,1.6886866402714944e+18,111.3454943033854,-0.2398955672979354,0.0186570255706707,-0.7307591040929159,0.6388216813405355,-1.778056025505066,1.23033607006073,2.1512288252512612
6.4,1.6886866403234035e+18,111.39740348307292,0.0535382429758707,0.0088316599527994,0.011794884999593,1.6886866403234035e+18,111.39740348307292,-0.6121638019879659,-9.255836804707846,3.279961585998535,1.6886866403234035e+18,111.39740348307292,-0.671548068523407,-9.247163772583008,3.205479303995768,1.6886866403190825e+18,111.39308268229166,0.0043778676723983,0.0470875284324089,-5.090543709226671e-05,1.6886866403190825e+18,111.39308268229166,0.0033597587219749,0.0516181122511624,0.0022907448001205,,,,,,,,,,,,1.6886866403288868e+18,111.40288686523438,21.08159942626953,38.58615951538086,-21.281679916381837,1.6886866403288868e+18,111.40288686523438,-234.26439514160157,133.6119598388672,-154.00547790527344,1.6886866403234035e+18,111.39740348307292,-0.2401278714338938,0.0189014102021852,-0.7306658228238424,0.6388338406880697,-1.7773220539093018,1.2304101785024006,2.151188532511393
6.45,1.6886866403753193e+18,111.4493192545573,-0.128603716691335,0.0671129226684569,0.0892078081766763,1.6886866403753193e+18,111.4493192545573,-0.786640445391337,-9.1986083984375,3.355933745702108,1.6886866403753193e+18,111.4493192545573,-0.6638827522595724,-9.24821662902832,3.2040385405222573,1.6886866403709898e+18,111.44498990885415,0.0041742459870874,0.014202616798381,0.0022907444896797,1.6886866403709898e+18,111.44498990885415,0.0031052317159871,0.0187332003066937,0.0045814894450207,,,,,,,,,,,,1.688686640378884e+18,111.452883984375,21.137719345092773,38.39583892822266,-21.332919311523437,1.688686640378884e+18,111.452883984375,-234.2082763671875,133.42163696289063,-154.0567169189453,1.6886866403753193e+18,111.4493192545573,-0.2407696346441904,0.019640315324068,-0.7303788661956787,0.6388982733090719,-1.7751185099283855,1.2307318846384685,2.1509909629821777
6.5,1.6886866404272335e+18,111.50123372395832,0.0012036363283792,-0.0022246042887369,0.0042821566263834,1.6886866404272335e+18,111.50123372395832,-0.6662017107009888,-9.2654078801473,3.27637243270874,1.6886866404272335e+18,111.50123372395832,-0.6732513705889384,-9.245678583780924,3.209402879079183,1.688686640422907e+18,111.49690673828124,-0.0168496997406084,-0.0354301842550436,-0.0113519124376276,1.688686640422907e+18,111.49690673828124,-0.0178678082302212,-0.03089960043629,-0.008908451690028,,,,,,,,,,,,1.6886866404288837e+18,111.5028838378906,21.096239471435545,38.53491897583008,-21.2450798034668,1.6886866404288837e+18,111.5028838378906,-234.249755859375,133.56072082519532,-153.96888122558593,1.6886866404272335e+18,111.50123372395832,-0.2404472877581913,0.018980928386251,-0.7307230234146118,0.6386459867159525,-1.7775832811991374,1.2299574216206868,2.1520471572875977
6.55,1.688686640479144e+18,111.55314396158852,0.0397326350212096,-0.0124565760294596,-0.0547029972076416,1.688686640479144e+18,111.55314396158852,-0.631106972694397,-9.274779637654625,3.219144026438395,1.688686640479144e+18,111.55314396158852,-0.676685631275177,-9.244818369547524,3.211159626642863,1.6886866404748155e+18,111.54881599934896,0.0020362174448867,-0.002545271650888,9.701233306264044e-12,1.6886866404748155e+18,111.54881599934896,0.0009672034454221,0.0019853119738399,0.0022907447419128,,,,,,,,,,,,1.6886866404788872e+18,111.55288706054688,20.827839660644532,38.50563888549805,-21.45491943359375,1.6886866404788872e+18,111.55288706054688,-234.51815490722657,133.53143920898438,-154.17871704101563,1.688686640479144e+18,111.55314396158852,-0.2402604420979817,0.0186770800501107,-0.73085089524587,0.6385790308316549,-1.7785001198450725,1.2296951214472454,2.1522558530171714
6.6,1.6886866405310492e+18,111.6050489908854,-0.0108145475387572,0.048570950826009,0.0929658412933349,1.6886866405310492e+18,111.6050489908854,-0.6797610322634379,-9.214760144551596,3.3643085956573486,1.6886866405310492e+18,111.6050489908854,-0.6747925082842509,-9.245826403299969,3.20865535736084,1.688686640526732e+18,111.60073193359376,0.0061595577669019,0.0348702234526474,-0.0067195176767805,1.688686640526732e+18,111.60073193359376,0.0050905437674373,0.039400807271401,-0.0044287729542701,,,,,,,,,,,,1.6886866405288824e+18,111.60288261718748,21.023039245605467,38.537359619140624,-21.115759658813477,1.6886866405288824e+18,111.60288261718748,-234.3229553222656,133.5631591796875,-153.83955993652344,1.6886866405310492e+18,111.6050489908854,-0.2405804594357808,0.0192145134011904,-0.7307709058125814,0.6385340094566345,-1.778092662493388,1.2300021251042683,2.153090794881185
