seconds_elapsed_rounded,accelerometer_time,accelerometer_seconds_elapsed,accelerometer_z,accelerometer_y,accelerometer_x,accelerometeruncalibrated_time,accelerometeruncalibrated_seconds_elapsed,accelerometeruncalibrated_z,accelerometeruncalibrated_y,accelerometeruncalibrated_x,gravity_time,gravity_seconds_elapsed,gravity_z,gravity_y,gravity_x,gyroscope_time,gyroscope_seconds_elapsed,gyroscope_z,gyroscope_y,gyroscope_x,gyroscopeuncalibrated_time,gyroscopeuncalibrated_seconds_elapsed,gyroscopeuncalibrated_z,gyroscopeuncalibrated_y,gyroscopeuncalibrated_x,location_time,location_seconds_elapsed,location_bearingAccuracy,location_speedAccuracy,location_verticalAccuracy,location_horizontalAccuracy,location_speed,location_bearing,location_altitude,location_longitude,location_latitude,magnetometer_time,magnetometer_seconds_elapsed,magnetometer_z,magnetometer_y,magnetometer_x,magnetometeruncalibrated_time,magnetometeruncalibrated_seconds_elapsed,magnetometeruncalibrated_z,magnetometeruncalibrated_y,magnetometeruncalibrated_x,orientation_time,orientation_seconds_elapsed,orientation_qz,orientation_qy,orientation_qx,orientation_qw,orientation_roll,orientation_pitch,orientation_yaw
0.0,1.688686558924959e+18,29.99895890299479,-0.0456149776776631,-0.0305496851603189,-0.0790389378865559,1.688686558924959e+18,29.99895890299479,-0.7870392402013143,-9.283753077189129,3.2053852876027427,1.688686558924959e+18,29.99895890299479,-0.7472702860832214,-9.235698699951172,3.2217368284861245,1.6886865589206351e+18,29.994635091145835,-0.0152207259088754,-0.0539088575169443,0.0211766610542932,1.6886865589206351e+18,29.994635091145835,-0.0161370231459537,-0.0494291788587967,0.023671028514703,1.688686558926357e+18,30.00035693359375,0.0,1.6254775524139404,0.9254102110862732,16.261999130249023,0.2861638069152832,13.711762428283691,40.20000076293945,-122.7531523,49.1903712,1.6886865589288824e+18,30.002882519531248,21.69647979736328,38.55931930541992,-20.844919967651368,1.6886865589288824e+18,30.002882519531248,-233.64951171875,133.58511657714843,-153.56871643066407,1.688686558924959e+18,29.99895890299479,-0.2320601294438043,0.0094026451309521,-0.7334837714831034,0.6387965877850851,-1.7987127701441448,1.2269295851389568,2.147061506907145
0.05,1.6886865589768763e+18,30.050876383463542,0.0591659148534138,0.0222590764363606,0.0002466837565103,1.6886865589768763e+18,30.050876383463542,-0.6861418883005778,-9.230113983154297,3.286143064498902,1.6886865589768763e+18,30.050876383463542,-0.751153826713562,-9.23486836751302,3.2232089837392173,1.688686558972551e+18,30.04655069986979,-0.0017816902448733,-0.018376862455625,-0.0089593570058544,1.688686558972551e+18,30.04655069986979,-0.0026470826996955,-0.0139480892879267,-0.0065158956373731,,,,,,,,,,,,1.688686558978886e+18,30.05288623046875,21.91851959228516,38.60811996459961,-20.52771987915039,1.688686558978886e+18,30.05288623046875,-233.4274749755859,133.63391723632813,-153.251513671875,1.6886865589768763e+18,30.050876383463542,-0.2313859214385349,0.0085623565440376,-0.7336291472117106,0.6388861536979675,-1.799755573272705,1.2266784111658733,2.145904858907064
0.1,1.6886865590287872e+18,30.102787353515623,-0.0771945516268411,-0.01490052541097,-0.0302738348642984,1.6886865590287872e+18,30.102787353515623,-0.8321040670077006,-9.266205787658691,3.256432215372721,1.6886865590287872e+18,30.102787353515623,-0.7607555389404297,-9.233800570170084,3.224018653233846,1.688686559024459e+18,30.098458984375,-0.0051923545349078,-0.0169515114588042,-0.0119118724639216,1.688686559024459e+18,30.098458984375,-0.0060068416642024,-0.0124718328782667,-0.0094175060900548,,,,,,,,,,,,1.68868655902888e+18,30.10288017578125,22.18447952270508,38.600799560546875,-20.591159439086915,1.68868655902888e+18,30.10288017578125,-233.16151123046876,133.62659606933593,-153.31495361328126,1.6886865590287872e+18,30.102787353515623,-0.2313239127397536,0.0085522489001353,-0.7339626351992289,0.6385255853335062,-1.8025225003560383,1.226356029510498,2.148576498031616
0.15,1.688686559080693e+18,30.15469303385417,-0.0136906107266744,0.0161616007486979,-0.2614593505859374,1.688686559080693e+18,30.15469303385417,-0.7980063557624817,-9.229914665222168,3.033102114995321,1.688686559080693e+18,30.15469303385417,-0.7901617685953776,-9.228571573893229,3.2318740685780845,1.6886865590763717e+18,30.150371744791663,-0.0463239476084708,-0.1936951900521914,-0.0201076477145154,1.6886865590763717e+18,30.150371744791663,-0.0471893393745024,-0.1892155036330222,-0.0176641869669158,,,,,,,,,,,,1.6886865590788828e+18,30.15288271484375,21.918519973754883,38.207959747314455,-20.552119064331055,1.6886865590788828e+18,30.15288271484375,-233.4274749755859,133.23375549316407,-153.27591857910156,1.688686559080693e+18,30.15469303385417,-0.2292756338914235,0.0059489457247157,-0.7350074847539266,0.6380897164344788,-1.8105756441752117,1.2247820297876997,2.1499005953470864
0.2,1.6886865591326126e+18,30.206612711588544,0.1485686699549357,-0.2695684432983398,-0.718120813369751,1.6886865591326126e+18,30.206612711588544,-0.6991030176480612,-9.506484985351562,2.586441914240519,1.6886865591326126e+18,30.206612711588544,-0.8535177111625671,-9.219411849975586,3.241875330607096,1.6886865591282872e+18,30.202287109374996,-0.065464391062657,-0.5027930041154226,0.0354301836341619,1.6886865591282872e+18,30.202287109374996,-0.0663297834495703,-0.4983642299969991,0.037873645623525,,,,,,,,,,,,1.688686559128882e+18,30.20288208007813,22.211319351196288,38.38607940673828,-19.97871971130371,1.688686559128882e+18,30.20288208007813,-233.13467712402343,133.41187744140626,-152.7025146484375,1.6886865591326126e+18,30.206612711588544,-0.2226568410793939,-0.0017033268619949,-0.7372186779975891,0.6378976702690125,-1.8282320499420168,1.2220383882522583,2.1468680699666343
0.25,1.688686559175872e+18,30.249871826171876,0.3650503158569336,-0.2002568244934081,-0.4769076108932495,1.688686559175872e+18,30.249871826171876,-0.50039903819561,-9.441479682922363,2.8106693029403687,1.688686559175872e+18,30.249871826171876,-0.8712953925132751,-9.223718166351318,3.2248895168304443,1.688686559180199e+18,30.25419840494791,0.0050905433793862,-0.5520694653193156,0.2261728545029957,1.688686559180199e+18,30.25419840494791,0.0042251516133546,-0.5476407110691071,0.2287181317806243,,,,,,,,,,,,1.6886865591788836e+18,30.2528833984375,22.818879318237304,38.30311889648438,-19.73472023010254,1.6886865591788836e+18,30.2528833984375,-232.5271148681641,133.32891540527345,-152.4585174560547,1.688686559175872e+18,30.249871826171876,-0.2134878113865852,-0.0107168066315352,-0.7377610802650452,0.6403198540210724,-1.8346773982048037,1.2233250737190249,2.126861333847046
0.3,1.6886865592191283e+18,30.293128499348956,0.34306267897288,-0.0353663762410481,0.0491451422373453,1.6886865592191283e+18,30.293128499348956,-0.4849453965822856,-9.290133794148764,3.307678540547689,1.6886865592191283e+18,30.293128499348956,-0.8338541189829508,-9.237262725830078,3.1958460013071694,1.688686559232112e+18,30.306112060546877,0.0483092591166496,-0.1735875457525253,0.1924225538969039,1.688686559232112e+18,30.306112060546877,0.0474947728216648,-0.1691587716341018,0.1948660115400949,,,,,,,,,,,,1.6886865592288873e+18,30.3028873046875,23.10435981750488,38.44708023071289,-19.22719955444336,1.6886865592288873e+18,30.3028873046875,-232.24163513183595,133.4728790283203,-151.9510009765625,1.6886865592191283e+18,30.293128499348956,-0.2062351306279499,-0.017112991772592,-0.7363467415173849,0.6441753705342611,-1.826016386349996,1.22740372021993,2.098308245340983
0.35,1.6886865592710444e+18,30.345044677734375,-0.045350690682729,0.127704620361328,0.2840351263682047,1.6886865592710444e+18,30.345044677734375,-0.806580642859141,-9.14197826385498,3.516053517659506,1.6886865592710444e+18,30.345044677734375,-0.7670759757359823,-9.252178192138672,3.1693309942881265,1.6886865592753713e+18,30.349371215820312,0.0673478953540324,0.1357648000121116,0.0628427602350711,1.6886865592753713e+18,30.349371215820312,0.0665079541504383,0.1401935741305351,0.0652862228453159,,,,,,,,,,,,1.688686559278886e+18,30.352886035156253,22.56511993408203,38.830159759521486,-19.117399978637696,1.688686559278886e+18,30.352886035156253,-232.78087463378907,133.85595703125,-151.84119567871093,1.6886865592710444e+18,30.345044677734375,-0.2048103908697763,-0.0173021691540876,-0.7340284188588461,0.6472668250401815,-1.8082590103149416,1.2319475412368774,2.0781055291493735
0.4,1.688686559322956e+18,30.39695621744792,-0.4129224022229512,0.0844128926595051,0.244533618291219,1.688686559322956e+18,30.39695621744792,-1.161117156346639,-9.193423906962076,3.455834070841471,1.688686559322956e+18,30.39695621744792,-0.7540407776832581,-9.260332107543944,3.1486130555470786,1.688686559318625e+18,30.392625,0.0461203257242837,0.0073812877138455,1.5522046611001392e-10,1.688686559318625e+18,30.392625,0.0452040284872054,0.011860966682434,0.0024943657529851,,,,,,,,,,,,1.6886865593288852e+18,30.402885351562496,22.628559112548828,38.79843978881836,-19.117399597167967,1.6886865593288852e+18,30.402885351562496,-232.717431640625,133.8242401123047,-151.84119873046876,1.688686559322956e+18,30.39695621744792,-0.2052564670642216,-0.0152844535186886,-0.733620802561442,0.6476391951243082,-1.8058600425720217,1.2344563404719036,2.07921568552653
0.45,1.6886865593748685e+18,30.44886832682292,-0.3479678034782409,0.0850219726562499,0.2157291571299234,1.6886865593748685e+18,30.44886832682292,-1.1068799098332722,-9.195019404093424,3.417947769165039,1.6886865593748685e+18,30.44886832682292,-0.7647581299146017,-9.262536684672035,3.139531215031942,1.6886865593705444e+18,30.444544514973956,-0.0165951720749338,-0.3049235691626866,0.0795651984711487,1.6886865593705444e+18,30.444544514973956,-0.0175114703985552,-0.3004947950442632,0.0820086585978666,,,,,,,,,,,,1.688686559378886e+18,30.452885888671876,22.35283966064453,38.98387832641602,-19.02467956542969,1.688686559378886e+18,30.452885888671876,-232.99315795898437,134.00967407226562,-151.74847717285155,1.6886865593748685e+18,30.44886832682292,-0.2013092140356699,-0.0189277703563371,-0.7339052160580953,0.6484540104866028,-1.8097359736760457,1.235138217608134,2.0720903873443604
0.5,1.6886865594267845e+18,30.500784261067707,-0.0928128163019815,0.110149065653483,0.0929296811421711,1.6886865594267845e+18,30.500784261067707,-0.8679963946342468,-9.165906270345053,3.3028929233551025,1.6886865594267845e+18,30.500784261067707,-0.7810296018918356,-9.258550643920898,3.1472758452097573,1.6886865594224576e+18,30.49645743815104,-0.0544688180088996,-0.4349869589010874,0.125481903553009,1.6886865594224576e+18,30.49645743815104,-0.0553851140042145,-0.430558184782664,0.1279762685298919,,,,,,,,,,,,1.688686559428883e+18,30.5028830078125,22.789599609375,39.10831832885742,-18.68307991027832,1.688686559428883e+18,30.5028830078125,-232.556396484375,134.13411865234374,-151.40687561035156,1.6886865594267845e+18,30.500784261067707,-0.1941306143999099,-0.0275067873299121,-0.7341970006624857,0.6500010291735331,-1.814043958981832,1.2339073816935222,2.0536423524220786
0.55,1.6886865594786918e+18,30.552691650390624,0.058385670185089,0.0281203587849934,0.1256571610768635,1.6886865594786918e+18,30.552691650390624,-0.7226324280103048,-9.244869550069174,3.343171993891398,1.6886865594786918e+18,30.552691650390624,-0.7868641217549642,-9.25548521677653,3.154827435811361,1.6886865594743672e+18,30.548366943359373,-0.0322231414417425,-0.2811507284641265,0.0757981967180966,1.6886865594743672e+18,30.548366943359373,-0.0331394399205843,-0.2767219543457031,0.0783434665451446,,,,,,,,,,,,1.6886865594788872e+18,30.552887109375,22.72615966796875,38.9716796875,-18.39759979248047,1.6886865594788872e+18,30.552887109375,-232.61983337402344,133.99747314453126,-151.12139587402345,1.6886865594786918e+18,30.552691650390624,-0.1882654726505278,-0.0346740322808424,-0.7340988715489706,0.6514979799588522,-1.8152257998784385,1.2329631646474202,2.0360215504964194
0.6,1.6886865595306066e+18,30.6046064453125,0.0459987918535868,0.0347668329874674,0.1302321751912434,1.6886865595306066e+18,30.6046064453125,-0.760917603969574,-9.235298792521158,3.3497522672017417,1.6886865595306066e+18,30.6046064453125,-0.8127624193827311,-9.25256093343099,3.156832695007324,1.6886865595262769e+18,30.60027677408854,-0.0004581489871876,-0.0122173049797614,-0.057319523145755,1.6886865595262769e+18,30.60027677408854,-0.0013235415099188,-0.0077885327239831,-0.0548251569271087,,,,,,,,,,,,1.6886865595288806e+18,30.602880712890624,22.857919692993164,39.13759918212891,-18.21948013305664,1.6886865595288806e+18,30.602880712890624,-232.48807678222656,134.16339416503905,-150.94327392578126,1.6886865595306066e+18,30.6046064453125,-0.1865864396095275,-0.0365204612414041,-0.7349092364311218,0.6509684522946676,-1.8227864106496177,1.232064922650655,2.03851048151652
0.65,1.6886865595825157e+18,30.656515625,-0.0983654657999674,0.037629763285319,0.0203145345052083,1.6886865595825157e+18,30.656515625,-0.9419745206832886,-9.229116757710775,3.2398818333943686,1.6886865595825157e+18,30.656515625,-0.8494550784428915,-9.249241828918455,3.1568799018859863,1.6886865595781916e+18,30.652191569010416,-0.003156137051216,-0.0403680106004079,-0.075543666879336,1.6886865595781916e+18,30.652191569010416,-0.0040724351662599,-0.0359392389655113,-0.0731002079943815,,,,,,,,,,,,1.6886865595788849e+18,30.652884814453124,23.29223976135254,38.92043914794922,-18.3634391784668,1.6886865595788849e+18,30.652884814453124,-232.0537567138672,133.946240234375,-151.0872375488281,1.6886865595825157e+18,30.656515625,-0.1867111176252364,-0.0360952218373616,-0.7362013459205627,0.649494489034017,-1.833649317423503,1.2310482263565063,2.0501859188079834
0.7,1.6886865596257736e+18,30.6997734375,0.1111733615398406,-0.0604896545410156,-0.0479838848114013,1.6886865596257736e+18,30.6997734375,-0.7651050388813019,-9.323334217071531,3.1740792989730835,1.6886865596257736e+18,30.6997734375,-0.8821244239807129,-9.24533987045288,3.159375786781311,1.6886865596300982e+18,30.704097981770833,-0.0226529197146494,-0.1797980070114135,0.0015271625791986,1.6886865596300982e+18,30.704097981770833,-0.023518311480681,-0.17526742319266,0.0040215297291676,,,,,,,,,,,,1.6886865596288824e+18,30.702882568359374,23.036039733886717,38.98875885009765,-18.085279846191405,1.6886865596288824e+18,30.702882568359374,-232.30995483398436,134.01455993652343,-150.80907592773437,1.6886865596257736e+18,30.6997734375,-0.1847949251532554,-0.038214923813939,-0.7372243106365204,0.6487604081630707,-1.8430715203285215,1.2298561334609983,2.0538055896759033
0.75,1.6886865596690378e+18,30.743037760416662,0.3382856845855713,-0.0068499247233073,0.0076495011647542,1.6886865596690378e+18,30.743037760416662,-0.5451647440592448,-9.268598238627115,3.2309087912241616,1.6886865596690378e+18,30.743037760416662,-0.8892964522043864,-9.244243621826172,3.160571893056234,1.688686559682016e+18,30.75601603190104,-0.011606439637641,-0.0291688156624634,0.0476474886139233,1.688686559682016e+18,30.75601603190104,-0.0125227374956011,-0.0247400434066851,0.050090951224168,,,,,,,,,,,,1.6886865596788849e+18,30.752884863281245,23.292240142822266,38.94483871459961,-18.026719665527345,1.6886865596788849e+18,30.752884863281245,-232.0537567138672,133.97063903808595,-150.75051879882812,1.6886865596690378e+18,30.743037760416662,-0.182674745718638,-0.0406650652488072,-0.7373414039611816,0.6490790446599325,-1.8450791041056316,1.2295221090316772,2.0492252508799234
0.8,1.6886865597209457e+18,30.794945556640627,0.0963233709335327,0.0394322077433267,-0.009182850519816,1.6886865597209457e+18,30.794945556640627,-0.7557331522305807,-9.223134676615397,3.2203404903411865,1.6886865597209457e+18,30.794945556640627,-0.8579025467236837,-9.245062192281088,3.1668359438578286,1.6886865597252777e+18,30.799277587890625,-0.0058032197412102,0.1204931735992431,0.0371100641787052,1.6886865597252777e+18,30.799277587890625,-0.0067195177543907,0.1249219477176666,0.0395535249263047,,,,,,,,,,,,1.6886865597288855e+18,30.802885449218753,23.118999481201172,38.92043914794922,-18.14871940612793,1.6886865597288855e+18,30.802885449218753,-232.22699584960935,133.94623413085938,-150.8725158691406,1.6886865597209457e+18,30.794945556640627,-0.1835847496986388,-0.0403658002614974,-0.7362720370292664,0.650053878625234,-1.8353511889775591,1.229771415392558,2.041237195332845
0.85,1.6886865597728612e+18,30.846861165364583,-0.1979399720827738,-0.0358603795369466,-0.0398884614308674,1.6886865597728612e+18,30.846861165364583,-1.0193424622217817,-9.29910691579183,3.19581405321757,1.6886865597728612e+18,30.846861165364583,-0.8272485136985779,-9.245741844177248,3.1730151176452637,1.6886865597685363e+18,30.842536621093753,-0.0040215294963369,0.0630718367950369,0.0273362196361024,1.6886865597685363e+18,30.842536621093753,-0.0049378275095174,0.0675006105254093,0.0298305867860713,,,,,,,,,,,,1.6886865597788828e+18,30.85288271484375,23.365439224243165,38.94483947753906,-18.17067947387695,1.6886865597788828e+18,30.85288271484375,-231.98055419921872,133.97063903808595,-150.89447631835938,1.6886865597728612e+18,30.846861165364583,-0.1854569365580876,-0.0389705499013264,-0.7352855801582336,0.6507242918014526,-1.8258341948191328,1.2299786806106567,2.036430915196737
0.9,1.688686559824769e+18,30.898768880208333,-0.0716620484987893,0.058816909790039,0.0802360375722249,1.688686559824769e+18,30.898768880208333,-0.8931210438410441,-9.204590479532875,3.315455198287964,1.688686559824769e+18,30.898768880208333,-0.827305018901825,-9.24590269724528,3.172531763712565,1.6886865598204475e+18,30.894447835286456,0.0035633805479543,-0.0172569428881008,-0.0089084515348076,1.6886865598204475e+18,30.894447835286456,0.0027997989576154,-0.0128281700114408,-0.0064140855586931,1.688686559822e+18,30.896000244140627,0.0,1.6254775524139404,0.8793948292732239,17.844999313354492,0.2696772515773773,21.198871612548828,40.20000076293945,-122.7531435,49.1903688,1.6886865598288852e+18,30.90288525390625,22.99943962097168,39.037559509277344,-18.168239974975585,1.6886865598288852e+18,30.90288525390625,-232.3465545654297,134.0633575439453,-150.89203796386718,1.688686559824769e+18,30.898768880208333,-0.1853326310714085,-0.0390721596777438,-0.7352820833524069,0.6507575710614523,-1.8258873224258425,1.230027675628662,2.0361571311950684
0.95,1.6886865598766856e+18,30.95068562825521,0.0619253714879353,0.0427548090616861,0.2213207085927327,1.6886865598766856e+18,30.95068562825521,-0.7852446436882019,-9.21834913889567,3.456432342529297,1.6886865598766856e+18,30.95068562825521,-0.8530160387357076,-9.24359925587972,3.17242423693339,1.6886865598723584e+18,30.94635815429687,0.0047851111739873,0.0442877300083636,-0.0826195230086644,1.6886865598723584e+18,30.94635815429687,0.0038688133160272,0.0487674083560704,-0.0801760653654733,,,,,,,,,,,,1.688686559878881e+18,30.952881103515622,23.158039855957032,38.86675872802734,-18.324399566650392,1.688686559878881e+18,30.952881103515622,-232.18795776367188,133.8925567626953,-151.04819946289064,1.6886865598766856e+18,30.95068562825521,-0.1857364823420842,-0.0384093212584654,-0.7362073858579,0.6496344606081644,-1.833466450373332,1.2293262084325154,2.045288403828939
1.0,1.6886865599285985e+18,31.002598307291667,0.0379356741905212,-0.0038153330485025,0.0053447882334391,1.6886865599285985e+18,31.002598307291667,-0.8271190126736959,-9.260024070739746,3.249851862589518,1.6886865599285985e+18,31.002598307291667,-0.8709007104237875,-9.238704045613606,3.1818196773529053,1.688686559924271e+18,30.99827115885417,-0.0169006052116552,0.0695877335965633,-0.0265217317889134,1.688686559924271e+18,30.99827115885417,-0.0177659972881276,0.0740165064732233,-0.0240782710413137,1.688686559926367e+18,31.000366943359374,0.0,0.8158785104751587,0.8817744851112366,18.583999633789062,0.2424006760120391,50.69325256347656,40.20000076293945,-122.7531194,49.190352,1.6886865599288817e+18,31.002881787109377,23.04579963684082,38.810639190673825,-18.22191925048828,1.6886865599288817e+18,31.002881787109377,-232.3001953125,133.83643493652343,-150.94571838378906,1.6886865599285985e+18,31.002598307291667,-0.1872745255629221,-0.0372743209203083,-0.7368846933046976,0.6484902302424113,-1.837966362635295,1.227838675181071,2.0536742210388184
1.05,1.6886865599805084e+18,31.05450838216146,0.098366379737854,-0.0304908752441406,0.1086911360422769,1.6886865599805084e+18,31.05450838216146,-0.7493522961934408,-9.28634516398112,3.3589247862497964,1.6886865599805084e+18,31.05450838216146,-0.8535646994908651,-9.238349596659342,3.1875462532043457,1.688686559976186e+18,31.050186197916663,0.0011199198391599,0.0295760591203967,0.0164424564378956,1.688686559976186e+18,31.050186197916663,0.0002545270447929,0.0340048316866158,0.0189368223655037,,,,,,,,,,,,1.688686559978886e+18,31.0528859375,23.07995948791504,39.054639434814455,-18.334159469604497,1.688686559978886e+18,31.0528859375,-232.2660369873047,134.08043823242187,-151.05795593261718,1.6886865599805084e+18,31.05450838216146,-0.1882314383983611,-0.0367808863520621,-0.7363097270329794,0.6488945086797079,-1.83243993918101,1.2277312676111858,2.050243695576986
1.1,1.688686560032422e+18,31.106421956380206,0.1208355029424031,0.0558411280314127,0.2030413150787353,1.688686560032422e+18,31.106421956380206,-0.6961119969685873,-9.202596346537272,3.4538400967915854,1.688686560032422e+18,31.106421956380206,-0.8227935234705607,-9.240932782491049,3.1881113847096763,1.6886865600280975e+18,31.10209757486979,0.0255036236097414,0.2691879471143086,0.0009672032610978,1.6886865600280975e+18,31.10209757486979,0.024638231533269,0.273616721232732,0.003410664309437,,,,,,,,,,,,1.6886865600288814e+18,31.10288134765625,23.38983917236328,38.75695877075195,-17.975479507446288,1.6886865600288814e+18,31.10288134765625,-231.9561553955078,133.7827575683594,-150.69927978515625,1.688686560032422e+18,31.106421956380206,-0.1912631491820016,-0.0336403064429759,-0.7353925903638204,0.6492142279942831,-1.8233650922775269,1.228515386581421,2.0500678221384683
1.15,1.6886865600756818e+18,31.149681884765624,-0.1133902072906493,0.1492342948913574,0.2253229618072509,1.6886865600756818e+18,31.149681884765624,-0.8799605369567871,-9.114261627197266,3.4740793704986572,1.6886865600756818e+18,31.149681884765624,-0.772416353225708,-9.245991230010986,3.1860690116882324,1.68868656008001e+18,31.154010009765624,0.0545706289509931,0.4734714726607005,-0.0435241491844256,1.68868656008001e+18,31.154010009765624,0.0536543317139148,0.4779002467791239,-0.0410297817240158,,,,,,,,,,,,1.688686560078886e+18,31.15288623046875,22.81399917602539,38.92043914794922,-18.656239318847657,1.688686560078886e+18,31.15288623046875,-232.53199462890623,133.94623718261718,-151.38003540039062,1.6886865600756818e+18,31.149681884765624,-0.197249911725521,-0.0271389670670032,-0.7339142262935638,0.6494008004665375,-1.8086429238319397,1.2300550937652588,2.053360939025879
1.2,1.688686560118942e+18,31.192941975911463,-0.2651408314704894,0.0897744496663411,0.2603263854980468,1.688686560118942e+18,31.192941975911463,-1.0023932854334514,-9.176475207010904,3.5080774625142417,1.688686560118942e+18,31.192941975911463,-0.7430984973907471,-9.24874496459961,3.185063680013021,1.6886865601319206e+18,31.20592041015625,0.0283543281257152,0.424042284488678,-0.1193732519944508,1.6886865601319206e+18,31.20592041015625,0.0274889363596835,0.4284710586071014,-0.1169297893842061,,,,,,,,,,,,1.6886865601288827e+18,31.202882568359374,22.311359786987303,38.95460052490235,-19.48339958190918,1.6886865601288827e+18,31.202882568359374,-233.03463439941407,133.98039855957032,-152.2072021484375,1.688686560118942e+18,31.192941975911463,-0.2041717320680618,-0.0195094756782054,-0.7331360777219137,0.6484092473983765,-1.8000043233235676,1.2308959166208904,2.06575616200765
1.25,1.6886865601708506e+18,31.244850748697917,-0.1884733041127523,0.1023626327514647,0.0816156864166259,1.6886865601708506e+18,31.244850748697917,-0.9206385016441344,-9.161320368448893,3.3379876613616943,1.6886865601708506e+18,31.244850748697917,-0.7380112210909525,-9.24617830912272,3.1936845779418945,1.6886865601751726e+18,31.24917248535156,0.0057268617674707,0.3717878609895706,-0.1232420615851878,1.6886865601751726e+18,31.24917248535156,0.0048105637542902,0.3762930035591125,-0.1207986027002334,,,,,,,,,,,,1.6886865601788828e+18,31.252882714843754,22.101519775390624,38.98387908935547,-19.48339958190918,1.6886865601788828e+18,31.252882714843754,-233.24447631835935,134.00968017578126,-152.2071990966797,1.6886865601708506e+18,31.244850748697917,-0.211590493718783,-0.0118425597126284,-0.7331241766611735,0.646228015422821,-1.7978936036427815,1.230112632115682,2.0855199495951333
1.3,1.6886865602227663e+18,31.296766276041662,0.0205938220024108,-0.0247243245442707,-0.0347213745117187,1.6886865602227663e+18,31.296766276041662,-0.7379863858222961,-9.282357215881348,3.2329028447469077,1.6886865602227663e+18,31.296766276041662,-0.7644262313842773,-9.24012819925944,3.2049368222554526,1.6886865602184417e+18,31.292441650390625,0.0003563380644967,0.2627229591210683,-0.1763364324967066,1.6886865602184417e+18,31.292441650390625,-0.0004581490065902,0.2671517332394917,-0.1738929748535155,,,,,,,,,,,,1.6886865602288847e+18,31.302884619140627,22.147879791259765,38.60811920166016,-19.96651954650879,1.6886865602288847e+18,31.302884619140627,-233.19811096191407,133.6339141845703,-152.69031982421876,1.6886865602227663e+18,31.296766276041662,-0.2173231194416681,-0.0059197794956465,-0.7341141899426779,0.6432785590489706,-1.804928143819173,1.2282719214757285,2.1095131238301597
1.35,1.68868656027468e+18,31.348680094401043,0.2724112768967946,-0.0706141789754231,-0.08571457862854,1.68868656027468e+18,31.348680094401043,-0.5160520871480306,-9.322636604309084,3.1908289591471353,1.68868656027468e+18,31.348680094401043,-0.794309397538503,-9.234517733256022,3.2138561407725015,1.6886865602703534e+18,31.34435343424479,0.0073812884899476,0.3447316189606984,-0.1502728511889775,1.6886865602703534e+18,31.34435343424479,0.0065158961030343,0.3491603930791219,-0.1476766740282376,,,,,,,,,,,,1.6886865602788828e+18,31.352882812500003,22.011240005493164,38.51539840698242,-20.28859939575195,1.6886865602788828e+18,31.352882812500003,-233.33475646972656,133.54119567871095,-153.01239929199218,1.68868656027468e+18,31.348680094401043,-0.2229108810424804,0.0001165950792104,-0.7351736028989156,0.6401736736297607,-1.8130905628204343,1.2265716791152954,2.134613513946533
1.4,1.6886865603265876e+18,31.400587727864583,0.2018821239471435,-0.0101197560628255,-0.0854038397471109,1.6886865603265876e+18,31.400587727864583,-0.5563312570254008,-9.262018203735352,3.198805093765259,1.6886865603265876e+18,31.400587727864583,-0.7640594045321146,-9.234393755594889,3.221521536509196,1.688686560322266e+18,31.39626595052083,0.0270816932121912,0.4668028652667999,-0.0871501068274179,1.688686560322266e+18,31.39626595052083,0.0262163002043962,0.4712825417518616,-0.0847066467007,,,,,,,,,,,,1.6886865603288827e+18,31.402882812500003,21.86727981567383,38.42511978149414,-20.1836799621582,1.6886865603288827e+18,31.402882812500003,-233.47872009277344,133.45091552734374,-152.90747680664063,1.6886865603265876e+18,31.400587727864583,-0.2310436467329661,0.0084697062460084,-0.7340742548306783,0.6384910742441813,-1.8036651611328125,1.2265342871348064,2.1491870085398355
1.45,1.6886865603784973e+18,31.452497395833337,-0.0681984225908915,-0.0174210866292317,-0.1117490927378336,1.6886865603784973e+18,31.452497395833337,-0.7728817264238993,-9.27099132537842,3.179861863454183,1.6886865603784973e+18,31.452497395833337,-0.7105293273925781,-9.236065546671549,3.2289235591888428,1.6886865603741745e+18,31.448174479166664,0.0148134819076706,0.5390376845995585,-0.0497855159143606,1.6886865603741745e+18,31.448174479166664,0.0138971845153719,0.5434664487838745,-0.0473420576502879,,,,,,,,,,,,1.6886865603788836e+18,31.452883447265624,21.179199600219725,38.405599212646486,-20.98155975341797,1.6886865603788836e+18,31.452883447265624,-234.166796875,133.431396484375,-153.70535583496093,1.6886865603784973e+18,31.452497395833337,-0.2403768350680668,0.0178787118444839,-0.7320435047149658,0.6371787587801615,-1.7873955567677815,1.227039098739624,2.1602447827657065
1.5,1.6886865604304148e+18,31.50441487630208,-0.3466057578722636,0.0312229792277018,-0.2440812587738036,1.6886865604304148e+18,31.50441487630208,-0.9956136147181192,-9.220143636067707,3.0656046072642007,1.6886865604304148e+18,31.50441487630208,-0.654853880405426,-9.233861923217772,3.2469984690348306,1.6886865604260856e+18,31.500085856119792,-0.0178169030696152,0.3231986264387766,-0.0216348109145958,1.6886865604260856e+18,31.500085856119792,-0.0187332009275753,0.3276783029238382,-0.0191404446959495,,,,,,,,,,,,1.6886865604288827e+18,31.502882666015623,21.523239135742188,38.43487930297851,-20.918119430541992,1.6886865604288827e+18,31.502882666015623,-233.82275390625,133.46068115234374,-153.6419189453125,1.6886865604304148e+18,31.50441487630208,-0.2483967343966165,0.024847388267517,-0.7299025853474935,0.6363337238629659,-1.7698072989781697,1.2263738711675007,2.1645940939585366
1.55,1.6886865604823268e+18,31.55632698567708,-0.1852843761444091,-0.0690202713012695,-0.2949825922648111,1.6886865604823268e+18,31.55632698567708,-0.8307082653045654,-9.31605593363444,3.0277182261149087,1.6886865604823268e+18,31.55632698567708,-0.6512699127197266,-9.229530970255531,3.2600134213765464,1.688686560478002e+18,31.552001953125,-0.0225002033015091,0.0909171092013517,-0.0542142894119024,1.688686560478002e+18,31.552001953125,-0.0234165014699101,0.0953458833197752,-0.0517199250559011,,,,,,,,,,,,1.6886865604788805e+18,31.552880517578124,20.520399856567384,38.10547866821289,-21.852639389038085,1.6886865604788805e+18,31.552880517578124,-234.82559509277343,133.13127746582032,-154.57643432617186,1.6886865604823268e+18,31.55632698567708,-0.2514278690020243,0.0272444368650515,-0.7296927173932394,0.6352872252464294,-1.767972985903422,1.2250686089197795,2.170754830042521
1.6,1.688686560525587e+18,31.59958703613281,-0.0134488046169281,-0.0760464668273925,-0.2472684383392333,1.688686560525587e+18,31.59958703613281,-0.6885347366333008,-9.320642471313477,3.0762726068496704,1.688686560525587e+18,31.59958703613281,-0.680931955575943,-9.227091312408447,3.26085364818573,1.6886865605299146e+18,31.603914388020836,0.0066686122057338,0.0222965807964404,-0.1151480997602144,1.6886865605299146e+18,31.603914388020836,0.0057523141925533,0.0267253542939821,-0.1126028299331664,,,,,,,,,,,,1.688686560528888e+18,31.60288798828125,20.464279174804688,38.007878112792966,-21.528118896484376,1.688686560528888e+18,31.60288798828125,-234.8817138671875,133.03367614746094,-154.25191650390624,1.688686560525587e+18,31.59958703613281,-0.2521433532238006,0.0284573417156933,-0.7306818068027496,0.6338122487068176,-1.7766575813293457,1.2243362665176392,2.182291626930237
1.65,1.688686560568847e+18,31.64284716796875,0.1496521035830179,-0.0673112869262695,-0.1087093353271484,1.688686560568847e+18,31.64284716796875,-0.5752744376659393,-9.309874534606934,3.2097721894582114,1.688686560568847e+18,31.64284716796875,-0.7307725747426351,-9.225058555603027,3.255794127782186,1.6886865605818253e+18,31.65582511393229,0.0040215295399926,-0.0043269620897868,-0.0719802901148795,1.6886865605818253e+18,31.65582511393229,0.0031052315801691,0.000101810398822,-0.0693841101601719,,,,,,,,,,,,1.688686560578887e+18,31.652886816406248,21.286559677124025,38.08351974487304,-21.498839569091796,1.688686560578887e+18,31.652886816406248,-234.05943603515624,133.10931396484375,-154.2226348876953,1.688686560568847e+18,31.64284716796875,-0.2516353825728098,0.0290413045634825,-0.7323950926462809,0.6320072611172994,-1.7915875514348347,1.2237258354822795,2.1973549524943032
1.7,1.6886865606207537e+18,31.69475349934896,0.2873761653900146,0.0953610738118489,0.0658000310262043,1.6886865606207537e+18,31.69475349934896,-0.4416751762231191,-9.146963119506836,3.384049415588379,1.6886865606207537e+18,31.69475349934896,-0.7348973949750265,-9.224819501241049,3.2555619875590005,1.688686560625091e+18,31.699090942382817,0.0061850106576456,0.1555415652692317,-0.0015271632000804,1.688686560625091e+18,31.699090942382817,0.0052687127608805,0.1600466929376125,0.00099265598692,,,,,,,,,,,,1.6886865606288873e+18,31.702887353515628,21.281679534912108,38.25431900024414,-21.679399490356445,1.6886865606288873e+18,31.702887353515628,-234.06431579589844,133.28011779785157,-154.4031982421875,1.6886865606207537e+18,31.69475349934896,-0.2526727716128031,0.0303264129906892,-0.7324866652488708,0.6314260164896647,-1.7928142547607422,1.2236541906992595,2.2019895712534585
1.75,1.6886865606726676e+18,31.746667805989585,-0.0305938522020975,0.020114262898763,-0.0044784545898437,1.6886865606726676e+18,31.746667805989585,-0.721037228902181,-9.2209415435791,3.3258241017659507,1.6886865606726676e+18,31.746667805989585,-0.6962894002596537,-9.223551114400228,3.2676151593526206,1.6886865606683482e+18,31.74234798177083,-0.011606439637641,0.2691879520813624,-0.0161370239414585,1.6886865606683482e+18,31.74234798177083,-0.0125227374956011,0.2736167212327321,-0.0136935627864052,,,,,,,,,,,,1.6886865606788884e+18,31.75288837890625,20.915679931640625,38.09571838378906,-22.14787940979004,1.6886865606788884e+18,31.75288837890625,-234.43031311035156,133.12151794433595,-154.87167663574218,1.6886865606726676e+18,31.746667805989585,-0.2573626736799876,0.0341947389145692,-0.7309712171554565,0.6310885747273763,-1.780752221743266,1.2232743501663208,2.202500104904175
1.8,1.6886865607245837e+18,31.79858357747396,-0.1888363758722941,-0.0303007761637369,-0.1432788372039794,1.6886865607245837e+18,31.79858357747396,-0.8669994274775187,-9.26760164896647,3.200200875600179,1.6886865607245837e+18,31.79858357747396,-0.6840090751647949,-9.219796180725098,3.280792315800985,1.688686560720259e+18,31.794258951822915,-0.0163915505011875,0.1145372359702984,-0.0398589571317036,1.688686560720259e+18,31.794258951822915,-0.0173078489800293,0.1189660020172595,-0.0373136854420105,,,,,,,,,,,,1.6886865607288847e+18,31.80288486328125,20.69119987487793,38.06887969970703,-22.106399536132812,1.6886865607288847e+18,31.80288486328125,-234.65479431152343,133.0946807861328,-154.8301971435547,1.6886865607245837e+18,31.79858357747396,-0.2609347800413766,0.0370905908445516,-0.73040242989858,0.6301184296607971,-1.7763452132542927,1.2221523920694988,2.2076378663380942
1.85,1.688686560776496e+18,31.850496012369792,0.0521902441978454,-0.0025221506754557,-0.1033718585968017,1.688686560776496e+18,31.850496012369792,-0.6584250330924988,-9.236295382181805,3.2430723508199057,1.688686560776496e+18,31.850496012369792,-0.7164613008499146,-9.216268539428713,3.2837568124135337,1.6886865607721718e+18,31.846171875,-0.0053450708898405,-0.0617991996308167,-0.0659734457731246,1.6886865607721718e+18,31.846171875,-0.0062104632767538,-0.0573704292376835,-0.0635299868881702,,,,,,,,,,,,1.6886865607788815e+18,31.852881640625004,20.74243927001953,38.06643905639648,-22.379679107666018,1.6886865607788815e+18,31.852881640625004,-234.60355529785156,133.09223327636718,-155.10347900390624,1.688686560776496e+18,31.850496012369792,-0.2606545190016429,0.0370643163720766,-0.7315350572268168,0.6289208928743998,-1.7856160799662273,1.2211013634999592,2.216498613357544
1.9,1.6886865608284068e+18,31.902406738281247,0.3227295180161794,0.0197795232137044,0.019367774327596,1.6886865608284068e+18,31.902406738281247,-0.4331008990605672,-9.211968421936035,3.3613175551096597,1.6886865608284068e+18,31.902406738281247,-0.7616764704386393,-9.214243253072103,3.27926238377889,1.6886865608240827e+18,31.898082845052084,-0.0006108653809254,-0.0834340130289394,-0.0709112733602523,1.6886865608240827e+18,31.898082845052084,-0.0015271630448599,-0.079005238910516,-0.0683660035332043,,,,,,,,,,,,1.688686560828885e+18,31.902885009765622,20.774159240722657,37.89563827514648,-22.138119506835935,1.688686560828885e+18,31.902885009765622,-234.57183532714845,132.92143859863282,-154.8619171142578,1.6886865608284068e+18,31.902406738281247,-0.2589238882064819,0.0361463849743207,-0.7331544756889343,0.6278024514516195,-1.7990231116612752,1.2204985618591309,2.2260359128316245
1.95,1.6886865608803213e+18,31.954321044921873,0.304664651552836,-0.11676820119222,-0.059532880783081,1.6886865608803213e+18,31.954321044921873,-0.4971089164415995,-9.340781847635904,3.293122132619222,1.6886865608803213e+18,31.954321044921873,-0.8076196114222208,-9.206508954366049,3.2899676163991294,1.688686560875992e+18,31.949992024739583,-0.0418442698816458,-0.0562505088746547,-0.083128577719132,1.688686560875992e+18,31.949992024739583,-0.0427096604059139,-0.0518217347562312,-0.0805833054085572,,,,,,,,,,,,1.6886865608788823e+18,31.952882275390625,21.34755935668945,37.98835906982422,-22.05027961730957,1.6886865608788823e+18,31.952882275390625,-233.9984375,133.0141571044922,-154.77407531738282,1.6886865608803213e+18,31.954321044921873,-0.2582826316356659,0.0352916754782199,-0.7347914377848307,0.6261993447939554,-1.8115161259969077,1.2182090679804485,2.2364184061686196
2.0,1.6886865609322353e+18,32.006235270182295,0.172862688700358,-0.0824540456136067,-0.1064811547597248,1.6886865609322353e+18,32.006235270182295,-0.623330314954122,-9.29890727996826,3.2685957749684653,1.6886865609322353e+18,32.006235270182295,-0.8020390272140503,-9.198948542277018,3.312389532725016,1.688686560927908e+18,32.001908203125,-0.060119322190682,-0.1393790841102599,0.1270090652008851,1.688686560927908e+18,32.001908203125,-0.0610356181859969,-0.1349503149588902,0.1294525278111298,1.688686560926387e+18,32.00038696289062,0.0,0.5541749000549316,0.8913578987121582,18.218000411987305,0.2418290227651596,63.48469161987305,40.20000076293945,-122.7531089,49.1903452,1.688686560928885e+18,32.002884863281245,21.64035987854004,37.71996002197265,-21.835559463500974,1.688686560928885e+18,32.002884863281245,-233.70563354492188,132.74575805664062,-154.55935974121093,1.6886865609322353e+18,32.006235270182295,-0.2570320665836334,0.0319467429071664,-0.7347503105799357,0.6269396742184957,-1.8083682854970295,1.215982476870219,2.2266045411427817
2.05,1.688686560975492e+18,32.0494921875,0.1104210317134857,0.1897082328796386,-0.1000370979309081,1.688686560975492e+18,32.0494921875,-0.6290132403373718,-9.025428295135498,3.29192578792572,1.688686560975492e+18,32.0494921875,-0.7452802956104279,-9.1976318359375,3.3292754888534546,1.6886865609798193e+18,32.053819091796875,-0.0475965837637583,0.0527889380852381,0.1420261710882186,1.6886865609798193e+18,32.053819091796875,-0.0484619761506716,0.0572177109618981,0.1444696287314096,,,,,,,,,,,,1.6886865609788828e+18,32.052882763671874,21.232879638671875,37.934679412841795,-21.801399612426756,1.6886865609788828e+18,32.052882763671874,-234.1131134033203,132.96047668457032,-154.5251953125,1.688686560975492e+18,32.0494921875,-0.2568366527557373,0.0294663263484835,-0.7328842282295227,0.6293226778507233,-1.791035294532776,1.2155964374542236,2.205356478691101
2.1,1.6886865610187525e+18,32.09275236002604,-0.3190248211224873,-0.0247141520182291,-0.1279845237731933,1.6886865610187525e+18,32.09275236002604,-0.9818548957506816,-9.238887468973797,3.282753308614095,1.6886865610187525e+18,32.09275236002604,-0.6686760981877645,-9.19666862487793,3.3480504353841147,1.688686561031728e+18,32.105727945963544,-0.0100283709665139,0.2517273873090744,0.1213585635026295,1.688686561031728e+18,32.105727945963544,-0.0109446689796944,0.2561561514933904,0.1238529259959856,,,,,,,,,,,,1.688686561028883e+18,32.102882861328126,20.930319595336915,37.95419921875,-22.11371955871582,1.688686561028883e+18,32.102882861328126,-234.41567993164065,132.97999572753906,-154.83751831054687,1.6886865610187525e+18,32.09275236002604,-0.2600453694661458,0.0304734595119952,-0.7301733096440634,0.6311030387878418,-1.7679318189620972,1.2153145869572957,2.188455899556478
2.15,1.6886865610706616e+18,32.144661539713546,-0.5505627393722534,0.0227286020914713,-0.1970100402832031,1.6886865610706616e+18,32.144661539713546,-1.1443674166997273,-9.195218722025553,3.2165517807006836,1.6886865610706616e+18,32.144661539713546,-0.5996507008870443,-9.200442632039389,3.350874423980713,1.6886865610836406e+18,32.157640462239584,0.0401643899579842,0.1456913637618223,-0.0535525195300579,1.6886865610836406e+18,32.157640462239584,0.0392480914791424,0.1501201366384823,-0.0511090575406948,,,,,,,,,,,,1.6886865610788874e+18,32.15288740234375,20.45451965332031,38.24455947875977,-22.61879997253418,1.6886865610788874e+18,32.15288740234375,-234.8914764404297,133.27035522460938,-155.34259338378905,1.6886865610706616e+18,32.144661539713546,-0.2644202411174774,0.034177716821432,-0.7275956273078918,0.6320732235908508,-1.7478835582733154,1.216422160466512,2.180241425832113
2.2,1.6886865611225766e+18,32.196576660156246,-0.4246839483578999,-0.0652964909871419,-0.0551374753316243,1.6886865611225766e+18,32.196576660156246,-1.066201905409495,-9.290333112080893,3.3298121293385825,1.6886865611225766e+18,32.196576660156246,-0.6473639806111654,-9.207531929016112,3.3222622076670327,1.6886865611269043e+18,32.200904296874995,0.0845284797251224,-0.0965930689126252,-0.1702023223042488,1.6886865611269043e+18,32.200904296874995,0.0836121775209903,-0.0920879375189542,-0.1676825135946273,,,,,,,,,,,,1.6886865611288868e+18,32.20288676757813,20.722919464111328,37.8492790222168,-22.72859916687012,1.6886865611288868e+18,32.20288676757813,-234.62307739257812,132.8750762939453,-155.4523956298828,1.6886865611225766e+18,32.196576660156246,-0.2640856405099233,0.0368461112181345,-0.729134758313497,0.6302865346272787,-1.7632651726404829,1.2185118198394775,2.1989738941192627
2.25,1.6886865611744873e+18,32.24848738606771,0.1661695341269175,0.0137939453125,0.3192636966705322,1.6886865611744873e+18,32.24848738606771,-0.6235297123591105,-9.21695327758789,3.655634800593058,1.6886865611744873e+18,32.24848738606771,-0.7955452799797058,-9.213242530822754,3.273683706919352,1.6886865611701637e+18,32.24416357421875,0.0820086573561032,-0.3286963999271393,-0.2365575631459553,1.6886865611701637e+18,32.24416357421875,0.0811432674527167,-0.3242676258087158,-0.2340122958024342,,,,,,,,,,,,1.6886865611788818e+18,32.2528818359375,21.379279708862303,37.83219985961914,-21.89167938232422,1.6886865611788818e+18,32.2528818359375,-233.96671447753903,132.85799865722657,-154.615478515625,1.6886865611744873e+18,32.24848738606771,-0.2577480971813202,0.0357607007026672,-0.7343476414680481,0.6269063154856364,-1.8092022339502971,1.2202024857203166,2.233932892481486
2.3,1.6886865612263985e+18,32.30039819335938,0.7968080242474874,0.1561619440714517,0.5300753911336263,1.6886865612263985e+18,32.30039819335938,-0.1062812084952989,-9.074181556701658,3.838286876678467,1.6886865612263985e+18,32.30039819335938,-0.908935288588206,-9.212838808695476,3.2455240885416665,1.6886865612220764e+18,32.296076334635416,0.0284561388349781,-0.0954985978702704,-0.1277217442790666,1.6886865612220764e+18,32.296076334635416,0.0275907466032852,-0.0910189238687356,-0.1252273793021837,,,,,,,,,,,,1.6886865612288837e+18,32.302883300781254,22.155199432373045,37.88099975585938,-21.579359436035155,1.6886865612288837e+18,32.302883300781254,-233.1907958984375,132.90679626464845,-154.30315856933595,1.6886865612263985e+18,32.30039819335938,-0.253039022286733,0.034301247447729,-0.738343874613444,0.6242135564486185,-1.843865712483724,1.220081647237142,2.2595413525899253
2.35,1.6886865612783124e+18,32.352312500000004,0.3380820552508036,0.1156994501749674,0.2225309213002522,1.6886865612783124e+18,32.352312500000004,-0.5108676354090372,-9.111270268758137,3.5547374884287515,1.6886865612783124e+18,32.352312500000004,-0.8547957340876261,-9.209465026855469,3.2695191701253257,1.6886865612739858e+18,32.347985758463544,-0.0340557371576626,0.3635666370391845,0.0888299886137246,1.6886865612739858e+18,32.347985758463544,-0.0349211301654576,0.3680463135242462,0.0912734512239694,,,,,,,,,,,,1.6886865612788854e+18,32.352885498046874,21.825799560546876,37.96883926391602,-22.033199310302734,1.6886865612788854e+18,32.352885498046874,-233.52019653320312,132.99463806152343,-154.75699462890626,1.6886865612783124e+18,32.352312500000004,-0.257891317208608,0.0372291343907514,-0.7363285422325134,0.6244327624638876,-1.8265321652094524,1.2190815210342407,2.2536749839782715
2.4,1.6886865613302218e+18,32.404221923828125,-0.3618632356325785,-0.0381390253702799,-0.0847510496775308,1.6886865613302218e+18,32.404221923828125,-1.0835498571395874,-9.262616157531738,3.2851460774739585,1.6886865613302218e+18,32.404221923828125,-0.7275326450665792,-9.206972440083822,3.307209730148315,1.6886865613258964e+18,32.399896240234376,-0.0487165028850236,0.3450370530287425,0.1221221461892127,1.6886865613258964e+18,32.399896240234376,-0.0495818965137004,0.3494658271471659,0.1245656013488769,,,,,,,,,,,,1.6886865613288814e+18,32.40288149414063,20.35203971862793,37.844400024414064,-22.36747932434082,1.6886865613288814e+18,32.40288149414063,-234.99395446777345,132.87019958496094,-155.09127502441407,1.6886865613302218e+18,32.404221923828125,-0.266242762406667,0.0418997506300607,-0.7316596110661825,0.6261217594146729,-1.787351369857788,1.2183452447255452,2.23368247350057
2.45,1.6886865613821366e+18,32.45613655598958,-0.4706427852312724,0.0250552495320638,-0.2289121150970458,1.6886865613821366e+18,32.45613655598958,-1.14117697874705,-9.19162940979004,3.173480987548828,1.6886865613821366e+18,32.45613655598958,-0.6763802170753479,-9.199179967244469,3.3397057056427,1.6886865613778132e+18,32.451813313802084,-0.0618501069645086,0.070351315041383,0.0194967842350403,1.6886865613778132e+18,32.451813313802084,-0.0627154981096585,0.0747800879180431,0.021940242499113,,,,,,,,,,,,1.6886865613788828e+18,32.452882666015626,20.42279930114746,37.995679473876955,-22.735919189453124,1.6886865613788828e+18,32.452882666015626,-234.9231964111328,133.02147827148437,-155.459716796875,1.6886865613821366e+18,32.45613655598958,-0.2702076733112335,0.0430660359561443,-0.7298088669776917,0.6265077193578085,-1.7706308762232463,1.216052532196045,2.224617083867391
2.5,1.6886865614253988e+18,32.49939868164063,-0.302449882030487,-0.0946779251098632,-0.3148249387741089,1.6886865614253988e+18,32.49939868164063,-1.0157532393932345,-9.303294658660889,3.100799083709717,1.6886865614253988e+18,32.49939868164063,-0.7191493809223175,-9.191112041473389,3.352936625480652,1.6886865614297275e+18,32.5037275390625,-0.0268780710175633,-0.191913495461146,-0.1024217382073401,1.6886865614297275e+18,32.5037275390625,-0.0277943685650824,-0.1874847263097762,-0.0998255610466002,,,,,,,,,,,,1.6886865614288837e+18,32.50288334960938,20.61311912536621,37.690679931640624,-22.69687957763672,1.6886865614288837e+18,32.50288334960938,-234.73287353515624,132.7164794921875,-155.4206756591797,1.6886865614253988e+18,32.49939868164063,-0.2691277712583542,0.0414955411106347,-0.7313913106918335,0.6252312660217285,-1.782085657119751,1.2136918902397156,2.2322617769241333
2.55,1.6886865614686518e+18,32.542651936848955,0.1470042069753011,-0.0813706715901692,-0.0642038186391194,1.6886865614686518e+18,32.542651936848955,-0.6490531464417776,-9.286544799804688,3.3419756094614663,1.6886865614686518e+18,32.542651936848955,-0.8019033869107565,-9.18766943613688,3.343492031097412,1.688686561481636e+18,32.55563614908854,0.0266744485124944,-0.2207259734471638,-0.131183311343193,1.688686561481636e+18,32.55563614908854,0.0258090567464629,-0.2162462919950484,-0.1287398512164751,,,,,,,,,,,,1.6886865614788818e+18,32.552881640625,21.306079483032228,37.55647964477539,-22.577320098876953,1.6886865614788818e+18,32.552881640625,-234.0399139404297,132.582275390625,-155.30111694335938,1.6886865614686518e+18,32.542651936848955,-0.2651346226533254,0.038974809149901,-0.7344066699345907,0.6235602895418803,-1.806200663248698,1.2126890420913696,2.246820052464803
2.6,1.6886865615205663e+18,32.59456616210937,0.5023762186368307,0.1083987553914387,0.2508910497029621,1.6886865615205663e+18,32.59456616210937,-0.3680958847204844,-9.096116065979004,3.640280803044637,1.6886865615205663e+18,32.59456616210937,-0.8763181567192078,-9.187010129292808,3.326702356338501,1.6886865615335465e+18,32.60754663085938,0.0111991955588261,0.0704022208228707,-0.0808378346264361,1.6886865615335465e+18,32.60754663085938,0.0102828983217477,0.0748818994470638,-0.0783943732579548,,,,,,,,,,,,1.6886865615288827e+18,32.6028826171875,21.779439544677736,37.524758911132814,-22.372359848022462,1.6886865615288827e+18,32.6028826171875,-233.5665557861328,132.55055541992186,-155.09615783691407,1.6886865615205663e+18,32.59456616210937,-0.2623839676380157,0.0383256934583186,-0.7370195984840393,0.6216811537742615,-1.8283788760503132,1.212496638298035,2.2639997005462646
2.65,1.688686561572482e+18,32.64648209635416,0.2059863209724426,-0.0165255864461262,0.0719986756642659,1.688686561572482e+18,32.64648209635416,-0.657826821009318,-9.218548774719238,3.469991683959961,1.688686561572482e+18,32.64648209635416,-0.8696591655413309,-9.184518496195476,3.335305611292521,1.688686561576809e+18,32.65080895996094,-0.0229074470698832,0.1150717400014399,0.0515417531132697,1.688686561576809e+18,32.65080895996094,-0.0238237446174024,0.1195005141198635,0.0539852157235145,,,,,,,,,,,,1.6886865615788818e+18,32.6528818359375,21.755039596557616,37.419839477539064,-22.465079498291015,1.6886865615788818e+18,32.6528818359375,-233.59095458984376,132.4456359863281,-155.18887939453126,1.688686561572482e+18,32.64648209635416,-0.264473299185435,0.039999771863222,-0.7367004752159119,0.6210680405298868,-1.8258777856826784,1.211772322654724,2.2670694986979165
2.7,1.6886865616243896e+18,32.698389648437505,-0.000922679901123,-0.0034567515055338,-0.085358699162801,1.6886865616243896e+18,32.698389648437505,-0.8087740540504456,-9.204790115356444,3.328615744908651,1.6886865616243896e+18,32.698389648437505,-0.8136973977088928,-9.183828671773275,3.351287047068278,1.68868656162007e+18,32.69407006835937,-0.0227547303463021,0.0947350189089775,0.0795142923792203,1.68868656162007e+18,32.69407006835937,-0.023671028514703,0.099163790543874,0.0819577525059381,,,,,,,,,,,,1.6886865616288832e+18,32.702883203125,21.105999374389647,37.74435958862305,-22.4406795501709,1.6886865616288832e+18,32.702883203125,-234.2399932861328,132.77015686035156,-155.1644775390625,1.6886865616243896e+18,32.698389648437505,-0.2669217884540557,0.0406624128421147,-0.7347258925437927,0.6223154862721761,-1.8090056975682576,1.211572249730428,2.2547895908355713
2.75,1.688686561676303e+18,32.75030297851563,-0.0716797510782877,-0.0372778574625651,-0.1020758152008056,1.688686561676303e+18,32.75030297851563,-0.8532406687736511,-9.23968537648519,3.315255800882975,1.688686561676303e+18,32.75030297851563,-0.7874069412549337,-9.184902826944986,3.354644219080607,1.6886865616719808e+18,32.74598079427083,0.0092138843610882,0.1001309975981711,-0.004734205858161,1.6886865616719808e+18,32.74598079427083,0.0082975864255179,0.104559764266014,-0.002290744955341,,,,,,,,,,,,1.688686561678885e+18,32.75288515625,21.101119232177737,37.57843933105469,-22.867679595947266,1.688686561678885e+18,32.75288515625,-234.2448760986328,132.60423889160157,-155.5914794921875,1.688686561676303e+18,32.75030297851563,-0.2686259448528289,0.0419516203304131,-0.7337408463160197,0.6226587096850077,-1.8013618389765422,1.2118842999140422,2.251545508702596
2.8,1.6886865617282168e+18,32.802216796875,-0.2302901148796081,0.0552040735880533,-0.0521637598673502,1.6886865617282168e+18,32.802216796875,-1.0241280595461528,-9.146963437398275,3.362912813822428,1.6886865617282168e+18,32.802216796875,-0.7996839682261149,-9.184662818908691,3.352389176686605,1.6886865617238986e+18,32.7978984375,0.0056505034056802,0.0549778714776039,-0.0715221390128135,1.6886865617238986e+18,32.7978984375,0.0047342057029406,0.0594066437333822,-0.0690786764025687,,,,,,,,,,,,1.6886865617288827e+18,32.802882714843754,20.661919784545898,37.46131896972656,-22.938439559936523,1.6886865617288827e+18,32.802882714843754,-234.68407592773437,132.48712158203125,-155.66223754882813,1.6886865617282168e+18,32.802216796875,-0.2700783610343933,0.044059441735347,-0.7340437769889832,0.6215270161628723,-1.8049777348836265,1.2118141651153564,2.260415315628052
2.85,1.6886865617801306e+18,32.85413053385417,-0.091381827990214,-0.0106871922810872,-0.0552972952524821,1.6886865617801306e+18,32.85413053385417,-0.9172486662864684,-9.209376017252604,3.3615170319875083,1.6886865617801306e+18,32.85413053385417,-0.8317128618558248,-9.18118413289388,3.3541269302368164,1.6886865617758065e+18,32.849806396484375,-0.0180714301144082,-0.1554652030269304,-0.0027997989673167,1.6886865617758065e+18,32.849806396484375,-0.0189877276619274,-0.151036428908507,-0.0003054326710601,,,,,,,,,,,,1.6886865617788777e+18,32.85287778320312,21.149919509887695,37.583319091796874,-22.74323959350586,1.6886865617788777e+18,32.85287778320312,-234.19607543945312,132.60911560058594,-155.4670379638672,1.6886865617801306e+18,32.85413053385417,-0.26846777399381,0.0425739648441473,-0.7352417707443237,0.6209108432133993,-1.8138764301935832,1.2108064889907837,2.264789581298828
2.9,1.6886865618320415e+18,32.90604191080729,0.2046125531196594,-0.0056180953979492,0.1742122968037922,1.6886865618320415e+18,32.90604191080729,-0.645663301150004,-9.203593571980797,3.5868411858876548,1.6886865618320415e+18,32.90604191080729,-0.8561218778292338,-9.180470784505207,3.3499414920806885,1.688686561827716e+18,32.901716064453126,0.003767002451544,-0.1316923635701337,0.002952515380457,1.688686561827716e+18,32.901716064453126,0.0029016097541898,-0.1272635906934737,0.0053959762056668,,,,,,,,,,,,1.688686561828883e+18,32.902882763671876,21.406119537353515,37.47351913452148,-22.582199478149413,1.688686561828883e+18,32.902882763671876,-233.93987426757812,132.49931640625,-155.30599365234374,1.6886865618320415e+18,32.90604191080729,-0.2654017806053161,0.0396975154678026,-0.736248771349589,0.6212272842725118,-1.8210227886835737,1.2106001377105713,2.2631848653157554
2.95,1.6886865618752988e+18,32.94929870605469,0.1248142123222351,0.0542330741882324,0.2866982221603393,1.6886865618752988e+18,32.94929870605469,-0.7277171909809113,-9.145069122314451,3.695116400718689,1.6886865618752988e+18,32.94929870605469,-0.8583774268627167,-9.181797504425049,3.345730781555176,1.6886865618796306e+18,32.953630289713544,0.0198022151986757,0.0691295837362606,-0.0172060380379358,1.6886865618796306e+18,32.953630289713544,0.0188859167198339,0.0736092614630857,-0.0147116718192894,,,,,,,,,,,,1.6886865618788818e+18,32.952881835937504,21.74771957397461,37.676039123535155,-22.574879455566407,1.6886865618788818e+18,32.952881835937504,-233.59827880859376,132.70183410644532,-155.29867858886718,1.6886865618752988e+18,32.94929870605469,-0.2652857601642608,0.0399362985044717,-0.7363140881061554,0.621184378862381,-1.8219576478004451,1.2109838724136353,2.2642849683761597
3.0,1.688686561918563e+18,32.99256290690104,0.0142375429471333,0.0336039861043293,0.1678280035654703,1.688686561918563e+18,32.99256290690104,-0.8291130463282267,-9.16770108540853,3.573082447052002,1.688686561918563e+18,32.99256290690104,-0.8491966128349304,-9.18380037943522,3.342567046483358,1.6886865619315418e+18,33.00554207356771,0.0229583512991666,0.0724893411000569,0.0195476879986623,1.6886865619315418e+18,33.00554207356771,0.02204205468297,0.0769181152184803,0.0219911487462619,1.688686561926403e+18,33.00040307617188,0.0,0.593427300453186,0.901735246181488,17.746000289916992,0.2222830653190612,64.00846862792969,40.20000076293945,-122.7531105,49.1903443,1.688686561928883e+18,33.002882861328125,21.681839752197263,37.705319213867185,-22.57243957519531,1.688686561928883e+18,33.002882861328125,-233.6641540527344,132.7311218261719,-155.29623718261718,1.688686561918563e+18,32.99256290690104,-0.2663530806700389,0.0412976332008838,-0.7359210650126139,0.6211042404174805,-1.819606065750122,1.2115644216537476,2.2654881477355957
3.05,1.6886865619704753e+18,33.04447526041667,0.0471041401227315,0.1012039184570312,0.1751010417938232,1.6886865619704753e+18,33.04447526041667,-0.7704888979593912,-9.104291598002115,3.575275739034017,1.6886865619704753e+18,33.04447526041667,-0.8234390616416931,-9.18799082438151,3.33748730023702,1.6886865619834427e+18,33.057442626953126,0.0119627779349684,0.1318959866960843,0.0035124753291408,1.6886865619834427e+18,33.057442626953126,0.0110464799799955,0.1363247608145077,0.0060068420134484,,,,,,,,,,,,1.688686561978883e+18,33.052883349609374,21.55007972717285,37.585758972167966,-22.389439392089844,1.688686561978883e+18,33.052883349609374,-233.79591369628903,132.61156005859374,-155.1132385253906,1.6886865619704753e+18,33.04447526041667,-0.2677964568138122,0.0429680769642193,-0.7349326411883036,0.6215400298436483,-1.8127077023188272,1.2127814292907717,2.263129790623983
3.1,1.6886865620223836e+18,33.0963837890625,-0.0997002720832824,0.0895306269327799,-0.0170057614644368,1.6886865620223836e+18,33.0963837890625,-0.8973084886868795,-9.115457852681478,3.3894333044687905,1.6886865620223836e+18,33.0963837890625,-0.8034542401631674,-9.18748378753662,3.3437516689300537,1.6886865620267151e+18,33.10071508789062,-0.0155007056891917,0.1220966950058936,-0.0075594571244437,1.6886865620267151e+18,33.10071508789062,-0.0164170037023722,0.1265254653990268,-0.0050396381411701,,,,,,,,,,,,1.6886865620288865e+18,33.10288637695312,21.267039489746093,37.7614387512207,-22.85791931152344,1.6886865620288865e+18,33.10288637695312,-234.078955078125,132.78723754882813,-155.58171691894532,1.6886865620223836e+18,33.0963837890625,-0.2703177730242411,0.0450983146826425,-0.734111467997233,0.6212681333223978,-1.8066293795903523,1.2126338879267375,2.26391871770223
3.15,1.6886865620742994e+18,33.14829939778645,-0.3057720263799031,-0.0872583389282226,-0.3364005883534749,1.6886865620742994e+18,33.14829939778645,-1.0893325010935466,-9.288538614908854,3.083550771077474,1.6886865620742994e+18,33.14829939778645,-0.7894064982732137,-9.183775583902994,3.357263962427775,1.6886865620699745e+18,33.14397452799479,-0.0391462817788123,-0.0673987989624341,0.0508545314272244,1.6886865620699745e+18,33.14397452799479,-0.0400625790158907,-0.0629191187520821,0.0532979940374692,,,,,,,,,,,,1.6886865620788892e+18,33.1528890625,20.803439712524415,37.76631851196289,-22.733479309082032,1.6886865620788892e+18,33.1528890625,-234.5425567626953,132.7921142578125,-155.4572784423828,1.6886865620742994e+18,33.14829939778645,-0.2710871299107869,0.0446800515055656,-0.7336486379305521,0.6215094923973083,-1.801750580469767,1.211557149887085,2.259603500366211
3.2,1.688686562126212e+18,33.20021215820312,-0.0125505328178405,-0.0718901952107747,-0.1446025371551513,1.688686562126212e+18,33.20021215820312,-0.8097710609436035,-9.271390279134115,3.276970624923706,1.688686562126212e+18,33.20021215820312,-0.8030665516853333,-9.1819953918457,3.3588857650756836,1.6886865621218824e+18,33.19588224283854,-0.017664186656475,-0.2577851265668868,0.0439313907797137,1.6886865621218824e+18,33.19588224283854,-0.0185804846696555,-0.2533563524484634,0.0464257582401235,,,,,,,,,,,,1.6886865621288817e+18,33.202881640625,21.04499931335449,37.373480224609374,-22.630999755859374,1.6886865621288817e+18,33.202881640625,-234.30099182128907,132.39927673339844,-155.35479736328125,1.688686562126212e+18,33.20021215820312,-0.2672060032685597,0.0402078206340471,-0.7343811790148417,0.622627834479014,-1.805495262145996,1.2110412915547688,2.2510505517323813
3.25,1.6886865621781238e+18,33.252123697916666,0.0417448083559671,-0.0130027135213216,-0.0474272569020589,1.6886865621781238e+18,33.252123697916666,-0.7928219040234884,-9.21296532948812,3.363710403442383,1.6886865621781238e+18,33.252123697916666,-0.8404127359390259,-9.18245792388916,3.348450263341268,1.688686562173796e+18,33.247795898437495,0.0134390352759509,-0.145844077070554,-0.0351247526705264,1.688686562173796e+18,33.247795898437495,0.0125227373403806,-0.1414153079191843,-0.0326303845892349,,,,,,,,,,,,1.6886865621788849e+18,33.252884863281245,21.493959426879883,37.44423980712891,-22.41871948242187,1.6886865621788849e+18,33.252884863281245,-233.8520385742187,132.47003479003905,-155.14251708984375,1.6886865621781238e+18,33.252123697916666,-0.263666272163391,0.0374971963465213,-0.7358200947443644,0.6226088205973307,-1.81672203540802,1.211175282796224,2.2530643145243325
3.3,1.6886865622300357e+18,33.30403572591146,0.1321658889452616,0.067418098449707,0.146655797958374,1.6886865622300357e+18,33.30403572591146,-0.7447660565376282,-9.134401321411133,3.5417763392130532,1.6886865622300357e+18,33.30403572591146,-0.8827779690424601,-9.184314727783203,3.3324331442515054,1.6886865622257078e+18,33.29970768229167,0.0150171041799087,-0.1772527347008387,-0.0147625769798954,1.6886865622257078e+18,33.29970768229167,0.0141008061667282,-0.1727730532487233,-0.0123191156114141,,,,,,,,,,,,1.6886865622288814e+18,33.302881298828126,21.65743942260742,37.53695983886719,-22.26743965148926,1.6886865622288814e+18,33.302881298828126,-233.6885528564453,132.56275634765626,-154.9912353515625,1.6886865622300357e+18,33.30403572591146,-0.2601361274719238,0.0353085026144981,-0.7373938957850138,0.6223594745000204,-1.8297730286916096,1.2117135524749756,2.257678190867106
3.35,1.6886865622819484e+18,33.35594864908854,0.0925683379173278,0.0728540420532226,0.0346399148305257,1.6886865622819484e+18,33.35594864908854,-0.7874380548795065,-9.128618240356444,3.4299118518829346,1.6886865622819484e+18,33.35594864908854,-0.8858524163564047,-9.183967590332031,3.332584540049235,1.688686562277623e+18,33.35162296549479,-0.0206167021145422,-0.1172861258188883,0.0660752579569816,1.688686562277623e+18,33.35162296549479,-0.0214820941910147,-0.1128573541839916,0.068518716841936,,,,,,,,,,,,1.688686562278887e+18,33.35288696289062,21.886800003051757,37.705319213867185,-22.155199432373045,1.688686562278887e+18,33.35288696289062,-233.45919799804688,132.73111877441406,-154.87899780273438,1.6886865622819484e+18,33.35594864908854,-0.2578241427739461,0.0326095956067244,-0.73762446641922,0.6231954097747803,-1.8306238253911336,1.211612542470296,2.2511653900146484
3.4,1.6886865623252096e+18,33.39920947265625,-0.0378422141075133,0.0228786468505859,-0.0408431291580199,1.6886865623252096e+18,33.39920947265625,-0.8961120843887329,-9.178269386291504,3.3610185384750366,1.6886865623252096e+18,33.39920947265625,-0.8641158938407898,-9.183643341064451,3.339174270629883,1.6886865623295355e+18,33.40353540039063,-0.0304414511968691,-0.1193223446607589,0.0969748571515082,1.6886865623295355e+18,33.40353540039063,-0.0313577496757109,-0.1148426656921704,0.099469224611918,,,,,,,,,,,,1.6886865623288817e+18,33.402881689453125,21.767238998413085,37.6150390625,-22.16251907348633,1.6886865623288817e+18,33.402881689453125,-233.57875366210936,132.64084167480468,-154.88631591796874,1.6886865623252096e+18,33.39920947265625,-0.2564147859811782,0.0300668384879827,-0.7369815707206726,0.6246640384197235,-1.8240434527397156,1.2115190029144287,2.2387818098068237
3.45,1.6886865623684682e+18,33.442468424479166,-0.06541375319163,-0.0561542510986327,-0.0144295692443847,1.6886865623684682e+18,33.442468424479166,-0.9168498714764912,-9.255836486816406,3.393221934636434,1.6886865623684682e+18,33.442468424479166,-0.8572821418444315,-9.182177543640137,3.344964106877645,1.6886865623814474e+18,33.455447591145834,-0.0160861182957887,-0.1268054395914077,0.0104356142692267,1.6886865623814474e+18,33.455447591145834,-0.0170024161537487,-0.122325763106346,0.0128790761033693,,,,,,,,,,,,1.6886865623788815e+18,33.45288134765625,21.72575988769531,37.62967987060547,-22.218639373779297,1.6886865623788815e+18,33.45288134765625,-233.6202362060547,132.65548095703124,-154.94244079589845,1.6886865623684682e+18,33.442468424479166,-0.2548157672087351,0.0276090831806261,-0.736841062704722,0.6255965232849121,-1.8217052221298216,1.2110941807428997,2.2305028438568115
3.5,1.6886865624203756e+18,33.49437573242187,-0.0859446724255879,-0.0188811620076497,-0.1141880353291829,1.6886865624203756e+18,33.49437573242187,-0.966102143128713,-9.216753959655762,3.290928761164347,1.6886865624203756e+18,33.49437573242187,-0.8860034942626953,-9.180368105570476,3.3424293994903564,1.688686562433359e+18,33.50735913085938,-0.0025452718255109,-0.1934406608343124,-0.0135408462956547,1.688686562433359e+18,33.50735913085938,-0.0034106643094369,-0.1890118867158889,-0.0110464794561266,,,,,,,,,,,,1.6886865624288845e+18,33.5028845703125,21.933159637451173,37.70775909423829,-22.025879669189457,1.6886865624288845e+18,33.5028845703125,-233.41283264160157,132.73355712890626,-154.7496765136719,1.6886865624203756e+18,33.49437573242187,-0.2522427638371785,0.0252242299417654,-0.7379188537597656,0.6254690289497375,-1.8299319346745808,1.2105707327524822,2.231473922729492
3.55,1.6886865624722924e+18,33.54629256184896,-0.0080766081809997,-0.0118042627970377,-0.165533701578776,1.6886865624722924e+18,33.54629256184896,-0.9246265490849812,-9.209974288940431,3.228914817174276,1.6886865624722924e+18,33.54629256184896,-0.922395964463552,-9.180665334065756,3.331761121749878,1.6886865624766198e+18,33.55061962890625,-0.0066431593149899,-0.2801580727100372,0.0432950742542743,1.6886865624766198e+18,33.55061962890625,-0.0075594575610011,-0.2757292985916137,0.0457385350018739,,,,,,,,,,,,1.6886865624788838e+18,33.552883789062506,21.76968002319336,37.55159912109375,-21.845319747924805,1.6886865624788838e+18,33.552883789062506,-233.5763153076172,132.57739868164063,-154.5691162109375,1.6886865624722924e+18,33.54629256184896,-0.2478125443061193,0.02140266324083,-0.7392942706743876,0.6257562041282654,-1.8408994674682615,1.2106569210688274,2.230341593424479
3.6,1.6886865625242015e+18,33.598201497395834,0.1299407879511514,-0.1826613744099934,-0.0578099886576334,1.6886865625242015e+18,33.598201497395834,-0.8043872117996216,-9.383454004923502,3.3244282404581704,1.6886865625242015e+18,33.598201497395834,-0.9401740233103434,-9.183287938435871,3.3195508321126304,1.6886865625198794e+18,33.59387931315104,-0.0064649905737799,-0.2911281983057658,0.0857247561216354,1.6886865625198794e+18,33.59387931315104,-0.0073303827957715,-0.2866994241873423,0.0883209332823753,,,,,,,,,,,,1.688686562528887e+18,33.60288696289062,22.27963981628418,37.59063949584961,-21.49151954650879,1.688686562528887e+18,33.60288696289062,-233.066357421875,132.61643676757814,-154.21531982421874,1.6886865625242015e+18,33.598201497395834,-0.2422629545132318,0.0160938684518138,-0.7400413552920023,0.6272034446398417,-1.8468099037806192,1.211416204770406,2.220329205195109
3.65,1.6886865625761137e+18,33.65011385091146,0.2337296803792317,-0.0296138127644856,0.1973125139872232,1.6886865625761137e+18,33.65011385091146,-0.6755736072858175,-9.238488833109535,3.5641093254089355,1.6886865625761137e+18,33.65011385091146,-0.9151493112246196,-9.191370328267416,3.3041094144185386,1.688686562571788e+18,33.64578792317708,0.0273871247967083,-0.1109229455081124,0.1181006133556365,1.688686562571788e+18,33.64578792317708,0.0264708266283074,-0.1064432668499648,0.1205440759658813,,,,,,,,,,,,1.6886865625788805e+18,33.65288061523437,22.284519958496094,37.75655975341797,-21.147479629516603,1.6886865625788805e+18,33.65288061523437,-233.061474609375,132.78235778808593,-153.87127685546875,1.6886865625761137e+18,33.65011385091146,-0.2385719368855157,0.0126420396069685,-0.7392474214235941,0.6296315590540568,-1.841007391611735,1.213766892751058,2.2040043671925864
3.7,1.6886865626280284e+18,33.70202823893229,0.0242687066396077,0.3047571182250976,0.2436145941416422,1.6886865626280284e+18,33.70202823893229,-0.8213363687197367,-8.914460817972818,3.5986057917277017,1.6886865626280284e+18,33.70202823893229,-0.8514510989189148,-9.20171324412028,3.2923038005828857,1.6886865626237e+18,33.69769995117188,0.0423533245921134,0.2116138984759648,0.0678060427308082,1.6886865626237e+18,33.69769995117188,0.0414879309634367,0.2160426725943883,0.0702495053410529,,,,,,,,,,,,1.688686562628885e+18,33.70288481445313,21.87215919494629,38.03471908569336,-21.276799774169923,1.688686562628885e+18,33.70288481445313,-233.4738311767578,133.06051635742188,-154.00059509277344,1.6886865626280284e+18,33.70202823893229,-0.240228568514188,0.0146413563440242,-0.7370102405548096,0.631576140721639,-1.823880672454834,1.2167954444885254,2.1921194394429526
3.75,1.6886865626799378e+18,33.753937662760414,-0.4043702284495036,0.0299965540568033,0.0861037572224934,1.6886865626799378e+18,33.753937662760414,-1.1962119340896606,-9.19162940979004,3.4478580156962075,1.6886865626799378e+18,33.753937662760414,-0.7976877291997274,-9.204121271769203,3.2990668614705405,1.6886865626756155e+18,33.749615641276044,-0.0092138843610882,0.1769982054829597,0.0376191182682911,1.6886865626756155e+18,33.749615641276044,-0.0101301815981666,0.1814269796013831,0.0400625790158907,,,,,,,,,,,,1.68868656267888e+18,33.752880029296875,21.95023956298828,38.03471984863281,-21.420759201049805,1.68868656267888e+18,33.752880029296875,-233.3957550048828,133.06051635742188,-154.14455871582032,1.6886865626799378e+18,33.753937662760414,-0.2443597912788391,0.018150779729088,-0.7350715001424154,0.6321612993876139,-1.8080546458562217,1.2175042629241943,2.1874403158823648
3.8,1.688686562731853e+18,33.80585310872396,-0.323628028233846,-0.019606590270996,-0.1849332650502522,1.688686562731853e+18,33.80585310872396,-1.1120643218358357,-9.236494382222494,3.1908289591471353,1.688686562731853e+18,33.80585310872396,-0.7942823171615601,-9.19938309987386,3.313074827194214,1.6886865627275295e+18,33.80152962239583,-0.0406225373347599,-0.1600975990295409,0.0213802842141982,1.6886865627275295e+18,33.80152962239583,-0.0415388358136017,-0.1556688261528809,0.0238237443845718,,,,,,,,,,,,1.6886865627288873e+18,33.80288720703125,21.34023971557617,38.01520004272461,-21.464679336547853,1.6886865627288873e+18,33.80288720703125,-234.00575256347656,133.0409942626953,-154.1884765625,1.688686562731853e+18,33.80585310872396,-0.2439562032620111,0.0165133646999796,-0.7349908351898193,0.632454494635264,-1.806108554204305,1.216111699740092,2.1825567881266275
3.85,1.6886865627751086e+18,33.84910864257812,-0.0172223150730133,-0.0556011199951171,-0.1305202245712279,1.6886865627751086e+18,33.84910864257812,-0.8470592200756073,-9.268598556518556,3.245863914489746,1.6886865627751086e+18,33.84910864257812,-0.8356829285621643,-9.1954927444458,3.3136967420578003,1.6886865627794363e+18,33.85343627929688,-0.0180714301144082,-0.29637145002683,-0.0233655950675407,1.6886865627794363e+18,33.85343627929688,-0.0188859173407156,-0.291942685842514,-0.0209221349020177,,,,,,,,,,,,1.6886865627788828e+18,33.85288276367187,22.164959335327147,37.93711929321289,-21.367079544067384,1.6886865627788828e+18,33.85288276367187,-233.18103637695313,132.96292114257812,-154.09087829589845,1.6886865627751086e+18,33.84910864257812,-0.2399578914046287,0.0123945055529474,-0.7365061044692993,0.6323162019252777,-1.817848265171051,1.2149710655212402,2.1824687719345093
3.9,1.6886865628183665e+18,33.89236653645833,0.2949123779932657,0.0210180282592773,-0.004711389541626,1.6886865628183665e+18,33.89236653645833,-0.5910272002220154,-9.189635276794434,3.363511006037394,1.6886865628183665e+18,33.89236653645833,-0.8917856017748514,-9.193148612976072,3.305534998575846,1.6886865628313477e+18,33.90534741210937,0.0123191158442447,-0.1353575599690278,-0.0646499047676721,1.6886865628313477e+18,33.90534741210937,0.0114537230692803,-0.1308269736667473,-0.0622064446409542,,,,,,,,,,,,1.68868656282888e+18,33.902879736328124,22.5870792388916,37.905399322509766,-21.14259948730469,1.68868656282888e+18,33.902879736328124,-232.7589141845703,132.931201171875,-153.86639709472655,1.6886865628183665e+18,33.89236653645833,-0.2359112352132797,0.0090901525691151,-0.7384930849075317,0.6315769155820211,-1.834322492281596,1.214285572369893,2.18822971979777
3.95,1.6886865628702856e+18,33.944285807291664,0.3447019457817077,-0.095802625020345,0.0533629258473713,1.6886865628702856e+18,33.944285807291664,-0.5758726398150126,-9.306285540262856,3.412563880284627,1.6886865628702856e+18,33.944285807291664,-0.9264206091562908,-9.192978223164875,3.296513557434082,1.6886865628832617e+18,33.95726155598958,0.0144062386825679,0.0676024194690398,-0.0238237455487251,1.6886865628832617e+18,33.95726155598958,0.0135408462956546,0.0720311932576198,-0.0213802829384803,,,,,,,,,,,,1.6886865628788838e+18,33.95288393554687,22.66027946472168,37.739479064941406,-20.730239486694337,1.6886865628788838e+18,33.95288393554687,-232.6857116699219,132.76527709960936,-153.45403747558595,1.6886865628702856e+18,33.944285807291664,-0.234609102209409,0.0087547339498995,-0.739691952864329,0.6306644280751547,-1.8447767496109009,1.2142351071039836,2.1962949434916177
4.0,1.688686562922197e+18,33.99619702148437,0.0978862444559732,0.0411268870035807,0.0243417421976725,1.688686562922197e+18,33.99619702148437,-0.7836494048436483,-9.173284530639648,3.3832518259684243,1.688686562922197e+18,33.99619702148437,-0.8873816728591919,-9.196906725565592,3.296222686767578,1.6886865629265288e+18,34.00052880859376,0.0103083509020506,0.1931861340999602,0.100945483893156,1.6886865629265288e+18,34.00052880859376,0.0094684113282709,0.1976149082183837,0.1033889427781105,1.688686562926419e+18,34.0004189453125,0.0,0.6169970035552979,0.9121176600456238,15.505000114440918,0.200814351439476,58.54351806640625,40.20000076293945,-122.7531159,49.1903465,1.6886865629288832e+18,34.00288334960938,22.05759925842285,38.027398681640626,-21.047439575195312,1.6886865629288832e+18,34.00288334960938,-233.28839721679688,133.0531982421875,-153.7712371826172,1.688686562922197e+18,33.99619702148437,-0.2369062652190526,0.010941277258098,-0.7383161385854086,0.6313815911610922,-1.833783229192098,1.215384562810262,2.191810131072998
4.05,1.6886865629741064e+18,34.0481064453125,-0.0726711551348368,0.0760113398234049,0.0563257535298665,1.6886865629741064e+18,34.0481064453125,-0.8811569412549337,-9.142975489298502,3.421337604522705,1.6886865629741064e+18,34.0481064453125,-0.8143318096796671,-9.201482137044271,3.302324453989665,1.688686562969785e+18,34.04378507486979,0.0038179076509549,0.1810706406831741,0.0806851188341776,1.688686562969785e+18,34.04378507486979,0.0029016100064229,0.1854994148015975,0.0831285764773686,,,,,,,,,,,,1.6886865629788808e+18,34.05288081054688,22.121039199829102,38.1664794921875,-21.354879760742183,1.6886865629788808e+18,34.05288081054688,-233.2249542236328,133.19227905273436,-154.07867736816405,1.6886865629741064e+18,34.0481064453125,-0.2402548392613728,0.0133528901884952,-0.7357505957285563,0.6330625414848328,-1.8125803470611572,1.2167270580927532,2.1789767742156982
4.1,1.6886865630260232e+18,34.100023030598955,-0.2976730863253276,0.01422119140625,-0.0489060878753662,1.6886865630260232e+18,34.100023030598955,-1.0506485303243,-9.20718256632487,3.3226335843404136,1.6886865630260232e+18,34.100023030598955,-0.7588214675585429,-9.203899065653482,3.308852275212606,1.6886865630216942e+18,34.09569409179687,0.0069740447991837,0.2088141043980916,0.0149152930825948,1.6886865630216942e+18,34.09569409179687,0.0060577471546517,0.213242878516515,0.0174096593012412,,,,,,,,,,,,1.688686563028884e+18,34.102883740234375,21.286559677124025,38.07863922119141,-21.68916015625,1.688686563028884e+18,34.102883740234375,-234.05943298339844,133.10443725585938,-154.41295776367187,1.6886865630260232e+18,34.100023030598955,-0.2443096935749053,0.0167532035460074,-0.7337555289268494,0.6337454120318095,-1.7962451775868733,1.217438379923503,2.173515876134237
4.15,1.688686563077931e+18,34.15193098958333,-0.3157745798428853,0.0454721450805663,-0.0674294630686441,1.688686563077931e+18,34.15193098958333,-1.0809576511383057,-9.175278345743816,3.3030923207600913,1.688686563077931e+18,34.15193098958333,-0.7710290948549906,-9.203245798746744,3.3078343868255615,1.6886865630736064e+18,34.147606201171875,0.0020871226831028,0.0181223358958959,-0.0703513150413831,1.6886865630736064e+18,34.147606201171875,0.0012726359806644,0.0225511081516742,-0.0678569488227367,,,,,,,,,,,,1.6886865630788828e+18,34.15288286132812,21.69403953552246,38.161599731445314,-21.645239639282227,1.6886865630788828e+18,34.15288286132812,-233.651953125,133.1873992919922,-154.3690399169922,1.688686563077931e+18,34.15193098958333,-0.2457185784975687,0.0186438666035731,-0.7341340978940328,0.6327097217241923,-1.7998114824295044,1.2172463337580364,2.181915203730265
4.2,1.6886865631298463e+18,34.203846516927086,0.010926345984141,-0.0315132141113281,-0.0740426381429036,1.6886865631298463e+18,34.203846516927086,-0.8213363885879517,-9.245866775512695,3.297907829284668,1.6886865631298463e+18,34.203846516927086,-0.838108758131663,-9.19684886932373,3.309263070424398,1.6886865631255227e+18,34.199522867838546,-0.0199040255198875,-0.1734348237514495,-0.0978402495384215,1.6886865631255227e+18,34.199522867838546,-0.0208203239987293,-0.1689551422993341,-0.0953967894117037,,,,,,,,,,,,1.6886865631288796e+18,34.20287973632812,22.02588005065918,38.15915985107422,-21.457360076904298,1.6886865631288796e+18,34.20287973632812,-233.3201110839844,133.18495483398436,-154.1811553955078,1.6886865631298463e+18,34.203846516927086,-0.2435348580280939,0.0169535968452691,-0.736499011516571,0.6308489441871643,-1.8188470204671223,1.215368390083313,2.195348024368286
4.25,1.688686563181754e+18,34.25575415039062,0.4241309960683186,-0.0938895543416341,-0.0826344490051269,1.688686563181754e+18,34.25575415039062,-0.4719842672348022,-9.302496592203775,3.2885359128316245,1.688686563181754e+18,34.25575415039062,-0.901961306730906,-9.191102345784506,3.3084829648335776,1.688686563177432e+18,34.25143196614584,-0.0111991960244874,-0.1558215419451395,-0.0627154968678951,1.688686563177432e+18,34.25143196614584,-0.0119627776245275,-0.1513418679436047,-0.0602211318910121,,,,,,,,,,,,1.6886865631788815e+18,34.252881689453126,22.41871948242187,37.8931999206543,-21.310960006713863,1.6886865631788815e+18,34.252881689453126,-232.92727661132812,132.91899719238282,-154.03475646972657,1.688686563181754e+18,34.25575415039062,-0.2404034386078516,0.0142556854213276,-0.738762895266215,0.629469116528829,-1.8369640111923216,1.2136881748835249,2.204998254776001
4.3,1.6886865632336684e+18,34.30766829427083,0.3783734440803528,0.0178585052490234,0.0182491143544514,1.6886865632336684e+18,34.30766829427083,-0.5112664302190145,-9.19302495320638,3.384847084681193,1.6886865632336684e+18,34.30766829427083,-0.8954859177271525,-9.193378766377768,3.303910573323568,1.688686563229346e+18,34.303346191406256,0.0181223352750141,0.1270599737763404,0.0216348107593754,1.688686563229346e+18,34.303346191406256,0.0172060377274949,0.1314887478947639,0.024078272205467,,,,,,,,,,,,1.688686563228881e+18,34.302880859375,22.51875991821289,37.707759857177734,-21.213359069824214,1.688686563228881e+18,34.302880859375,-232.82723693847657,132.73356018066406,-153.937158203125,1.6886865632336684e+18,34.30766829427083,-0.2408020248015721,0.0149994747092326,-0.738524874051412,0.6295782725016276,-1.835491220156352,1.214351812998454,2.2051730950673423
4.35,1.688686563276931e+18,34.35093103027344,-0.0706647932529449,-0.0015978813171386,-0.0403817892074584,1.688686563276931e+18,34.35093103027344,-0.907478004693985,-9.21625518798828,3.3296127319335938,1.688686563276931e+18,34.35093103027344,-0.8426592350006104,-9.197152614593506,3.3073071241378784,1.688686563281255e+18,34.355254801432295,-0.0008653925615362,0.1588249603907266,0.0832303911447524,1.688686563281255e+18,34.355254801432295,-0.0017816902060682,0.163304641842842,0.0857247561216354,,,,,,,,,,,,1.6886865632788836e+18,34.35288354492187,22.279639434814452,37.99323959350586,-21.3817195892334,1.6886865632788836e+18,34.35288354492187,-233.0663543701172,133.01903686523437,-154.105517578125,1.688686563276931e+18,34.35093103027344,-0.2437335327267646,0.0174088357016444,-0.7366472780704498,0.6305878758430481,-1.820294678211212,1.215455949306488,2.197749137878418
4.4,1.68868656332019e+18,34.394190022786454,-0.238733947277069,-0.019086201985677,-0.1512012481689452,1.68868656332019e+18,34.394190022786454,-1.0342975854873655,-9.23529847462972,3.224727312723795,1.68868656332019e+18,34.394190022786454,-0.8014096617698669,-9.198707580566406,3.313241163889567,1.6886865633331732e+18,34.40717309570312,-0.0158824961011607,-0.0558941687146822,0.0720820985734462,1.6886865633331732e+18,34.40717309570312,-0.0167987942695617,-0.0514653961484631,0.074576466033856,,,,,,,,,,,,1.6886865633288827e+18,34.402882763671876,21.742839813232425,37.76143951416016,-21.70867919921875,1.6886865633288827e+18,34.402882763671876,-233.60315551757813,132.78723754882813,-154.43247680664064,1.68868656332019e+18,34.394190022786454,-0.2448477149009704,0.0176403361062208,-0.7352132598559061,0.631822387377421,-1.808138648668925,1.2159120639165244,2.1875459353129068
4.45,1.6886865633721024e+18,34.4461025390625,-0.0559029976526896,-0.0082829793294271,-0.0431272983551025,1.6886865633721024e+18,34.4461025390625,-0.8468598127365112,-9.225328127543133,3.33160670598348,1.6886865633721024e+18,34.4461025390625,-0.796802838643392,-9.199540456136068,3.3120466073354087,1.6886865633764306e+18,34.45043041992187,0.0073303829412906,-0.103694375604391,-0.0039706244133412,1.6886865633764306e+18,34.45043041992187,0.0064140852191485,-0.0992656014859676,-0.0015271632000804,,,,,,,,,,,,1.688686563378881e+18,34.45288095703125,21.91363945007324,38.083518981933594,-21.56471977233887,1.688686563378881e+18,34.45288095703125,-233.4323577880859,133.10932006835938,-154.28851623535155,1.6886865633721024e+18,34.4461025390625,-0.2432840714852014,0.0158512039730945,-0.7350943287213644,0.6326115727424622,-1.806907296180725,1.2161562045415242,2.1814025243123374
4.5,1.6886865634240164e+18,34.498016357421875,0.0207321047782897,0.0493129094441731,0.1025744279225667,1.6886865634240164e+18,34.498016357421875,-0.7950153350830078,-9.16889794667562,3.4679975509643555,1.6886865634240164e+18,34.498016357421875,-0.8215934634208679,-9.200706164042154,3.3027357260386148,1.6886865634196872e+18,34.49368717447916,0.0212784726172685,-0.0223474875092505,-0.046731191376845,1.6886865634196872e+18,34.49368717447916,0.0203621747593084,-0.0179187141669292,-0.0442877300083636,,,,,,,,,,,,1.6886865634288886e+18,34.502888671875,22.118599700927735,38.04447860717774,-21.35975914001465,1.6886865634288886e+18,34.502888671875,-233.22739868164064,133.07027893066407,-154.08355712890625,1.6886865634240164e+18,34.498016357421875,-0.242062598466873,0.0155265824869274,-0.7359602252642313,0.6320815483729044,-1.8146291971206665,1.2164987325668335,2.186852137247721
4.55,1.6886865634759311e+18,34.54993115234375,0.0641131997108459,0.0949932734171549,0.2319810390472412,1.6886865634759311e+18,34.54993115234375,-0.7625128229459127,-9.125028928120932,3.589632749557495,1.6886865634759311e+18,34.54993115234375,-0.832472046216329,-9.20251750946045,3.29496431350708,1.6886865634716037e+18,34.54560392252604,0.0179696194827556,0.0428114737539241,-0.0132863187852005,1.6886865634716037e+18,34.54560392252604,0.0170533213143546,0.047240246242533,-0.0107410474059482,,,,,,,,,,,,1.6886865634788823e+18,34.55288227539062,22.001479721069337,37.84439926147461,-21.496399688720704,1.6886865634788823e+18,34.55288227539062,-233.34451599121093,132.8701934814453,-154.22019958496094,1.6886865634759311e+18,34.54993115234375,-0.2420686831076939,0.0163094121962785,-0.7363198399543762,0.6316404938697815,-1.8182864586512248,1.2170313199361165,2.1916447480519614
4.6,1.6886865635278395e+18,34.601839680989585,-0.0282604893048604,0.0640522638956705,0.1421109835306803,1.6886865635278395e+18,34.601839680989585,-0.8368897239367167,-9.15474001566569,3.5076785882314048,1.6886865635278395e+18,34.601839680989585,-0.8144752581914266,-9.201287587483726,3.3028802076975503,1.6886865635235103e+18,34.597510416666665,-0.0143553333667416,0.0964148963491121,0.0041233405160407,1.6886865635235103e+18,34.597510416666665,-0.0152207259088754,0.1008436704675356,0.0065668012636403,,,,,,,,,,,,1.688686563528885e+18,34.6028849609375,21.98195915222168,37.88343887329101,-21.328039932250977,1.688686563528885e+18,34.6028849609375,-233.36403198242184,132.90924072265625,-154.05184020996094,1.6886865635278395e+18,34.601839680989585,-0.2439461350440978,0.0176068805158138,-0.7356666922569275,0.6316441694895426,-1.8125878969828289,1.216670036315918,2.1906015078226724
4.65,1.6886865635797517e+18,34.65375187174479,-0.0489233533541361,-0.0270023345947264,-0.0653661886850992,1.6886865635797517e+18,34.65375187174479,-0.8530412713686625,-9.2412805557251,3.3138599395751953,1.6886865635797517e+18,34.65375187174479,-0.8099639415740967,-9.196773529052734,3.3165387312571206,1.6886865635754245e+18,34.64942415364583,-0.0195985936249295,0.0644462816417217,-0.0280998007704813,1.6886865635754245e+18,34.64942415364583,-0.0205148905515669,0.0688750557601451,-0.025605434551835,,,,,,,,,,,,1.6886865635788823e+18,34.652882226562504,21.30119934082031,37.94443969726562,-21.591559600830077,1.6886865635788823e+18,34.652882226562504,-234.04479370117187,132.9702362060547,-154.31535949707032,1.6886865635797517e+18,34.65375187174479,-0.24576336145401,0.0185669095565875,-0.7354868650436401,0.6311216950416565,-1.810345768928528,1.2153457005818684,2.1924683252970376
4.7,1.688686563631663e+18,34.70566316731771,0.0919321775436401,-0.0696732203165689,-0.1498097578684488,1.688686563631663e+18,34.70566316731771,-0.7345965504646301,-9.28076171875,3.232703367869059,1.688686563631663e+18,34.70566316731771,-0.8323747515678406,-9.193583806355797,3.3198257287343345,1.68868656362734e+18,34.701340006510414,-0.0072794774702439,-0.043065999324123,-0.0423024191210666,1.68868656362734e+18,34.701340006510414,-0.0081957751729835,-0.0386372270683446,-0.0398589571317036,,,,,,,,,,,,1.688686563628888e+18,34.7028880859375,21.89167938232422,37.995679473876955,-21.486639404296874,1.688686563628888e+18,34.7028880859375,-233.45431823730468,133.02147827148437,-154.21043701171874,1.688686563631663e+18,34.70566316731771,-0.2456652869780858,0.0185150758673747,-0.7362644076347351,0.6302541891733805,-1.8164797226587932,1.2144122123718262,2.1984153588612876
4.75,1.6886865636835717e+18,34.757571940104164,0.2453149557113647,-0.0202620824178059,-0.075471003850301,1.6886865636835717e+18,34.757571940104164,-0.5936194260915121,-9.230712254842125,3.305684487024943,1.6886865636835717e+18,34.757571940104164,-0.8447804053624471,-9.19294548034668,3.3184680938720703,1.6886865636792517e+18,34.75325154622396,0.0001527162579198,0.0083484916637341,-0.0220420543725291,1.6886865636792517e+18,34.75325154622396,-0.000763581561235,0.0127772651612758,-0.0194967820619542,,,,,,,,,,,,1.6886865636788838e+18,34.75288388671875,21.750159454345702,37.98835906982422,-21.63548011779785,1.6886865636788838e+18,34.75288388671875,-233.59583435058593,133.0141571044922,-154.35927734375,1.6886865636835717e+18,34.757571940104164,-0.2453512499729791,0.0184372545530398,-0.7366960048675537,0.6298745075861613,-1.8200934330622356,1.21422545115153,2.2014620304107666
4.8,1.6886865637268378e+18,34.800837768554686,0.1139715611934661,-0.0482459068298339,-0.0973547697067259,1.6886865637268378e+18,34.800837768554686,-0.7109674215316772,-9.259625434875488,3.2847472429275513,1.6886865637268378e+18,34.800837768554686,-0.8307850062847137,-9.193874835968018,3.3194146156311035,1.6886865637311634e+18,34.80516349283854,0.0100283709325594,0.0952949797113736,0.04596760806938,1.6886865637311634e+18,34.80516349283854,0.0091120734383972,0.0997237513462702,0.0484110700587431,,,,,,,,,,,,1.688686563728884e+18,34.802883837890626,21.535440063476564,37.89563980102539,-21.681839752197263,1.688686563728884e+18,34.802883837890626,-233.81055603027343,132.921435546875,-154.4056365966797,1.6886865637268378e+18,34.800837768554686,-0.2462981641292571,0.0192642314359545,-0.736190676689148,0.6300707459449768,-1.8160622715950012,1.2144967317581177,2.200017809867859
4.85,1.6886865637700954e+18,34.84409537760417,0.0012427767117818,0.0437564849853515,0.0809950033823648,1.6886865637700954e+18,34.84409537760417,-0.7856434186299642,-9.172087987263998,3.4600215752919516,1.6886865637700954e+18,34.84409537760417,-0.7927322189013163,-9.198339780171713,3.3163391749064126,1.6886865637830758e+18,34.85707584635417,0.0165951723853746,0.1392263745268185,0.0339030213654041,1.6886865637830758e+18,34.85707584635417,0.0157297796880204,0.143655148645242,0.0363464827338854,,,,,,,,,,,,1.688686563778881e+18,34.8528810546875,21.550079345703125,37.98591918945313,-21.423199081420897,1.688686563778881e+18,34.8528810546875,-233.7959167480469,133.0117156982422,-154.1469970703125,1.6886865637700954e+18,34.84409537760417,-0.247898131608963,0.0208163900921741,-0.7348296244939169,0.6309815247853597,-1.8054529428482056,1.2158039410909016,2.1939777533213296
4.9,1.688686563822009e+18,34.89600927734375,-0.1752825379371642,0.1098613739013671,0.1182398796081542,1.688686563822009e+18,34.89600927734375,-0.92622176806132,-9.108279546101889,3.4993037382761636,1.688686563822009e+18,34.89600927734375,-0.7567852735519409,-9.20063622792562,3.3183764616648355,1.688686563826331e+18,34.900330810546876,0.0044287728960624,0.1528690308332442,0.0067958758445456,1.688686563826331e+18,34.900330810546876,0.0035124751739203,0.1572978049516677,0.0092393366794567,,,,,,,,,,,,1.688686563828885e+18,34.90288491210937,21.306079483032228,38.1664794921875,-21.681839370727538,1.688686563828885e+18,34.90288491210937,-234.0399169921875,133.19227600097656,-154.4056365966797,1.688686563822009e+18,34.89600927734375,-0.2506450563669204,0.0233120129754145,-0.7335068980852762,0.6313479145367941,-1.7950447797775269,1.2164780696233113,2.191225051879883
4.95,1.6886865638739208e+18,34.94792065429687,-0.2687767346700032,0.0283416112263997,-0.091415802637736,1.6886865638739208e+18,34.94792065429687,-1.0207382837931316,-9.186444918314615,3.2987054189046225,1.6886865638739208e+18,34.94792065429687,-0.7578075726826986,-9.19728183746338,3.327433824539185,1.6886865638695956e+18,34.94359562174479,-0.0244346099595228,-0.0054977880790829,-0.0257581509649753,1.6886865638695956e+18,34.94359562174479,-0.0252490968753893,-0.0010690143487105,-0.023263784435888,,,,,,,,,,,,1.688686563878886e+18,34.95288588867187,21.557399368286134,38.08107986450195,-21.816039657592775,1.688686563878886e+18,34.95288588867187,-233.7885986328125,133.10687255859375,-154.5398376464844,1.6886865638739208e+18,34.94792065429687,-0.2519433895746867,0.0241146460175513,-0.7335165143013,0.6307902733484904,-1.7947431802749634,1.21549387772878,2.194038152694702
5.0,1.688686563925833e+18,34.99983308919271,-0.067953089872996,-0.0807762145996093,-0.2150154113769531,1.688686563925833e+18,34.99983308919271,-0.8522436817487081,-9.291330337524416,3.1792637507120767,1.688686563925833e+18,34.99983308919271,-0.7901366154352824,-9.193049430847168,3.331591765085856,1.6886865639215086e+18,34.99550870768229,-0.0193440662696957,-0.1969531377156575,-0.009621127663801,1.6886865639215086e+18,34.99550870768229,-0.0202603638172149,-0.1925243635972341,-0.007126761212324,1.688686563926432e+18,35.000431884765625,0.0,0.582205593585968,0.921724796295166,12.609000205993652,0.1873474419116974,45.42081451416016,40.20000076293945,-122.7531243,49.1903525,1.688686563928885e+18,35.0028849609375,21.50371971130371,38.022518920898435,-22.09175910949707,1.688686563928885e+18,35.0028849609375,-233.84227600097657,133.0483184814453,-154.8155548095703,1.688686563925833e+18,34.99983308919271,-0.2495693167050678,0.0215055104345082,-0.7347190777460734,0.6304268836975098,-1.8036799033482869,1.214255690574646,2.1957170963287354
5.05,1.6886865639777444e+18,35.051744466145834,0.2526605327924092,-0.0884126027425129,-0.0767188072204589,1.6886865639777444e+18,35.051744466145834,-0.5722834269205729,-9.29910691579183,3.307279666264852,1.6886865639777444e+18,35.051744466145834,-0.8307899832725525,-9.19318962097168,3.321311076482137,1.688686563973417e+18,35.047416829427085,0.0110973853055232,-0.1596394479274749,-0.0197513091067472,1.688686563973417e+18,35.047416829427085,0.010181087340849,-0.1552106762925783,-0.0172569428881008,,,,,,,,,,,,1.688686563978885e+18,35.052885009765625,21.862399673461915,37.89563980102539,-21.286559677124025,1.688686563978885e+18,35.052885009765625,-233.4835968017578,132.92143859863282,-154.01035766601564,1.6886865639777444e+18,35.051744466145834,-0.2457715819279352,0.0184969020386536,-0.7362103462219238,0.6302759250005087,-1.815930763880412,1.214296023050944,2.1979995568593345
5.1,1.6886865640296548e+18,35.10365462239583,0.1478729645411173,-0.0029859542846679,-0.1034433046976724,1.6886865640296548e+18,35.10365462239583,-0.684147854646047,-9.217351913452148,3.2685956954956055,1.6886865640296548e+18,35.10365462239583,-0.8378668427467346,-9.196861267089844,3.309351603190104,1.6886865640253327e+18,35.09933260091146,0.0173587538301944,-0.0307468840231497,0.0241800822938481,1.6886865640253327e+18,35.09933260091146,0.0164424556617934,-0.0263181111464897,0.0266744492885967,,,,,,,,,,,,1.688686564028883e+18,35.10288276367187,21.69647979736328,37.99079971313476,-21.52811965942383,1.688686564028883e+18,35.10288276367187,-233.6495147705078,133.01659545898437,-154.25191955566407,1.6886865640296548e+18,35.10365462239583,-0.2442912757396697,0.0178284291177987,-0.7364721695582072,0.630565325419108,-1.818791111310323,1.2153701782226562,2.1976781686147056
5.15,1.6886865640815695e+18,35.15556949869792,-0.094534158706665,-0.0816164016723632,-0.1424206892649332,1.6886865640815695e+18,35.15556949869792,-0.8919246594111124,-9.302895545959474,3.218944549560547,1.6886865640815695e+18,35.15556949869792,-0.8032365242640177,-9.203774452209473,3.298677841822306,1.688686564077245e+18,35.151244710286456,0.0095702220375338,-0.1178969914714495,0.134237637122472,1.688686564077245e+18,35.151244710286456,0.0086539243347942,-0.1134682185947894,0.1366810972491899,,,,,,,,,,,,1.688686564078884e+18,35.15288403320312,21.49151954650879,37.846839141845706,-21.430519104003903,1.688686564078884e+18,35.15288403320312,-233.85447692871097,132.8726379394531,-154.15431518554686,1.6886865640815695e+18,35.15556949869792,-0.2426275511582692,0.0162494263301292,-0.7353090842564901,0.6326027909914652,-1.809671680132548,1.2174013058344524,2.1837472915649414
5.2,1.6886865641334843e+18,35.20748470052084,-0.0466648737589517,-0.1043335596720377,0.0473554929097493,1.6886865641334843e+18,35.20748470052084,-0.7858428359031677,-9.337591807047524,3.3888350327809653,1.6886865641334843e+18,35.20748470052084,-0.7450239857037863,-9.215753555297852,3.278792142868042,1.6886865641291533e+18,35.20315348307292,0.0463239463667074,-0.1106684195498625,0.1790344218413034,1.6886865641291533e+18,35.20315348307292,0.0454076503713925,-0.106239645431439,0.1814778844515482,,,,,,,,,,,,1.6886865641288822e+18,35.202882421875,21.54031982421875,38.24943923950195,-21.301200103759765,1.6886865641288822e+18,35.202882421875,-233.80567321777343,133.27523803710938,-154.02499694824218,1.6886865641334843e+18,35.20748470052084,-0.2395745714505513,0.0134845189750193,-0.7333452900250753,0.6361013054847717,-1.7942383686701455,1.2209486961364746,2.1596945921579995
5.25,1.6886865641767365e+18,35.25073608398438,-0.0079021155834197,0.2706880569458008,0.3104592561721801,1.6886865641767365e+18,35.25073608398438,-0.6786643266677856,-8.981759071350098,3.612563967704773,1.6886865641767365e+18,35.25073608398438,-0.6766082346439362,-9.234942436218262,3.239417314529419,1.6886865641810657e+18,35.25506567382812,0.1401935766140619,0.2402227545777956,0.0929024219512939,1.6886865641810657e+18,35.25506567382812,0.1392772768934567,0.2446515311797459,0.0953967881699402,,,,,,,,,,,,1.6886865641788838e+18,35.252883740234374,21.401239776611327,38.80820007324219,-21.162119674682614,1.6886865641788838e+18,35.252883740234374,-233.94475402832032,133.83399658203126,-153.88591613769532,1.6886865641767365e+18,35.25073608398438,-0.2392745539546012,0.0153132774867116,-0.7309273481369019,0.6389496624469757,-1.776719093322754,1.2267012000083923,2.144220471382141
5.3,1.6886865642200023e+18,35.29400219726563,-0.1812822222709655,-0.2430769602457682,1.0197629928588867,1.6886865642200023e+18,35.29400219726563,-0.7928219040234884,-9.51246706644694,4.285146713256836,1.6886865642200023e+18,35.29400219726563,-0.6173857053120931,-9.251885414123535,3.2026963233947754,1.6886865642329777e+18,35.306977945963546,0.0803796829034884,0.5173010528087616,-0.0981456857795515,1.6886865642329777e+18,35.306977945963546,0.0794633893917003,0.5217807292938232,-0.0956004134689767,,,,,,,,,,,,1.6886865642288873e+18,35.30288735351563,21.1694393157959,38.57883911132812,-20.94495964050293,1.6886865642288873e+18,35.30288735351563,-234.1765594482422,133.6046356201172,-153.66875610351562,1.6886865642200023e+18,35.29400219726563,-0.2437777171532312,0.0225088310738404,-0.7286681135495504,0.6396061579386393,-1.761246919631958,1.2318575382232666,2.145670731862386
5.35,1.6886865642719142e+18,35.34591430664062,-0.0050727725028991,1.2924906412760415,0.7801651159922282,1.6886865642719142e+18,35.34591430664062,-0.6271189252535502,-7.971489270528157,4.059024890263875,1.6886865642719142e+18,35.34591430664062,-0.6278921763102213,-9.246475219726562,3.216172377268473,1.6886865642762363e+18,35.35023657226562,-0.0335975880734622,0.5477170646190643,-0.3713297247886657,1.6886865642762363e+18,35.35023657226562,-0.0345138879492879,0.5521458089351654,-0.3688098937273025,,,,,,,,,,,,1.6886865642788849e+18,35.352884912109374,20.65703926086426,38.50319976806641,-21.515919494628907,1.6886865642788849e+18,35.352884912109374,-234.68895568847657,133.52899780273438,-154.23971252441407,1.6886865642719142e+18,35.34591430664062,-0.2537434697151184,0.0330120529979467,-0.7286345958709717,0.6352903842926025,-1.7635894616444905,1.230206847190857,2.1780404249827066
5.4,1.688686564323824e+18,35.397823893229166,-0.6071744958559672,-0.0673376719156901,-0.0527166525522867,1.688686564323824e+18,35.397823893229166,-1.320838133494059,-9.295916557312012,3.3074790636698403,1.688686564323824e+18,35.397823893229166,-0.7195096611976624,-9.211074193318684,3.2975083192189536,1.6886865643195013e+18,35.39350130208334,-0.1640682270129521,0.255596195658048,-0.2568688367803891,1.6886865643195013e+18,35.39350130208334,-0.1649336169163385,0.260024979710579,-0.2543744718035062,,,,,,,,,,,,1.688686564328884e+18,35.402883935546875,20.525279235839843,37.9737190246582,-22.299159622192384,1.688686564328884e+18,35.402883935546875,-234.82071533203128,132.99951782226563,-155.02295532226563,1.688686564323824e+18,35.397823893229166,-0.2634173134962717,0.0392434013386567,-0.7315288782119751,0.6276403268178304,-1.7856097221374512,1.2195688883463542,2.2238217989603677
5.45,1.6886865643757384e+18,35.44973828125,-0.3913023869196574,-0.5806973775227864,-0.876821756362915,1.6886865643757384e+18,35.44973828125,-1.1810574134190877,-9.776475270589192,2.5565315882364907,1.6886865643757384e+18,35.44973828125,-0.7956010500590006,-9.17827320098877,3.370665947596232,1.6886865643714107e+18,35.44541064453125,-0.237932006518046,-0.7313584089279175,0.1118901508549848,1.6886865643714107e+18,35.44541064453125,-0.2387974063555399,-0.7268787523110708,0.1143845183153947,,,,,,,,,,,,1.688686564378883e+18,35.45288334960937,21.464679718017575,37.82487869262695,-22.311359786987303,1.688686564378883e+18,35.45288334960937,-233.88131408691407,132.85067749023438,-155.0351593017578,1.6886865643757384e+18,35.44973828125,-0.2586459914843241,0.0290673580020665,-0.7346271077791849,0.6265262961387634,-1.8025712569554648,1.209976275761922,2.219184716542562
5.5,1.6886865644276467e+18,35.501646647135416,1.2454582055409749,0.0214942296346028,-0.7142964998881022,1.6886865644276467e+18,35.501646647135416,0.4111666853229205,-9.152945200602211,2.766103029251098,1.6886865644276467e+18,35.501646647135416,-0.8401375412940979,-9.15693473815918,3.417712132136027,1.6886865644233247e+18,35.497324788411454,-0.1265000117321808,-0.6014477411905924,0.1836668153603871,1.6886865644233247e+18,35.497324788411454,-0.1273144967854022,-0.5969680647055308,0.1861611853043237,,,,,,,,,,,,1.688686564428885e+18,35.5028849609375,22.152759170532228,37.722399139404295,-21.796519470214843,1.688686564428885e+18,35.5028849609375,-233.1932342529297,132.74819641113282,-154.52031555175782,1.6886865644276467e+18,35.501646647135416,-0.2462905397017796,0.011503176142772,-0.7366721431414286,0.6296923160552979,-1.811859170595805,1.2038538058598836,2.184817393620809
5.55,1.6886865644795628e+18,35.553562825520835,0.4899751842021942,-0.7662779490152994,-0.3904480139414469,1.6886865644795628e+18,35.553562825520835,-0.2869393179814021,-9.951350529988607,3.0749765237172446,1.6886865644795628e+18,35.553562825520835,-0.7827605406443278,-9.167567888895672,3.4027371406555176,1.6886865644752392e+18,35.549239176432295,0.1140281769136587,0.5992079079151154,-0.0996219376878192,1.6886865644752392e+18,35.549239176432295,0.1131118796765803,0.6036366820335388,-0.0971275751168528,,,,,,,,,,,,1.6886865644788833e+18,35.552883251953126,22.02588005065918,37.61015930175781,-21.762359619140625,1.6886865644788833e+18,35.552883251953126,-233.3201171875,132.63595886230468,-154.4861602783203,1.6886865644795628e+18,35.553562825520835,-0.2504402448733647,0.0167144984006881,-0.7345765431722006,0.6303722063700358,-1.796914021174113,1.2068897485733032,2.183475653330485
5.6,1.6886865645314752e+18,35.60547501627604,0.0109825134277343,0.039772351582845,0.230295976003011,1.6886865645314752e+18,35.60547501627604,-0.7381858030954996,-9.179465929667154,3.608575979868571,1.6886865645314752e+18,35.60547501627604,-0.7550143400828043,-9.201733589172363,3.315592606862386,1.688686564527147e+18,35.60114680989583,0.2785545587539673,0.6769914031028748,-0.2322815060615539,1.688686564527147e+18,35.60114680989583,0.2776891589164734,0.6814201871554056,-0.229787141084671,,,,,,,,,,,,1.6886865645288778e+18,35.602877734375,21.152359771728516,37.77363967895508,-22.06491928100586,1.6886865645288778e+18,35.602877734375,-234.19363403320312,132.7994384765625,-154.7887176513672,1.6886865645314752e+18,35.60547501627604,-0.2599016924699147,0.0342886957029501,-0.7330001791318258,0.6276613076527914,-1.794747233390808,1.2168121337890625,2.220611810684204
5.65,1.6886865645833802e+18,35.65738045247396,-0.0179637670516967,0.5099474589029948,0.6403961976369222,1.6886865645833802e+18,35.65738045247396,-0.788634459177653,-8.731609026590982,3.951148351033529,1.6886865645833802e+18,35.65738045247396,-0.7765167156855265,-9.224051793416342,3.2480647563934326,1.6886865645790623e+18,35.6530625,0.1433497096101442,0.4759149253368377,-0.2114611864089965,1.6886865645790623e+18,35.6530625,0.1424843197067578,0.4803946117560069,-0.2089668164650599,,,,,,,,,,,,1.6886865645788849e+18,35.65288491210937,21.379279327392577,37.9127197265625,-22.243039703369146,1.6886865645788849e+18,35.65288491210937,-233.96671447753903,132.93851623535156,-154.96683349609376,1.6886865645833802e+18,35.65738045247396,-0.2669384280840556,0.0482697499295075,-0.7329702178637186,0.6238243381182352,-1.8054953813552856,1.2234217723210652,2.2620330651601157
5.7,1.6886865646266506e+18,35.70065075683594,-0.3679762184619903,0.4204969406127929,0.1817870140075683,1.6886865646266506e+18,35.70065075683594,-1.1210374236106873,-8.819645404815674,3.500699520111084,1.6886865646266506e+18,35.70065075683594,-0.7589072287082672,-9.22263765335083,3.256225109100342,1.6886865646309711e+18,35.70497119140625,-0.0703513144205013,0.0883209307988484,0.070249505341053,1.6886865646309711e+18,35.70497119140625,-0.0712167077387372,0.0928006122509638,0.0726929623633623,,,,,,,,,,,,1.6886865646288837e+18,35.70288349609375,20.60579948425293,37.96883926391602,-22.59439926147461,1.6886865646288837e+18,35.70288349609375,-234.74019470214844,132.99463806152343,-155.31819763183594,1.6886865646266506e+18,35.70065075683594,-0.2716852724552154,0.0528855379670858,-0.7320436239242554,0.6224965453147888,-1.7998043298721311,1.222999095916748,2.270169973373413
5.75,1.6886865646699046e+18,35.74390445963542,-0.4070527156194051,-0.1148875554402669,-0.3048116366068522,1.6886865646699046e+18,35.74390445963542,-1.1238290270169575,-9.344171524047852,3.052842855453491,1.6886865646699046e+18,35.74390445963542,-0.7226223349571228,-9.211779276529947,3.2949670950571694,1.688686564682883e+18,35.75688330078125,-0.1358666121959686,-0.5216280221939087,0.2644537488619486,1.688686564682883e+18,35.75688330078125,-0.1367829094330469,-0.517148345708847,0.2669481138388316,,,,,,,,,,,,1.688686564678885e+18,35.752885107421875,20.761959838867188,38.115238189697266,-22.626118850708004,1.688686564678885e+18,35.752885107421875,-234.58403930664065,133.1410369873047,-155.34992065429688,1.6886865646699046e+18,35.74390445963542,-0.2698077658812205,0.0469638345142205,-0.7311762372652689,0.6247909863789877,-1.7867249647776289,1.219767928123474,2.245718479156494
5.8,1.6886865647218186e+18,35.79581852213541,0.0372848510742187,-0.225144068400065,-0.3045138518015544,1.6886865647218186e+18,35.79581852213541,-0.650050143400828,-9.444470723470053,3.0871400038401284,1.6886865647218186e+18,35.79581852213541,-0.6931810180346171,-9.20182196299235,3.3289664586385093,1.688686564726142e+18,35.800142089843746,-0.0930042341351508,-0.527863934636116,0.2383901551365852,1.688686564726142e+18,35.800142089843746,-0.0937678143382071,-0.5234351456165314,0.2409099787473678,,,,,,,,,,,,1.6886865647288796e+18,35.80287973632812,21.059639358520503,38.207958984375,-22.01367950439453,1.6886865647288796e+18,35.80287973632812,-234.2863555908203,133.23375854492187,-154.73748168945312,1.6886865647218186e+18,35.79581852213541,-0.2614193260669707,0.0339866932481526,-0.7308688958485922,0.629538357257843,-1.7761187553405762,1.216826597849528,2.2037699222564697
5.85,1.6886865647737293e+18,35.847729248046875,0.1925350427627562,-0.0190741221110026,-0.1461949348449706,1.6886865647737293e+18,35.847729248046875,-0.4849453965822856,-9.238488833109535,3.2472596963246665,1.6886865647737293e+18,35.847729248046875,-0.6833264827728271,-9.201910018920898,3.3307672341664634,1.688686564769402e+18,35.84340209960937,0.0039706239476799,-0.1952223492165406,0.0644971864918867,1.688686564769402e+18,35.84340209960937,0.003054325779279,-0.1907935813069343,0.0669406484812498,,,,,,,,,,,,1.688686564778885e+18,35.852885107421876,20.966919326782225,38.03227996826172,-21.816039657592775,1.688686564778885e+18,35.852885107421876,-234.3790710449219,133.05807495117188,-154.5398376464844,1.6886865647737293e+18,35.847729248046875,-0.255764623483022,0.0271322919676701,-0.7308190067609152,0.6322587132453918,-1.7731736103693645,1.2168526649475098,2.1824488639831543
5.9,1.6886865648256407e+18,35.89964046223958,0.0136708219846089,0.065355618794759,0.0801889896392821,1.6886865648256407e+18,35.89964046223958,-0.6997012297312418,-9.159525553385416,3.4508490562438965,1.6886865648256407e+18,35.89964046223958,-0.7192180752754211,-9.20737648010254,3.3079726696014404,1.6886865648213194e+18,35.895319417317715,0.0596611723303794,0.0993165100614229,-0.151494580010573,1.6886865648213194e+18,35.895319417317715,0.0587957799434661,0.1037452792127926,-0.1490002175172169,1.688686564832e+18,35.906,0.0,0.582205593585968,0.8795974850654602,9.71500015258789,0.1823672205209732,38.573150634765625,40.30000305175781,-122.7531284,49.1903556,1.6886865648288904e+18,35.902890380859375,21.032799530029298,37.995679473876955,-21.98683967590332,1.6886865648288904e+18,35.902890380859375,-234.31319580078124,133.02147521972657,-154.71063842773438,1.6886865648256407e+18,35.89964046223958,-0.2555021345615387,0.0292029256621996,-0.7319890658060709,0.6309163570404053,-1.7849171956380208,1.2184634606043498,2.1967857678731284
5.95,1.688686564877553e+18,35.95155289713542,0.035659631093343,-0.0246470769246418,0.0016080538431803,1.688686564877553e+18,35.95155289713542,-0.746361255645752,-9.24806022644043,3.360719362894694,1.688686564877553e+18,35.95155289713542,-0.7878669102986654,-9.20590845743815,3.29642391204834,1.6886865648732352e+18,35.947235107421875,0.008653924257184,-0.0174605653931697,-0.1276708369453747,1.6886865648732352e+18,35.947235107421875,0.0077376260887831,-0.0130317918956279,-0.1251255671183267,,,,,,,,,,,,1.6886865648788849e+18,35.952884912109376,21.652559661865233,37.754119110107425,-22.00147933959961,1.6886865648788849e+18,35.952884912109376,-233.6934356689453,132.77991638183593,-154.72527770996095,1.688686564877553e+18,35.95155289713542,-0.2557284633318583,0.0314691166083017,-0.7342822750409445,0.6280457973480225,-1.8054253657658896,1.2180298964182537,2.220968325932821
6.0,1.6886865649294684e+18,36.00346826171875,0.2949464023113251,0.0400689442952474,0.0486795902252196,1.6886865649294684e+18,36.00346826171875,-0.5002993245919546,-9.181858698527018,3.408775250116984,1.6886865649294684e+18,36.00346826171875,-0.8010917703310648,-9.204422950744627,3.2974082628885903,1.6886865649251382e+18,35.999138346354165,-0.0122682101403672,-0.0866919594506422,0.0576758606669803,1.6886865649251382e+18,35.999138346354165,-0.0131336028377214,-0.0822631853322187,0.0601702276617288,1.688686564926428e+18,36.000427978515624,0.0,0.5785989165306091,0.8778231143951416,9.24899959564209,0.1833562552928924,30.847713470458984,40.30000305175781,-122.7531339,49.1903585,1.6886865649288806e+18,36.002880615234375,21.81603927612305,37.93223876953125,-21.906319427490235,1.6886865649288806e+18,36.002880615234375,-233.5299530029297,132.95803833007812,-154.63011779785157,1.6886865649294684e+18,36.00346826171875,-0.2541877428690592,0.0297984313219785,-0.7348109483718872,0.628134568532308,-1.80915371576945,1.2175919612248738,2.2199995517730713
6.05,1.6886865649813832e+18,36.05538289388021,0.1806732416152954,0.0258709589640299,0.0404913425445556,1.6886865649813832e+18,36.05538289388021,-0.5768696665763855,-9.197611490885416,3.4051860173543296,1.6886865649813832e+18,36.05538289388021,-0.7633889317512512,-9.20597775777181,3.3020072778066,1.6886865649770555e+18,36.05105550130208,-0.0065158959478139,0.0359901456783215,0.0611374303698539,1.6886865649770555e+18,36.05105550130208,-0.0073812883347272,0.0404698212320606,0.0635808904965718,,,,,,,,,,,,1.6886865649788836e+18,36.05288364257813,21.818479919433592,37.951759338378906,-21.886799621582032,1.6886865649788836e+18,36.05288364257813,-233.5275146484375,132.9775604248047,-154.6105987548828,1.6886865649813832e+18,36.05538289388021,-0.2543327112992604,0.0290091695884863,-0.7335342566172282,0.6296035051345825,-1.7980253299077351,1.2180498441060383,2.2079087098439536
6.1,1.6886865650332966e+18,36.10729638671875,-0.0659092863400776,-0.0656671524047851,-0.1285960674285888,1.6886865650332966e+18,36.10729638671875,-0.803190807501475,-9.288738250732422,3.2418758869171143,1.6886865650332966e+18,36.10729638671875,-0.7431275447209676,-9.20556640625,3.3077845573425293,1.6886865650289677e+18,36.10296793619792,-0.0063631795734787,0.0669915564358234,0.0032070425028602,1.6886865650289677e+18,36.10296793619792,-0.0072794773926337,0.0714203280707199,0.0057014090319474,,,,,,,,,,,,1.688686565028885e+18,36.1028849609375,21.11575927734375,37.946878814697264,-21.906319427490235,1.688686565028885e+18,36.1028849609375,-234.23023681640623,132.9726776123047,-154.63011474609374,1.6886865650332966e+18,36.10729638671875,-0.2558144927024841,0.0299560750524202,-0.7327921191851298,0.6298231681187948,-1.791820406913757,1.217928409576416,2.205272436141968
6.15,1.6886865650765522e+18,36.15055224609375,-0.1097438633441925,0.0251708030700683,-0.071286916732788,1.6886865650765522e+18,36.15055224609375,-0.8356932997703552,-9.199804782867432,3.296412229537964,1.6886865650765522e+18,36.15055224609375,-0.731795459985733,-9.207470893859863,3.305011749267578,1.6886865650808832e+18,36.154883138020836,0.0157806857799489,0.0172060386588176,-0.0014253525684277,1.6886865650808832e+18,36.154883138020836,0.0148643879219889,0.0216857157647609,0.0010181088000535,,,,,,,,,,,,1.6886865650788846e+18,36.152884521484374,21.274359893798827,37.98347930908203,-22.11371955871582,1.6886865650788846e+18,36.152884521484374,-234.0716339111328,133.0092742919922,-154.83751525878907,1.6886865650765522e+18,36.15055224609375,-0.2564068883657455,0.0306864529848098,-0.732367753982544,0.6300407946109772,-1.7887340188026428,1.2184904217720032,2.204106569290161
6.2,1.6886865651198126e+18,36.193812662760415,0.0091268221537271,0.0133466720581054,-0.0281383991241454,1.6886865651198126e+18,36.193812662760415,-0.7353941400845846,-9.21276569366455,3.332204898198446,1.6886865651198126e+18,36.193812662760415,-0.7503669857978821,-9.20860767364502,3.2976559003194175,1.6886865651327916e+18,36.20679150390625,0.0166460781668622,-0.0213293783987561,-0.0512617751955985,1.6886865651327916e+18,36.20679150390625,0.0157297799984613,-0.0169006049012143,-0.0488183138271172,,,,,,,,,,,,1.6886865651288858e+18,36.202885791015625,21.35731964111328,37.87367935180664,-21.576919937133788,1.6886865651288858e+18,36.202885791015625,-233.98867492675785,132.89947509765625,-154.30071716308595,1.6886865651198126e+18,36.193812662760415,-0.2558432221412658,0.0309102696677048,-0.7330042521158854,0.6295184095700582,-1.79456623395284,1.2188267310460408,2.2094273567199707
6.25,1.6886865651717217e+18,36.24572151692709,0.0656855305035908,-0.0282258987426757,-0.0184829235076904,1.6886865651717217e+18,36.24572151692709,-0.7001000046730042,-9.256036440531412,3.332204977671305,1.6886865651717217e+18,36.24572151692709,-0.7716315587361654,-9.2103058497111,3.288000504175822,1.688686565176048e+18,36.25004833984375,0.0178678082302212,-0.0413861200213432,-0.0177150922827422,1.688686565176048e+18,36.25004833984375,0.0169515097513794,-0.0369573459029197,-0.0152716315351426,,,,,,,,,,,,1.6886865651788844e+18,36.25288432617187,21.145039749145507,37.841958618164064,-22.121039199829102,1.6886865651788844e+18,36.25288432617187,-234.20095520019532,132.86775817871094,-154.84483642578124,1.6886865651717217e+18,36.24572151692709,-0.2550607323646545,0.0311038183669248,-0.7337350646654764,0.6289748946825663,-1.8013405005137126,1.2193292776743572,2.215318441390991
6.3,1.6886865652236306e+18,36.29763053385417,0.0190574526786804,0.0766944885253905,0.0455717245737711,1.6886865652236306e+18,36.29763053385417,-0.7425726453463236,-9.152546564737955,3.393221934636434,1.6886865652236306e+18,36.29763053385417,-0.7674761215845743,-9.211736361185707,3.284962813059489,1.6886865652193114e+18,36.29331136067709,-0.0032070425028602,-0.0026979884132743,0.0333430621152122,1.6886865652193114e+18,36.29331136067709,-0.0040215294187267,0.0017816905553141,0.0358374277129768,,,,,,,,,,,,1.688686565228885e+18,36.302885009765625,21.308519744873045,37.93223876953125,-21.991719818115236,1.688686565228885e+18,36.302885009765625,-234.0374786376953,132.95803833007812,-154.71551818847655,1.6886865652236306e+18,36.29763053385417,-0.2546262343724568,0.0307735918710628,-0.7336046497027079,0.6293191313743591,-1.800346414248149,1.219752550125122,2.213186502456665
6.35,1.6886865652755494e+18,36.34954939778646,-0.150420327981313,0.0193869272867838,-0.0480462710062662,1.6886865652755494e+18,36.34954939778646,-0.8995019197463989,-9.207581837972006,3.3088749249776206,1.6886865652755494e+18,36.34954939778646,-0.7549276153246561,-9.209464073181152,3.294233798980713,1.688686565271225e+18,36.34522493489583,-0.0296269636601208,-0.0679078536729017,0.0389426598946253,1.688686565271225e+18,36.34522493489583,-0.0305432615180809,-0.0634790795544783,0.0414370248715082,,,,,,,,,,,,1.68868656527889e+18,36.352889892578126,20.842479705810547,37.90295944213867,-22.033199310302734,1.68868656527889e+18,36.352889892578126,-234.50351257324215,132.9287567138672,-154.75699157714843,1.6886865652755494e+18,36.34954939778646,-0.2543365061283111,0.0295008265723784,-0.7332207163174947,0.6299440860748291,-1.796107292175293,1.2190800507863362,2.206679662068685
6.4,1.6886865653274616e+18,36.40146150716146,-0.0350430409113566,-0.0384476979573567,-0.0392324924468994,1.6886865653274616e+18,36.40146150716146,-0.7940183281898499,-9.26361338297526,3.3204402128855386,1.6886865653274616e+18,36.40146150716146,-0.7648213108380636,-9.207660992940268,3.296985308329264,1.6886865653231368e+18,36.397136800130205,-0.0054468816767136,-0.1324559450149535,0.0131845083863784,1.6886865653231368e+18,36.397136800130205,-0.006312274451678,-0.1280271708965301,0.0156279698518725,,,,,,,,,,,,1.6886865653288863e+18,36.40288623046875,21.069399642944337,37.96884002685547,-21.781879806518553,1.6886865653288863e+18,36.40288623046875,-234.27659301757816,132.99463806152343,-154.50567932128905,1.6886865653274616e+18,36.40146150716146,-0.2522746821244557,0.0270355610797802,-0.7336595257123312,0.6303724845250448,-1.7987751563390095,1.218547264734904,2.2027272383371987
6.45,1.6886865653793677e+18,36.45336767578125,0.0075259407361348,0.0588464736938476,0.0913845698038736,1.6886865653793677e+18,36.45336767578125,-0.7694918910662333,-9.167302449544271,3.4440693855285645,1.6886865653793677e+18,36.45336767578125,-0.7828638553619385,-9.208644231160482,3.289997418721517,1.6886865653750477e+18,36.44904777018229,0.0120136834060151,-0.0327321955313284,-0.0259108673781156,1.6886865653750477e+18,36.44904777018229,0.0110973850823938,-0.0283034232755501,-0.0234165002281466,,,,,,,,,,,,1.6886865653788815e+18,36.4528814453125,21.864839553833008,38.1664794921875,-21.789199447631837,1.6886865653788815e+18,36.4528814453125,-233.4811553955078,133.19227905273436,-154.51299743652345,1.6886865653793677e+18,36.45336767578125,-0.2508685290813446,0.0262322761118411,-0.7343154152234396,0.6302045186360677,-1.8044397433598836,1.218838055928548,2.205142021179199
6.5,1.688686565431286e+18,36.50528605143229,-0.0493046442667643,-0.0017026265462239,0.0783001581827799,1.688686565431286e+18,36.50528605143229,-0.844068189462026,-9.225926717122396,3.432105302810669,1.688686565431286e+18,36.50528605143229,-0.8006095687548319,-9.206719398498535,3.2911177476247153,1.688686565426959e+18,36.50095906575521,-0.0141008061667282,-0.0611883352200189,-0.0054977865268786,1.688686565426959e+18,36.50095906575521,-0.0150171034038065,-0.0567595623433589,-0.002952515380457,,,,,,,,,,,,1.6886865654288827e+18,36.50288271484375,21.637919998168947,37.91515960693359,-21.803839492797852,1.6886865654288827e+18,36.50288271484375,-233.70807495117188,132.94095764160156,-154.52763671875,1.688686565431286e+18,36.50528605143229,-0.2501010199387868,0.0255183428525924,-0.7349559664726257,0.6297918558120728,-1.8094590504964192,1.2182691891988118,2.208010752995809
6.55,1.6886865654831992e+18,36.55719897460937,0.0427881280581156,0.1053988138834635,0.0221789677937825,1.6886865654831992e+18,36.55719897460937,-0.7537391384442648,-9.115856488545736,3.38385001818339,1.6886865654831992e+18,36.55719897460937,-0.8023732900619507,-9.203750610351562,3.298983653386434,1.6886865654788677e+18,36.55286759440104,-0.022805635506908,-0.0862338095903396,0.0334448715051014,1.6886865654788677e+18,36.55286759440104,-0.0237219339857498,-0.0818050404389698,0.0358883328735828,,,,,,,,,,,,1.6886865654788846e+18,36.55288447265625,21.501279830932617,37.86147918701172,-21.70379981994629,1.6886865654788846e+18,36.55288447265625,-233.8447143554687,132.88727416992188,-154.42760314941407,1.6886865654831992e+18,36.55719897460937,-0.2488714357217152,0.0234826008478799,-0.7350848913192749,0.6302074591318766,-1.8094165325164795,1.2173939148585002,2.2032153606414795
6.6,1.6886865655264548e+18,36.60045458984375,0.0002147257328033,-0.052377700805664,0.0171166658401488,1.6886865655264548e+18,36.60045458984375,-0.7974081337451935,-9.27218770980835,3.3825539350509644,1.6886865655264548e+18,36.60045458984375,-0.8034688830375671,-9.202305316925049,3.3027498722076416,1.6886865655307855e+18,36.60478548177083,-0.0036142859607934,-0.0349720350156227,-0.0142535225798686,1.6886865655307855e+18,36.60478548177083,-0.0044796785029272,-0.0304923566679159,-0.0117591554298996,,,,,,,,,,,,1.688686565528883e+18,36.60288295898438,21.64035949707031,38.03715896606445,-21.75747947692871,1.688686565528883e+18,36.60288295898438,-233.70563659667968,133.06295776367188,-154.4812774658203,1.6886865655264548e+18,36.60045458984375,-0.2482695654034614,0.022496048361063,-0.7351537644863129,0.6304007470607758,-1.809466302394867,1.2169681787490845,2.200953483581543
