seconds_elapsed_rounded,accelerometer_time,accelerometer_seconds_elapsed,accelerometer_z,accelerometer_y,accelerometer_x,accelerometeruncalibrated_time,accelerometeruncalibrated_seconds_elapsed,accelerometeruncalibrated_z,accelerometeruncalibrated_y,accelerometeruncalibrated_x,gravity_time,gravity_seconds_elapsed,gravity_z,gravity_y,gravity_x,gyroscope_time,gyroscope_seconds_elapsed,gyroscope_z,gyroscope_y,gyroscope_x,gyroscopeuncalibrated_time,gyroscopeuncalibrated_seconds_elapsed,gyroscopeuncalibrated_z,gyroscopeuncalibrated_y,gyroscopeuncalibrated_x,location_time,location_seconds_elapsed,location_bearingAccuracy,location_speedAccuracy,location_verticalAccuracy,location_horizontalAccuracy,location_speed,location_bearing,location_altitude,location_longitude,location_latitude,magnetometer_time,magnetometer_seconds_elapsed,magnetometer_z,magnetometer_y,magnetometer_x,magnetometeruncalibrated_time,magnetometeruncalibrated_seconds_elapsed,magnetometeruncalibrated_z,magnetometeruncalibrated_y,magnetometeruncalibrated_x,orientation_time,orientation_seconds_elapsed,orientation_qz,orientation_qy,orientation_qx,orientation_qw,orientation_roll,orientation_pitch,orientation_yaw
0.0,1.6886866039328737e+18,75.00687361653645,-0.3039711713790893,0.0484590530395507,-0.0211414496103922,1.6886866039328737e+18,75.00687361653645,-0.8833503723144531,-9.191828727722168,3.33300256729126,1.6886866039328737e+18,75.00687361653645,-0.5852252244949341,-9.222783088684082,3.291456619898478,1.6886866039285486e+18,75.00254866536459,-0.060017510006825,0.5916738907496134,-0.2474513302246729,1.6886866039285486e+18,75.00254866536459,-0.0610356194277604,0.5962044795354208,-0.2451096773147582,1.688686603926894e+18,75.00089404296875,0.0,0.4863397777080536,0.8908339738845825,6.6539998054504395,0.0183196403086185,0.0,40.20000076293945,-122.7531544,49.1903744,1.6886866039288868e+18,75.00288666992188,20.871759796142577,38.91311950683594,-20.256879806518555,1.6886866039288868e+18,75.00288666992188,-234.47423400878907,133.9389190673828,-152.98067932128907,1.6886866039328737e+18,75.00687361653645,-0.2212891181310018,-0.0103200090428193,-0.7278148134549459,0.6489924391110738,-1.746756275494893,1.2230488856633503,2.050853411356608
0.05,1.6886866039761326e+18,75.05013269042969,-0.1959111094474792,-0.0588107109069823,-0.1494319438934325,1.6886866039761326e+18,75.05013269042969,-0.7917251884937286,-9.283254623413086,3.245863914489746,1.6886866039761326e+18,75.05013269042969,-0.6016601026058197,-9.206939220428469,3.332608461380005,1.6886866039804608e+18,75.05446085611979,-0.0717766682306925,0.4923064907391866,-0.2477058619260788,1.6886866039804608e+18,75.05446085611979,-0.072845680018266,0.4968879620234172,-0.2453642040491104,,,,,,,,,,,,1.6886866039788838e+18,75.05288393554687,21.2548397064209,38.76183929443359,-20.64483985900879,1.6886866039788838e+18,75.05288393554687,-234.09115600585935,133.78763732910156,-153.36863403320314,1.6886866039761326e+18,75.05013269042969,-0.2307207509875297,-0.0027655026060529,-0.7284613251686096,0.6450571715831757,-1.74940687417984,1.2183390855789185,2.0783380270004272
0.1,1.6886866040193905e+18,75.09339029947917,-0.0123246510823567,-0.1029793421427408,-0.286068042119344,1.6886866040193905e+18,75.09339029947917,-0.6558327873547872,-9.311071077982584,3.1451659202575684,1.6886866040193905e+18,75.09339029947917,-0.6493541598320007,-9.190587043762209,3.3685465653737388,1.688686604032372e+18,75.1063720703125,-0.0551305897533893,0.490932027498881,-0.3086396654446919,1.688686604032372e+18,75.1063720703125,-0.0561996027827262,0.4955135385195414,-0.3063489298025767,,,,,,,,,,,,1.6886866040288855e+18,75.10288525390624,21.696479415893556,38.30799942016601,-21.320719909667968,1.6886866040288855e+18,75.10288525390624,-233.64951171875,133.33379821777345,-154.04451599121094,1.6886866040193905e+18,75.09339029947917,-0.2388398150602976,0.0042157350108026,-0.7301182746887207,0.6401944955190023,-1.7612134218215942,1.213542938232422,2.112307627995809
0.15,1.6886866040713004e+18,75.14530061848957,0.0888222058614094,-0.1779568990071614,-0.464852253595988,1.6886866040713004e+18,75.14530061848957,-0.6007978816827139,-9.37089188893636,2.998406171798706,1.6886866040713004e+18,75.14530061848957,-0.6954661210378011,-9.175430297851562,3.40057102839152,1.6886866040756357e+18,75.14963537597657,-0.005650504026562,0.5489387810230255,-0.2516764849424362,1.6886866040756357e+18,75.14963537597657,-0.0067195175215602,0.5535202622413635,-0.2493857368826866,,,,,,,,,,,,1.6886866040788864e+18,75.15288627929688,21.357319259643553,38.05911865234375,-21.840439224243163,1.6886866040788864e+18,75.15288627929688,-233.98867492675785,133.0849182128906,-154.5642333984375,1.6886866040713004e+18,75.14530061848957,-0.2490882774194081,0.014055780135095,-0.7316019733746847,0.6344272096951803,-1.7725327809651692,1.209147810935974,2.153139591217041
0.2,1.688686604123216e+18,75.19721598307292,0.3214041193326314,-0.1181135177612304,-0.2924577395121256,1.688686604123216e+18,75.19721598307292,-0.3647060493628184,-9.31186866760254,3.1692935625712075,1.688686604123216e+18,75.19721598307292,-0.6919562220573425,-9.176250457763672,3.3990639050801597,1.6886866041188905e+18,75.19289038085937,0.0736601675550142,0.7106908162434896,-0.2264782935380935,1.6886866041188905e+18,75.19289038085937,0.0725911532839138,0.7152722875277201,-0.2240857382615406,,,,,,,,,,,,1.688686604128888e+18,75.20288813476563,21.076719665527342,37.917598724365234,-22.555359649658204,1.688686604128888e+18,75.20288813476563,-234.26927490234377,132.94339904785156,-155.27915649414064,1.688686604123216e+18,75.19721598307292,-0.260192076365153,0.0269620871792236,-0.7311110695203146,0.630092998345693,-1.7716302076975503,1.209383845329285,2.1874446868896484
0.25,1.688686604175129e+18,75.24912923177084,-0.0446600417296091,0.134588877360026,0.0696144104003906,1.688686604175129e+18,75.24912923177084,-0.6604190468788147,-9.072387059529625,3.509074449539185,1.688686604175129e+18,75.24912923177084,-0.6216050386428833,-9.189471244812012,3.37677264213562,1.6886866041708014e+18,75.24480143229168,0.1246165061990419,1.1026626427968342,-0.2166535407304763,1.6886866041708014e+18,75.24480143229168,0.1235984042286872,1.1072441736857097,-0.2143628001213073,,,,,,,,,,,,1.688686604178882e+18,75.25288222656249,20.415479278564455,37.70775909423829,-23.31907997131348,1.688686604178882e+18,75.25288222656249,-234.9305145263672,132.73355712890626,-156.04287719726562,1.688686604175129e+18,75.24912923177084,-0.2766918341318766,0.0466955043375491,-0.7276429533958435,0.625881294409434,-1.752832055091858,1.2132153113683064,2.2218820254007974
0.3,1.6886866042270413e+18,75.30104150390625,-0.4542038440704345,0.1536874771118163,0.0957640806833902,1.6886866042270413e+18,75.30104150390625,-1.0013962785402934,-9.060422897338867,3.527818202972412,1.6886866042270413e+18,75.30104150390625,-0.5530384580294291,-9.196605682373049,3.369366725285848,1.6886866042227126e+18,75.29671264648438,0.0633772698541482,1.0471757451693218,-0.2759074767430623,1.6886866042227126e+18,75.29671264648438,0.0623082555830478,1.051706314086914,-0.2736167311668395,,,,,,,,,,,,1.6886866042288827e+18,75.3028826171875,19.268679428100587,37.69311981201171,-24.134039306640624,1.6886866042288827e+18,75.3028826171875,-236.0773162841797,132.7189178466797,-156.8578369140625,1.6886866042270413e+18,75.30104150390625,-0.2956719895203908,0.0680833980441093,-0.7235510945320129,0.6199701229731241,-1.7334935665130615,1.2152977387110393,2.2623109022776284
0.35,1.6886866042789535e+18,75.35295361328126,-0.4090310335159302,0.0675608317057291,-0.1441383361816405,1.6886866042789535e+18,75.35295361328126,-0.9728817741076152,-9.138987223307293,3.3056844075520835,1.6886866042789535e+18,75.35295361328126,-0.5696967641512553,-9.189043362935385,3.3871353467305503,1.688686604274627e+18,75.34862703450521,-0.0114537233797212,0.6334163546562195,-0.323911299308141,1.688686604274627e+18,75.34862703450521,-0.0125227377284318,0.6378960311412811,-0.3216205437978108,,,,,,,,,,,,1.688686604278886e+18,75.35288593749999,18.72211952209473,37.74679946899414,-24.81967964172363,1.688686604278886e+18,75.35288593749999,-236.6238739013672,132.77259521484376,-157.54347534179686,1.6886866042789535e+18,75.35295361328126,-0.3094771007696787,0.0832441424330075,-0.7225640018781027,0.6125156084696451,-1.7374236981074016,1.2130913734436035,2.3095973332722983
0.4,1.6886866043308636e+18,75.40486368815104,0.1372251113255818,-0.0913635889689127,-0.3004120190938313,1.6886866043308636e+18,75.40486368815104,-0.5176472961902618,-9.281160990397137,3.1780672868092856,1.6886866043308636e+18,75.40486368815104,-0.6607184410095215,-9.172292709350586,3.415791908899943,1.6886866043265487e+18,75.40054866536458,-0.0565050356090068,0.2140573610862096,-0.2987640102704366,1.6886866043265487e+18,75.40054866536458,-0.0575740486383437,0.2185879548390706,-0.2964732646942138,,,,,,,,,,,,1.6886866043288837e+18,75.40288374023437,18.66843948364258,37.20512008666992,-24.931919860839844,1.6886866043288837e+18,75.40288374023437,-236.67755432128905,132.23092041015624,-157.6557189941406,1.6886866043308636e+18,75.40486368815104,-0.3156476517518361,0.0903732851147651,-0.7249188820521036,0.6055463751157125,-1.761842171351115,1.208247701327006,2.3542327880859375
0.45,1.6886866043827814e+18,75.45678149414063,0.9374184012413024,-0.2735188802083333,-0.3766597906748454,1.6886866043827814e+18,75.45678149414063,0.2129612167676289,-9.448658307393393,3.127020359039306,1.6886866043827814e+18,75.45678149414063,-0.7303032279014587,-9.157634735107422,3.440992752710978,1.6886866043784522e+18,75.45245222981771,-0.0312559393544991,0.2866994241873422,-0.1914553443590799,1.6886866043784522e+18,75.45245222981771,-0.0323249526942769,0.2912300030390422,-0.1891136988997459,,,,,,,,,,,,1.6886866043788818e+18,75.4528818359375,19.2637996673584,37.0440788269043,-25.151519775390625,1.6886866043788818e+18,75.4528818359375,-236.0821960449219,132.06987915039062,-157.8753173828125,1.6886866043827814e+18,75.45678149414063,-0.3196081320444743,0.0947704265515009,-0.7268007397651672,0.6005178888638815,-1.7799410820007324,1.204053560892741,2.385150114695231
0.5,1.6886866044260408e+18,75.50004064941407,0.1722533851861953,-0.3061871528625488,-0.392067551612854,1.6886866044260408e+18,75.50004064941407,-0.5033900737762451,-9.4794659614563,3.126521944999695,1.6886866044260408e+18,75.50004064941407,-0.681489497423172,-9.155774116516112,3.455902099609375,1.688686604430367e+18,75.50436702473958,-0.0006108652208544,0.5093089044094086,-0.0188350118696689,1.688686604430367e+18,75.50436702473958,-0.0016798794191951,0.5137885808944702,-0.0165442675352096,,,,,,,,,,,,1.688686604428888e+18,75.50288798828124,18.909999084472656,36.936719512939455,-25.578519439697267,1.688686604428888e+18,75.50288798828124,-236.4359924316406,131.96251831054687,-158.30231628417968,1.6886866044260408e+18,75.50004064941407,-0.3273833543062209,0.1018157117068767,-0.7241325974464417,0.5983981788158417,-1.7655074000358582,1.2035228610038755,2.393118143081665
0.55,1.688686604469298e+18,75.54329760742188,-0.2421302994092305,-0.0880476633707681,-0.3103458881378173,1.688686604469298e+18,75.54329760742188,-0.8618149558703104,-9.263015111287435,3.2143584887186685,1.688686604469298e+18,75.54329760742188,-0.6255306800206503,-9.15746275583903,3.462016979853312,1.6886866044822815e+18,75.55628157552083,0.0059050307948685,0.2018400530020395,-0.0065158955597629,1.6886866044822815e+18,75.55628157552083,0.00488692180564,0.2063706368207931,-0.0042251511476934,,,,,,,,,,,,1.6886866044788815e+18,75.55288159179688,18.229239654541015,36.76836013793945,-26.088479614257817,1.6886866044788815e+18,75.55288159179688,-237.11675415039065,131.79415588378907,-158.8122772216797,1.688686604469298e+18,75.54329760742188,-0.3329273959000905,0.1066402172048886,-0.7214650313059489,0.5977230866750082,-1.7495662371317546,1.2040022611618042,2.3928465048472085
0.6,1.6886866045212137e+18,75.59521362304689,-0.0116946895917256,-0.0321375528971353,-0.08445405960083,1.6886866045212137e+18,75.59521362304689,-0.6323033968607584,-9.207780838012695,3.438286781311035,1.6886866045212137e+18,75.59521362304689,-0.6264547308286031,-9.158138593037924,3.4600534439086914,1.6886866045255404e+18,75.59954028320313,0.0153479892760514,0.09789115563035,-0.1399644948542117,1.6886866045255404e+18,75.59954028320313,0.0142789748497306,0.1024726442992687,-0.1376737542450427,,,,,,,,,,,,1.6886866045288845e+18,75.60288466796877,17.89739990234375,37.024559020996094,-25.944519424438475,1.6886866045288845e+18,75.60288466796877,-237.44859313964844,132.05036010742188,-158.66831665039064,1.6886866045212137e+18,75.59521362304689,-0.3353702028592427,0.1097711895902951,-0.7210282286008199,0.5963170329729716,-1.7499236663182576,1.2041945457458496,2.401647567749023
0.65,1.6886866045731218e+18,75.64712166341145,0.1789933443069457,-0.0307111740112304,-0.0210549036661784,1.6886866045731218e+18,75.64712166341145,-0.4939184685548146,-9.205188751220703,3.4949169158935547,1.6886866045731218e+18,75.64712166341145,-0.6787578662236532,-9.156972885131836,3.453284422556559,1.6886866045687972e+18,75.64279736328125,0.019293160488208,0.0624100652833779,-0.1187114790081977,1.6886866045687972e+18,75.64279736328125,0.0182241468379894,0.066940647860368,-0.1163189224898814,,,,,,,,,,,,1.688686604578887e+18,75.65288681640625,18.238999938964845,36.79519958496094,-26.229999542236328,1.688686604578887e+18,75.65288681640625,-237.10699462890625,131.8209991455078,-158.95379638671875,1.6886866045731218e+18,75.64712166341145,-0.3360312382380168,0.1124492809176444,-0.722463071346283,0.5937042037645975,-1.764892061551412,1.2038623094558716,2.421708583831787
0.7,1.6886866046250373e+18,75.69903743489583,0.199881096680959,0.0776109695434569,0.076308250427246,1.6886866046250373e+18,75.69903743489583,-0.4821537633736928,-9.097112973531088,3.5898322264353433,1.6886866046250373e+18,75.69903743489583,-0.6878809134165446,-9.157219250996908,3.4508365790049234,1.6886866046207086e+18,75.69470857747395,-0.0001018107092628,0.0008144867606461,-0.0027997992001473,1.6886866046207086e+18,75.69470857747395,-0.0011708250579734,0.005395975895226,-0.0005090547444221,,,,,,,,,,,,1.688686604628881e+18,75.702880859375,18.2902400970459,36.63171920776367,-26.051879501342775,1.688686604628881e+18,75.702880859375,-237.05575866699215,131.65751953125,-158.7756774902344,1.6886866046250373e+18,75.69903743489583,-0.336333304643631,0.1132456486423809,-0.7226608991622925,0.5931412577629089,-1.7675714095433552,1.20393172899882,2.4260528087615967
0.75,1.6886866046769472e+18,75.7509471842448,-0.0329666932423909,0.0554510752360025,-0.0378203392028808,1.6886866046769472e+18,75.7509471842448,-0.6917251547177633,-9.1182492574056,3.4829527537027993,1.6886866046769472e+18,75.7509471842448,-0.6646044850349426,-9.156195640563965,3.4580856959025064,1.6886866046726236e+18,75.74662353515625,-0.0209221343199411,-0.0175114708642164,0.0823649962743122,1.6886866046726236e+18,75.74662353515625,-0.0219911492119232,-0.0129299806430935,0.0847575527926285,,,,,,,,,,,,1.6886866046788818e+18,75.75288173828125,18.175559997558594,36.66343994140625,-25.866439437866212,1.6886866046788818e+18,75.75288173828125,-237.1704345703125,131.68923950195312,-158.590234375,1.6886866046769472e+18,75.7509471842448,-0.3364566663901011,0.1122221872210502,-0.7219993074735006,0.5940703749656677,-1.760687510172526,1.2036409378051758,2.4178192615509033
0.8,1.6886866047288625e+18,75.80286238606772,-0.2278486887613932,0.0001503626505534,-0.0382027626037597,1.6886866047288625e+18,75.80286238606772,-0.8522436618804932,-9.173882802327476,3.488137165705363,1.6886866047288625e+18,75.80286238606772,-0.6302409966786703,-9.15652847290039,3.4636525313059487,1.6886866047245394e+18,75.79853946940104,-0.0095702222703645,-0.0765617763002712,0.0859792828559875,1.6886866047245394e+18,75.79853946940104,-0.0106392366578802,-0.0720311924815177,0.0883718393743038,,,,,,,,,,,,1.6886866047288858e+18,75.80288579101563,18.129199600219728,36.680519104003906,-25.946960067749025,1.6886866047288858e+18,75.80288579101563,-237.2167938232422,131.7063201904297,-158.6707550048828,1.6886866047288625e+18,75.80286238606772,-0.335876206556956,0.1101961309711138,-0.7210979064305624,0.5958701570828756,-1.7508028348286946,1.203735868136088,2.403969128926595
0.85,1.6886866047807803e+18,75.85478002929688,-0.0998097459475199,0.0565395355224609,0.0697811444600423,1.6886866047807803e+18,75.85478002929688,-0.7415756185849508,-9.118648211161297,3.589832146962484,1.6886866047807803e+18,75.85478002929688,-0.6476118961970011,-9.15768305460612,3.4573636054992676,1.6886866047764472e+18,75.8504471842448,0.0153225368509689,-0.054316102216641,-0.0586430625990032,1.6886866047764472e+18,75.8504471842448,0.0142535222694277,-0.0498364232480525,-0.0562505077881117,,,,,,,,,,,,1.6886866047788813e+18,75.85288120117187,18.35855941772461,36.90987854003906,-26.09823989868164,1.6886866047788813e+18,75.85288120117187,-236.98743591308593,131.93567810058593,-158.82203674316406,1.6886866047807803e+18,75.85478002929688,-0.3344590465227763,0.1094196264942486,-0.7218296130498251,0.595924456914266,-1.7559809684753418,1.2040645678838091,2.40579620997111
0.9,1.6886866048326833e+18,75.90668334960937,0.1259334286053975,0.0208533604939778,0.0319342613220214,1.6886866048326833e+18,75.90668334960937,-0.5692923863728842,-9.152746200561523,3.545764366785685,1.6886866048326833e+18,75.90668334960937,-0.7010718385378519,-9.156094868977863,3.4511427084604898,1.6886866048283625e+18,75.90236246744792,0.0053450708898405,-0.0651589594781398,-0.0838412543137867,1.6886866048283625e+18,75.90236246744792,0.0042760566187401,-0.0605774695674578,-0.0815505124628543,,,,,,,,,,,,1.68868660482888e+18,75.90288017578125,18.219479370117188,36.753719329833984,-25.878639221191406,1.68868660482888e+18,75.90288017578125,-237.126513671875,131.7795196533203,-158.6024383544922,1.6886866048326833e+18,75.90668334960937,-0.3329637050628662,0.1094569464524586,-0.7237089276313782,0.5944739778836569,-1.7712265650431316,1.2036137580871582,2.4188573360443115
0.95,1.6886866048759496e+18,75.94994970703125,0.2711264342069626,-0.0432405471801757,-0.0482927560806274,1.6886866048759496e+18,75.94994970703125,-0.4420739859342574,-9.215956211090088,3.464208960533142,1.6886866048759496e+18,75.94994970703125,-0.7190464735031128,-9.155210971832275,3.4498143196105957,1.6886866048802765e+18,75.95427644856771,0.0001527162579198,-0.0213293777778744,0.0079412475849191,1.6886866048802765e+18,75.95427644856771,-0.0009162978385575,-0.016747888798515,0.0102828989426295,,,,,,,,,,,,1.6886866048788795e+18,75.9528794921875,18.546439743041994,36.692719268798825,-25.820079803466797,1.6886866048788795e+18,75.9528794921875,-236.79955444335937,131.71851806640626,-158.5438720703125,1.6886866048759496e+18,75.94994970703125,-0.3321019560098647,0.1089693941175937,-0.7244152426719666,0.5941856205463409,-1.776301622390747,1.203362226486206,2.4219011068344116
1.0,1.6886866049192087e+18,75.99320841471354,0.1320479909578959,-0.0493396123250325,-0.0326156616210937,1.6886866049192087e+18,75.99320841471354,-0.5668995678424835,-9.223733266194662,3.4783664544423423,1.6886866049192087e+18,75.99320841471354,-0.7047935922940572,-9.15688896179199,3.448294719060262,1.6886866049321848e+18,76.0061845703125,0.0081957754058141,0.0422515130291382,0.0304414511968691,1.6886866049321848e+18,76.0061845703125,0.0071267612899342,0.04678209622701,0.0327321961522102,1.68868660492692e+18,76.000919921875,0.0,0.4123364686965942,0.9003440737724304,6.572999954223633,0.0076828221790492,0.0,40.20000076293945,-122.7531542,49.1903747,1.688686604928882e+18,76.00288178710937,18.00964012145996,36.76103973388672,-26.195840072631835,1.688686604928882e+18,76.00288178710937,-237.33635559082032,131.7868408203125,-158.91963806152344,1.6886866049192087e+18,75.99320841471354,-0.3323745429515838,0.109059361120065,-0.7239001790682474,0.5946441690127054,-1.7724252541859944,1.203838626543681,2.4185450077056885
1.05,1.6886866049711206e+18,76.04512076822917,-0.1066382527351378,-0.0134449005126953,7.526079813640039e-05,1.6886866049711206e+18,76.04512076822917,-0.7838488022486368,-9.19023354848226,3.509074449539185,1.6886866049711206e+18,76.04512076822917,-0.6830565730730692,-9.159283955891928,3.4463117917378745,1.688686604975448e+18,76.04944812011719,0.0016798794385977,0.0149661988252773,0.0332157984375953,1.688686604975448e+18,76.04944812011719,0.0006108653033152,0.0195476887747644,0.0356592573225497,1.688686604999e+18,76.073,0.0,0.4123364686965942,0.8421907424926758,7.076000213623047,0.0072226990014314,0.0,40.30000305175781,-122.7531541,49.1903748,1.6886866049788838e+18,76.05288388671875,18.522039794921874,36.88059921264649,-26.122639846801757,1.6886866049788838e+18,76.05288388671875,-236.8239532470703,131.906396484375,-158.8464385986328,1.6886866049711206e+18,76.04512076822917,-0.3330392738183339,0.109471966822942,-0.7230722109476725,0.5952035983403524,-1.7664769887924194,1.2045195897420249,2.414188702901205
1.1,1.6886866050230295e+18,76.09702970377604,-0.1224857966105142,-0.0336484909057617,-0.1508882840474446,1.6886866050230295e+18,76.09702970377604,-0.7974081436793009,-9.2097749710083,3.3603206475575766,1.6886866050230295e+18,76.09702970377604,-0.6807683706283569,-9.1586217880249,3.448521534601847,1.6886866050187087e+18,76.09270865885416,-0.0147116715088486,-0.0896953816215197,0.0206167021145422,1.6886866050187087e+18,76.09270865885416,-0.0157806851590672,-0.0851138879855473,0.0230601628621418,,,,,,,,,,,,1.688686605028881e+18,76.10288090820312,18.409799575805664,36.634159088134766,-25.949399566650392,1.688686605028881e+18,76.10288090820312,-236.93619384765623,131.6599578857422,-158.6731964111328,1.6886866050230295e+18,76.09702970377604,-0.3323336243629455,0.1083823641141255,-0.7231553594271342,0.5956956346829733,-1.7657156785329182,1.2043315172195437,2.4107162952423096
1.15,1.688686605074945e+18,76.14894514973959,-0.0189746618270873,-0.0335407257080078,-0.2000500361124674,1.688686605074945e+18,76.14894514973959,-0.695314367612203,-9.211170832316082,3.3068808714548745,1.688686605074945e+18,76.14894514973959,-0.6821857293446859,-9.160125414530436,3.4442435105641684,1.688686605070617e+18,76.1446171875,0.0062104637424151,-0.071674854805072,0.0460185147821902,1.688686605070617e+18,76.1446171875,0.0051414493160942,-0.06709336489439,0.0483092591166495,,,,,,,,,,,,1.6886866050788828e+18,76.15288271484374,18.941719818115235,36.741519165039065,-25.817639541625976,1.6886866050788828e+18,76.15288271484374,-236.4042785644531,131.76731872558594,-158.54143371582032,1.688686605074945e+18,76.14894514973959,-0.3305632869402568,0.1066081821918487,-0.7234692374865214,0.5966193477312723,-1.7663472096125286,1.2047593990961711,2.4059487183888755
1.2,1.688686605126857e+18,76.20085701497396,-0.0141847729682922,0.0489263534545898,0.0389886697133382,1.688686605126857e+18,76.20085701497396,-0.6809574365615845,-9.136195500691732,3.527818202972412,1.688686605126857e+18,76.20085701497396,-0.6726186871528625,-9.167617162068684,3.4261421362559,1.6886866051225334e+18,76.196533203125,0.0482583542664845,0.0155770628092189,0.0106901415080452,1.6886866051225334e+18,76.196533203125,0.0472911509374777,0.0201585541168848,0.0129808865798015,,,,,,,,,,,,1.688686605128882e+18,76.20288193359374,18.66111946105957,36.724439239501955,-25.50287971496582,1.688686605128882e+18,76.20288193359374,-236.68487548828125,131.75023498535157,-158.22667541503907,1.688686605126857e+18,76.20085701497396,-0.3297686477502187,0.1068339298168817,-0.7230987946192423,0.5974672635396322,-1.7646673917770386,1.2068992853164673,2.4032763640085855
1.25,1.6886866051787717e+18,76.25277132161459,-0.2704847256342569,0.1734514236450195,0.1848781903584797,1.6886866051787717e+18,76.25277132161459,-0.9258229732513428,-9.018349329630531,3.6580275694529214,1.6886866051787717e+18,76.25277132161459,-0.6611842711766561,-9.174296061197916,3.410461982091268,1.6886866051744458e+18,76.24844563802084,0.0300342077389359,0.0762054386238256,-0.0065158960690798,1.6886866051744458e+18,76.24844563802084,0.0290670047203699,0.0807869276031851,-0.0041742457445555,,,,,,,,,,,,1.6886866051788844e+18,76.2528841796875,18.390280151367183,36.94647903442383,-26.01283950805664,1.6886866051788844e+18,76.2528841796875,-236.9557159423828,131.97228088378907,-158.73663635253905,1.6886866051787717e+18,76.25277132161459,-0.3306153615315755,0.1088067839543024,-0.7224010427792867,0.5974873900413513,-1.76230521996816,1.2088165680567424,2.405068794886271
1.3,1.6886866052306808e+18,76.3046805826823,0.0053391059239705,-0.0209697087605793,0.0533564090728759,1.6886866052306808e+18,76.3046805826823,-0.686740110317866,-9.207980155944824,3.5320056279500327,1.6886866052306808e+18,76.3046805826823,-0.6979252497355143,-9.169505755106607,3.415961821873983,1.688686605226354e+18,76.30035424804687,-0.030746883402268,-0.1409571568171183,-0.0721330046653747,1.688686605226354e+18,76.30035424804687,-0.0318158982942501,-0.136426568031311,-0.0697913554807503,,,,,,,,,,,,1.6886866052288817e+18,76.30288168945313,18.26095962524414,36.951359558105466,-25.739559173583984,1.6886866052288817e+18,76.30288168945313,-237.0850372314453,131.97716064453124,-158.4633575439453,1.6886866052306808e+18,76.3046805826823,-0.3293860852718352,0.1078064367175101,-0.7238448063532511,0.5965982476870219,-1.772338589032491,1.2074414491653442,2.4118083318074546
1.35,1.688686605282596e+18,76.35659611002605,0.6210677623748779,-0.2396227518717447,-0.1841986179351805,1.688686605282596e+18,76.35659611002605,-0.1302094335357347,-9.420143763224283,3.2993036111195884,1.688686605282596e+18,76.35659611002605,-0.7571232318878174,-9.163016319274902,3.420814832051595,1.6886866052782707e+18,76.35227067057292,-0.0147625766694545,-0.1217658047874768,-0.0541124782369782,1.6886866052782707e+18,76.35227067057292,-0.0158315907077242,-0.1171843161185582,-0.051770830177702,,,,,,,,,,,,1.688686605278886e+18,76.35288598632812,19.112519454956058,36.7463996887207,-25.778599548339844,1.688686605278886e+18,76.35288598632812,-236.2334777832031,131.77219848632814,-158.5023986816406,1.688686605282596e+18,76.35659611002605,-0.3266963362693786,0.105630300939083,-0.7262467344601949,0.5955477158228556,-1.788627862930298,1.205582817395528,2.4208438396453857
1.4,1.6886866053258542e+18,76.39985400390626,0.4729238152503967,-0.2107472419738769,-0.0288219451904296,1.6886866053258542e+18,76.39985400390626,-0.2641077935695647,-9.396016120910645,3.445066452026367,1.6886866053258542e+18,76.39985400390626,-0.7428776621818542,-9.16776418685913,3.411201000213623,1.688686605330183e+18,76.40418277994792,0.0338521158943573,0.0027488936514904,0.077274452894926,1.688686605330183e+18,76.40418277994792,0.0327831010023752,0.00727947766912,0.0796161020795504,,,,,,,,,,,,1.6886866053288817e+18,76.40288173828125,18.724559020996093,36.753720092773435,-25.781039428710937,1.6886866053288817e+18,76.40288173828125,-236.621435546875,131.77951354980468,-158.5048370361328,1.6886866053258542e+18,76.39985400390626,-0.3261503428220749,0.1053731776773929,-0.725784569978714,0.5964553952217102,-1.78523987531662,1.2069393396377563,2.4161590337753296
1.45,1.6886866053691128e+18,76.44311287434896,0.269593338171641,-0.0848023096720377,0.0282026131947834,1.6886866053691128e+18,76.44311287434896,-0.4231308102607727,-9.278568585713703,3.4885360399881997,1.6886866053691128e+18,76.44311287434896,-0.698570191860199,-9.17626158396403,3.3976460297902427,1.688686605382094e+18,76.45609431966146,0.035124751428763,0.0655662029360731,0.1296052436033884,1.688686605382094e+18,76.45609431966146,0.0340557377785444,0.0700967864443858,0.1318959891796111,,,,,,,,,,,,1.688686605378885e+18,76.45288510742188,18.79287986755371,37.26612014770508,-25.45407981872559,1.688686605378885e+18,76.45288510742188,-236.55311584472656,132.2919158935547,-158.17787475585936,1.6886866053691128e+18,76.44311287434896,-0.3261760373910268,0.1053787122170129,-0.7242263555526733,0.5983308951059977,-1.7735847234725952,1.2093815406163533,2.404404958089193
1.5,1.6886866054210255e+18,76.49502555338542,-0.1946422060330708,0.1286579767862955,0.0585269133249918,1.6886866054210255e+18,76.49502555338542,-0.7942177057266235,-9.076773961385092,3.505086342493693,1.6886866054210255e+18,76.49502555338542,-0.6054215232531229,-9.18792724609375,3.3838720321655273,1.688686605425357e+18,76.49935705566406,0.038408152759075,0.1496619880199431,0.1904372423887252,1.688686605425357e+18,76.49935705566406,0.037339137867093,0.1542434766888618,0.1927279829978942,,,,,,,,,,,,1.6886866054288852e+18,76.50288535156251,18.175559997558594,37.11239776611328,-25.419919967651367,1.6886866054288852e+18,76.50288535156251,-237.1704315185547,132.13819580078126,-158.14371643066406,1.6886866054210255e+18,76.49502555338542,-0.32802414894104,0.1063807333509126,-0.7207932273546854,0.6012799938519796,-1.7478350798288982,1.2127602497736614,2.382765213648478
1.55,1.6886866054729408e+18,76.54694067382813,-0.324657658735911,0.1836083730061848,0.2422184149424234,1.6886866054729408e+18,76.54694067382813,-0.8382855256398519,-9.028319040934244,3.685545047124227,1.6886866054729408e+18,76.54694067382813,-0.5194738904635111,-9.194422721862791,3.3806392351786294,1.688686605468615e+18,76.54261507161458,0.002494366490282,0.0705549344420432,0.1071559439102807,1.688686605468615e+18,76.54261507161458,0.0014762573215799,0.0749837085604667,0.1094466919700303,,,,,,,,,,,,1.6886866054788895e+18,76.55288969726563,17.811999893188478,37.30515899658203,-25.659039306640626,1.6886866054788895e+18,76.55288969726563,-237.53399658203125,132.3309539794922,-158.3828369140625,1.6886866054729408e+18,76.54694067382813,-0.3301488558451335,0.1070379863182703,-0.7176510294278463,0.6037560304005941,-1.7232845226923623,1.2146544853846233,2.362311363220215
1.6,1.6886866055248486e+18,76.59884879557292,-0.3552433053652445,0.260441780090332,-0.0163603623708089,1.6886866055248486e+18,76.59884879557292,-0.8584251006444296,-8.943772951761881,3.449453274408976,1.6886866055248486e+18,76.59884879557292,-0.5090278188387553,-9.186710039774576,3.4031262397766113,1.6886866055205235e+18,76.59452368164062,-0.058693970243136,0.0691295837362607,-0.0204639863222837,1.6886866055205235e+18,76.59452368164062,-0.0597629832724729,0.0737110724051793,-0.01817324043562,,,,,,,,,,,,1.6886866055288837e+18,76.6028833984375,17.53628005981445,37.4271598815918,-25.96403923034668,1.6886866055288837e+18,76.6028833984375,-237.809716796875,132.4529571533203,-158.68783264160157,1.6886866055248486e+18,76.59884879557292,-0.3318703671296437,0.1070691968003908,-0.7172751029332479,0.6032530069351196,-1.719289223353068,1.2124082644780476,2.3611044883728027
1.65,1.6886866055767662e+18,76.65076627604167,-0.54488605260849,-0.2046826680501301,-0.2925541400909423,1.6886866055767662e+18,76.65076627604167,-1.0949157277743022,-9.39641539255778,3.1994032859802246,1.6886866055767662e+18,76.65076627604167,-0.5558756987253824,-9.174228032430014,3.429270029067993,1.6886866055724424e+18,76.6464424641927,-0.0648026230434576,-0.3150537411371867,-0.0359392383446295,1.6886866055724424e+18,76.6464424641927,-0.0658716335892676,-0.3105740721027056,-0.0336484940101702,,,,,,,,,,,,1.6886866055788874e+18,76.65288735351562,17.63875961303711,37.17095947265625,-25.81031951904297,1.6886866055788874e+18,76.65288735351562,-237.70723876953124,132.19675903320314,-158.53411560058595,1.6886866055767662e+18,76.65076627604167,-0.3299710154533385,0.1039198338985442,-0.7193955183029175,0.6023123860359192,-1.7314940293629963,1.208798289299011,2.365885575612386
1.7,1.6886866056286733e+18,76.70267350260417,0.3078352411588033,-0.086101214090983,-0.2257685661315917,1.6886866056286733e+18,76.70267350260417,-0.352343129614989,-9.27079200744629,3.2654053370157876,1.6886866056286733e+18,76.70267350260417,-0.666024406750997,-9.16718610127767,3.4284865061442056,1.6886866056243515e+18,76.69835131835937,-0.0238237448502331,-0.540361225605011,-0.026318110525608,1.6886866056243515e+18,76.69835131835937,-0.0248927588885029,-0.5358306268850962,-0.0239764607201019,,,,,,,,,,,,1.6886866056288842e+18,76.7028841796875,18.24631958007813,36.91963882446289,-25.495559310913087,1.6886866056288842e+18,76.7028841796875,-237.09967346191405,131.94544067382813,-158.2193603515625,1.6886866056286733e+18,76.70267350260417,-0.3204748133818308,0.0952741354703902,-0.7244762380917867,0.6027770638465881,-1.7626814047495525,1.206775705019633,2.3697992165883384
1.75,1.6886866056805865e+18,76.75458634440105,0.6038717826207479,0.0317516326904296,0.1808153788248697,1.6886866056805865e+18,76.75458634440105,-0.0919242693732182,-9.15753173828125,3.6526437600453696,1.6886866056805865e+18,76.75458634440105,-0.701642115910848,-9.171778678894045,3.4091409842173257,1.6886866056762632e+18,76.75026302083334,0.0428623780608176,-0.0160352153082688,-0.0059050304698757,1.6886866056762632e+18,76.75026302083334,0.0418442698816457,-0.0115046286955476,-0.0035633804897467,,,,,,,,,,,,1.688686605678886e+18,76.75288608398436,18.98563995361328,36.8952392578125,-25.141759872436523,1.688686605678886e+18,76.75288608398436,-236.36035766601563,131.92103576660156,-157.8655548095703,1.6886866056805865e+18,76.75458634440105,-0.3161832988262176,0.0924860561887423,-0.7260927756627401,0.603542149066925,-1.7737898031870525,1.2080926100413003,2.3701704343159995
1.8,1.6886866057324987e+18,76.80649886067708,-0.1180802583694457,0.0877714157104491,0.1651196479797363,1.6886866057324987e+18,76.80649886067708,-0.779860774676005,-9.106285413106283,3.630908966064453,1.6886866057324987e+18,76.80649886067708,-0.6676265398661295,-9.176552136739096,3.403101921081543,1.688686605728177e+18,76.80217667643228,0.0195476877658316,0.2218458950519561,0.0099265595587591,1.688686605728177e+18,76.80217667643228,0.0185295791986087,0.2264273812373478,0.0122173052902022,,,,,,,,,,,,1.6886866057288863e+18,76.80288637695313,19.19791946411133,36.99283981323242,-25.073439407348634,1.6886866057288863e+18,76.80288637695313,-236.14807739257813,132.01863708496094,-157.79723510742187,1.6886866057324987e+18,76.80649886067708,-0.319436103105545,0.0960728451609611,-0.7244308590888977,0.6032647490501404,-1.7645338376363118,1.209466020266215,2.3711322943369546
1.85,1.6886866057757578e+18,76.84975805664062,-0.3477194011211395,0.0510263442993163,0.0097017288208008,1.6886866057757578e+18,76.84975805664062,-0.9678967595100404,-9.143274307250977,3.4827533960342407,1.6886866057757578e+18,76.84975805664062,-0.6260233819484711,-9.176795959472656,3.410364270210266,1.688686605780087e+18,76.85408707682292,-0.023263784435888,-0.0016798802341023,0.0919352198640504,1.688686605780087e+18,76.85408707682292,-0.0242818935463825,0.0029016085900366,0.0942259629567463,,,,,,,,,,,,1.6886866057788854e+18,76.85288549804687,18.883159637451172,37.27343978881836,-25.241799545288085,1.6886866057788854e+18,76.85288549804687,-236.46283264160155,132.29923400878906,-157.9655975341797,1.6886866057757578e+18,76.84975805664062,-0.3214596062898635,0.0969387963414191,-0.7228507399559021,0.6039480268955231,-1.7523568272590635,1.20953631401062,2.363304853439331
1.9,1.688686605819023e+18,76.89302311197916,-0.1945258975028991,0.0318950017293293,-0.049460490544637,1.688686605819023e+18,76.89302311197916,-0.7982057531674703,-9.160722096761068,3.431108315785726,1.688686605819023e+18,76.89302311197916,-0.6095258792241415,-9.17511240641276,3.417881409327189,1.6886866058319995e+18,76.90599975585938,-0.0180205243329206,-0.1219694291551907,0.03873903863132,1.6886866058319995e+18,76.90599975585938,-0.0190895392249027,-0.1174897477030753,0.041029781801626,,,,,,,,,,,,1.688686605828886e+18,76.90288603515626,18.885599517822264,37.1685188293457,-25.395519256591797,1.688686605828886e+18,76.90288603515626,-236.46039428710935,132.19431762695314,-158.11931457519532,1.688686605819023e+18,76.89302311197916,-0.320471038420995,0.0947736327846844,-0.722555677096049,0.6051681240399679,-1.747291048367818,1.2090513706207275,2.3535149892171225
1.95,1.6886866058709317e+18,76.944931640625,0.0694260994593301,0.057260513305664,0.0293930371602376,1.6886866058709317e+18,76.944931640625,-0.553340216477712,-9.133204778035482,3.5122648080190024,1.6886866058709317e+18,76.944931640625,-0.6286123394966125,-9.17296059926351,3.420184373855591,1.6886866058752548e+18,76.94925476074218,0.0016035212611313,0.0032070418819784,-0.0833831075578927,1.6886866058752548e+18,76.94925476074218,0.0005345070676412,0.0077885324135422,-0.0809396449476479,,,,,,,,,,,,1.6886866058788838e+18,76.95288388671875,18.648919677734376,37.073359680175784,-25.466279220581058,1.6886866058788838e+18,76.95288388671875,-236.69707336425785,132.09915771484376,-158.19007873535156,1.6886866058709317e+18,76.944931640625,-0.3191116948922475,0.0934175724784533,-0.7234052618344625,0.6050829887390137,-1.7525761127471924,1.2084323565165205,2.354745785395304
2.0,1.6886866059228467e+18,76.99684676106772,0.1333656112353007,0.0003611246744791,-0.1427892843882242,1.6886866059228467e+18,76.99684676106772,-0.5395814975102743,-9.184849739074709,3.344567855199178,1.6886866059228467e+18,76.99684676106772,-0.6787931323051453,-9.167706171671549,3.4246697425842285,1.6886866059185231e+18,76.99252311197917,-0.0118100613666076,0.0669406491021315,-0.1353575537602106,1.6886866059185231e+18,76.99252311197917,-0.012879075637708,0.0714712341626485,-0.1330159058173497,1.688686605926977e+18,77.00097705078124,0.0,0.4072378575801849,0.8525574803352356,6.619999885559082,0.0177130121737718,0.0,40.30000305175781,-122.7531536,49.1903752,1.68868660592889e+18,77.00288974609376,18.958799362182617,37.06359939575195,-25.341839218139647,1.68868660592889e+18,77.00288974609376,-236.38719177246097,132.08939514160156,-158.06563415527344,1.6886866059228467e+18,76.99684676106772,-0.3198217252890269,0.0950987860560417,-0.7249522606531779,0.6025889913241068,-1.7664782603581746,1.206924041112264,2.37233567237854
2.05,1.6886866059747612e+18,77.04876106770833,-0.0955992142359415,-0.058940569559733,-0.0744862556457519,1.6886866059747612e+18,77.04876106770833,-0.7655038436253866,-9.243673006693522,3.414757331212362,1.6886866059747612e+18,77.04876106770833,-0.6757506529490153,-9.167227745056152,3.42655618985494,1.688686605970435e+18,77.04443538411458,0.0076358157287662,0.0717257608970006,0.0364482930550972,1.688686605970435e+18,77.04443538411458,0.0065668014188607,0.0762563447157541,0.0387899441023667,,,,,,,,,,,,1.688686605978886e+18,77.05288618164062,19.12959976196289,37.192919921875,-25.334519577026366,1.688686605978886e+18,77.05288618164062,-236.21639404296872,132.21871643066407,-158.05831604003907,1.6886866059747612e+18,77.04876106770833,-0.3212045431137084,0.0965401455760001,-0.7246549725532532,0.6019821564356486,-1.7655211289723711,1.2067869901657104,2.375642458597819
2.1,1.6886866060266724e+18,77.10067260742188,-0.1314081947008768,0.0706939697265625,0.0247395833333333,1.6886866060266724e+18,77.10067260742188,-0.7762715419133505,-9.119844754536947,3.503291765848795,1.6886866060266724e+18,77.10067260742188,-0.6507093707720438,-9.173034032185871,3.415864785512289,1.6886866060223475e+18,77.09634741210938,0.0290670053412516,0.0104865198954939,0.0255545290807882,1.6886866060223475e+18,77.09634741210938,0.0279979904492695,0.0150171043351292,0.027896179507176,,,,,,,,,,,,1.688686606028882e+18,77.10288198242188,18.636719131469725,37.13923950195313,-25.397959518432614,1.688686606028882e+18,77.10288198242188,-236.7092742919922,132.1650360107422,-158.12175598144532,1.6886866060266724e+18,77.10067260742188,-0.3213259677092234,0.0969334865609804,-0.7237212459246317,0.6029768586158752,-1.759052872657776,1.2084532181421916,2.3698538144429526
2.15,1.6886866060785848e+18,77.15258479817707,0.0225544571876525,-0.0482486089070638,0.1311657428741455,1.6886866060785848e+18,77.15258479817707,-0.6644070943196615,-9.237292607625326,3.6053855419158936,1.6886866060785848e+18,77.15258479817707,-0.6928075750668844,-9.171539306640623,3.411532402038574,1.6886866060742566e+18,77.14825667317707,-0.0082466804111997,-0.0682132833947737,-0.116318921248118,1.6886866060742566e+18,77.14825667317707,-0.0093156949927409,-0.063682702408793,-0.1140281781554221,,,,,,,,,,,,1.688686606078887e+18,77.15288701171876,18.858759689331055,37.146559143066405,-25.436999130249024,1.688686606078887e+18,77.15288701171876,-236.48723449707032,132.17235717773437,-158.16079711914062,1.6886866060785848e+18,77.15258479817707,-0.3204824129740397,0.0972648387153943,-0.7251572410265604,0.6016446153322855,-1.7711549202601116,1.2080243428548176,2.381208658218384
2.2,1.6886866061304996e+18,77.20449943033854,0.3753280738989512,-0.0089702606201172,-0.0041320323944091,1.6886866061304996e+18,77.20449943033854,-0.3553341627120971,-9.189236323038736,3.4845479329427085,1.6886866061304996e+18,77.20449943033854,-0.736508289972941,-9.162761370340982,3.425992568333944,1.6886866061261668e+18,77.20016682942709,-0.0537561414142449,-0.1778635978698729,0.0224492972095807,1.6886866061261668e+18,77.20016682942709,-0.0547742520769436,-0.1732821067174275,0.0247400427858035,,,,,,,,,,,,1.68868660612888e+18,77.2028802734375,18.85631980895996,36.93915939331055,-25.412599563598633,1.68868660612888e+18,77.2028802734375,-236.48967590332032,131.96495666503907,-158.1363983154297,1.6886866061304996e+18,77.20449943033854,-0.3182460168997447,0.0944572463631629,-0.7270612319310507,0.6009802222251892,-1.7825678984324138,1.205511490503947,2.385166803995768
2.25,1.6886866061824074e+18,77.25640763346354,0.2956503530343373,-0.2004105250040689,-0.2636695702870686,1.6886866061824074e+18,77.25640763346354,-0.4121637046337127,-9.374281565348308,3.246860901514689,1.6886866061824074e+18,77.25640763346354,-0.7136601010958353,-9.156366348266602,3.447843074798584,1.6886866061780849e+18,77.2520849609375,-0.0646499060094356,-0.2222531388203302,0.1504764705896377,1.6886866061780849e+18,77.2520849609375,-0.0657189190387725,-0.2177225550015767,0.1527672111988067,,,,,,,,,,,,1.688686606178886e+18,77.25288603515625,19.422399520874023,36.995279693603514,-25.26375961303711,1.688686606178886e+18,77.25288603515625,-235.92359619140623,132.02107849121094,-157.98756103515626,1.6886866061824074e+18,77.25640763346354,-0.3155101835727691,0.0888882925113041,-0.7269624670346578,0.6033854087193807,-1.7749239603678386,1.2036892175674438,2.3651312987009683
2.3,1.68868660622567e+18,77.29967004394531,-0.0480309724807739,-0.083385944366455,-0.2329410314559936,1.68868660622567e+18,77.29967004394531,-0.7085746228694916,-9.259924411773682,3.2799617052078247,1.68868660622567e+18,77.29967004394531,-0.666389673948288,-9.15903377532959,3.4502153396606445,1.6886866062299968e+18,77.30399690755208,0.0102828980113069,-0.1558215419451395,0.1973603814840316,1.6886866062299968e+18,77.30399690755208,0.0092647901425759,-0.1512400557597477,0.1996511270602543,,,,,,,,,,,,1.6886866062288814e+18,77.30288144531251,19.22231979370117,37.073359680175784,-25.17347946166992,1.6886866062288814e+18,77.30288144531251,-236.12367553710936,132.09915771484376,-157.89727478027345,1.68868660622567e+18,77.29967004394531,-0.3131873309612274,0.0848297700285911,-0.7257909178733826,0.6065837740898132,-1.7616094946861267,1.2044473886489868,2.3421876430511475
2.35,1.68868660626893e+18,77.34293009440104,-0.1151477495829263,0.0277506510416666,0.0990776220957438,1.68868660626893e+18,77.34293009440104,-0.7349953452746073,-9.15892759958903,3.5926238695780435,1.68868660626893e+18,77.34293009440104,-0.6256936192512512,-9.16917355855306,3.430858850479126,1.6886866062819064e+18,77.35590641276042,0.0571159000198046,-0.0676024223988254,0.0542651950381696,1.6886866062819064e+18,77.35590641276042,0.0560977930823961,-0.0630718357861041,0.0565559406920025,,,,,,,,,,,,1.688686606278886e+18,77.35288603515625,19.48339958190918,37.46864013671875,-25.171039199829103,1.688686606278886e+18,77.35288603515625,-235.86259765625,132.49443664550782,-157.89483947753905,1.68868660626893e+18,77.34293009440104,-0.3109609683354695,0.0827909459670384,-0.7245966593424479,0.6094322999318441,-1.7512056827545166,1.2073447306950886,2.3252267837524414
2.4,1.688686606320839e+18,77.39483870442707,-0.163088043530782,0.1896282831827798,0.2024877071380615,1.688686606320839e+18,77.39483870442707,-0.7794619798660278,-9.00758139292399,3.668396552403768,1.688686606320839e+18,77.39483870442707,-0.622219959894816,-9.179704984029131,3.4032214482625327,1.6886866063251717e+18,77.39917163085937,0.0651335064321755,0.0529162008315324,-0.0124463795218616,1.6886866063251717e+18,77.39917163085937,0.0640644915401935,0.057497689500451,-0.0100792768644168,,,,,,,,,,,,1.6886866063288817e+18,77.40288178710937,19.12959976196289,37.449118041992186,-24.77331924438477,1.6886866063288817e+18,77.40288178710937,-236.21639404296872,132.47492065429688,-157.4971160888672,1.688686606320839e+18,77.39483870442707,-0.3097774485747019,0.0834893609086672,-0.7243940035502116,0.6101807554562887,-1.751653512318929,1.2103771368662517,2.324783484141032
2.45,1.6886866063727557e+18,77.44675528971355,-0.291570782661438,0.1288770039876301,0.22337539990743,1.6886866063727557e+18,77.44675528971355,-0.906281590461731,-9.07418155670166,3.67378036181132,1.6886866063727557e+18,77.44675528971355,-0.6205568313598633,-9.185553868611654,3.3877175649007163,1.68868660636843e+18,77.44242993164063,0.0214820946566759,-0.0186822960774103,0.0120645884114006,1.68868660636843e+18,77.44242993164063,0.0204130799975245,-0.0142026164879401,0.0143553332115212,,,,,,,,,,,,1.6886866063788836e+18,77.45288344726563,18.99539909362793,37.16363906860352,-24.87091941833496,1.6886866063788836e+18,77.45288344726563,-236.35059509277343,132.18943786621094,-157.59471740722657,1.6886866063727557e+18,77.44675528971355,-0.3095164199670155,0.0843658049901325,-0.7242337862650553,0.6103829741477966,-1.751985232035319,1.212071458498637,2.325946648915609
2.5,1.6886866064246633e+18,77.49866349283855,-0.1149448156356811,0.121228535970052,0.2749667167663574,1.6886866064246633e+18,77.49866349283855,-0.7312066952387491,-9.081559499104818,3.7258243560791016,1.6886866064246633e+18,77.49866349283855,-0.6221079031626383,-9.185283342997232,3.3881702423095703,1.6886866064203418e+18,77.49434171549478,-0.0015780685159066,-0.0385354161262511,0.0169006051146424,1.6886866064203418e+18,77.49434171549478,-0.0026470827093968,-0.0340048326955487,0.019242255638043,,,,,,,,,,,,1.6886866064288837e+18,77.50288388671875,18.86607971191406,37.35639953613281,-24.739159393310548,1.6886866064288837e+18,77.50288388671875,-236.47991638183595,132.3821990966797,-157.46295776367188,1.6886866064246633e+18,77.49866349283855,-0.3086723387241363,0.0833634833494822,-0.7244040369987488,0.6107460260391235,-1.7524015108744304,1.2119932572046916,2.323600689570109
2.55,1.688686606476576e+18,77.550576171875,0.0387035806973775,0.0772396723429361,0.2530548572540282,1.688686606476576e+18,77.550576171875,-0.5972086588541666,-9.121838569641112,3.710270881652832,1.688686606476576e+18,77.550576171875,-0.6417582631111145,-9.181573549906412,3.39452862739563,1.6886866064722565e+18,77.54625610351563,-0.0091120734577998,0.0574722389380136,-0.0920879368980725,1.6886866064722565e+18,77.54625610351563,-0.0101810871468235,0.0620537276069322,-0.0897971925636132,,,,,,,,,,,,1.6886866064788838e+18,77.55288393554687,19.38579978942871,37.38567962646484,-24.84163932800293,1.6886866064788838e+18,77.55288393554687,-235.96019592285157,132.4114776611328,-157.56544189453126,1.688686606476576e+18,77.550576171875,-0.3092638154824574,0.084002045293649,-0.7250211437543234,0.6096253395080566,-1.7576597929000854,1.2109193801879885,2.330759366353353
2.6,1.6886866065284908e+18,77.60249072265624,0.1849609315395355,0.0010919570922851,-0.101490577061971,1.6886866065284908e+18,77.60249072265624,-0.4791627327601115,-9.189834912618002,3.372284730275472,1.6886866065284908e+18,77.60249072265624,-0.6699697176615397,-9.17342217763265,3.411087910334269,1.6886866065241644e+18,77.59816438802083,-0.0344120760758717,0.1012509142359097,-0.0684678135439753,1.6886866065241644e+18,77.59816438802083,-0.0354301848759253,0.1058324053883552,-0.0661770667259891,,,,,,,,,,,,1.6886866065288842e+18,77.60288447265626,18.992959594726564,37.24171905517578,-25.202759170532225,1.6886866065288842e+18,77.60288447265626,-236.35303649902343,132.26751708984375,-157.9265563964844,1.6886866065284908e+18,77.60249072265624,-0.3112296958764394,0.0856685837109883,-0.7258176803588867,0.6074413061141968,-1.7647559245427449,1.2085670232772827,2.34342885017395
2.65,1.6886866065804045e+18,77.65440454101562,0.0485681295394897,-0.1369059880574543,-0.2989806334177653,1.6886866065804045e+18,77.65440454101562,-0.592223604520162,-9.322636286417644,3.1932218074798584,1.6886866065804045e+18,77.65440454101562,-0.646637757619222,-9.168225606282553,3.4295150438944497,1.6886866065760778e+18,77.65007788085937,-0.0356847116102774,0.0561486973116794,0.0384845100343227,1.6886866065760778e+18,77.65007788085937,-0.036702820410331,0.0606792814408738,0.0407752543687819,,,,,,,,,,,,1.6886866065788818e+18,77.65288188476562,18.88071975708008,37.1904800415039,-25.00023956298828,1.6886866065788818e+18,77.65288188476562,-236.46527404785155,132.21628112792968,-157.72403564453126,1.6886866065804045e+18,77.65440454101562,-0.3133503794670104,0.0862154588103294,-0.7249334454536438,0.6073301037152609,-1.7571802536646526,1.2070738474527996,2.3399378458658853
2.7,1.688686606632316e+18,77.70631591796875,0.1891429920991261,-0.1621443430582681,-0.2955147425333658,1.688686606632316e+18,77.70631591796875,-0.4408775667349497,-9.34835942586263,3.197409232457479,1.688686606632316e+18,77.70631591796875,-0.6358666022618612,-9.168710390726725,3.430236577987671,1.6886866066279887e+18,77.70198860677084,0.0101301819086074,0.0313068441367552,-0.0054468819871544,1.6886866066279887e+18,77.70198860677084,0.0091629785796006,0.0358883336496849,-0.0031561370318134,,,,,,,,,,,,1.6886866066288817e+18,77.70288173828126,18.861199569702148,37.207559967041014,-24.912399291992188,1.6886866066288817e+18,77.70288173828126,-236.48479614257812,132.23336181640624,-157.63619689941407,1.688686606632316e+18,77.70631591796875,-0.3138044476509094,0.0864552681644757,-0.7245262463887533,0.6075473626454672,-1.7541077931722004,1.2072123289108276,2.3378995259602866
2.75,1.6886866066755694e+18,77.74956945800781,0.1894304454326629,-0.0146188735961914,-0.0556297302246093,1.6886866066755694e+18,77.74956945800781,-0.4345964193344116,-9.206385135650637,3.4235310554504395,1.6886866066755694e+18,77.74956945800781,-0.6298729181289673,-9.174261569976808,3.416473388671875,1.688686606679903e+18,77.75390307617188,0.0391462811579306,0.1313360258936881,-0.027336220567425,1.688686606679903e+18,77.75390307617188,0.0381281711161136,0.1358666121959685,-0.0249945698305964,,,,,,,,,,,,1.6886866066788828e+18,77.75288266601562,18.429319763183592,37.087998962402345,-25.12711944580078,1.6886866066788828e+18,77.75288266601562,-236.91667785644532,132.11380004882812,-157.85091552734374,1.6886866066755694e+18,77.74956945800781,-0.3147418946027756,0.0885228402912616,-0.7240655422210693,0.607313722372055,-1.7531334161758425,1.2088065147399902,2.3413500785827637
2.8,1.6886866067188388e+18,77.79283878580729,-0.0884847243626912,0.0854803721110025,0.0030974547068277,1.6886866067188388e+18,77.79283878580729,-0.6967101891835531,-9.108877817789711,3.4781670570373535,1.6886866067188388e+18,77.79283878580729,-0.6140714883804321,-9.17685349782308,3.412382205327352,1.6886866067318162e+18,77.8058163248698,-0.013388129727294,0.0556396433773139,0.0344120763863125,1.6886866067318162e+18,77.8058163248698,-0.0144571447744965,0.0601702281273901,0.0367028210312127,,,,,,,,,,,,1.6886866067288842e+18,77.8028841796875,18.724559020996093,37.30271835327149,-25.263759231567384,1.6886866067288842e+18,77.8028841796875,-236.6214324951172,132.32851867675782,-157.98755493164063,1.6886866067188388e+18,77.79283878580729,-0.3163751661777496,0.0904283920923868,-0.7232736746470133,0.6071279247601827,-1.7488666375478108,1.2095530430475872,2.3423596223195395
2.85,1.688686606770746e+18,77.8447461751302,-0.1420018672943114,0.0336074829101562,-0.1004685560862223,1.688686606770746e+18,77.8447461751302,-0.7310073177019755,-9.15753173828125,3.3866416613260903,1.688686606770746e+18,77.8447461751302,-0.5948514739672343,-9.17363452911377,3.424422820409139,1.6886866067750728e+18,77.84907263183594,-0.0351247508078813,-0.0419969856739043,0.0314595596864819,1.6886866067750728e+18,77.84907263183594,-0.0361937656998633,-0.0374154951423406,0.0337503040209412,,,,,,,,,,,,1.6886866067788877e+18,77.85288784179687,18.768479537963863,37.47595977783203,-25.52727928161621,1.6886866067788877e+18,77.85288784179687,-236.5775146484375,132.5017547607422,-158.25107421875,1.688686606770746e+18,77.8447461751302,-0.3170285324255625,0.0898135403792063,-0.7226727604866028,0.6075939337412516,-1.7428107261657717,1.208626389503479,2.3364133834838867
2.9,1.688686606822665e+18,77.8966650390625,0.1033909519513448,-0.0178476969401041,-0.0336176554361978,1.688686606822665e+18,77.8966650390625,-0.511266440153122,-9.203194618225098,3.4644083976745605,1.688686606822665e+18,77.8966650390625,-0.6205034255981445,-9.167842229207356,3.4353386561075845,1.688686606818338e+18,77.89233829752604,-0.02204205468297,-0.0313577484339475,-0.0818050367136796,1.688686606818338e+18,77.89233829752604,-0.0231110683331886,-0.0268271646151939,-0.0794633850455283,,,,,,,,,,,,1.6886866068288886e+18,77.90288842773438,18.900239562988283,37.13679885864258,-25.27107925415039,1.6886866068288886e+18,77.90288842773438,-236.4457580566406,132.1626007080078,-157.99487915039063,1.688686606822665e+18,77.8966650390625,-0.3166120747725169,0.0890486960609753,-0.7236712574958801,0.6067343354225159,-1.7495091756184895,1.2069636185963948,2.341429074605306
2.95,1.6886866068745746e+18,77.94857446289063,0.1858139038085937,-0.0404221216837564,-0.1104328632354735,1.6886866068745746e+18,77.94857446289063,-0.4616153637568156,-9.220343589782717,3.3960134983062744,1.6886866068745746e+18,77.94857446289063,-0.6532753109931946,-9.162416776021322,3.443758964538574,1.6886866068702487e+18,77.9442489420573,-0.0207694179068008,-0.0199549311655573,-0.0319177079945802,1.6886866068702487e+18,77.9442489420573,-0.0217875273277361,-0.0154243474826216,-0.0295760594308376,,,,,,,,,,,,1.6886866068788826e+18,77.95288271484375,18.758719635009765,37.04407958984375,-25.212519454956055,1.6886866068788826e+18,77.95288271484375,-236.5872772216797,132.06987609863282,-157.93631591796876,1.6886866068745746e+18,77.94857446289063,-0.3164991736412048,0.0890043924252192,-0.7248300115267435,0.6054155031840006,-1.7582883437474568,1.2054115931193037,2.3500590324401855
3.0,1.6886866069264837e+18,78.00048331705729,0.1438143253326415,-0.0649922688802083,-0.1105332374572753,1.6886866069264837e+18,78.00048331705729,-0.491525650024414,-9.242875734965008,3.4035908381144204,1.6886866069264837e+18,78.00048331705729,-0.6411860187848409,-9.160378774007162,3.451436678568522,1.688686606922165e+18,77.99616479492187,-0.02647082755963,-0.1370374336838722,0.0934114754199981,1.688686606922165e+18,77.99616479492187,-0.0275398412098486,-0.1325068523486454,0.0957531283299127,1.68868660692695e+18,78.00094995117188,0.0,0.424096018075943,0.8621503710746765,6.5929999351501465,0.0347425080835819,0.0,40.30000305175781,-122.753153,49.1903759,1.6886866069288842e+18,78.00288408203124,18.839239883422852,36.89035873413086,-25.18568000793457,1.6886866069288842e+18,78.00288408203124,-236.5067565917969,131.91615600585936,-157.90947570800782,1.6886866069264837e+18,78.00048331705729,-0.3151043156782785,0.0864518533150354,-0.7247134248415629,0.606649915377299,-1.7544985214869182,1.2048300504684448,2.340369939804077
3.05,1.6886866069783913e+18,78.05239143880208,-0.121485153834025,-0.0103015899658203,-0.0432632764180501,1.6886866069783913e+18,78.05239143880208,-0.7280162970225016,-9.190033912658691,3.4711880683898926,1.6886866069783913e+18,78.05239143880208,-0.6123771667480469,-9.162227630615234,3.451763947804769,1.688686606974074e+18,78.0480741373698,-0.0026979882386512,-0.0854193245371182,0.0873028263449668,1.688686606974074e+18,78.0480741373698,-0.0037670023351286,-0.0808378358681996,0.0895935694376627,,,,,,,,,,,,1.688686606978886e+18,78.05288618164062,18.9026798248291,37.3637191772461,-25.134439086914064,1.688686606978886e+18,78.05288618164062,-236.4433166503906,132.38952026367187,-157.8582336425781,1.6886866069783913e+18,78.05239143880208,-0.3134911954402923,0.0838489731152852,-0.7240064342816671,0.6086926062901815,-1.7464019457499187,1.2053571144739788,2.325913747151693
3.1,1.6886866070303117e+18,78.10431160481771,-0.1073759794235229,0.0573701858520507,0.0305580298105875,1.6886866070303117e+18,78.10431160481771,-0.7238288720448812,-9.12343406677246,3.5403804779052734,1.6886866070303117e+18,78.10431160481771,-0.6222989161809286,-9.163299560546877,3.447135051091512,1.6886866070259848e+18,78.09998470052084,0.0003563381033018,-0.1937460949023564,0.0227038254961371,1.6886866070259848e+18,78.09998470052084,-0.0007126760513832,-0.1891646037499109,0.0250454753016431,,,,,,,,,,,,1.6886866070288858e+18,78.10288569335937,19.180839920043944,37.21731948852539,-25.07831916809082,1.6886866070288858e+18,78.10288569335937,-236.1651580810547,132.243115234375,-157.80211791992187,1.6886866070303117e+18,78.10431160481771,-0.3106803894042968,0.0810940042138099,-0.7246684233347574,0.6097170909245809,-1.749420960744222,1.2056633631388347,2.320569117863973
3.15,1.688686607082227e+18,78.15622688802084,0.138438860575358,0.0550352732340494,0.1707173983256021,1.688686607082227e+18,78.15622688802084,-0.5030909677346548,-9.126424789428713,3.6741792360941568,1.688686607082227e+18,78.15622688802084,-0.6473758618036906,-9.163955370585125,3.440774440765381,1.6886866070778954e+18,78.15189575195312,0.0050905437674372,-0.1303688238064447,0.0071776666057605,1.6886866070778954e+18,78.15189575195312,0.0040215294187266,-0.1257873351375261,0.0094684114058811,,,,,,,,,,,,1.6886866070788833e+18,78.15288325195313,19.297959518432616,37.012360382080075,-24.863599395751955,1.6886866070788833e+18,78.15288325195313,-236.04803466796875,132.0381591796875,-157.58739624023437,1.688686607082227e+18,78.15622688802084,-0.3075013160705566,0.0783708095550536,-0.7258495489756266,0.6102810303370158,-1.7567923466364543,1.2058507601420083,2.319089333216349
3.2,1.688686607125485e+18,78.19948522949218,-0.0495541989803314,0.0524787902832031,0.1605266332626342,1.688686607125485e+18,78.19948522949218,-0.6987042129039764,-9.128319263458252,3.664308786392212,1.688686607125485e+18,78.19948522949218,-0.6549960374832153,-9.163293361663818,3.441094756126404,1.688686607129807e+18,78.20380704752604,-0.0143553329010803,-0.1199841151634851,0.0288633822153011,1.688686607129807e+18,78.20380704752604,-0.0153734418563543,-0.1155044337113698,0.0312050326416889,,,,,,,,,,,,1.688686607128884e+18,78.20288403320312,19.424839782714844,36.99283981323242,-24.42683944702149,1.688686607128884e+18,78.20288403320312,-235.92115478515623,132.01863708496094,-157.1506378173828,1.688686607125485e+18,78.19948522949218,-0.3061795830726623,0.0769395940005779,-0.7262701392173767,0.6106273531913757,-1.7589132189750671,1.2056618332862854,2.3171006441116333
3.25,1.6886866071687442e+18,78.24274389648438,0.0335010886192321,0.0505072275797525,0.1331594785054524,1.6886866071687442e+18,78.24274389648438,-0.6207380692164103,-9.12762133280436,3.6430724461873374,1.6886866071687442e+18,78.24274389648438,-0.6600851813952128,-9.160623868306478,3.447225570678711,1.6886866071817234e+18,78.25572338867187,-0.0275398418307304,-0.1567378391822179,0.0582358216245968,1.6886866071817234e+18,78.25572338867187,-0.0285579500099022,-0.1522072578469911,0.0605774695674577,,,,,,,,,,,,1.6886866071788849e+18,78.25288496093751,19.600519561767577,37.288079833984376,-24.678159332275392,1.6886866071788849e+18,78.25288496093751,-235.74547424316407,132.31387329101562,-157.4019561767578,1.6886866071687442e+18,78.24274389648438,-0.3040651480356852,0.0740493610501289,-0.7267482876777649,0.611470619837443,-1.7600106398264568,1.2049007415771484,2.3107550144195557
3.3,1.688686607220661e+18,78.2946610514323,0.0402082403500874,0.008803367614746,0.0493791103363036,1.688686607220661e+18,78.2946610514323,-0.6137590010960897,-9.166703859965006,3.56630269686381,1.688686607220661e+18,78.2946610514323,-0.6598132650057474,-9.158002535502115,3.4542361895243325,1.688686607233633e+18,78.30763289388021,-0.0055486924635867,-0.0933096657196679,0.0240273668120304,1.688686607233633e+18,78.30763289388021,-0.0065668014188607,-0.0887790843844413,0.0263690159966547,,,,,,,,,,,,1.688686607228886e+18,78.30288608398438,19.19059944152832,37.10263900756836,-24.670839309692383,1.688686607228886e+18,78.30288608398438,-236.1553955078125,132.12843627929686,-157.39463806152344,1.688686607220661e+18,78.2946610514323,-0.3021017114321391,0.0711551383137702,-0.7270284096399943,0.6124546726544698,-1.7595600287119548,1.2041547695795696,2.303086439768473
3.35,1.6886866072725658e+18,78.34656575520833,0.1186844110488891,0.0009183883666991,0.055283228556315,1.6886866072725658e+18,78.34656575520833,-0.5405785044034322,-9.175079345703123,3.5698920090993247,1.6886866072725658e+18,78.34656575520833,-0.6651089390118917,-9.158493041992188,3.4519213835398355,1.6886866072768965e+18,78.3508963623047,0.0052687127608805,-0.0407752553001045,0.0064904433675109,1.6886866072768965e+18,78.3508963623047,0.0041996985673903,-0.0362701234407722,0.0088575459085404,,,,,,,,,,,,1.6886866072788838e+18,78.35288383789063,19.33943977355957,37.1270393371582,-24.602519226074214,1.6886866072788838e+18,78.35288383789063,-236.00655212402344,132.15283813476563,-157.326318359375,1.6886866072725658e+18,78.34656575520833,-0.3007304271062215,0.0698227708538373,-0.7273433208465576,0.6129091580708822,-1.7611632744471233,1.204294164975484,2.3006467819213867
3.4,1.6886866073244815e+18,78.39848160807291,0.0083956321080525,0.0417057673136393,0.060709794362386,1.6886866073244815e+18,78.39848160807291,-0.6380860408147176,-9.13499927520752,3.5758740107218423,1.6886866073244815e+18,78.39848160807291,-0.6523276964823405,-9.159200350443522,3.4524768193562827,1.6886866073201595e+18,78.39415974934896,0.0002545271224031,0.0751364268362521,0.0179187140117088,1.6886866073201595e+18,78.39415974934896,-0.000814486935269,0.0797179155051708,0.0202094583461681,,,,,,,,,,,,1.6886866073288863e+18,78.40288657226563,19.2735595703125,37.24659957885742,-24.595199584960938,1.6886866073288863e+18,78.40288657226563,-236.0724334716797,132.27239685058595,-157.318994140625,1.6886866073244815e+18,78.39848160807291,-0.301352560520172,0.0702482735117275,-0.7268541852633158,0.6131348609924316,-1.757560968399048,1.2044954299926758,2.298597733179728
3.45,1.6886866073763868e+18,78.4503868001302,-0.2551166613896687,0.0710144042968749,-0.102613608042399,1.6886866073763868e+18,78.4503868001302,-0.8827521602312723,-9.103094736735024,3.422932783762614,1.6886866073763868e+18,78.4503868001302,-0.633481522401174,-9.156604448954264,3.4628589948018393,1.6886866073720658e+18,78.44606567382813,-0.0254018129780888,0.0580831027279297,0.0074830991216003,1.6886866073720658e+18,78.44606567382813,-0.02647082755963,0.0626645913968483,0.0097738439217209,,,,,,,,,,,,1.688686607378881e+18,78.45288090820313,19.30771942138672,37.15387878417969,-24.83431930541992,1.688686607378881e+18,78.45288090820313,-236.0382751464844,132.17967834472657,-157.55811767578126,1.6886866073763868e+18,78.4503868001302,-0.3031208117802937,0.0711229915420214,-0.7261079947153727,0.6130468845367432,-1.751752535502116,1.2037582000096638,2.2967732747395835
3.5,1.6886866074283036e+18,78.5023037109375,-0.2503636678059895,-0.0884949366251627,-0.2051598230997721,1.6886866074283036e+18,78.5023037109375,-0.8831509550412496,-9.258827527364096,3.329413334528605,1.6886866074283036e+18,78.5023037109375,-0.6386333107948303,-9.152827898661297,3.4718857606252036,1.6886866074239795e+18,78.49797965494793,-0.0201076478697359,-0.1016581580042838,0.018580484514435,1.6886866074239795e+18,78.49797965494793,-0.0211766612095136,-0.0970766718188921,0.020871229469776,,,,,,,,,,,,1.6886866074288858e+18,78.50288564453125,18.892919540405273,37.158758544921874,-24.770879364013673,1.6886866074288858e+18,78.50288564453125,-236.453076171875,132.18455810546874,-157.494677734375,1.6886866074283036e+18,78.5023037109375,-0.3025643527507781,0.0698560724655786,-0.7264111638069153,0.6131075421969095,-1.7527251243591309,1.202686429023743,2.2950788338979087
3.55,1.6886866074802163e+18,78.55421647135417,0.2156707644462585,0.0282278060913085,0.004451831181844,1.6886866074802163e+18,78.55421647135417,-0.448255439599355,-9.141778945922852,3.5339996019999185,1.6886866074802163e+18,78.55421647135417,-0.6697722474733988,-9.152502059936523,3.466860373814901,1.688686607475895e+18,78.54989501953126,0.0031561370318134,-0.1327613815665244,-0.0321213306548694,1.688686607475895e+18,78.54989501953126,0.0021380284063827,-0.1281798879305521,-0.0298305861651896,,,,,,,,,,,,1.688686607478884e+18,78.55288413085938,19.798159790039065,37.27587966918945,-24.99535903930664,1.688686607478884e+18,78.55288413085938,-235.5478332519531,132.30167541503906,-157.71915588378906,1.6886866074802163e+18,78.55421647135417,-0.2998084127902984,0.0676379924019177,-0.7277124921480814,0.6131670872370402,-1.7616559664408369,1.2025940418243408,2.296591599782308
3.6,1.688686607532129e+18,78.60612898763021,0.0296725134054819,-0.0430885950724284,0.0164779822031656,1.688686607532129e+18,78.60612898763021,-0.6404788494110107,-9.21296532948812,3.5451661745707193,1.688686607532129e+18,78.60612898763021,-0.6759973963101705,-9.152372042338053,3.46600079536438,1.6886866075278067e+18,78.60180655924479,-0.0010181087224433,0.0295251534165193,0.0220420534412066,1.6886866075278067e+18,78.60180655924479,-0.0020871229935437,0.0341066423182685,0.0243837044884761,,,,,,,,,,,,1.6886866075288837e+18,78.60288383789063,19.68347930908203,37.222199249267575,-24.724519348144533,1.6886866075288837e+18,78.60288383789063,-235.66251525878903,132.247998046875,-157.4483215332031,1.688686607532129e+18,78.60612898763021,-0.2994965314865112,0.0674655064940452,-0.7279466986656189,0.6130608717600504,-1.7634334961573284,1.202556848526001,2.2976483503977456
3.65,1.6886866075753915e+18,78.64939147949218,-0.075604349374771,0.0481691360473632,0.0598862171173095,1.6886866075753915e+18,78.64939147949218,-0.7223333418369293,-9.12293529510498,3.5898321866989136,1.6886866075753915e+18,78.64939147949218,-0.6525750160217285,-9.153599739074709,3.46725857257843,1.688686607579715e+18,78.65371525065105,-0.0011199195869267,-0.0389426598946253,0.0459167057027418,1.688686607579715e+18,78.65371525065105,-0.0021889337416117,-0.03441207545499,0.0482074491058786,,,,,,,,,,,,1.688686607578887e+18,78.65288701171875,19.639559936523437,37.04895858764648,-24.673279571533204,1.688686607578887e+18,78.65288701171875,-235.70643920898436,132.074755859375,-157.39707946777344,1.6886866075753915e+18,78.64939147949218,-0.2995402365922928,0.0669323988258838,-0.7271754443645477,0.614012598991394,-1.756848931312561,1.2029048204421997,2.2903162240982056
3.7,1.688686607618652e+18,78.69265177408853,0.0219176411628723,0.0741240183512369,0.1431265672047932,1.688686607618652e+18,78.69265177408853,-0.6259225209554037,-9.097312291463217,3.671985705693563,1.688686607618652e+18,78.69265177408853,-0.6536861856778463,-9.153931617736816,3.4661717414855957,1.688686607631627e+18,78.70562695312499,0.0097738437665004,0.0434223382423321,-0.0408261604607104,1.688686607631627e+18,78.70562695312499,0.0087048296506205,0.0479529208193222,-0.0384845112760861,,,,,,,,,,,,1.688686607628886e+18,78.7028861328125,19.424839782714844,37.16607894897461,-24.539079666137695,1.688686607628886e+18,78.7028861328125,-235.9211578369141,132.19187622070314,-157.26287841796875,1.688686607618652e+18,78.69265177408853,-0.2993403474489848,0.0668051516016324,-0.7272261381149292,0.6140639583269755,-1.757216215133667,1.202999472618103,2.290190855662028
3.75,1.6886866076705605e+18,78.74456030273437,0.0403948426246643,-0.0140743255615234,0.0278708140055338,1.6886866076705605e+18,78.74456030273437,-0.6231308778127035,-9.18445078531901,3.5565319856007895,1.6886866076705605e+18,78.74456030273437,-0.6693717439969381,-9.15287176767985,3.4659737745920816,1.6886866076835407e+18,78.75754060872396,0.0001527163549326,0.0019853116633991,-0.0306959787849336,1.6886866076835407e+18,78.75754060872396,-0.0009162978191549,0.006566801496471,-0.0283543295032965,,,,,,,,,,,,1.6886866076788838e+18,78.75288393554688,19.28087921142578,37.17583999633789,-24.622039794921875,1.6886866076788838e+18,78.75288393554688,-236.06511535644532,132.2016387939453,-157.34583740234376,1.6886866076705605e+18,78.74456030273437,-0.2998985846837361,0.0678080245852469,-0.7276830673217773,0.6131396889686584,-1.7615942160288494,1.202699104944865,2.2969122727711997
3.8,1.6886866077224763e+18,78.79647639973957,0.1476735373338063,0.0229593912760416,0.0424458980560302,1.6886866077224763e+18,78.79647639973957,-0.513659248749415,-9.147960344950356,3.5700913270314536,1.6886866077224763e+18,78.79647639973957,-0.6671788295110067,-9.153415044148764,3.4649580319722495,1.6886866077267958e+18,78.8007958984375,0.0071013083215802,0.029932397417724,0.0396298840641975,1.6886866077267958e+18,78.8007958984375,0.0061086523346602,0.0345138870179653,0.0419206283986568,,,,,,,,,,,,1.6886866077288822e+18,78.80288217773438,19.322359466552733,37.14411926269531,-24.66839942932129,1.6886866077288822e+18,78.80288217773438,-236.0236358642578,132.16991577148437,-157.39219665527344,1.6886866077224763e+18,78.79647639973957,-0.300015648206075,0.0679820477962493,-0.7275902231534322,0.613173246383667,-1.7610398530960083,1.202852765719096,2.2967844009399414
3.85,1.688686607774389e+18,78.84838899739583,0.0061642130215962,0.028265635172526,0.0817747910817463,1.688686607774389e+18,78.84838899739583,-0.6333003838857015,-9.14477030436198,3.6079777081807456,1.688686607774389e+18,78.84838899739583,-0.645310620466868,-9.155531247456867,3.463515520095825,1.6886866077700603e+18,78.844060546875,0.0092647895216941,0.0535525195300578,0.0127263600006699,1.6886866077700603e+18,78.844060546875,0.0081957752505937,0.0581340081989764,0.0150171043351292,,,,,,,,,,,,1.688686607778886e+18,78.8528861328125,19.70299949645996,37.03675918579101,-24.446359634399418,1.688686607778886e+18,78.8528861328125,-235.6429901123047,132.06256103515625,-157.17015686035157,1.688686607774389e+18,78.84838899739583,-0.3008575936158498,0.0686391567190487,-0.7267621954282125,0.6136692762374878,-1.755023717880249,1.2034526666005452,2.2929739157358804
3.9,1.688686607826297e+18,78.90029720052082,-0.0375309586524962,0.0681581497192382,0.0834879080454507,1.688686607826297e+18,78.90029720052082,-0.6747759779294332,-9.106285413106283,3.606382528940837,1.688686607826297e+18,78.90029720052082,-0.6430910428365072,-9.156938870747885,3.460207223892212,1.6886866078219756e+18,78.89597550455728,0.0138971839721003,0.0647517169515291,-0.0291688162833451,1.6886866078219756e+18,78.89597550455728,0.0129299806430934,0.0693332056204477,-0.0268780707071224,,,,,,,,,,,,1.688686607828884e+18,78.90288383789063,19.161319732666016,37.27587890625,-24.68059959411621,1.688686607828884e+18,78.90288383789063,-236.18467712402344,132.3016815185547,-157.40439453125,1.688686607826297e+18,78.90029720052082,-0.3018319010734558,0.0700094078977902,-0.7265536387761434,0.6132828195889791,-1.754576524098714,1.203852295875549,2.2960052490234375
3.95,1.6886866078782164e+18,78.95221638997396,0.0131770372390747,-0.0167617797851562,-0.0791807174682617,1.6886866078782164e+18,78.95221638997396,-0.635493814945221,-9.19003423055013,3.4446675777435303,1.6886866078782164e+18,78.95221638997396,-0.654516875743866,-9.155767758687338,3.461160898208618,1.6886866078738906e+18,78.94789054361979,-0.009112073011541,-0.0198531203592817,-0.0187841062434017,1.6886866078738906e+18,78.94789054361979,-0.0101810876512899,-0.0152716313799222,-0.0164424562826752,,,,,,,,,,,,1.688686607878886e+18,78.95288608398437,19.305279541015626,37.36615982055664,-24.719639587402344,1.688686607878886e+18,78.95288608398437,-236.0407165527344,132.39195861816407,-157.4434387207031,1.6886866078782164e+18,78.95221638997396,-0.3020397722721099,0.0704204936822255,-0.7269147435824076,0.6127053697903951,-1.7577165365219116,1.2035199801127117,2.300086339314779
4.0,1.688686607930126e+18,79.0041258951823,0.1000281572341918,-0.0694770812988281,-0.1941955884297688,1.688686607930126e+18,79.0041258951823,-0.5487539966901144,-9.242078145345053,3.331407308578491,1.688686607930126e+18,79.0041258951823,-0.6546281774838766,-9.155096371968588,3.4629155000050864,1.6886866079258007e+18,78.99980061848959,-0.0106392364638546,-0.0970257620016733,0.0461712318162123,1.6886866079258007e+18,78.99980061848959,-0.0116573451086878,-0.0924442733327547,0.0485128822426001,1.688686607926949e+18,79.00094921875,0.0,0.41810342669487,0.8766942024230957,6.521999835968018,0.0383166708052158,0.0,40.30000305175781,-122.7531525,49.1903762,1.6886866079288845e+18,79.00288437500001,19.58099937438965,37.41251831054687,-24.58787956237793,1.6886866079288845e+18,79.00288437500001,-235.76499633789064,132.43831787109374,-157.31167907714843,1.688686607930126e+18,79.0041258951823,-0.3008037507534027,0.0688180600603421,-0.7270720402399699,0.6133080124855042,-1.757656216621399,1.203329086303711,2.295799652735392
4.05,1.6886866079820378e+18,79.05603751627605,0.0323586861292521,-0.0577669143676757,-0.0541516939798991,1.6886866079820378e+18,79.05603751627605,-0.5986044605573019,-9.233304341634115,3.467000643412272,1.6886866079820378e+18,79.05603751627605,-0.6368091702461243,-9.158032735188804,3.4584649403889975,1.6886866079777137e+18,79.05171362304687,0.0055995980898538,-0.0428114727449913,0.0658207312226295,1.6886866079777137e+18,79.05171362304687,0.0045305838963637,-0.0382299826451343,0.0681114743153254,,,,,,,,,,,,1.6886866079788882e+18,79.05288828125,19.88111991882324,37.35151901245117,-24.656199645996093,1.6886866079788882e+18,79.05288828125,-235.46487426757812,132.3773193359375,-157.37999877929687,1.6886866079820378e+18,79.05603751627605,-0.2994937797387441,0.0672500953078269,-0.7265944083531698,0.614687979221344,-1.7529127995173135,1.204163114229838,2.286720593770345
4.1,1.6886866080252943e+18,79.09929431152344,-0.1821705996990203,0.057814598083496,0.0779262781143188,1.6886866080252943e+18,79.09929431152344,-0.7893323600292206,-9.120243549346924,3.59671151638031,1.6886866080252943e+18,79.09929431152344,-0.6130077838897705,-9.160553455352783,3.4560978412628174,1.6886866080296256e+18,79.10362556966146,0.0077885319478809,0.019445876435687,0.0506000046928723,1.6886866080296256e+18,79.10362556966146,0.0067195176767805,0.0240273655702669,0.052890750269095,,,,,,,,,,,,1.688686608028889e+18,79.10288920898438,19.500479888916015,37.29051971435547,-24.617159271240233,1.688686608028889e+18,79.10288920898438,-235.8455139160156,132.31631774902343,-157.34095458984376,1.6886866080252943e+18,79.09929431152344,-0.2994723618030548,0.0669203624129295,-0.725789487361908,0.6156845986843109,-1.7463657855987549,1.2048802375793457,2.279613971710205
4.15,1.6886866080685588e+18,79.14255883789063,-0.160984734694163,0.1930967966715494,0.185021956761678,1.6886866080685588e+18,79.14255883789063,-0.755533754825592,-8.987043062845865,3.700500170389811,1.6886866080685588e+18,79.14255883789063,-0.6003950436909994,-9.16263516743978,3.4527908166249595,1.6886866080815383e+18,79.15553841145834,0.0277943685650824,0.1025744527578353,-0.0570140883016089,1.6886866080815383e+18,79.15553841145834,0.0267762603859106,0.1071050390601157,-0.0547233451313028,,,,,,,,,,,,1.688686608078884e+18,79.15288393554688,19.188159942626953,37.31735916137696,-24.38291931152344,1.688686608078884e+18,79.15288393554688,-236.1578338623047,132.34315490722656,-157.10671691894532,1.6886866080685588e+18,79.14255883789063,-0.3002117772897084,0.0677926143010457,-0.7252650856971741,0.615846594174703,-1.7429864803949993,1.205474615097046,2.2786077658335366
4.2,1.6886866081204713e+18,79.19447119140625,-0.0684439937273661,0.0290110905965168,0.1682321230570475,1.6886866081204713e+18,79.19447119140625,-0.6939185659090678,-9.151350339253744,3.6775689919789634,1.6886866081204713e+18,79.19447119140625,-0.631320595741272,-9.162856737772625,3.4466494719187417,1.688686608133447e+18,79.20744661458333,0.0056505034056802,0.0546215338011582,-0.1215112780531247,1.688686608133447e+18,79.20744661458333,0.0045814891345798,0.0592030224700768,-0.11916962514321,,,,,,,,,,,,1.6886866081288883e+18,79.20288847656249,19.315039443969727,37.212439727783206,-24.707439422607425,1.6886866081288883e+18,79.20288847656249,-236.03095397949215,132.2382354736328,-157.43123779296874,1.6886866081204713e+18,79.19447119140625,-0.3014512459437052,0.0703878278533617,-0.7261039813359579,0.6139581998189291,-1.7519803047180176,1.205538272857666,2.293319145838419
4.25,1.6886866081723791e+18,79.24637906901042,0.2150589823722839,-0.0029589335123697,-0.0392003059387206,1.6886866081723791e+18,79.24637906901042,-0.4414757788181305,-9.179465929667154,3.4745778242746987,1.6886866081723791e+18,79.24637906901042,-0.6623808145523071,-9.159002304077148,3.4510907332102456,1.6886866081767096e+18,79.25070959472657,-0.0184786734171211,0.0268017128109931,-0.0198531205533072,1.6886866081767096e+18,79.25070959472657,-0.0195476878434419,0.0313832024112343,-0.0175623761024326,,,,,,,,,,,,1.6886866081788872e+18,79.25288720703125,19.444359970092773,37.06115875244141,-24.463439178466796,1.6886866081788872e+18,79.25288720703125,-235.9016357421875,132.0869567871094,-157.1872344970703,1.6886866081723791e+18,79.24637906901042,-0.3022029101848602,0.071579856177171,-0.7270774245262146,0.6122974356015524,-1.7604499260584514,1.204439640045166,2.304746945699056
4.3,1.688686608224296e+18,79.2982958984375,0.1687784890333811,-0.0921341578165689,-0.2139320373535156,1.688686608224296e+18,79.2982958984375,-0.4737788736820221,-9.266006469726562,3.3094731171925864,1.688686608224296e+18,79.2982958984375,-0.6484034061431885,-9.156367619832356,3.460717757542928,1.688686608219971e+18,79.29397135416667,-0.0242309886962175,0.0015780684965042,0.0401643905788659,1.688686608219971e+18,79.29397135416667,-0.0253000017255544,0.0061595577280967,0.0425060397634903,,,,,,,,,,,,1.688686608228886e+18,79.30288598632812,19.163759994506837,37.105078887939456,-24.58543930053711,1.688686608228886e+18,79.30288598632812,-236.18223571777344,132.13087768554686,-157.30923767089843,1.688686608224296e+18,79.2982958984375,-0.3027736147244771,0.0711974675456682,-0.7266251444816589,0.612596849600474,-1.756038784980774,1.2036900520324707,2.3006556828816733
4.35,1.6886866082762058e+18,79.35020581054687,-0.1504613558451334,-0.0944312413533528,-0.2407193978627523,1.6886866082762058e+18,79.35020581054687,-0.7667002479235331,-9.268598556518551,3.286741336186727,1.6886866082762058e+18,79.35020581054687,-0.62208491563797,-9.156662623087565,3.464773337046305,1.6886866082718817e+18,79.34588151041667,-0.0098756551354502,-0.0564541310692826,0.0732529237866401,1.6886866082718817e+18,79.34588151041667,-0.0109446689020841,-0.0518726397616167,0.0755436718463897,,,,,,,,,,,,1.6886866082788846e+18,79.35288461914062,19.656639862060548,37.329558563232425,-24.65863990783691,1.6886866082788846e+18,79.35288461914062,-235.68935546875,132.35535888671876,-157.38243713378907,1.6886866082762058e+18,79.35020581054687,-0.3025233447551727,0.0700246319174766,-0.7258155941963196,0.6138137976328532,-1.7484774986902871,1.2037734190622966,2.2909652392069497
4.4,1.68868660832812e+18,79.40212003580729,0.1062319080034891,0.0272321701049804,-0.007457176844279,1.68868660832812e+18,79.40212003580729,-0.5180461009343466,-9.14915688832601,3.5126636823018393,1.68868660832812e+18,79.40212003580729,-0.630124052365621,-9.158884366353352,3.4574334621429443,1.6886866083237932e+18,79.39779313151043,0.0099265600244203,-0.1292998095353444,0.0051414487534202,1.6886866083237932e+18,79.39779313151043,0.0088575460637608,-0.1248201330502827,0.0074830989663799,,,,,,,,,,,,1.6886866083288837e+18,79.40288364257813,19.295519256591795,37.224639892578125,-24.746479034423828,1.6886866083288837e+18,79.40288364257813,-236.05047607421875,132.250439453125,-157.47027893066405,1.68868660832812e+18,79.40212003580729,-0.300108770529429,0.0679198553164799,-0.7262977560361227,0.6146645545959473,-1.751099427541097,1.2044050296147664,2.286811272303263
4.45,1.688686608380033e+18,79.45403287760416,-0.0292207201321919,0.0216995875040689,0.0001851717631022,1.688686608380033e+18,79.45403287760416,-0.6584250132242838,-9.156933466593426,3.5134612719217935,1.688686608380033e+18,79.45403287760416,-0.6350503166516622,-9.161128362019856,3.4505887031555176,1.688686608375711e+18,79.44971101888021,0.0118609666824339,-0.0100283709665139,0.0178678085406621,1.688686608375711e+18,79.44971101888021,0.0107919527217745,-0.0054977871477603,0.0202094577252864,,,,,,,,,,,,1.6886866083788849e+18,79.45288481445313,19.451679611206053,37.18559875488281,-24.458559799194337,1.6886866083788849e+18,79.45288481445313,-235.89431457519532,132.2114013671875,-157.18235778808594,1.688686608380033e+18,79.45403287760416,-0.2992171843846639,0.0675113002459207,-0.7265087564786276,0.6148953835169474,-1.7528286774953206,1.2050436735153198,2.286569039026896
4.5,1.6886866084319409e+18,79.50594091796874,-0.0462493697802225,0.0220400492350259,0.129475990931193,1.6886866084319409e+18,79.50594091796874,-0.6652046839396158,-9.159127235412598,3.637887954711914,1.6886866084319409e+18,79.50594091796874,-0.6248013377189636,-9.163662592569986,3.4457245667775473,1.6886866084276206e+18,79.50162076822916,0.0008144870322818,-0.1289943729837735,0.0634281734625498,1.6886866084276206e+18,79.50162076822916,-0.0002545272776235,-0.1244637916485468,0.065769825130701,,,,,,,,,,,,1.6886866084288832e+18,79.50288305664063,19.197919845581055,37.45887908935547,-24.436599349975587,1.6886866084288832e+18,79.50288305664063,-236.1480712890625,132.48467712402345,-157.16039428710937,1.6886866084319409e+18,79.50594091796874,-0.2975633839766183,0.0657344212134678,-0.726311723391215,0.6161210536956787,-1.750201980272929,1.205766995747884,2.2787931760152182
4.55,1.6886866084752044e+18,79.54920434570312,0.0681314468383788,0.0317978858947754,0.0926591157913208,1.6886866084752044e+18,79.54920434570312,-0.5479563772678375,-9.14985466003418,3.6003007888793945,1.6886866084752044e+18,79.54920434570312,-0.6219338476657867,-9.164147853851318,3.4449542760849,1.688686608479533e+18,79.55353295898438,0.0019853120514502,-0.038433604563276,0.0345647912472486,1.688686608479533e+18,79.55353295898438,0.0009162979161677,-0.0338521149630347,0.0368555362025896,,,,,,,,,,,,1.688686608478884e+18,79.55288408203126,18.96367950439453,37.46375961303711,-24.648880004882812,1.688686608478884e+18,79.55288408203126,-236.38231811523437,132.48955688476562,-157.3726806640625,1.6886866084752044e+18,79.54920434570312,-0.2961552441120147,0.0640779621899127,-0.7263595759868622,0.6169180572032928,-1.7494356632232666,1.205905556678772,2.273455262184143
4.6,1.688686608518467e+18,79.59246712239583,-0.1634252270062764,0.0635814666748046,-0.0295666058858235,1.688686608518467e+18,79.59246712239583,-0.7667002479235331,-9.119645436604818,3.4761730829874673,1.688686608518467e+18,79.59246712239583,-0.609121044476827,-9.165722211201986,3.443052291870117,1.6886866085314417e+18,79.60544181315105,-0.0019853119156323,-0.057064994626368,0.0385863209764162,1.6886866085314417e+18,79.60544181315105,-0.0030543264195633,-0.0524835044828554,0.0409279701610405,,,,,,,,,,,,1.688686608528886e+18,79.60288598632812,19.22231941223145,37.45399932861328,-24.441479873657222,1.688686608528886e+18,79.60288598632812,-236.12367553710936,132.47979736328125,-157.16527709960937,1.688686608518467e+18,79.59246712239583,-0.2959648072719574,0.0637451310952504,-0.7259390552838644,0.6175384521484375,-1.7459248304367063,1.2063554922739663,2.2691433429718018
4.65,1.6886866085703782e+18,79.64437809244792,-0.0897493561108907,0.0093030929565429,-0.0256106853485106,1.6886866085703782e+18,79.64437809244792,-0.6979066133499146,-9.172686258951822,3.4825538794199624,1.6886866085703782e+18,79.64437809244792,-0.6140032807985941,-9.164484659830729,3.4454771677652993,1.6886866085833572e+18,79.65735734049478,-0.0258599619070688,-0.14630222817262,0.0210239458829164,1.6886866085833572e+18,79.65735734049478,-0.0269289761781692,-0.1417207370201746,0.0233655956884224,,,,,,,,,,,,1.688686608578886e+18,79.65288608398438,19.3687198638916,37.6565185546875,-24.429279708862303,1.688686608578886e+18,79.65288608398438,-235.97727661132816,132.68231811523438,-157.153076171875,1.6886866085703782e+18,79.64437809244792,-0.294263074795405,0.0616510026156902,-0.7262905836105347,0.6181497573852539,-1.7471760114034016,1.2060019969940186,2.264763434727987
4.7,1.6886866086222907e+18,79.69629060872397,0.1649889151255289,-0.0411297480265299,-0.0552093187967936,1.6886866086222907e+18,79.69629060872397,-0.453838696082433,-9.220941543579102,3.456831137339274,1.6886866086222907e+18,79.69629060872397,-0.6246736645698547,-9.162307103474935,3.449353059132894,1.6886866086266184e+18,79.70061828613281,0.0031306841410696,-0.0349720347439869,0.010155634721741,1.6886866086266184e+18,79.70061828613281,0.0020616701804101,-0.0303905457258224,0.0124463797546922,,,,,,,,,,,,1.6886866086288837e+18,79.70288369140624,19.498040008544923,37.41983871459961,-24.107199478149415,1.6886866086288837e+18,79.70288369140624,-235.84795837402345,132.4456359863281,-156.83099365234375,1.6886866086222907e+18,79.69629060872397,-0.2924705743789673,0.0594500079751013,-0.726848840713501,0.6185607115427653,-1.749980131785075,1.2053801616032918,2.2616589069366455
4.75,1.6886866086741993e+18,79.7481993001302,0.0648599664370218,0.0479987462361653,0.1448033650716145,1.6886866086741993e+18,79.7481993001302,-0.5505486031373342,-9.135796864827476,3.64686115582784,1.6886866086741993e+18,79.7481993001302,-0.6212546030680338,-9.166290918986002,3.439370393753052,1.688686608669874e+18,79.74387394205729,0.0350738453368345,0.0858265683054923,-0.0267253542939821,1.688686608669874e+18,79.74387394205729,0.0340048323074976,0.0903571521242459,-0.0243837041780352,,,,,,,,,,,,1.688686608678889e+18,79.7528890625,19.502919387817386,37.539398956298825,-24.20723991394043,1.688686608678889e+18,79.7528890625,-235.8430725097656,132.56519775390626,-156.9310333251953,1.6886866086741993e+18,79.7481993001302,-0.2929599781831105,0.0607487733165422,-0.7266212900479635,0.6184699138005575,-1.7495269775390625,1.2065184911092122,2.2638090451558432
4.8,1.6886866087261125e+18,79.80011254882812,-0.0696619351704915,0.0843324661254882,0.1827894051869709,1.6886866087261125e+18,79.80011254882812,-0.6831508676211039,-9.102097829182942,3.678167184193929,1.6886866087261125e+18,79.80011254882812,-0.6193349560101827,-9.168925603230797,3.432690382003784,1.688686608721786e+18,79.79578605143229,0.0144571441536147,0.0691295831153789,-0.0245873263726631,1.688686608721786e+18,79.79578605143229,0.0133881295041646,0.0737110742678244,-0.0222456759462753,,,,,,,,,,,,1.6886866087288852e+18,79.8028853515625,19.25403938293457,37.30515899658203,-24.241399383544923,1.6886866087288852e+18,79.8028853515625,-236.09195556640623,132.3309539794922,-156.96519775390624,1.6886866087261125e+18,79.80011254882812,-0.2942499021689097,0.0627557846407095,-0.7263834873835245,0.6179366310437521,-1.7493248383204143,1.207272966702779,2.2684737841288247
4.85,1.6886866087780278e+18,79.85202766927084,0.1487622658411661,-0.0481236775716145,-0.1011424859364827,1.6886866087780278e+18,79.85202766927084,-0.4743770758310954,-9.231509844462076,3.400599797566732,1.6886866087780278e+18,79.85202766927084,-0.6289853851000468,-9.165881474812826,3.4390548865000405,1.6886866087737004e+18,79.8477002766927,-0.024180082604289,-0.056963184227546,0.0002545271224032,1.6886866087737004e+18,79.8477002766927,-0.0252490968753893,-0.052483504017194,0.002545272213562,,,,,,,,,,,,1.6886866087788838e+18,79.852883984375,19.649319458007813,37.541838836669925,-24.224319458007812,1.6886866087788838e+18,79.852883984375,-235.6966766357422,132.56763305664063,-156.9481170654297,1.6886866087780278e+18,79.85202766927084,-0.2939951618512471,0.0621452331542968,-0.7267744739850363,0.6176597277323405,-1.7517186005910237,1.2064016660054524,2.269622723261515
4.9,1.688686608829941e+18,79.90394091796875,0.0843675831953684,-0.0377734502156575,-0.1472455660502115,1.688686608829941e+18,79.90394091796875,-0.5252245664596558,-9.221539815266928,3.3559338251749673,1.688686608829941e+18,79.90394091796875,-0.615438183148702,-9.166261672973633,3.440491994222006,1.6886866088256097e+18,79.899609375,0.0053959763608872,0.0129299809535344,0.0341575480997562,1.6886866088256097e+18,79.899609375,0.0043269619345664,0.0175114703985551,0.0364991985261439,,,,,,,,,,,,1.688686608828882e+18,79.90288203125,19.88111991882324,37.373480224609374,-24.42683944702149,1.688686608828882e+18,79.90288203125,-235.46487426757812,132.39927978515624,-157.1506378173828,1.688686608829941e+18,79.90394091796875,-0.2939057250817616,0.0616550967097282,-0.7263412674268087,0.6182607611020406,-1.7478318611780803,1.206509709358215,2.26486873626709
4.95,1.6886866088818516e+18,79.95585180664062,0.0130045215288797,0.0267912546793619,0.0817554791768391,1.6886866088818516e+18,79.95585180664062,-0.5932206114133199,-9.16052277882894,3.576073487599691,1.6886866088818516e+18,79.95585180664062,-0.61207115650177,-9.169809341430664,3.4316306114196777,1.688686608877528e+18,79.95152807617187,0.0204130802303552,0.0195985933144886,-0.0153734421667952,1.688686608877528e+18,79.95152807617187,0.0193440662696957,0.024180082604289,-0.0130826976771155,,,,,,,,,,,,1.6886866088788874e+18,79.9528873046875,19.646879196166992,37.419839477539064,-24.360959625244146,1.6886866088788874e+18,79.9528873046875,-235.69911499023436,132.4456359863281,-157.08475646972656,1.6886866088818516e+18,79.95585180664062,-0.2938896516958872,0.0622708126902579,-0.7261705994606018,0.6184072097142538,-1.7473300695419312,1.2075260877609253,2.2652092774709067
5.0,1.6886866089251128e+18,79.99911279296876,-0.0482633709907531,0.0722308158874511,0.1224715709686279,1.6886866089251128e+18,79.99911279296876,-0.6535396873950958,-9.116056442260742,3.6143585443496704,1.6886866089251128e+18,79.99911279296876,-0.611122339963913,-9.170782566070557,3.4291995763778687,1.688686608929442e+18,80.00344222005208,0.0053450708316328,0.0427096610267956,-0.009162978734821,1.688686608929442e+18,80.00344222005208,0.0042760566575452,0.0472402454664309,-0.0068722337794799,1.688686608926971e+18,80.00097094726563,0.0,0.4222791790962219,0.8870944976806641,6.4029998779296875,0.0346777960658073,0.0,40.30000305175781,-122.7531522,49.1903763,1.6886866089288842e+18,80.00288413085937,19.246719741821288,37.283199310302734,-24.30239944458008,1.6886866089288842e+18,80.00288413085937,-236.0992706298828,132.30899658203126,-157.0261993408203,1.6886866089251128e+18,79.99911279296876,-0.294449895620346,0.0631022565066814,-0.7260655462741852,0.6181797981262207,-1.7471842765808103,1.207805573940277,2.267120122909546
5.05,1.6886866089683763e+18,80.04237622070313,-0.0247892538706461,0.043365478515625,0.0263723532358805,1.6886866089683763e+18,80.04237622070313,-0.6313063700993856,-9.144171714782717,3.520041545232137,1.6886866089683763e+18,80.04237622070313,-0.6123631397883097,-9.170032501220703,3.4309817949930825,1.6886866089813517e+18,80.05535172526042,-0.0074830992768207,0.0014253522191817,-0.0085012080768743,1.6886866089813517e+18,80.05535172526042,-0.0085521135479211,0.0059559359991301,-0.0062104634319741,,,,,,,,,,,,1.688686608978885e+18,80.0528849609375,19.23695945739746,37.42715911865234,-24.25115966796875,1.688686608978885e+18,80.0528849609375,-236.10903930664065,132.4529602050781,-156.97495727539064,1.6886866089683763e+18,80.04237622070313,-0.2947717110315958,0.0633640810847282,-0.7260861992835999,0.6179753144582113,-1.7474439938863118,1.207590142885844,2.268258889516195
5.1,1.6886866090202857e+18,80.09428548177084,-0.0157178839047749,0.0006930033365885,-0.0789446830749511,1.6886866090202857e+18,80.09428548177084,-0.6243273218472799,-9.185049057006836,3.4191441535949707,1.6886866090202857e+18,80.09428548177084,-0.6144554615020752,-9.168237368265787,3.435401439666748,1.6886866090332575e+18,80.10725773111979,-0.0108937633534271,-0.0092647893664737,0.0040724351226041,1.6886866090332575e+18,80.10725773111979,-0.0119627776245275,-0.0048360164122035,0.0063631795734787,,,,,,,,,,,,1.688686609028886e+18,80.10288608398437,19.461439895629884,37.554039764404294,-24.395119857788085,1.688686609028886e+18,80.10288608398437,-235.88455810546876,132.5798370361328,-157.11891479492186,1.6886866090202857e+18,80.09428548177084,-0.2949358622233073,0.0632488206028938,-0.7261694471041361,0.6178109844525655,-1.747809966405233,1.207075556119283,2.2687227725982666
5.15,1.6886866090721943e+18,80.14619417317708,-0.0123811165491739,-0.0484609603881835,-0.0818360646565755,1.6886866090721943e+18,80.14619417317708,-0.622333288192749,-9.233104705810549,3.4189446767171225,1.6886866090721943e+18,80.14619417317708,-0.6157981952031454,-9.167139053344728,3.438093344370524,1.6886866090765243e+18,80.15052465820312,-0.0073303829412906,-0.0404698234051465,0.0073303831741213,1.6886866090765243e+18,80.15052465820312,-0.0083993971347808,-0.0358883328735828,0.0096211277414112,,,,,,,,,,,,1.6886866090788826e+18,80.15288251953125,19.87867965698242,37.60527877807617,-24.180399703979493,1.6886866090788826e+18,80.15288251953125,-235.46731262207032,132.63107299804688,-156.90419921875,1.6886866090721943e+18,80.14619417317708,-0.294611910978953,0.0626817320783932,-0.7262656092643738,0.6179102857907613,-1.7480518023173015,1.2067610025405884,2.2676541805267334
5.2,1.68868660912411e+18,80.19810986328126,0.0768275260925292,-0.001572291056315,-0.0527691046396891,1.68868660912411e+18,80.19810986328126,-0.5401796897252401,-9.185647328694662,3.448256810506185,1.68868660912411e+18,80.19810986328126,-0.6228532393773397,-9.166570345560707,3.4383385181427,1.6886866091197855e+18,80.19378548177083,-0.0004072433997256,-0.0075340044374266,-0.0125736429666478,1.6886866091197855e+18,80.19378548177083,-0.0013744468063426,-0.0030034210067242,-0.0102828981665272,,,,,,,,,,,,1.6886866091288858e+18,80.20288598632813,19.798159790039065,37.25147933959961,-24.265799713134765,1.6886866091288858e+18,80.20288598632813,-235.54783630371097,132.27727661132812,-156.98959655761718,1.68868660912411e+18,80.19810986328126,-0.2941777110099792,0.0622933308283487,-0.726546585559845,0.6178261240323385,-1.7500269412994385,1.2065977652867634,2.268413464228312
5.25,1.6886866091760225e+18,80.2500224609375,-0.0300290981928507,-0.0027847290039062,0.0394798119862874,1.6886866091760225e+18,80.2500224609375,-0.6468597253163656,-9.1874418258667,3.538984696070353,1.6886866091760225e+18,80.2500224609375,-0.6226766506830851,-9.167152404785156,3.436817487080892,1.6886866091716936e+18,80.24569360351563,0.0030034207350884,-0.0117082505797346,0.0089084516706255,1.6886866091716936e+18,80.24569360351563,0.0019344066143579,-0.0071776661400993,0.0111991961020975,,,,,,,,,,,,1.6886866091788823e+18,80.25288222656249,19.351639556884766,37.49791946411133,-24.334119415283205,1.6886866091788823e+18,80.25288222656249,-235.99435729980468,132.52371826171876,-157.05791625976562,1.6886866091760225e+18,80.2500224609375,-0.2941364844640096,0.0623619531591733,-0.7265345255533854,0.6178530057271322,-1.7500551144282024,1.2067646582921343,2.268474260965983
5.3,1.6886866092279304e+18,80.30193041992187,0.0331396659215291,0.073680559794108,0.0976897875467935,1.6886866092279304e+18,80.30193041992187,-0.5792624751726786,-9.11127026875814,3.597210089365641,1.6886866092279304e+18,80.30193041992187,-0.6182481646537781,-9.16744613647461,3.436832904815674,1.6886866092236024e+18,80.2976025390625,0.0026470827093968,0.0195985936249296,0.0029525154580672,1.6886866092236024e+18,80.2976025390625,0.0015780685935168,0.0240782721278568,0.0052941657292346,,,,,,,,,,,,1.6886866092288865e+18,80.30288627929687,19.480959701538087,37.24171829223633,-24.224319458007812,1.6886866092288865e+18,80.30288627929687,-235.8650329589844,132.26751708984375,-156.94811401367187,1.6886866092279304e+18,80.30193041992187,-0.2941280603408813,0.0622620557745297,-0.7263875404993693,0.6180398464202881,-1.7488049268722534,1.2068490187327068,2.267058769861857
5.35,1.6886866092798477e+18,80.35384781901041,-0.0787728031476338,0.0120588938395182,0.0485556125640868,1.6886866092798477e+18,80.35384781901041,-0.6919245521227518,-9.17288589477539,3.547957817713419,1.6886866092798477e+18,80.35384781901041,-0.6189977725346884,-9.167440096537272,3.4367148081461587,1.688686609275522e+18,80.34952205403646,0.0043778675608336,0.0319686150178312,-0.0175114702433347,1.688686609275522e+18,80.34952205403646,0.0033088534449536,0.0365501039971907,-0.0151189149667818,,,,,,,,,,,,1.6886866092788844e+18,80.352884375,19.881119537353516,37.47840042114258,-24.353639602661133,1.6886866092788844e+18,80.352884375,-235.46487731933593,132.50419921875,-157.0774383544922,1.6886866092798477e+18,80.35384781901041,-0.2947806119918823,0.0630535582701364,-0.7263453602790833,0.6176982323328654,-1.7490206956863403,1.2068474690119426,2.2694230874379477
5.4,1.6886866093317614e+18,80.40576155598959,0.0644824703534443,0.0395011901855468,0.0410254001617431,1.6886866093317614e+18,80.40576155598959,-0.5533402363459269,-9.14476998647054,3.5413774649302163,1.6886866093317614e+18,80.40576155598959,-0.6236687302589417,-9.166766484578451,3.4376646677652993,1.6886866093274363e+18,80.40143644205729,-0.0047342055283176,-0.0108937632758169,-0.0061595578057069,1.6886866093274363e+18,80.40143644205729,-0.0058032197218077,-0.0063122744128728,-0.0038688131608068,,,,,,,,,,,,1.6886866093288852e+18,80.40288520507814,19.580999755859377,37.66383895874024,-24.280439376831055,1.6886866093288852e+18,80.40288520507814,-235.7649932861328,132.68963623046875,-157.00423583984374,1.6886866093317614e+18,80.40576155598959,-0.2947526375452677,0.0630392606059709,-0.7265103658040365,0.617518941561381,-1.750287135442098,1.206654707590739,2.2706361611684165
5.45,1.6886866093836695e+18,80.45766943359375,0.0246386925379435,-0.0389855702718098,-0.0851840178171793,1.6886866093836695e+18,80.45766943359375,-0.5906283855438232,-9.221938133239748,3.4191441535949707,1.6886866093836695e+18,80.45766943359375,-0.621113101641337,-9.1654478708903,3.441640774408976,1.6886866093793464e+18,80.45334635416667,-0.007381288257117,0.0138462788114944,0.0056505034638878,1.6886866093793464e+18,80.45334635416667,-0.0084503022953867,0.0184277684117356,0.0080430591478943,,,,,,,,,,,,1.688686609378884e+18,80.452883984375,19.646879577636717,37.209999084472656,-24.412199401855467,1.688686609378884e+18,80.452883984375,-235.69911499023436,132.2357971191406,-157.13599853515626,1.6886866093836695e+18,80.45766943359375,-0.2950302859147389,0.0629992236693699,-0.7264241576194763,0.6174918413162231,-1.749364972114563,1.206277330716451,2.270086129506429
5.5,1.6886866094269325e+18,80.50093249511718,-0.0311821103096007,0.0112419128417969,-0.1026570796966551,1.6886866094269325e+18,80.50093249511718,-0.642771989107132,-9.172287464141846,3.4007991552352905,1.6886866094269325e+18,80.50093249511718,-0.6174359023571014,-9.166024684906006,3.440768837928772,1.68868660943126e+18,80.505259765625,0.00305432616733,-0.0230601631725827,0.0121154940376678,1.68868660943126e+18,80.505259765625,0.0019853120514501,-0.0185295790433883,0.0144062386825679,,,,,,,,,,,,1.6886866094288845e+18,80.50288447265625,19.6444393157959,37.529638671875,-24.121839141845705,1.6886866094288845e+18,80.50288447265625,-235.70155334472656,132.55543823242186,-156.84563903808595,1.6886866094269325e+18,80.50093249511718,-0.2949282526969909,0.0628742612898348,-0.7263059318065643,0.61769238114357,-1.7483736872673037,1.20644211769104,2.2687488794326782
5.55,1.6886866094701888e+18,80.54418872070312,0.0140854120254516,0.017462412516276,-0.00076158841451,1.6886866094701888e+18,80.54418872070312,-0.6009972890218099,-9.166504542032875,3.5008989175160727,1.6886866094701888e+18,80.54418872070312,-0.6209287246068319,-9.166462262471518,3.4389731089274087,1.6886866094831706e+18,80.55717041015625,-0.0020871229159335,-0.0296778703729311,-0.0081957752505937,1.6886866094831706e+18,80.55717041015625,-0.0031052316771819,-0.0251472859332958,-0.0059050306056935,,,,,,,,,,,,1.6886866094788838e+18,80.55288393554687,19.74203910827637,37.42227935791016,-24.27555923461914,1.6886866094788838e+18,80.55288393554687,-235.603955078125,132.4480773925781,-156.99935913085938,1.6886866094701888e+18,80.54418872070312,-0.2944100399812062,0.0624775066971778,-0.726462741692861,0.6177954276402792,-1.7494486967722576,1.2065675656000774,2.268456300099691
5.6,1.688686609522099e+18,80.59609879557291,0.051543911298116,-0.0196952819824218,-0.0281368891398111,1.688686609522099e+18,80.59609879557291,-0.5700900157292684,-9.203194618225098,3.473580837249756,1.688686609522099e+18,80.59609879557291,-0.6274799505869547,-9.16599464416504,3.439030329386393,1.6886866095264343e+18,80.60043420410156,-0.00137444678694,-0.0194713296368717,0.0022143865353427,1.6886866095264343e+18,80.60043420410156,-0.0024434609804302,-0.0150425569154321,0.0046578473993576,,,,,,,,,,,,1.6886866095288845e+18,80.602884375,19.74935989379883,37.25147933959961,-24.24384002685547,1.6886866095288845e+18,80.602884375,-235.5966339111328,132.27727966308595,-156.96763610839844,1.688686609522099e+18,80.59609879557291,-0.2939597765604655,0.0620746575295924,-0.726727028687795,0.6177395780881246,-1.7512898047765095,1.2064335346221924,2.2690348625183105
5.65,1.688686609574018e+18,80.64801806640625,-0.0197421312332153,0.0157063802083332,-0.0058928330739339,1.688686609574018e+18,80.64801806640625,-0.6374878485997518,-9.168100039164225,3.4957144260406494,1.688686609574018e+18,80.64801806640625,-0.6235917409261068,-9.166301727294922,3.4389198621114097,1.6886866095696888e+18,80.64368880208333,-0.0037670023739337,-0.0450513114531834,0.0307977894941965,1.6886866095696888e+18,80.64368880208333,-0.0047851111739873,-0.0405207276344299,0.0330885338286558,,,,,,,,,,,,1.6886866095788874e+18,80.6528873046875,19.615159606933595,37.3807991027832,-24.338999938964843,1.6886866095788874e+18,80.6528873046875,-235.7308319091797,132.40659790039064,-157.06279907226562,1.688686609574018e+18,80.64801806640625,-0.2933782537778218,0.0613219601412613,-0.7266545295715332,0.6181762417157491,-1.7502010663350422,1.2065213521321614,2.2659573554992676
5.7,1.6886866096259315e+18,80.69993147786458,0.0459070801734924,-0.0097103118896484,0.0010168552398681,1.6886866096259315e+18,80.69993147786458,-0.5720840096473694,-9.193623542785645,3.5022947788238525,1.6886866096259315e+18,80.69993147786458,-0.6238371133804321,-9.16640853881836,3.4385905265808105,1.6886866096216084e+18,80.69560864257812,-0.0010181087612484,-0.048767407114307,0.0097738438829158,1.6886866096216084e+18,80.69560864257812,-0.0020362174642892,-0.0441859196871518,0.012115494115278,,,,,,,,,,,,1.688686609628888e+18,80.70288803710937,19.82499961853027,37.39543991088867,-23.98519973754883,1.688686609628888e+18,80.70288803710937,-235.5209991455078,132.42123413085938,-156.70899353027343,1.6886866096259315e+18,80.69993147786458,-0.2924313048521677,0.0602400861680507,-0.7267536719640096,0.618614653746287,-1.750287135442098,1.2065519094467163,2.2630253632863364
5.75,1.6886866096778417e+18,80.75184171549479,0.0062115589777628,0.0082365671793619,0.067268133163452,1.6886866096778417e+18,80.75184171549479,-0.6105685830116272,-9.176674207051596,3.566103378931681,1.6886866096778417e+18,80.75184171549479,-0.6226261655489603,-9.16740608215332,3.436147848765055,1.6886866096735127e+18,80.7475126139323,0.0079412480505803,0.0086030189801628,0.0071776665281503,1.6886866096735127e+18,80.7475126139323,0.0069231394057471,0.0131336027601112,0.0095193164112666,,,,,,,,,,,,1.688686609678882e+18,80.75288198242188,20.04459991455078,37.40275955200195,-23.98519973754883,1.688686609678882e+18,80.75288198242188,-235.3013946533203,132.42855529785157,-156.70899353027343,1.6886866096778417e+18,80.75184171549479,-0.292219171921412,0.0601606555283069,-0.7267179091771444,0.6187646985054016,-1.750071406364441,1.2068376938501997,2.262362321217855
5.8,1.688686609729754e+18,80.80375390625,-0.0239329735438028,0.0762634277343749,0.0844928423563638,1.688686609729754e+18,80.80375390625,-0.6333004037539164,-9.109475453694662,3.582454284032186,1.688686609729754e+18,80.80375390625,-0.6152134537696838,-9.1682341893514,3.435274044672648,1.6886866097254264e+18,80.79942635091146,0.0015271630448599,0.0103338037927944,0.0129808864245811,1.6886866097254264e+18,80.79942635091146,0.0004581489289799,0.014864387611548,0.0153734420115748,,,,,,,,,,,,1.6886866097288842e+18,80.80288437499999,19.75179977416992,37.46131973266601,-24.168199157714845,1.6886866097288842e+18,80.80288437499999,-235.5941955566406,132.48711853027345,-156.89199829101562,1.688686609729754e+18,80.80375390625,-0.2923530240853627,0.060240385433038,-0.7264513174692789,0.6190067330996195,-1.748026450475057,1.2070749998092651,2.2606234550476074
5.85,1.688686609781666e+18,80.85566625976563,-0.1477521459261575,0.00098450978597,-0.0484641393025715,1.688686609781666e+18,80.85566625976563,-0.7533403237660726,-9.183453877766926,3.453640619913737,1.688686609781666e+18,80.85566625976563,-0.6114342013994852,-9.16693369547526,3.4394173622131348,1.6886866097773417e+18,80.85134163411459,-0.0119118721534807,-0.0029525160449944,0.0047851112321949,1.6886866097773417e+18,80.85134163411459,-0.0129808864245811,0.0015780686711271,0.0072285720768073,,,,,,,,,,,,1.6886866097788877e+18,80.85288764648438,19.783519744873047,37.390559387207034,-24.192599487304687,1.6886866097788877e+18,80.85288764648438,-235.5624755859375,132.416357421875,-156.91639709472656,1.688686609781666e+18,80.85566625976563,-0.2926752269268035,0.060215413570404,-0.7263205846150717,0.6190102696418762,-1.7467507521311445,1.2067028681437175,2.2598076661427817
5.9,1.6886866098335754e+18,80.90757535807292,0.0281993150711059,0.0134102503458658,-0.0622419516245523,1.6886866098335754e+18,80.90757535807292,-0.5800600747267405,-9.169495582580566,3.443471193313598,1.6886866098335754e+18,80.90757535807292,-0.6141054232915243,-9.165401140848797,3.443025747934977,1.688686609829254e+18,80.90325358072916,-0.0092138841282575,-0.0508545301854609,0.011148290708661,1.688686609829254e+18,80.90325358072916,-0.0102828981665272,-0.0463748537003993,0.0134390356640021,,,,,,,,,,,,1.688686609828884e+18,80.90288383789063,19.66639976501465,37.40275955200195,-24.19259910583496,1.688686609828884e+18,80.90288383789063,-235.67959899902343,132.42855529785157,-156.91639709472656,1.6886866098335754e+18,80.90757535807292,-0.2919723192850749,0.0591576099395751,-0.7265011072158813,0.6192322770754496,-1.747321685155233,1.2062644163767495,2.257782538731893
5.95,1.6886866098768404e+18,80.95084045410155,0.1014836728572844,-0.0259280204772949,-0.0147100687026976,1.6886866098768404e+18,80.95084045410155,-0.513559564948082,-9.208777904510498,3.48993182182312,1.6886866098768404e+18,80.95084045410155,-0.620889276266098,-9.165345191955566,3.441954493522644,1.6886866098811666e+18,80.95516650390626,0.0088575460637608,0.0329358185020585,-0.0262672056754429,1.6886866098811666e+18,80.95516650390626,0.0077885317150502,0.0375173073261975,-0.0239764607201019,,,,,,,,,,,,1.688686609878885e+18,80.95288530273437,19.79816017150879,37.29539947509765,-23.780239486694335,1.688686609878885e+18,80.95288530273437,-235.5478332519531,132.32120056152343,-156.50403747558593,1.6886866098768404e+18,80.95084045410155,-0.2918570786714554,0.0592410769313573,-0.7267323434352875,0.6190073490142822,-1.7492857575416565,1.206248760223389,2.259700059890747
6.0,1.6886866099200993e+18,80.99409944661458,0.0172692934672037,0.0299011866251627,0.0781199932098388,1.6886866099200993e+18,80.99409944661458,-0.596610446770986,-9.154341061909994,3.5792638460795083,1.6886866099200993e+18,80.99409944661458,-0.61972576379776,-9.16673755645752,3.4384564558664956,1.6886866099330785e+18,81.00707861328125,0.0117591560507813,0.0339539262155691,-0.0051414490832636,1.6886866099330785e+18,81.00707861328125,0.0106901416244605,0.0384845112760861,-0.0027997990255243,,,,,,,,,,,,1.688686609928881e+18,81.002880859375,20.171480178833008,37.23683853149414,-23.724119186401367,1.688686609928881e+18,81.002880859375,-235.1745147705078,132.26263732910155,-156.4479187011719,1.6886866099200993e+18,80.99409944661458,-0.2924375633398692,0.0601770343879858,-0.7266145944595337,0.6187812288602194,-1.7491355737050374,1.2066470781962078,2.2617847124735513
6.05,1.6886866099720108e+18,81.04601066080728,0.0389180580774942,0.029216448465983,0.0638529459635416,1.6886866099720108e+18,81.04601066080728,-0.5726822217305502,-9.155737241109213,3.5635111331939697,1.6886866099720108e+18,81.04601066080728,-0.6174463033676147,-9.16744899749756,3.4369707902272544,1.6886866099763387e+18,81.05033862304687,-0.0021380283287726,-0.0065668014576658,0.0049632801674305,1.6886866099763387e+18,81.05033862304687,-0.0032070426314021,-0.0020616701804101,0.0073303829412906,1.688686609998e+18,81.07200024414063,0.0,0.4222791790962219,0.8425103425979614,14.303999900817873,0.0344828777015209,0.0,40.30000305175781,-122.7531519,49.1903766,1.688686609978886e+18,81.05288627929687,19.8981990814209,37.50279922485352,-24.04131965637207,1.688686609978886e+18,81.05288627929687,-235.44779357910156,132.52859802246093,-156.76511840820314,1.6886866099720108e+18,81.04601066080728,-0.2926599085330962,0.0605108253657817,-0.7265070279439291,0.618769903977712,-1.7485692103703816,1.206850568453471,2.262035290400187
6.1,1.6886866100239263e+18,81.09792651367188,0.055762231349945,-0.0025993982950846,-0.0810132026672363,1.6886866100239263e+18,81.09792651367188,-0.551346222559611,-9.186843872070312,3.421337604522705,1.6886866100239263e+18,81.09792651367188,-0.6129544774691263,-9.166739781697592,3.4396634101867676,1.6886866100195994e+18,81.09359936523437,-0.0077376264768341,-0.0080430591478943,0.0155770632748801,1.6886866100195994e+18,81.09359936523437,-0.008806640592714,-0.0035124751157127,0.017867808540662,,,,,,,,,,,,1.688686610028886e+18,81.10288608398437,19.695680236816408,37.44423904418945,-24.065719604492188,1.688686610028886e+18,81.10288608398437,-235.6503143310547,132.47003784179688,-156.78951416015624,1.6886866100239263e+18,81.09792651367188,-0.2926096518834432,0.0601492499311764,-0.7263795137405396,0.6189785798390707,-1.7471678654352825,1.206647475560506,2.260031541188558
6.15,1.6886866100758372e+18,81.14983707682292,-0.0025147000948588,-0.0098187128702799,-0.0514707565307616,1.6886866100758372e+18,81.14983707682292,-0.6051847338676453,-9.194820086161297,3.449652671813965,1.6886866100758372e+18,81.14983707682292,-0.6085160573323568,-9.16749668121338,3.4384360313415527,1.6886866100715118e+18,81.1455116373698,0.0029525154192621,-0.0256563400228817,0.0105883309346002,1.6886866100715118e+18,81.1455116373698,0.0018835011530123,-0.0211257560489077,0.0128790754048774,,,,,,,,,,,,1.688686610078886e+18,81.15288579101562,19.471199417114256,37.20755920410157,-24.1023193359375,1.688686610078886e+18,81.15288579101562,-235.87479553222656,132.23335876464844,-156.82611694335938,1.6886866100758372e+18,81.14983707682292,-0.2923047542572021,0.0598008421560128,-0.7262525161107382,0.6193052927652994,-1.7459779580434165,1.206863800684611,2.257860024770101
6.2,1.6886866101277435e+18,81.20174365234375,0.0828679303328195,-0.0114046732584635,0.0500282446543375,1.6886866101277435e+18,81.20174365234375,-0.5260221759478251,-9.19741185506185,3.5473596254984536,1.6886866101277435e+18,81.20174365234375,-0.6147361397743225,-9.168502489725748,3.4346439838409424,1.6886866101234156e+18,81.19741569010417,0.0085012080768743,0.00244346090282,-0.0144571438431739,1.6886866101234156e+18,81.19741569010417,0.0074321938057739,0.006974044876794,-0.0121663995087146,,,,,,,,,,,,1.688686610128886e+18,81.20288608398437,19.8445198059082,37.341758728027344,-24.21943893432617,1.688686610128886e+18,81.20288608398437,-235.5014770507813,132.3675567626953,-156.9432373046875,1.6886866101277435e+18,81.20174365234375,-0.2918810447057087,0.0597271136939525,-0.7264768878618876,0.619249165058136,-1.747923215230306,1.2071521679560344,2.259052117665609
6.25,1.6886866101796608e+18,81.25366088867187,-0.0069562991460164,0.0786043802897135,0.0913662910461425,1.6886866101796608e+18,81.25366088867187,-0.6127619942029318,-9.10808022816976,3.5874392986297607,1.6886866101796608e+18,81.25366088867187,-0.6116517186164856,-9.169179916381838,3.4333856105804443,1.6886866101753372e+18,81.24933715820312,0.0030034207156859,0.0123700210048506,0.0070758557509785,1.6886866101753372e+18,81.24933715820312,0.0019853120514502,0.0168496998958289,0.0094175057020037,,,,,,,,,,,,1.6886866101788849e+18,81.25288486328125,19.624919891357425,37.54671936035156,-24.185279846191406,1.6886866101788849e+18,81.25288486328125,-235.72107543945313,132.57251586914063,-156.90907592773436,1.6886866101796608e+18,81.25366088867187,-0.2921797335147857,0.0601163133978843,-0.7263364990552267,0.6192353367805481,-1.7471154530843098,1.2073465983072915,2.2592573165893555
6.3,1.6886866102315656e+18,81.30556559244792,-0.0334618091583251,0.0165685017903646,-0.0363996823628743,1.6886866102315656e+18,81.30556559244792,-0.6372884313265482,-9.169296264648438,3.462214946746826,1.6886866102315656e+18,81.30556559244792,-0.6096726457277933,-9.168360074361166,3.435927232106527,1.6886866102272448e+18,81.30124471028647,-0.0069740448767939,-0.0005090543612216,0.0041742457106011,1.6886866102272448e+18,81.30124471028647,-0.0080430591478943,0.0039706241223029,0.0064649905980331,,,,,,,,,,,,1.688686610228886e+18,81.30288618164063,19.58831901550293,37.512560272216795,-23.997399139404298,1.688686610228886e+18,81.30288618164063,-235.75767517089844,132.53836059570312,-156.72119750976563,1.6886866102315656e+18,81.30556559244792,-0.2922645608584086,0.0599754427870114,-0.7262787222862244,0.619276762008667,-1.746429681777954,1.2071115970611572,2.258499542872111
6.35,1.688686610283485e+18,81.35748478190105,-0.0358377893765767,-0.0265239079793293,-0.0368656317392985,1.688686610283485e+18,81.35748478190105,-0.6384848356246948,-9.212367057800291,3.4620155493418374,1.688686610283485e+18,81.35748478190105,-0.6084930698076884,-9.168338457743326,3.4361937840779624,1.688686610279162e+18,81.35316178385416,-0.0005599598516709,-0.042506040384372,0.0126754542967925,1.688686610279162e+18,81.35316178385416,-0.0015780685935169,-0.0379754565656184,0.0149661987088619,,,,,,,,,,,,1.6886866102788846e+18,81.3528845703125,19.75179977416992,37.45887985229492,-24.170639419555663,1.6886866102788846e+18,81.3528845703125,-235.59419860839844,132.48467712402345,-156.89443969726562,1.688686610283485e+18,81.35748478190105,-0.2918212612469991,0.0594113543629645,-0.7262837489446005,0.6195341348648071,-1.7460842927296956,1.2071054776509602,2.256657282511393
6.4,1.688686610326746e+18,81.40074597167968,0.1160423904657363,0.0273666381835937,0.0447607040405273,1.688686610326746e+18,81.40074597167968,-0.4929214566946029,-9.159127235412598,3.540779232978821,1.688686610326746e+18,81.40074597167968,-0.6148099005222321,-9.168989181518556,3.4333311319351196,1.6886866103310774e+18,81.4050772298177,0.0068722337794799,0.0125227378060419,-0.019751309417188,1.6886866103310774e+18,81.4050772298177,0.0058032198188204,0.0170533210039138,-0.017409659611682,,,,,,,,,,,,1.6886866103288852e+18,81.40288540039062,19.429719543457033,37.541839599609375,-24.121839141845705,1.6886866103288852e+18,81.40288540039062,-235.9162811279297,132.56763610839843,-156.84563903808595,1.688686610326746e+18,81.40074597167968,-0.2913283407688141,0.0591847449541091,-0.7265239357948303,0.6195062100887299,-1.7480111122131348,1.2072919011116028,2.257506012916565
6.45,1.688686610370006e+18,81.44400610351562,-0.0236764947573343,-0.0005334218343099,-0.0046221415201822,1.688686610370006e+18,81.44400610351562,-0.6338985959688822,-9.18704319000244,3.4911282857259116,1.688686610370006e+18,81.44400610351562,-0.6160681247711182,-9.169005076090494,3.43306303024292,1.6886866103829852e+18,81.45698510742187,0.0017816903273341,0.0128281706323226,0.0007126763521228,1.6886866103829852e+18,81.45698510742187,0.0007635816000401,0.0174096593012412,0.0030034207738935,,,,,,,,,,,,1.688686610378886e+18,81.45288598632813,19.341879653930665,37.483279418945315,-24.16575965881348,1.688686610378886e+18,81.45288598632813,-236.00411376953124,132.5090759277344,-156.88955688476562,1.688686610370006e+18,81.44400610351562,-0.2918544113636017,0.0598478652536868,-0.7265138228734335,0.6192066669464111,-1.7483803431193037,1.2072964906692505,2.2596422036488852
6.5,1.688686610421915e+18,81.49591487630208,-0.0024621089299519,0.0765298207600911,0.040799061457316,1.688686610421915e+18,81.49591487630208,-0.6091727813084921,-9.11087163289388,3.534797191619873,1.688686610421915e+18,81.49591487630208,-0.6125566959381104,-9.169896761576334,3.4313107331593833,1.688686610426245e+18,81.50024499511719,0.0066431595478206,-0.0152716313023119,0.0164933619089424,1.688686610426245e+18,81.50024499511719,0.0055741453543304,-0.0106901414692401,0.0188604644499718,,,,,,,,,,,,1.6886866104288837e+18,81.50288344726563,19.45655975341797,37.34664001464843,-24.17551956176758,1.6886866104288837e+18,81.50288344726563,-235.88943786621093,132.3724395751953,-156.89931945800782,1.688686610421915e+18,81.49591487630208,-0.2917065421740214,0.0597439408302306,-0.7263991038004557,0.6194209257761637,-1.7474766969680786,1.2075519959131875,2.2583521207173667
6.55,1.6886866104738312e+18,81.54783105468749,-0.0087670683860778,-0.0374533335367838,-0.0125284194946289,1.6886866104738312e+18,81.54783105468749,-0.6209374666213989,-9.223932584126793,3.482952833175659,1.6886866104738312e+18,81.54783105468749,-0.6180164217948914,-9.16897455851237,3.4327938556671143,1.688686610469506e+18,81.54350602213542,-0.0087048297282307,-0.007432193805774,-0.0230092570806542,1.688686610469506e+18,81.54350602213542,-0.0097738440769413,-0.00295251555508,-0.0206676072751481,,,,,,,,,,,,1.688686610478886e+18,81.55288623046874,19.368719482421874,37.37592086791992,-24.275559997558595,1.688686610478886e+18,81.55288623046874,-235.9772735595703,132.40171813964844,-156.99935607910157,1.6886866104738312e+18,81.54783105468749,-0.2916312515735625,0.0596457918485005,-0.7265986800193787,0.6192317605018616,-1.7489423354466755,1.2072877089182537,2.2595725854237876
6.6,1.688686610525743e+18,81.5997431640625,0.0770680507024128,-0.0111271540323893,-0.0958194732666015,1.688686610525743e+18,81.5997431640625,-0.5397809147834778,-9.196414947509767,3.4019956588745117,1.688686610525743e+18,81.5997431640625,-0.6226949890454611,-9.16778310139974,3.4351277351379395,1.688686610521419e+18,81.5954189453125,-0.0041233405160406,-0.0181732410565018,0.013846278656274,1.688686610521419e+18,81.5954189453125,-0.0051923547095308,-0.0135917515532734,0.0161370236892253,,,,,,,,,,,,1.6886866105288788e+18,81.60287885742187,19.746919631958008,37.33687973022461,-24.26091957092285,1.6886866105288788e+18,81.60287885742187,-235.599072265625,132.36268005371093,-156.984716796875,1.688686610525743e+18,81.5997431640625,-0.2913518150647481,0.0592248663306236,-0.7267971038818359,0.6191708246866862,-1.7501424551010132,1.2069464127222698,2.2597484588623047
6.65,1.688686610577654e+18,81.65165405273437,0.0213861465454101,0.0232111612955728,0.002142588297526,1.688686610577654e+18,81.65165405273437,-0.5896313786506653,-9.16331418355306,3.497708479563395,1.688686610577654e+18,81.65165405273437,-0.6168635487556458,-9.169020652770996,3.4328784942626953,1.6886866105733243e+18,81.64732462565104,0.0065668014188606,0.0198022155091165,-0.0062613689030209,1.6886866105733243e+18,81.64732462565104,0.005548692618807,0.0243837038675943,-0.0039706237924595,,,,,,,,,,,,1.6886866105788808e+18,81.65288076171875,19.705439376831055,37.47840042114258,-24.10475959777832,1.6886866105788808e+18,81.65288076171875,-235.6405517578125,132.50420227050782,-156.82855529785155,1.688686610577654e+18,81.65165405273437,-0.2914450863997141,0.059397879987955,-0.7265784740447998,0.6193668643633524,-1.748612880706787,1.2073008219401042,2.2585975329081216
