,seconds_elapsed_rounded,accelerometer_time,accelerometer_seconds_elapsed,accelerometer_z,accelerometer_y,accelerometer_x,accelerometeruncalibrated_time,accelerometeruncalibrated_seconds_elapsed,accelerometeruncalibrated_z,accelerometeruncalibrated_y,accelerometeruncalibrated_x,gravity_time,gravity_seconds_elapsed,gravity_z,gravity_y,gravity_x,gyroscope_time,gyroscope_seconds_elapsed,gyroscope_z,gyroscope_y,gyroscope_x,gyroscopeuncalibrated_time,gyroscopeuncalibrated_seconds_elapsed,gyroscopeuncalibrated_z,gyroscopeuncalibrated_y,gyroscopeuncalibrated_x,location_time,location_seconds_elapsed,location_bearingAccuracy,location_speedAccuracy,location_verticalAccuracy,location_horizontalAccuracy,location_speed,location_bearing,location_altitude,location_longitude,location_latitude,magnetometer_time,magnetometer_seconds_elapsed,magnetometer_z,magnetometer_y,magnetometer_x,magnetometeruncalibrated_time,magnetometeruncalibrated_seconds_elapsed,magnetometeruncalibrated_z,magnetometeruncalibrated_y,magnetometeruncalibrated_x,orientation_time,orientation_seconds_elapsed,orientation_qz,orientation_qy,orientation_qx,orientation_qw,orientation_roll,orientation_pitch,orientation_yaw,totalacceleration_time,totalacceleration_seconds_elapsed,totalacceleration_z,totalacceleration_y,totalacceleration_x
0,0.1,1.6888756777952876e+18,0.1252874755859375,-1.1404964923858643,1.4051814079284668,-1.0612676739692688,1.6888756777779917e+18,0.10799163818359375,6.842575550079346,5.43140834569931,-1.0461121648550034,1.6888756777952876e+18,0.1252874755859375,8.18489694595337,5.373577833175659,-0.6066370010375977,1.6888756777673285e+18,0.09732828776041667,1.3976596891880035,2.0481293400128684,0.4722751925388972,1.6888756777755768e+18,0.10557690429687501,1.4103657007217407,1.854312002658844,0.4103792726993561,,,,,,,,,,,,1.6888756777769e+18,0.10690003797743056,-41.09773254394531,-12.864222102695042,-14.814866489834255,1.6888756777819249e+18,0.111925048828125,-300.656795501709,70.76457405090332,-130.07639694213867,1.6888756777952876e+18,0.1252874755859375,-0.4593062102794647,-0.1088830605149269,0.26639796793460846,0.8403443694114685,0.07383345440030095,-0.5797063410282135,1.0224394798278809,1.6888756777693412e+18,0.099341162109375,7.015516757965088,5.213242626190185,-0.8769694998860359
1,0.2,1.688875677864495e+18,0.19449527994791668,-1.9018057187398274,1.4833973248799641,-2.238318055868149,1.688875677864495e+18,0.19449527994791668,6.426822503407796,6.612964232762654,-3.0263224442799888,1.688875677864495e+18,0.19449527994791668,8.305826822916666,5.145312070846558,-0.8527178863684336,1.688875677864495e+18,0.19449527994791668,-0.8553895031412443,-0.09911288817723596,-0.26600635424256325,1.688875677864495e+18,0.19449527994791668,-0.8564076324303945,-0.0947604775428772,-0.2638683306674163,,,,,,,,,,,,1.688875677872375e+18,0.202375048828125,-41.66787910461426,-12.23781976699829,-12.7209397315979,1.688875677872375e+18,0.202375048828125,-301.38147888183596,71.53957901000976,-128.40133666992188,1.688875677864495e+18,0.19449527994791668,-0.47062152127424867,-0.09433577333887411,0.2601994027694066,0.8376208146413168,0.10204657167196272,-0.5521667301654816,1.0526215036710103,1.688875677864495e+18,0.19449527994791668,6.4040907224019366,6.6285176277160645,-3.090928634007772
2,0.30000000000000004,1.6888756779682918e+18,0.29829178873697915,-2.0056730111440024,-2.642394502957662,1.6499239603678386,1.6888756779682918e+18,0.29829178873697915,6.7358953555425005,1.7269200334946315,1.2214362720648448,1.6888756779682918e+18,0.29829178873697915,8.718767007191977,4.385059754053752,-0.4932011626660824,1.6888756779682918e+18,0.29829178873697915,1.0692686786254246,-0.8223773340384165,-2.1899518966674805,1.6888756779682918e+18,0.29829178873697915,1.0682760725418727,-0.8179740111033121,-2.1878393292427063,,,,,,,,,,,,1.6888756779728748e+18,0.302875,-44.01271858215332,-7.672579926252365,-14.766879653930664,1.6888756779728748e+18,0.302875,-303.72630920410154,76.10481796264648,-130.44727783203126,1.6888756779682918e+18,0.29829178873697915,-0.47954173386096954,-0.09188113237420714,0.2131879354516665,0.8449763556321462,0.058267310416946765,-0.46470922728379566,1.048627992471059,1.6888756779682918e+18,0.29829178873697915,6.713163574536641,1.742473407338063,1.1568300823370616
3,0.4,1.6888756780720847e+18,0.4020849202473958,-2.670045852661133,-3.6796311140060425,0.9916354765494665,1.6888756780720847e+18,0.4020849202473958,6.9500530163447065,-1.7957137028376262,0.857328400015831,1.6888756780720847e+18,0.4020849202473958,9.597297509511312,1.8996625940004985,-0.19902055338025093,1.6888756780720847e+18,0.4020849202473958,-1.6650404731432598,0.7251224915186564,-2.197155018647512,1.6888756780720847e+18,0.4020849202473958,-1.6660840809345245,0.7294749369223913,-2.195042391618093,,,,,,,,,,,,1.688875678073375e+18,0.403374853515625,-47.82033920288086,5.762059837579727,-17.084879779815672,1.688875678073375e+18,0.403374853515625,-307.5339385986328,89.53945846557617,-132.7652786254883,1.6888756780720847e+18,0.4020849202473958,-0.5040846168994904,-0.0403095330111682,0.0898615010082721,0.8569962779680887,0.0201596115560581,-0.19523666923244795,1.0640771687030792,1.6888756780720847e+18,0.4020849202473958,6.927321235338847,-1.7801603277524312,0.7927221854527792
4,0.5,1.6888756781758835e+18,0.5058836263020833,-2.983337879180908,-2.7249985138575235,-5.126396298408508,1.6888756781758835e+18,0.5058836263020833,6.634100755055745,-3.9873398542404175,-6.282654921213786,1.6888756781758835e+18,0.5058836263020833,9.594637235005697,-1.2465961774190266,-1.2209721008936565,1.6888756781758835e+18,0.5058836263020833,-2.2692116697629294,1.028162568807602,-3.247894207636515,1.6888756781758835e+18,0.5058836263020833,-2.270255227883657,1.0324895183245342,-3.2457561095555625,,,,,,,,,,,,1.688875678173875e+18,0.503874853515625,-46.51005935668945,21.119419384002686,-12.282959842681885,1.688875678173875e+18,0.503874853515625,-306.2236572265625,104.89681854248047,-127.96335830688477,1.6888756781758835e+18,0.5058836263020833,-0.588991234699885,0.08946997982760269,-0.013214155876388134,0.8006747563680013,0.12676334629456196,0.12804867575565973,1.2592516541481018,1.6888756781758835e+18,0.5058836263020833,6.611368974049886,-3.9717864195505777,-6.347261031468709
5,0.6000000000000001,1.6888756782710236e+18,0.601023779296875,1.8712848663330077,0.16399006843566882,-9.50080509185791,1.6888756782710236e+18,0.601023779296875,10.505807495117187,-3.7342390537261965,-11.925588607788086,1.6888756782710236e+18,0.601023779296875,8.611721229553222,-3.882483959197998,-2.4894970178604128,1.6888756782710236e+18,0.601023779296875,-2.3792590379714964,2.9735392570495605,-2.2671652317047117,1.6888756782710236e+18,0.601023779296875,-2.3802974939346315,2.9778764247894287,-2.2650272846221924,,,,,,,,,,,,1.688875678274375e+18,0.60437490234375,-40.62721939086914,34.79561939239502,-6.496499919891358,1.688875678274375e+18,0.60437490234375,-300.3408142089844,118.57301864624023,-122.17689819335938,1.6888756782710236e+18,0.601023779296875,-0.6541163444519043,0.2351846486330032,-0.060616546124219836,0.7140028476715088,0.2831547766923904,0.4079728960990906,1.4227072238922118,1.6888756782710236e+18,0.601023779296875,10.483075714111328,-3.7186856269836426,-11.990195083618165
6,0.7000000000000001,1.6888756783661752e+18,0.696175048828125,3.5372157096862793,0.2558882236480713,-11.374452273050943,1.6888756783661752e+18,0.696175048828125,10.613364537556967,-5.723232984542847,-14.543875058492025,1.6888756783661752e+18,0.696175048828125,7.0533474286397295,-5.963376045227051,-3.2341361840566,1.6888756783661752e+18,0.696175048828125,-0.8418741077184677,1.1490884323914845,-1.9772180716196697,1.6888756783661752e+18,0.696175048828125,-0.8428413172562915,1.1533899406592052,-1.9750800530115764,,,,,,,,,,,,1.6888756783698499e+18,0.6998499077690972,-32.273066414727104,44.886510637071396,-2.8466665744781494,1.6888756783698499e+18,0.6998499077690972,-291.98666042751734,128.66390906439887,-118.52706400553386,1.6888756783661752e+18,0.696175048828125,-0.6853775481383005,0.3626104195912679,-0.089189950376749,0.6241347193717957,0.4314836661020914,0.6548602084318796,1.5144198139508565,1.6888756783661752e+18,0.696175048828125,10.590632756551107,-5.707679748535156,-14.608481407165527
7,0.8,1.6888756784699707e+18,0.799970458984375,2.526660680770874,3.0964422623316445,-5.275932629903157,1.6888756784699707e+18,0.799970458984375,8.181658824284872,-3.5948172410329184,-9.622437000274658,1.6888756784699707e+18,0.799970458984375,5.63219674428304,-6.675514380137126,-4.411217927932739,1.6888756784699707e+18,0.799970458984375,0.8032114406426748,2.3036237756411233,-0.4844670533008563,1.6888756784699707e+18,0.799970458984375,0.8021678626537323,2.3079761266708374,-0.4823290206647168,,,,,,,,,,,,1.6888756784653248e+18,0.7953249511718751,-25.06977939605713,48.7036190032959,1.9739599645137786,1.6888756784653248e+18,0.7953249511718751,-284.7833740234375,132.48101654052735,-113.70643768310546,1.6888756784699707e+18,0.799970458984375,-0.6537724832693735,0.45420389374097186,-0.07212879632910087,0.5996359288692474,0.663720558087031,0.7483903765678406,1.387879232565562,1.6888756784699707e+18,0.799970458984375,8.158926963806152,-3.579263925552368,-9.687043269475302
8,0.9,1.6888756785737633e+18,0.9037632649739583,-0.20154388745625818,2.314245899518331,-0.012541373570760017,1.6888756785737633e+18,0.9037632649739583,4.029114484786987,-4.0712880690892534,-6.0922261873881025,1.6888756785737633e+18,0.9037632649739583,4.207856973012288,-6.369788805643718,-6.144398291905721,1.6888756785737633e+18,0.9037632649739583,0.5531130284070969,1.736511732141177,-0.08941540184120338,1.6888756785737633e+18,0.9037632649739583,0.5521203757574161,1.7408386766910553,-0.08727736895283061,,,,,,,,,,,,1.688875678565825e+18,0.895824951171875,-17.833959579467773,47.45555877685547,11.433839750289916,1.688875678565825e+18,0.895824951171875,-277.5475555419922,131.232958984375,-104.2465576171875,1.6888756785737633e+18,0.9037632649739583,-0.6284932494163513,0.5334303875764211,0.01887443110657233,0.5651924312114716,0.9695958296457926,0.7066896458466848,1.2930622299512227,1.6888756785737633e+18,0.9037632649739583,4.006382664044698,-4.055734674135844,-6.156832456588745
9,1.0,1.6888756786689114e+18,0.9989115234374999,-1.5099900245666504,3.0800318717956543,-1.6896029472351075,1.6888756786689114e+18,0.9989115234374999,2.228675007075071,-2.8997421264648438,-8.466524505615235,1.6888756786689114e+18,0.9989115234374999,3.7158636093139648,-5.964028835296631,-6.841635036468506,1.6888756786689114e+18,0.9989115234374999,1.1655614256858826,-0.22941043914761394,-0.6971194267272949,1.6888756786689114e+18,0.9989115234374999,1.1645229816436768,-0.22504275664687157,-0.6949814081192016,1.688875678708e+18,1.038,0.0,0.0,1.000664472579956,14.005000114440918,0.0,0.0,40.900001525878906,-122.7531371,49.1903577,1.6888756786663247e+18,0.996324951171875,-14.171519660949707,45.26931953430176,16.334579944610596,1.6888756786663247e+18,0.996324951171875,-273.88511657714844,129.0467155456543,-99.34581832885742,1.6888756786689114e+18,0.9989115234374999,-0.5907673358917236,0.5556731700897217,0.04155191332101818,0.5832203269004822,1.0727294206619262,0.6535851716995239,1.1859952926635742,1.6888756786689114e+18,0.9989115234374999,2.2059432193636894,-2.884188723564148,-8.531130409240722
10,1.1,1.688875678764059e+18,1.094059041341146,-1.5688248078028362,3.450238347053528,-0.5796875158945719,1.688875678764059e+18,1.094059041341146,2.004686872164408,-2.3145574033260345,-7.625925699869792,1.688875678764059e+18,1.094059041341146,3.5507102409998574,-5.749050537745158,-7.110951662063599,1.688875678764059e+18,1.094059041341146,0.5629123250643412,-0.42182790488004684,-0.7722354829311371,1.688875678764059e+18,1.094059041341146,0.5619196693102518,-0.41750094294548035,-0.7701738178730011,,,,,,,,,,,,1.688875678766825e+18,1.0968249023437502,-12.292719841003418,44.34211959838867,18.425659561157225,1.688875678766825e+18,1.0968249023437502,-272.0063232421875,128.1195167541504,-97.2547393798828,1.688875678764059e+18,1.094059041341146,-0.5484359363714854,0.5640583336353302,0.026483378683527282,0.6164730489253998,1.1072953939437866,0.6262349486351013,1.059017797311147,1.688875678764059e+18,1.094059041341146,1.9819550414880116,-2.2990040282408395,-7.690531969070435
11,1.2000000000000002,1.688875678867853e+18,1.1978531087239583,-2.590735832850138,3.8916790882746377,-0.1648263136545817,1.688875678867853e+18,1.1978531087239583,0.8760721733172735,-2.0316061079502106,-7.125825881958008,1.688875678867853e+18,1.1978531087239583,3.4440064827601113,-5.907540003458659,-7.025713046391805,1.688875678867853e+18,1.1978531087239583,-0.4177300122876962,-1.1054624716440837,-1.410945991675059,1.688875678867853e+18,1.1978531087239583,-0.4187735803425312,-1.1010591487089794,-1.4088079730669658,,,,,,,,,,,,1.688875678867325e+18,1.197324755859375,-11.504599857330323,45.1229190826416,17.713179779052734,1.688875678867325e+18,1.197324755859375,-271.21819763183595,128.90031967163085,-97.96721878051758,1.688875678867853e+18,1.1978531087239583,-0.5032378633817037,0.5683058202266693,-0.023069079538496833,0.6498438616593679,1.114313582579295,0.6468568742275238,0.9062382678190867,1.688875678867853e+18,1.1978531087239583,0.8533403774102529,-2.016052802403768,-7.190432071685791
12,1.3,1.6888756789716477e+18,1.3016476236979166,-2.6565654277801514,-0.7013543049494425,-0.5539615551630658,1.6888756789716477e+18,1.3016476236979166,0.49960140387217206,-8.26431088646253,-5.834399580955505,1.6888756789716477e+18,1.3016476236979166,3.1333654324213662,-7.547211408615112,-5.345151503880818,1.6888756789716477e+18,1.3016476236979166,-2.8268298308054605,-0.6637559663504362,-0.9535860990484556,1.6888756789716477e+18,1.3016476236979166,-2.8278479178746543,-0.6594799185792605,-0.9514480580886205,,,,,,,,,,,,1.688875678967825e+18,1.2978248046875,-9.46719970703125,52.62835845947266,9.11583981513977,1.688875678967825e+18,1.2978248046875,-269.1807922363281,136.40575561523437,-106.56455764770507,1.6888756789716477e+18,1.3016476236979166,-0.5144252926111221,0.5610357622305552,-0.15450641016165412,0.6280208230018616,1.0353941023349762,0.8832643926143646,0.8482877016067505,1.6888756789716477e+18,1.3016476236979166,0.4768696228663127,-8.248757434388002,-5.899005651473999
13,1.4000000000000001,1.6888756790754465e+18,1.4054464925130208,0.7726673285166422,-0.08855040868123387,-3.583384116490682,1.6888756790754465e+18,1.4054464925130208,3.915156443913778,-8.733104705810547,-6.9751778443654375,1.6888756790754465e+18,1.4054464925130208,3.1196876764297485,-8.628809134165445,-3.456507166226705,1.6888756790754465e+18,1.4054464925130208,-0.8062657713890076,-1.6139314373334248,-0.6036875694990158,1.6888756790754465e+18,1.4054464925130208,-0.8073093195756277,-1.6095535457134247,-0.6015495508909225,,,,,,,,,,,,1.6888756790683249e+18,1.3983248046874999,-8.563179922103881,57.804819107055664,-1.2224399775266648,1.6888756790683249e+18,1.3983248046874999,-268.2767761230469,141.58221588134765,-116.90283737182617,1.6888756790754465e+18,1.4054464925130208,-0.5401768187681834,0.5220217605431875,-0.2601955955227216,0.6060324907302856,0.8333956996599833,1.075878381729126,0.9400998254617056,1.6888756790754465e+18,1.4054464925130208,3.8924246033032737,-8.717551469802856,-7.039784034093221
14,1.5,1.688875679170589e+18,1.5005889648437498,0.7634186744689941,0.34758424758911133,-2.35303316116333,1.688875679170589e+18,1.5005889648437498,3.916811442375183,-8.588917446136474,-4.90038104057312,1.688875679170589e+18,1.5005889648437498,3.130591344833374,-8.920756530761718,-2.612061357498169,1.688875679170589e+18,1.5005889648437498,-0.2215608268976211,-1.418948343396187,-0.16633861064910888,1.688875679170589e+18,1.5005889648437498,-0.22259929329156875,-1.4145806416869164,-0.16423112154006958,,,,,,,,,,,,1.6888756791688248e+18,1.4988248291015625,-7.80433988571167,59.4286392211914,-5.942619848251343,1.6888756791688248e+18,1.4988248291015625,-267.51793518066404,143.2060333251953,-121.62301712036133,1.688875679170589e+18,1.5005889648437498,-0.5077978491783142,0.4775865972042084,-0.3346071422100067,0.6337783217430115,0.6932866215705872,1.1421574831008912,0.894939661026001,1.688875679170589e+18,1.5005889648437498,3.894079637527466,-8.573364067077637,-4.964987421035767
15,1.6,1.6888756792657398e+18,1.5957398681640624,0.6202158331871032,1.1439576148986816,-1.861080805460612,1.6888756792657398e+18,1.5957398681640624,4.427220463752747,-7.5531439781188965,-4.337290207544963,1.6888756792657398e+18,1.5957398681640624,3.784203211466471,-8.681356430053711,-2.5409228801727295,1.6888756792657398e+18,1.5957398681640624,0.5745187637706598,-0.3243694392343362,0.656425608942906,1.6888756792657398e+18,1.5957398681640624,0.573500664283832,-0.3200170285999775,0.6585381800929705,,,,,,,,,,,,1.6888756792693248e+18,1.599324853515625,-11.642459774017334,58.3940788269043,-6.841759920120239,1.6888756792693248e+18,1.599324853515625,-271.3560516357422,142.17147827148438,-122.52215805053712,1.6888756792657398e+18,1.5957398681640624,-0.5037800520658493,0.44544488191604614,-0.32942557831605274,0.6625388264656067,0.5893697142601013,1.0876884857813518,0.9373448590437571,1.6888756792657398e+18,1.5957398681640624,4.404488543669383,-7.537590662638347,-4.401896397272746
16,1.7000000000000002,1.6888756793695352e+18,1.6995351969401042,0.48809627691904706,4.345736583073934,-1.3367401361465454,1.6888756793695352e+18,1.6995351969401042,4.372085809707642,-4.176771640777588,-4.262215336163838,1.6888756793695352e+18,1.6995351969401042,3.8611881335576377,-8.506762981414795,-2.9901886781056723,1.6888756793695352e+18,1.6995351969401042,0.3421863466501236,0.08959357254207134,-0.3119230618079503,1.6888756793695352e+18,1.6995351969401042,0.3411936933795611,0.09392053571840127,-0.3098104894161224,,,,,,,,,,,,1.6888756793698248e+18,1.6998248779296876,-11.743719863891602,57.880458450317384,-4.5115598917007445,1.6888756793698248e+18,1.6998248779296876,-271.4573150634766,141.6578567504883,-120.19195861816407,1.6888756793695352e+18,1.6995351969401042,-0.4768650730450948,0.44613907237847644,-0.3225948562224706,0.6851494510968527,0.6570634345213572,1.0501466790835063,0.8260100781917572,1.6888756793695352e+18,1.6995351969401042,4.349354028701782,-4.1612182060877485,-4.326821565628052
17,1.8,1.688875679473333e+18,1.8033330485026042,2.2042609055836997,4.209093650182088,-3.9182820320129395,1.688875679473333e+18,1.8033330485026042,5.603791236877441,-4.388237237930298,-7.192126989364624,1.688875679473333e+18,1.8033330485026042,3.3767289320627847,-8.58158572514852,-3.338558475176493,1.688875679473333e+18,1.8033330485026042,0.13624840229749677,0.3403537596265475,-0.5951863676309586,1.688875679473333e+18,1.8033330485026042,0.1352557502686977,0.3447316214442253,-0.593073790272077,,,,,,,,,,,,1.6888756794703247e+18,1.8003249023437502,-9.187819766998292,58.215958786010745,-3.0414599418640136,1.6888756794703247e+18,1.8003249023437502,-268.9014190673828,141.99335479736328,-118.72185668945312,1.688875679473333e+18,1.8033330485026042,-0.4579748312632243,0.4696026146411896,-0.3274320562680562,0.6800033350785574,0.7777068714300791,1.0662175019582112,0.710590253273646,1.688875679473333e+18,1.8033330485026042,5.581059455871582,-4.372684121131897,-7.256733338038127
18,1.9000000000000001,1.6888756795684777e+18,1.89847783203125,0.3602734327316285,2.6536933898925783,-2.1670690536499024,1.6888756795684777e+18,1.89847783203125,3.0588648080825807,-6.244190216064453,-5.27653284072876,1.6888756795684777e+18,1.89847783203125,2.6757899284362794,-8.882138442993163,-3.1741772651672364,1.6888756795684777e+18,1.89847783203125,-0.7487680613994598,-0.613186526671052,-1.1403938055038452,1.6888756795684777e+18,1.89847783203125,-0.7497760057449341,-0.6088188413530589,-1.138286328315735,,,,,,,,,,,,1.688875679570819e+18,1.9008190185546876,-5.128879904747009,59.43351860046387,-3.8661799669265746,1.688875679570819e+18,1.9008190185546876,-264.84247131347655,143.2109176635742,-119.54657745361328,1.6888756795684777e+18,1.89847783203125,-0.44176575541496277,0.48224778175354005,-0.3614685654640198,0.6642468333244324,0.8672800421714782,1.135237455368042,0.5993629097938538,1.6888756795684777e+18,1.89847783203125,3.0361330032348635,-6.228637027740478,-5.341139030456543
19,2.0,1.688875679663623e+18,1.9936227213541666,1.643503208955129,1.817310889561971,-2.114845077196757,1.688875679663623e+18,1.9936227213541666,3.2168509364128113,-7.702894926071167,-3.7688951094945273,1.688875679663623e+18,1.9936227213541666,1.5505462884902954,-9.504460652669271,-1.7187635103861492,1.688875679663623e+18,1.9936227213541666,-1.720501959323883,-0.8710174957911173,-1.900681734085083,1.688875679663623e+18,1.9936227213541666,-1.7214946349461873,-0.8666650851567587,-1.8985946377118428,,,,,,,,,,,,1.6888756796709924e+18,2.0009924316406247,2.0715599417686463,61.622198486328124,-11.543639898300171,1.6888756796709924e+18,2.0009924316406247,-257.642041015625,145.39959716796875,-127.2240364074707,1.688875679663623e+18,1.9936227213541666,-0.4294576595226924,0.4536136935154597,-0.4626754472653071,0.6277955571810404,0.8360401093959808,1.3339576323827107,0.5254677385091782,1.688875679663623e+18,1.9936227213541666,3.194119135538737,-7.687341531117757,-3.8335012992223105
20,2.1,1.688875679767418e+18,2.097418050130208,-1.849152147769928,-1.8053270975748699,1.083122233549754,1.688875679767418e+18,2.097418050130208,-1.4908282558123271,-11.556934515635172,1.7974086254835129,1.688875679767418e+18,2.097418050130208,0.33552251011133194,-9.735862255096436,0.6495729014277458,1.688875679767418e+18,2.097418050130208,-3.168507138888041,1.169043372074763,-0.4917210644731919,1.688875679767418e+18,2.097418050130208,-3.1694997946421304,1.1733703364928565,-0.48958303096393746,,,,,,,,,,,,1.6888756797709944e+18,2.1009944335937503,8.177659845352172,61.511178970336914,-23.430099487304688,1.6888756797709944e+18,2.1009944335937503,-251.5359344482422,145.2885772705078,-139.110498046875,1.688875679767418e+18,2.097418050130208,-0.48168376088142395,0.42983091870943707,-0.5457640786965688,0.5313540548086166,-0.5644012888272604,1.4641470114390056,1.9690955579280853,1.688875679767418e+18,2.097418050130208,-1.5135600368181865,-11.541381041208902,1.732802376151085
21,2.2,1.6888756798712159e+18,2.2012159016927084,0.9773549139499664,-4.877205689748128,-2.817489763100942,1.6888756798712159e+18,2.2012159016927084,0.20319047570228577,-14.332608699798584,-0.2769692117969195,1.6888756798712159e+18,2.2012159016927084,-0.7969658859074116,-9.439657847086588,2.4758071104685464,1.6888756798712159e+18,2.2012159016927084,0.7706828663746518,-0.2910772562026977,-1.4621823231379192,1.6888756798712159e+18,2.2012159016927084,0.7696393132209777,-0.2867503364880879,-1.460044304529826,,,,,,,,,,,,1.6888756798709888e+18,2.2009887451171872,13.825039672851563,58.53437843322754,-33.74397869110108,1.6888756798709888e+18,2.2009887451171872,-245.88855590820313,142.31177978515626,-149.42437896728515,1.6888756798712159e+18,2.2012159016927084,-0.4954773932695389,0.3909682383139928,-0.6220051447550455,0.46201420327027637,-1.8962883551915486,1.293958564599355,-0.9216394424438478,1.6888756798712159e+18,2.2012159016927084,0.180458664894104,-14.317055543263754,-0.3415754437446594
22,2.3000000000000003,1.6888756799750134e+18,2.305013346354167,2.28854231039683,3.1380728085835776,-0.8885298147797585,1.6888756799750134e+18,2.305013346354167,0.5603193144003549,-6.515855471293132,-0.48883370334321324,1.6888756799750134e+18,2.305013346354167,-1.7510245045026143,-9.638183116912842,0.33498260875542957,1.6888756799750134e+18,2.305013346354167,1.704135850071907,1.5172874654332797,-0.7245370944341024,1.6888756799750134e+18,2.305013346354167,1.7031432042519252,1.521665337185065,-0.7223990658919016,,,,,,,,,,,,1.6888756799709919e+18,2.300991845703125,18.989299392700197,59.96421813964844,-23.87661952972412,1.6888756799709919e+18,2.300991845703125,-240.72429656982422,143.74161834716796,-139.55701599121093,1.6888756799750134e+18,2.305013346354167,-0.4439250628153483,0.5102963397900263,-0.572616438070933,0.462046946088473,-2.9291471242904663,1.3833218216896057,-1.8640564680099487,1.6888756799750134e+18,2.305013346354167,0.537587488691012,-6.500302116076152,-0.5534399362901846
23,2.4000000000000004,1.688875680070159e+18,2.4001591796875,0.6607490062713623,1.6065929412841797,-3.580996036529541,1.688875680070159e+18,2.4001591796875,-1.4687145352363586,-7.978747367858887,-3.570450210571289,1.688875680070159e+18,2.4001591796875,-2.152265024185181,-9.5695951461792,-0.05416767233982682,1.688875680070159e+18,2.4001591796875,0.4991074502468109,1.113362979888916,-0.4480391152203083,1.688875680070159e+18,2.4001591796875,0.4980995237827301,1.117730689048767,-0.4459621772170067,,,,,,,,,,,,1.6888756800709944e+18,2.400994384765625,20.54235954284668,59.61041831970215,-22.113719367980956,1.6888756800709944e+18,2.400994384765625,-239.17123413085938,143.3878158569336,-137.7941162109375,1.688875680070159e+18,2.4001591796875,-0.4584899008274078,0.5735647678375244,-0.529406476020813,0.4247163772583008,0.6227351665496826,1.3501200675964355,-1.4867658376693726,1.688875680070159e+18,2.4001591796875,-1.4914463400840758,-7.963194274902344,-3.635056400299072
24,2.5,1.688875680165304e+18,2.4953040364583337,0.6194931864738463,0.8708060582478842,-2.6013737320899963,1.688875680165304e+18,2.4953040364583337,-2.1628125508626304,-8.542177518208822,-2.5472594499588013,1.688875680165304e+18,2.4953040364583337,-2.8051071961720786,-9.397238413492838,-0.010599198285490283,1.688875680165304e+18,2.4953040364583337,-0.06518441314498585,1.0113637646039326,-0.747342715660731,1.688875680165304e+18,2.4953040364583337,-0.06617707014083862,1.0157671123743057,-0.7452046970526377,1.688875680123e+18,2.453,0.0,0.0,0.9927542805671692,16.451000213623047,10.370580673217772,5.999528408050537,41.0,-122.7531047,49.1905648,1.6888756801709932e+18,2.5009933837890626,23.869299697875977,58.77715835571289,-22.70663948059082,1.6888756801709932e+18,2.5009933837890626,-235.84429779052735,142.55455780029297,-138.3870376586914,1.688875680165304e+18,2.4953040364583337,-0.4575298031171163,0.6117072204748789,-0.517814169327418,0.38479459285736084,0.008916179339091057,1.281696120897929,-1.4110673666000366,1.688875680165304e+18,2.4953040364583337,-2.1855443914731345,-8.526624123255411,-2.6118656396865845
25,2.6,1.6888756802691003e+18,2.5991002604166664,2.594676891962687,-1.2862569491068523,-7.862537622451782,1.6888756802691003e+18,2.5991002604166664,-0.5991029813885689,-10.56660525004069,-7.5669026374816895,1.6888756802691003e+18,2.5991002604166664,-3.216581384340922,-9.26460313796997,0.23092146962881088,1.6888756802691003e+18,2.5991002604166664,0.06790785243113835,0.15363261103630063,-0.04617123305797577,1.6888756802691003e+18,2.5991002604166664,0.06683884064356489,0.15801048030455908,-0.04405865694085754,,,,,,,,,,,,1.688875680270995e+18,2.6009951171875003,25.497999572753905,57.618159484863284,-24.378039741516112,1.688875680270995e+18,2.6009951171875003,-234.2155990600586,141.39555816650392,-140.05843811035157,1.6888756802691003e+18,2.5991002604166664,-0.4566624015569687,0.6250072320302328,-0.5220107833544413,0.3582131912310918,-3.053091605504354,1.2370470364888508,-1.4546554883321126,1.6888756802691003e+18,2.5991002604166664,-0.6218347872296969,-10.55105177561442,-7.631509065628052
26,2.7,1.6888756803728986e+18,2.7028984375,0.647854228814443,-2.707819620768229,-5.583725929260254,1.6888756803728986e+18,2.7028984375,-1.2281161447366078,-12.27627690633138,-6.112565120061238,1.6888756803728986e+18,2.7028984375,-1.898771862188975,-9.552712122599283,-0.5935527486726642,1.6888756803728986e+18,2.7028984375,1.530726487437884,-0.5231297295540571,2.5877269903818765,1.6888756803728986e+18,2.7028984375,1.5297592828671138,-0.5187263979266087,2.589839537938436,,,,,,,,,,,,1.6888756803709906e+18,2.7009905029296872,15.495219898223876,48.049699020385745,-3.436739927530289,1.6888756803709906e+18,2.7009905029296872,-239.89957580566406,143.28289794921875,-136.79493713378906,1.6888756803728986e+18,2.7028984375,-0.4694460829099019,0.5986050268014272,-0.48636608322461444,0.4266854872306187,1.7095925013224287,1.3523805340131123,-1.0297911018133163,1.6888756803728986e+18,2.7028984375,-1.2508480151494343,-12.26072359085083,-6.1771713097890215
27,2.8000000000000003,1.6888756804766912e+18,2.8066912434895834,-1.827591024339199,-8.006843249003092,1.598741888999939,1.6888756804766912e+18,2.8066912434895834,-0.739780998788774,-17.649160861968994,0.40000017484029143,1.6888756804766912e+18,2.8066912434895834,1.0650086030364037,-9.626572450002035,-1.263455182313919,1.6888756804766912e+18,2.8066912434895834,-0.38000908493995667,-3.6823720186948776,2.47150981426239,1.6888756804766912e+18,2.8066912434895834,-0.3810272018114726,-3.6779432694117227,2.473622461160024,,,,,,,,,,,,1.6888756804709921e+18,2.8009921875,0.18055995721369983,50.0919792175293,1.712879979610443,1.6888756804709921e+18,2.8009921875,-255.2142349243164,145.32517700195314,-131.64531707763672,1.6888756804766912e+18,2.8066912434895834,-0.484363650282224,0.49366430938243866,-0.44420966506004333,0.5640137791633606,0.8853827764590582,1.3832266926765442,0.6548531260341406,1.6888756804766912e+18,2.8066912434895834,-0.7625127906600634,-17.633607387542725,0.3353939801454546
28,2.9000000000000004,1.6888756805718423e+18,2.9018423828125,-5.288847398757935,4.281662559509277,-0.49428755044937134,1.6888756805718423e+18,2.9018423828125,-1.6506887435913087,-4.805505752563477,-1.1800204873085023,1.6888756805718423e+18,2.9018423828125,3.615357208251953,-9.071423149108886,-0.7504464149475097,1.6888756805718423e+18,2.9018423828125,0.6457151114940644,-1.8385822057724,2.429991364479065,1.6888756805718423e+18,2.9018423828125,0.6446766436100007,-1.8342450857162476,2.432129430770874,,,,,,,,,,,,1.688875680570991e+18,2.9009912353515626,-13.463919830322265,48.72801895141602,0.01707999855279923,1.688875680570991e+18,2.9009912353515626,-268.8587188720703,143.96121673583986,-133.34111938476562,1.6888756805718423e+18,2.9018423828125,-0.44827523827552795,0.34003131985664364,-0.4473024785518646,0.6942583918571472,0.19221836924552912,1.1869655847549438,1.0162350296974183,1.6888756805718423e+18,2.9018423828125,-1.6734205543994904,-4.789952373504638,-1.2446266889572144
29,3.0,1.6888756806669885e+18,2.996988606770833,-2.464227040608724,9.51940631866455,0.8016100724538168,1.6888756806669885e+18,2.996988606770833,2.1301107009251914,0.8311070650815964,0.7319046060244242,1.6888756806669885e+18,2.996988606770833,4.571536382039388,-8.672554016113281,-0.13441896190245944,1.6888756806669885e+18,2.996988606770833,0.009061168258388819,-1.208647768634061,-0.4310418168703715,1.6888756806669885e+18,2.996988606770833,0.007992152279863732,-1.2043208243946235,-0.428903748591741,,,,,,,,,,,,1.6888756806709942e+18,3.000994287109375,-18.57815980911255,47.06759910583496,-2.5485799670219422,1.6888756806709942e+18,3.000994287109375,-273.97295532226565,142.30079650878906,-135.90677642822266,1.6888756806669885e+18,2.996988606770833,-0.41166357199350995,0.2525104706486066,-0.451784148812294,0.7496592402458191,0.014249546060455032,1.08834175268809,0.9958032766977946,1.6888756806669885e+18,2.996988606770833,2.107378880182902,0.8466603954633077,0.667298416296641
30,3.1,1.6888756807707791e+18,3.100779337565104,7.791241089502971,-7.194324890772502,-0.5822337170441945,1.6888756807707791e+18,3.100779337565104,10.940982182820639,-16.492230743169785,-0.24825537204742432,1.6888756807707791e+18,3.100779337565104,3.126939614613851,-9.282160441080729,0.26926487560073536,1.6888756807707791e+18,3.100779337565104,-0.6450482327491045,-0.6023385922114055,-0.9680432776610056,1.6888756807707791e+18,3.100779337565104,-0.6460663601756096,-0.5979607552289964,-0.9659306605656942,,,,,,,,,,,,1.688875680770994e+18,3.1009938964843746,-10.085739755630494,49.17209892272949,-4.482279849052429,1.688875680770994e+18,3.1009938964843746,-265.48053588867185,144.4052993774414,-137.8404769897461,1.6888756807707791e+18,3.100779337565104,-0.39386320114135737,0.26509553194046015,-0.5206580658753713,0.7088925838470459,-0.11215461107591788,1.2450969219207764,1.0961055556933086,1.6888756807707791e+18,3.100779337565104,10.91825040181478,-16.47667744755745,-0.312861571709315
31,3.2,1.6888756808745792e+18,3.2045793863932293,-4.204074998696645,-1.7743423779805498,-1.318266453842322,1.6888756808745792e+18,3.2045793863932293,-1.0814560651779175,-11.087243457635244,-0.898405198007822,1.6888756808745792e+18,3.2045793863932293,3.0998175541559854,-9.297155857086182,0.35514775291085243,1.6888756808745792e+18,3.2045793863932293,0.24943662683169046,2.1582378124197326,-0.11484265575806303,1.6888756808745792e+18,3.2045793863932293,0.248443990945816,2.1625902516146502,-0.1127046359082063,,,,,,,,,,,,1.6888756808709932e+18,3.200993041992187,-9.691679763793946,48.94639854431152,-5.397279977798462,1.6888756808709932e+18,3.200993041992187,-265.0864776611328,144.17959747314453,-138.75547790527344,1.6888756808745792e+18,3.2045793863932293,-0.39055293301741273,0.2585597013433774,-0.5254010955492655,0.7094081938266754,-0.13817222975194451,1.248861273129781,1.1061047712961833,1.6888756808745792e+18,3.2045793863932293,-1.1041878660519917,-11.071690022945404,-0.9630114513759812
32,3.3000000000000003,1.688875680969726e+18,3.29972587890625,-3.5219358444213866,4.50088357925415,2.195752000808716,1.688875680969726e+18,3.29972587890625,-1.3770694732666013,-5.039882659912109,1.4897713720798493,1.688875680969726e+18,3.29972587890625,2.1220649003982546,-9.525020980834961,-0.7706941604614258,1.688875680969726e+18,3.29972587890625,-0.19782872200012208,3.9599645376205443,-2.139555549621582,1.688875680969726e+18,3.29972587890625,-0.1988671600818634,3.9643016338348387,-2.137448024749756,,,,,,,,,,,,1.6888756809709926e+18,3.300992578125,-7.751879811286926,49.727199172973634,-1.0491999810561539,1.6888756809709926e+18,3.300992578125,-263.14667053222655,144.96039581298828,-134.4073959350586,1.688875680969726e+18,3.29972587890625,-0.43592934012413026,0.3886485040187836,-0.48948662877082827,0.6449083924293518,0.353543084859848,1.3396039009094238,0.9032528162002563,1.688875680969726e+18,3.29972587890625,-1.3998012542724605,-5.024329328536988,1.425165170431137
33,3.4000000000000004,1.6888756810648686e+18,3.394868489583333,-1.9016878207524617,0.636272112528483,-5.816373626391093,1.6888756810648686e+18,3.394868489583333,-2.231506496667862,-9.16032330195109,-6.115157246589661,1.6888756810648686e+18,3.394868489583333,-0.35262015275657177,-9.780850251515707,-0.3634970523416996,1.6888756810648686e+18,3.394868489583333,-0.13304135700066877,3.0927852392196655,-1.9591466387112935,1.6888756810648686e+18,3.394868489583333,-0.13400856157143912,3.09711229801178,-1.9570086201032002,,,,,,,,,,,,1.6888756810709914e+18,3.4009913818359374,3.6233998984098434,49.56981887817383,-3.4696799159049987,1.6888756810709914e+18,3.4009913818359374,-251.77139434814453,144.80301971435546,-136.8278778076172,1.6888756810648686e+18,3.394868489583333,-0.49556417266527814,0.528443788488706,-0.4861643264691035,0.48585844536622363,2.186458299557368,1.5067354838053386,-0.5635602623224258,1.6888756810648686e+18,3.394868489583333,-2.254238377014796,-9.14476982752482,-6.179763515790303
34,3.5,1.6888756811686707e+18,3.4986705322265625,1.1950122316678364,2.553244670232137,-1.6565678119659424,1.6888756811686707e+18,3.4986705322265625,-0.22881368299325308,-7.150452057520549,-2.1065812408924103,1.6888756811686707e+18,3.4986705322265625,-1.446627418200175,-9.687951564788818,-0.5147268722454706,1.6888756811686707e+18,3.4986705322265625,0.1261945779745777,2.703562299410502,-0.4657083960870902,1.6888756811686707e+18,3.4986705322265625,0.1251764766251047,2.7079656521479287,-0.46359582617878914,,,,,,,,,,,,1.6888756811709916e+18,3.5009914550781245,7.678679800033569,49.267259216308595,-3.4355199337005615,1.6888756811709916e+18,3.5009914550781245,-247.71611480712892,144.50045623779297,-136.79371643066406,1.6888756811686707e+18,3.4986705322265625,-0.5242336491743723,0.6255418757597605,-0.4236895243326823,0.3909616520007451,2.835601329803467,1.4200063347816467,-0.9268431961536407,1.6888756811686707e+18,3.4986705322265625,-0.2515454888343811,-7.134898662567139,-2.171187440554301
35,3.6,1.6888756812724682e+18,3.6024680582682294,1.4741124908129375,-0.6771302223205566,-7.7162086963653564,1.6888756812724682e+18,3.6024680582682294,-0.4983053086325526,-10.295917193094889,-7.757830222447713,1.6888756812724682e+18,3.6024680582682294,-1.9952192902565002,-9.603041807810465,-0.1063349479809403,1.6888756812724682e+18,3.6024680582682294,-0.06935865183671315,0.1717040315270424,-0.15946127971013388,1.6888756812724682e+18,3.6024680582682294,-0.07035131752490997,0.1761073594292005,-0.1573741634686788,,,,,,,,,,,,1.688875681270994e+18,3.6009938964843746,9.713639831542968,48.620659255981444,-5.288699913024902,1.688875681270994e+18,3.6009938964843746,-245.68115844726563,143.853857421875,-138.6468963623047,1.6888756812724682e+18,3.6024680582682294,-0.5359873175621033,0.6554775436719259,-0.411056046684583,0.3376801162958145,-0.013093113899230882,1.3717928131421406,-1.1090094049771626,1.6888756812724682e+18,3.6024680582682294,-0.5210371048500141,-10.28036371866862,-7.822436332702637
36,3.7,1.6888756813762624e+18,3.7062624104817705,-2.6128768722216287,-4.214664141337077,-5.3615924914677935,1.6888756813762624e+18,3.7062624104817705,-3.0951160987218223,-13.900106430053711,-6.483352899551392,1.6888756813762624e+18,3.7062624104817705,-0.505040722588698,-9.669697125752766,-1.1864738563696544,1.6888756813762624e+18,3.7062624104817705,1.714724193016688,-1.511229711274306,2.4690664211908975,1.6888756813762624e+18,3.7062624104817705,1.7137315273284912,-1.5068772981564205,2.4711535374323526,,,,,,,,,,,,1.688875681370992e+18,3.7009922119140626,3.663659965991974,49.27091979980469,-0.6343999683856965,1.688875681370992e+18,3.7009922119140626,-251.73113403320312,144.50411987304688,-133.99259490966796,1.6888756813762624e+18,3.7062624104817705,-0.5427675743897756,0.6149968206882477,-0.37860190371672303,0.42516132692495984,2.010073999563853,1.4156704942385356,-0.08220408856868744,1.6888756813762624e+18,3.7062624104817705,-3.1178478797276816,-13.884552478790283,-6.5479592482248945
37,3.8000000000000003,1.688875681471408e+18,3.801408056640625,-3.029943919181824,-10.323378944396973,1.5063459873199463,1.688875681471408e+18,3.801408056640625,-0.7834101676940918,-19.635861587524413,-0.48885368108749405,1.688875681471408e+18,3.801408056640625,2.2237323760986327,-9.296737480163575,-2.0599131107330324,1.688875681471408e+18,3.801408056640625,0.22586743235588064,-4.688512897491455,2.0755062818527223,1.688875681471408e+18,3.801408056640625,0.22482895255088806,-4.684206295013428,2.0776443243026734,,,,,,,,,,,,1.688875681470994e+18,3.8009940185546873,-10.295579862594604,48.036278915405276,5.159379935264587,1.688875681470994e+18,3.8009940185546873,-265.69037170410155,143.26947631835938,-128.19881591796874,1.688875681471408e+18,3.801408056640625,-0.5231319189071655,0.4991791665554047,-0.3646190285682678,0.5831721663475037,0.7319051146507263,1.2533722400665284,0.9142133235931397,1.688875681471408e+18,3.801408056640625,-0.8061419546604156,-19.620308494567873,-0.5534598708152771
38,3.9000000000000004,1.688875681566557e+18,3.896556884765625,-7.861063281695048,7.73889422416687,-1.3504357536633809,1.688875681566557e+18,3.896556884765625,-3.291726400454839,-0.8858429491519928,-2.3173489967981973,1.688875681566557e+18,3.896556884765625,4.546535452206929,-8.608992099761963,-1.0316267311573029,1.688875681566557e+18,3.896556884765625,0.6365724876523018,-3.8592938582102456,1.7047212719917295,1.688875681566557e+18,3.896556884765625,0.6355543881654739,-3.854941487312317,1.706833839416504,,,,,,,,,,,,1.6888756815709926e+18,3.9009926025390627,-21.18529987335205,44.7739990234375,0.9027999877929688,1.6888756815709926e+18,3.9009926025390627,-276.58009033203126,140.00719757080077,-132.4553970336914,1.688875681566557e+18,3.896556884765625,-0.4575476149717967,0.3221026435494423,-0.40400561193625134,0.7210619449615479,0.203874680524071,1.077860176563263,1.007459580898285,1.688875681566557e+18,3.896556884765625,-3.314458206295967,-0.8702894945939382,-2.3819552461306253
39,4.0,1.6888756816703526e+18,4.00035274251302,-2.1159767309824624,7.002780040105184,2.373518427213033,1.6888756816703526e+18,4.00035274251302,2.615255445241928,-1.5643078337113063,3.142174874742826,1.6888756816703526e+18,4.00035274251302,4.708430687586467,-8.551342805226644,0.7039429967602094,1.6888756816703526e+18,4.00035274251302,0.13082698980967208,-1.3059281408786774,-1.6774105230967205,1.6888756816703526e+18,4.00035274251302,0.12983430922031403,-1.3015756905078888,-1.6752724597851436,,,,,,,,,,,,1.6888756816709924e+18,4.000992431640625,-21.586679649353027,43.82971954345703,-6.563599896430969,1.6888756816709924e+18,4.000992431640625,-276.9814758300781,139.06291656494142,-139.9217987060547,1.6888756816703526e+18,4.00035274251302,-0.3954022179047267,0.19135053704182303,-0.4743243952592214,0.7620490590731303,-0.1748156348864237,1.0659428834915161,1.0611646970113118,1.6888756816703526e+18,4.00035274251302,2.5925236145655313,-1.5487544387578964,3.077568680047989
40,4.1000000000000005,1.6888756817741496e+18,4.104149576822917,9.517455101013184,-6.934024890263875,-1.0678866108258565,1.6888756817741496e+18,4.104149576822917,12.734602292378744,-16.218950510025024,-0.7637092073758444,1.6888756817741496e+18,4.104149576822917,3.194345394770304,-9.269180615743002,0.2394639104604721,1.6888756817741496e+18,4.104149576822917,0.4980079034964244,-0.8609636525313059,-0.39161553730567294,1.6888756817741496e+18,4.104149576822917,0.49698975682258606,-0.8565348734458288,-0.3894774814446767,,,,,,,,,,,,1.688875681770992e+18,4.100992211914063,-11.599759769439697,46.72843933105469,-3.207379961013794,1.688875681770992e+18,4.100992211914063,-266.9945556640625,141.96163787841797,-136.5655776977539,1.6888756817741496e+18,4.104149576822917,-0.3360551794370015,0.22138354678948716,-0.5393078525861105,0.7392256855964661,-0.10881995254506664,1.2430225213368733,0.9310964743296305,1.6888756817741496e+18,4.104149576822917,12.711870511372885,-16.203397194544475,-0.8283153971036276
41,4.2,1.688875681869296e+18,4.19929609375,-9.575260329246522,-3.704428863525391,1.5024703025817872,1.688875681869296e+18,4.19929609375,-6.357610177993775,-12.974960899353027,2.0116459369659423,1.688875681869296e+18,4.19929609375,3.194848728179932,-9.25478687286377,0.4444621428847313,1.688875681869296e+18,4.19929609375,-1.458135348558426,2.631973958015442,-1.0361801385879517,1.688875681869296e+18,4.19929609375,-1.4591432631015777,2.6364332675933837,-1.0340421378612519,,,,,,,,,,,,1.6888756818709932e+18,4.200993237304687,-12.297599601745606,46.21115913391113,-3.9027798891067507,1.6888756818709932e+18,4.200993237304687,-267.69239807128906,141.4443572998047,-137.26097869873047,1.688875681869296e+18,4.19929609375,-0.37514767050743103,0.2386345624923706,-0.5313254237174988,0.7199742317199707,-0.17808167189359664,1.2372053146362305,1.0900514364242553,1.688875681869296e+18,4.19929609375,-6.380341958999634,-12.959407901763916,1.947039747238159
42,4.3,1.6888756819644398e+18,4.294439982096354,-5.468865732351939,2.7124317487080893,-5.13756263256073,1.6888756819644398e+18,4.294439982096354,-4.657429933547974,-7.035098075866699,-5.590830107529958,1.6888756819644398e+18,4.294439982096354,0.7886343648036321,-9.731784661610922,-0.5179810772339503,1.6888756819644398e+18,4.294439982096354,0.647746242582798,5.189427495002747,-2.1444933662811914,1.6888756819644398e+18,4.294439982096354,0.6467790603637695,5.193856279055278,-2.1423552880684533,,,,,,,,,,,,1.6888756819709908e+18,4.300990844726562,-0.8027599871158599,47.636118698120114,0.19641998708248137,1.6888756819709908e+18,4.300990844726562,-256.1975570678711,142.86931610107422,-133.16177825927736,1.6888756819644398e+18,4.294439982096354,-0.43428446849187213,0.42426491777102154,-0.5247472623984019,0.5907736718654633,0.7387573048472404,1.4612845182418823,0.5728825169305006,1.6888756819644398e+18,4.294439982096354,-4.680161714553833,-7.01954460144043,-5.655436217784882
43,4.4,1.688875682068238e+18,4.398237996419271,1.1664029012123744,2.428954521814982,-2.5396803418795266,1.688875682068238e+18,4.398237996419271,0.4568297155201435,-7.318846940994263,-3.372284730275472,1.688875682068238e+18,4.398237996419271,-0.732374711583058,-9.732056299845377,-0.8973179260889689,1.688875682068238e+18,4.398237996419271,0.5501605123281479,2.5883888006210327,-1.0258972669641178,1.688875682068238e+18,4.398237996419271,0.5491933077573776,2.592842936515808,-1.0237592458724976,,,,,,,,,,,,1.6888756820709893e+18,4.400989428710938,5.457059860229492,47.08467903137207,1.1089799493551253,1.6888756820709893e+18,4.400989428710938,-249.93773345947267,142.31787719726563,-132.24921722412108,1.688875682068238e+18,4.398237996419271,-0.47972134749094647,0.5538053214550018,-0.4768437594175339,0.48398050169150036,2.2209051847457886,1.4634140531222026,-0.5771698827544848,1.688875682068238e+18,4.398237996419271,0.4340979146460692,-7.303293546040853,-3.436890959739685
44,4.5,1.688875682172036e+18,4.5020361328125,0.8881921768188477,1.1762185096740723,-2.294180909792582,1.688875682172036e+18,4.5020361328125,-0.5542375495036443,-8.497411886850992,-3.087738275527954,1.688875682172036e+18,4.5020361328125,-1.46523121992747,-9.657885233561197,-0.8582708239555359,1.688875682172036e+18,4.5020361328125,-0.3095559626817703,2.3398938377698264,-0.3513493270923694,1.688875682172036e+18,4.5020361328125,-0.31057407210270566,2.3443480928738913,-0.3492113007232547,,,,,,,,,,,,1.688875682170992e+18,4.500992016601563,8.633939790725709,46.501519775390626,1.0552999749779701,1.688875682170992e+18,4.500992016601563,-246.76085662841797,141.7347183227539,-132.30289611816406,1.688875682172036e+18,4.5020361328125,-0.5125758051872253,0.6248579621315002,-0.4241315970818201,0.40745654702186584,2.6526679595311484,1.4084481795628865,-0.7736654281616211,1.688875682172036e+18,4.5020361328125,-0.576969362795353,-8.481858491897583,-3.1523444652557373
45,4.6000000000000005,1.6888756822758356e+18,4.6058356526692705,-0.09213616450627644,0.7471689383188883,-10.174646377563477,1.6888756822758356e+18,4.6058356526692705,-1.6674983104070027,-8.930313030878702,-10.572288115819296,1.6888756822758356e+18,4.6058356526692705,-1.5981635848681133,-9.661736806233725,-0.46235503256320953,1.6888756822758356e+18,4.6058356526692705,0.4461861550807953,-0.2241620818773906,0.58459804727075,1.6888756822758356e+18,4.6058356526692705,0.4452189604441325,-0.21970786154270172,0.5867360699921846,,,,,,,,,,,,1.6888756822709924e+18,4.600992407226562,9.87467975616455,45.996439361572264,-2.1032799184322357,1.6888756822709924e+18,4.600992407226562,-245.5201156616211,141.229638671875,-135.46147766113282,1.6888756822758356e+18,4.6058356526692705,-0.5304459929466248,0.6324692269166311,-0.419508953889211,0.3771670659383138,2.9231899976730347,1.4112226764361064,-0.9828589459260305,1.6888756822758356e+18,4.6058356526692705,-1.690230091412862,-8.914759874343872,-10.636894226074219
46,4.7,1.688875682370981e+18,4.700981005859375,-2.082821750640869,-8.040685653686523,-3.2316919326782227,1.688875682370981e+18,4.700981005859375,-2.0506490588188173,-17.643956184387207,-5.076133918762207,1.688875682370981e+18,4.700981005859375,0.009371209889650345,-9.587525367736816,-1.909155511856079,1.688875682370981e+18,4.700981005859375,1.8146668434143067,-2.714837884902954,2.2505497217178343,1.688875682370981e+18,4.700981005859375,1.8137200117111205,-2.710378551483154,2.2526877880096436,,,,,,,,,,,,1.6888756823709932e+18,4.7009931640625,3.5172598898410796,46.52835960388184,4.615259897708893,1.6888756823709932e+18,4.7009931640625,-251.87753448486328,141.76155853271484,-128.74293823242186,1.688875682370981e+18,4.700981005859375,-0.5040475308895112,0.580048406124115,-0.39722160696983333,0.49880436062812805,1.6087367534637451,1.3811906099319458,0.1512708980590105,1.688875682370981e+18,4.700981005859375,-2.0733808517456054,-17.628403091430663,-5.140740203857422
47,4.800000000000001,1.688875682466127e+18,4.7961273193359375,-4.694277187188466,-5.182825406392415,0.03435901800791422,1.688875682466127e+18,4.7961273193359375,-1.9303099289536476,-14.290834108988443,-2.2060827746366463,1.688875682466127e+18,4.7961273193359375,2.7411657571792603,-9.092263539632162,-2.3051552772521973,1.688875682466127e+18,4.7961273193359375,0.6936120142539343,-4.2024983167648315,2.0793343583742776,1.688875682466127e+18,4.7961273193359375,0.6926448196172714,-4.198044111331304,2.081472416718801,,,,,,,,,,,,1.6888756824709962e+18,4.8009961914062504,-8.88525972366333,45.68533935546875,7.008899927139282,1.6888756824709962e+18,4.8009961914062504,-264.2800537109375,140.91853942871094,-126.34929809570312,1.688875682466127e+18,4.7961273193359375,-0.4631977279980977,0.4479445417722066,-0.39209048449993134,0.6506732702255249,0.6731297175089518,1.200032154719035,0.7623168230056763,1.688875682466127e+18,4.7961273193359375,-1.9530417198936145,-14.275280714035034,-2.2706889677792788
48,4.9,1.6888756825699267e+18,4.899926554361979,-7.934355099995931,9.442217588424683,2.150390863418579,1.6888756825699267e+18,4.899926554361979,-3.017947574456533,1.046660453081131,0.8904291292031606,1.6888756825699267e+18,4.899926554361979,4.893606026967366,-8.379811922709147,-1.3246752321720123,1.6888756825699267e+18,4.899926554361979,0.35699982196092606,-3.320663491884867,0.9021716018517812,1.6888756825699267e+18,4.899926554361979,0.35608353031178314,-3.3161837259928384,0.9043096229434013,,,,,,,,,,,,1.688875682570991e+18,4.9009909912109375,-17.565559577941894,43.89193878173828,4.050399947166443,1.688875682570991e+18,4.9009909912109375,-272.9603576660156,139.12513885498046,-129.30779724121095,1.6888756825699267e+18,4.899926554361979,-0.3618561973174413,0.26951749871174496,-0.4220059812068939,0.7844139436880747,0.23435603951414422,1.0350130995114644,0.7295666933059692,1.6888756825699267e+18,4.899926554361979,-3.040679375330607,1.0622138480345409,0.8258229109148184
49,5.0,1.6888756826737234e+18,5.003723510742187,0.4787432352701823,4.233407020568848,1.8685931265354156,1.6888756826737234e+18,5.003723510742187,4.769294361273448,-4.565904319286346,1.4126627144093316,1.6888756826737234e+18,5.003723510742187,4.267749706904094,-8.783566315968832,-0.520643894871076,1.6888756826737234e+18,5.003723510742187,0.2633083686232567,-0.3703879515329998,-2.1208732028802237,1.6888756826737234e+18,5.003723510742187,0.2623666202028592,-0.36595918734868366,-2.1187351991732917,,,,,,,,,,,,1.688875682670992e+18,5.00099189453125,-13.104019594192504,45.74633941650391,1.1504599805921316,1.688875682670992e+18,5.00099189453125,-268.4988159179687,140.9795379638672,-132.2077377319336,1.6888756826737234e+18,5.003723510742187,-0.2966965039571126,0.20753157387177146,-0.4921500285466512,0.7906242311000824,0.09327737738688785,1.1256312727928162,0.6557662685712179,1.6888756826737234e+18,5.003723510742187,4.746562580267589,-4.550351083278656,1.348056481530269
50,5.1000000000000005,1.688875682768866e+18,5.098866015625,8.666175031661988,-6.856895065307617,-2.4419795989990236,1.688875682768866e+18,5.098866015625,12.45464186668396,-15.928062868118285,-2.54165632724762,1.688875682768866e+18,5.098866015625,3.765665054321289,-9.055421829223633,-0.1643901444971561,1.688875682768866e+18,5.098866015625,0.2524095058441162,-1.4646105214953422,0.39187004417181015,1.688875682768866e+18,5.098866015625,0.2514932304620744,-1.4601206690073014,0.39400808960199357,,,,,,,,,,,,1.6888756827709906e+18,5.100990551757812,-7.3163398742675785,47.80935935974121,0.41601999625563624,1.6888756827709906e+18,5.100990551757812,-262.7111389160156,143.0425582885742,-132.94217834472656,1.688875682768866e+18,5.098866015625,-0.24141249060630798,0.16362792849540705,-0.5354274034500122,0.7924336075782776,0.0013884034007787815,1.1883806228637694,0.5907267212867737,1.688875682768866e+18,5.098866015625,12.431910037994385,-15.912509870529174,-2.6062624216079713
51,5.2,1.6888756828640133e+18,5.194013549804688,-8.207804163297018,-3.6676426728566494,0.13102883100509644,1.6888756828640133e+18,5.194013549804688,-4.774877667427063,-12.857433398564657,-0.27756742636362697,1.6888756828640133e+18,5.194013549804688,3.410124739011129,-9.17404556274414,-0.4733097528417905,1.6888756828640133e+18,5.194013549804688,-0.391742796326677,3.7108027935028076,-0.6940956513086954,1.6888756828640133e+18,5.194013549804688,-0.39265907804171246,3.715257008870443,-0.6919575879971186,,,,,,,,,,,,1.688875682870992e+18,5.200991918945313,-7.216299915313721,48.5730785369873,-1.6421199709177017,1.688875682870992e+18,5.200991918945313,-262.61109313964846,143.8062759399414,-135.0003189086914,1.6888756828640133e+18,5.194013549804688,-0.2946126287182172,0.2245864992340406,-0.5271503031253815,0.7632758418718973,0.09839844284579158,1.2191624641418457,0.6665297547976176,1.6888756828640133e+18,5.194013549804688,-4.797609448432922,-12.841880440711975,-0.34217362105846405
52,5.300000000000001,1.6888756829678113e+18,5.2978115234375,-6.899097430209319,0.580153226852417,-3.834229697783788,1.6888756829678113e+18,5.2978115234375,-5.837390502293904,-9.097711006800333,-4.776074022054672,1.6888756829678113e+18,5.2978115234375,1.0389056528608005,-9.662119070688883,-1.0065576434135437,1.6888756829678113e+18,5.2978115234375,-1.4007139851649602,3.878205358982086,-2.286977688471476,1.6888756829678113e+18,5.2978115234375,-1.4016812096039455,3.882634083429972,-2.284865081310272,,,,,,,,,,,,1.6888756829709942e+18,5.300994018554688,0.7551799595355988,49.067179107666014,-3.4318598710000514,1.6888756829709942e+18,5.300994018554688,-254.63961334228514,144.30037994384764,-136.79005737304686,1.6888756829678113e+18,5.2978115234375,-0.39820413788159686,0.4070059309403102,-0.528953363498052,0.6260746121406555,0.7911140223344167,1.431308388710022,0.4261511576672395,1.6888756829678113e+18,5.2978115234375,-5.860122370223205,-9.082157691319784,-4.8406802117824554
53,5.4,1.6888756830716116e+18,5.401611572265625,1.9929438928763072,3.715728680292765,-2.500494579474131,1.6888756830716116e+18,5.401611572265625,1.2952149609724681,-6.042575120925903,-3.2998021443684897,1.6888756830716116e+18,5.401611572265625,-0.7205303957064947,-9.7425586382548,-0.8640210330486298,1.6888756830716116e+18,5.401611572265625,0.437557689845562,2.4479406476020813,-0.7614944409579039,1.6888756830716116e+18,5.401611572265625,0.4366159352163474,2.4523694117863974,-0.7593563981354237,,,,,,,,,,,,1.688875683070992e+18,5.4009918701171875,7.484699869155884,48.813418579101565,-6.683159828186035,1.688875683070992e+18,5.4009918701171875,-247.91009368896485,144.04661560058594,-140.0413589477539,1.6888756830716116e+18,5.401611572265625,-0.4352530886729558,0.5031954695781072,-0.5291034877300262,0.5253230532010397,2.335243741671244,1.4741675853729248,-0.8806811968485514,1.6888756830716116e+18,5.401611572265625,1.2724831402301788,-6.027021725972493,-3.3644083539644876
54,5.5,1.688875683175409e+18,5.505408854166667,0.7887231210867564,0.07748277982076009,-4.731810728708903,1.688875683175409e+18,5.505408854166667,-0.5620141923427582,-9.630213816960653,-5.2161539395650225,1.688875683175409e+18,5.505408854166667,-1.3735387722651164,-9.691951433817545,-0.54905666410923,1.688875683175409e+18,5.505408854166667,-0.6447428191701571,1.326926549275716,-0.5036583865682284,1.688875683175409e+18,5.505408854166667,-0.6456590990225474,1.3313553631305695,-0.5015203605095545,,,,,,,,,,,,1.6888756831709926e+18,5.500992749023437,7.754319906234741,48.65481872558594,-8.938939809799194,1.6888756831709926e+18,5.500992749023437,-247.64047546386718,143.8880172729492,-142.29713592529296,1.688875683175409e+18,5.505408854166667,-0.4754171868165334,0.5600531101226807,-0.5013121515512466,0.4565879503885905,1.8114794095357258,1.4324100613594055,-1.2100764016310375,1.688875683175409e+18,5.505408854166667,-0.5847460577885312,-9.614660580952963,-5.280760208765666
55,5.6000000000000005,1.688875683270554e+18,5.600554199218751,1.4126673102378846,-0.028762054443359376,-8.005047130584718,1.688875683270554e+18,5.600554199218751,0.14751754999160757,-9.745368385314942,-8.511030912399292,1.688875683270554e+18,5.600554199218751,-1.2879511833190918,-9.700861167907714,-0.5706975162029266,1.688875683270554e+18,5.600554199218751,0.7225008815526962,-0.6576269858516752,0.9105251967906952,1.688875683270554e+18,5.600554199218751,0.7215540155768394,-0.6531676705344579,0.9126632034778595,,,,,,,,,,,,1.6888756832709926e+18,5.6009926513671875,5.897479891777039,49.15745887756348,-10.16747989654541,1.6888756832709926e+18,5.6009926513671875,-249.497314453125,144.39065551757812,-143.5256774902344,1.688875683270554e+18,5.600554199218751,-0.4840674877166748,0.5630905270576477,-0.49270959496498107,0.45324801802635195,1.580237865447998,1.4415949583053589,-1.164608108997345,1.688875683270554e+18,5.600554199218751,0.12478573322296152,-9.729814910888672,-8.575637125968935
56,5.7,1.6888756833656988e+18,5.695698933919271,-2.555703262488047,-8.275245348612467,-3.3335102995236716,1.6888756833656988e+18,5.695698933919271,-1.807777424653371,-17.8424809773763,-5.1795637011528015,1.6888756833656988e+18,5.695698933919271,0.7251243541638056,-9.551490465799967,-1.9107668995857239,1.6888756833656988e+18,5.695698933919271,1.7352390885353088,-2.5711063345273337,2.242486278216044,1.6888756833656988e+18,5.695698933919271,1.734271893898646,-2.5666520992914834,2.2446243365605674,,,,,,,,,,,,1.6888756833709937e+18,5.700993701171875,-3.7893199220299723,50.63243865966797,-3.6782998919486998,1.6888756833709937e+18,5.700993701171875,-259.1841110229492,145.86563568115236,-137.0365005493164,1.6888756833656988e+18,5.695698933919271,-0.4550693432490031,0.5046661446491877,-0.451301450530688,0.5751199722290039,1.2344941198825836,1.377076804637909,0.26885093748569483,1.6888756833656988e+18,5.695698933919271,-1.83050932486852,-17.82692750295003,-5.244169890880585
57,5.800000000000001,1.6888756834695017e+18,5.799501993815103,-5.747622032960256,-3.161728858947754,1.5378948052724202,1.6888756834695017e+18,5.799501993815103,-2.3311077654361725,-12.096017519632975,-0.5505485907196999,1.6888756834695017e+18,5.799501993815103,3.393712838490804,-8.918543497721354,-2.1531569163004556,1.6888756834695017e+18,5.799501993815103,0.9807441470523676,-3.801439801851908,1.76723317305247,1.6888756834695017e+18,5.799501993815103,0.9797260488073031,-3.797011156876882,1.769345720609029,,,,,,,,,,,,1.6888756834709942e+18,5.800994287109375,-15.180459785461426,49.39779891967773,-1.9056399464607239,1.6888756834709942e+18,5.800994287109375,-270.57525329589845,144.63099670410156,-135.2638381958008,1.6888756834695017e+18,5.799501993815103,-0.3981561561425527,0.37538883090019226,-0.42874179780483246,0.7152909537156423,0.5205757220586141,1.160715937614441,0.6677416463692983,1.6888756834695017e+18,5.799501993815103,-2.353839556376139,-12.080464442571005,-0.6151548251509666
58,5.9,1.6888756835732964e+18,5.9032966308593755,-8.677699645360311,10.495448112487793,2.0945135951042175,1.6888756835732964e+18,5.9032966308593755,-3.4572299011051655,2.2710878203312554,0.9885348205765089,1.6888756835732964e+18,5.9032966308593755,5.197668234507243,-8.208615144093832,-1.1706922600666683,1.6888756835732964e+18,5.9032966308593755,0.17972163607676825,-3.7239108085632324,0.4982369740804036,1.6888756835732964e+18,5.9032966308593755,0.17877989821136,-3.719431161880493,0.500374992688497,,,,,,,,,,,,1.6888756835709947e+18,5.900994604492188,-22.190579223632813,47.13469924926758,-4.59451994895935,1.6888756835709947e+18,5.900994604492188,-277.5853668212891,142.3678985595703,-137.95271759033204,1.6888756835732964e+18,5.9032966308593755,-0.29440283775329584,0.21532367169857022,-0.43702103694279987,0.8202790121237437,0.18317545515795544,1.0086392561594646,0.5869377652804056,1.6888756835732964e+18,5.9032966308593755,-3.4799617268145084,2.2866410861412683,0.9239286656181017
59,6.0,1.688875683668445e+18,5.99844501953125,3.947454595565796,2.6441653251647947,1.6722233414649963,1.688875683668445e+18,5.99844501953125,8.326185178756713,-6.121677851676941,1.3184453129768372,1.688875683668445e+18,5.99844501953125,4.355929279327393,-8.750098037719727,-0.418491493165493,1.688875683668445e+18,5.99844501953125,0.9691071778535842,0.16389514803886404,-2.4273646116256713,1.688875683668445e+18,5.99844501953125,0.9681908756494522,0.16838501095771793,-2.425226664543152,,,,,,,,,,,,1.6888756836709893e+18,6.000989526367187,-14.339879703521728,48.937858963012694,-7.975139856338501,1.6888756836709893e+18,6.000989526367187,-269.7346710205078,144.17105865478516,-141.33333740234374,1.688875683668445e+18,5.99844501953125,-0.2446524947881698,0.1662985205650329,-0.5063367307186126,0.8091481566429138,0.0607774533331394,1.122961401939392,0.5446812629699707,1.688875683668445e+18,5.99844501953125,8.303453397750854,-6.106124496459961,1.2538390755653381
60,6.1000000000000005,1.6888756837635942e+18,6.093594116210937,3.779749592145284,-7.302798509597778,-2.066709280014038,1.6888756837635942e+18,6.093594116210937,7.581658621629079,-16.35514219601949,-2.5005994041760764,1.6888756837635942e+18,6.093594116210937,3.7791075309117637,-9.036598364512125,-0.49860359728336334,1.6888756837635942e+18,6.093594116210937,-0.023823748032251957,-0.6529640158017477,0.19901480277379355,1.6888756837635942e+18,6.093594116210937,-0.02479093273480733,-0.6485098749399185,0.20115284311274687,,,,,,,,,,,,1.6888756837709942e+18,6.100994311523438,-9.901519775390625,49.99071922302246,-6.502599859237671,1.6888756837709942e+18,6.100994311523438,-265.29631958007815,145.22391815185546,-139.8607971191406,1.6888756837635942e+18,6.093594116210937,-0.19648706416289008,0.1514969443281491,-0.541355033715566,0.8030966718991598,0.08265605413665372,1.1926828622817993,0.42386668423811596,1.6888756837635942e+18,6.093594116210937,7.558926681677501,-16.33958848317464,-2.565205713113149
61,6.2,1.6888756838673836e+18,6.19738350423177,-7.780837257703145,-1.5470350583394372,1.9698820014794667,1.6888756838673836e+18,6.19738350423177,-4.743172595898311,-10.762218475341797,0.6877370998263359,1.6888756838673836e+18,6.19738350423177,3.014863053957621,-9.199438254038492,-1.346858412027359,1.6888756838673836e+18,6.19738350423177,0.14648040042569244,4.671108325322469,-1.1267154763142269,1.6888756838673836e+18,6.19738350423177,0.14546228262285402,4.67553714911143,-1.12457745646437,,,,,,,,,,,,1.6888756838709921e+18,6.200992163085937,-10.184559774398803,49.948018646240236,-3.3891599655151365,1.6888756838709921e+18,6.200992163085937,-265.57936096191406,145.18121643066405,-136.7473571777344,1.6888756838673836e+18,6.19738350423177,-0.2719523509343465,0.2668397128582,-0.5253486931324005,0.7570641040802002,0.3907125766078631,1.236556073029836,0.4045114666223526,1.6888756838673836e+18,6.19738350423177,-4.765904481212298,-10.746664683024088,0.6231308827797571
62,6.300000000000001,1.6888756839711857e+18,6.301185831705729,-6.1116836865743,0.9803777535756429,-4.69972821076711,1.6888756839711857e+18,6.301185831705729,-5.597210923830668,-8.697312116622925,-6.095416675011317,1.6888756839711857e+18,6.301185831705729,0.49167152618368465,-9.661944707234701,-1.4604018827279408,1.6888756839711857e+18,6.301185831705729,-1.5221234361330669,2.9251536577939987,-1.4792101780573528,1.6888756839711857e+18,6.301185831705729,-1.523116151491801,2.9295824766159058,-1.4770721594492595,,,,,,,,,,,,1.6888756839709926e+18,6.30099248046875,-3.1634599059820174,50.45675926208496,-3.219579930603504,1.6888756839709926e+18,6.30099248046875,-258.558251953125,145.68995971679686,-136.5777801513672,1.6888756839711857e+18,6.301185831705729,-0.40310536324977875,0.453005184729894,-0.5181156992912292,0.601024717092514,1.2727192441622417,1.4309541781743367,0.0331053336461385,1.6888756839711857e+18,6.301185831705729,-5.619942704836528,-8.681758801142374,-6.160022787749767
63,6.4,1.6888756840749834e+18,6.404983235677083,3.087574064731598,3.0615119139353433,-2.2682863076527915,1.6888756840749834e+18,6.404983235677083,2.03838582833608,-6.631009976069133,-3.3825539151827493,1.6888756840749834e+18,6.404983235677083,-1.0719896952311199,-9.67677672704061,-1.178981105486552,1.6888756840749834e+18,6.404983235677083,0.22052235528826714,2.8213574290275574,-0.6693555945530534,1.6888756840749834e+18,6.404983235677083,0.21950424710909525,2.825811723868052,-0.6672175843268633,,,,,,,,,,,,1.688875684070994e+18,6.400993920898438,2.6181199312210084,50.438458633422854,-4.8458398342132565,1.688875684070994e+18,6.400993920898438,-252.77667388916015,145.67165832519532,-138.20403900146485,1.6888756840749834e+18,6.404983235677083,-0.4484085390965144,0.5468806823094686,-0.5007118930419286,0.4970296770334244,2.383552630742391,1.4309662381807964,-0.815189391374588,1.6888756840749834e+18,6.404983235677083,2.015654037396113,-6.615456819534302,-3.4471601843833923
64,6.5,1.6888756841701281e+18,6.500128173828125,0.5162998914718628,0.15999240875244142,-5.154773807525634,1.6888756841701281e+18,6.500128173828125,-0.9875178962945939,-9.52080192565918,-5.753063488006592,1.6888756841701281e+18,6.500128173828125,-1.5266193151474,-9.665049171447755,-0.6630031347274781,1.6888756841701281e+18,6.500128173828125,-0.7083288073539734,1.174602246284485,-0.3039054647088051,1.6888756841701281e+18,6.500128173828125,-0.7092450857162476,1.1790310204029084,-0.3017979755997658,,,,,,,,,,,,1.688875684170993e+18,6.500992724609375,2.762079930305481,50.05049934387207,-6.479419898986817,1.688875684170993e+18,6.500992724609375,-252.63271484375,145.28369750976563,-139.83761749267578,1.6888756841701281e+18,6.500128173828125,-0.4958274781703949,0.5927281737327575,-0.4692693591117859,0.4269562840461731,2.860526704788208,1.4197146415710449,-1.0965248703956605,1.6888756841701281e+18,6.500128173828125,-1.0102496981620788,-9.50524845123291,-5.8176695823669435
65,6.6000000000000005,1.6888756842652756e+18,6.59527587890625,0.059000382820765175,-2.3809202512105307,-7.35894501209259,1.6888756842652756e+18,6.59527587890625,-1.0042876303195953,-12.068898836771647,-8.327720602353414,1.6888756842652756e+18,6.59527587890625,-1.0860894893606503,-9.67223342259725,-1.0334889789422352,1.6888756842652756e+18,6.59527587890625,1.1213704297939937,-1.1638255789875984,1.316770908733209,1.6888756842652756e+18,6.59527587890625,1.1204032351573308,-1.1593458329637845,1.3188835382461548,,,,,,,,,,,,1.6888756842709921e+18,6.600992236328125,0.6307399719953537,49.839439392089844,-4.657959854602813,1.6888756842709921e+18,6.600992236328125,-254.7640594482422,145.07263641357423,-138.0161590576172,1.6888756842652756e+18,6.59527587890625,-0.5028425008058548,0.5903927187124888,-0.44692595799763996,0.444332813223203,2.4493125875790915,1.4319417079289753,-0.675649938484033,1.6888756842652756e+18,6.59527587890625,-1.0270194311936696,-12.053345680236816,-8.392327149709066
66,6.7,1.688875684369075e+18,6.699074788411458,-4.00814272960027,-10.538704554239908,-0.30467387040456134,1.688875684369075e+18,6.699074788411458,-2.7169503966967263,-19.86481475830078,-2.916053165992101,1.688875684369075e+18,6.699074788411458,1.2683908517162006,-9.310365041097006,-2.676092783610026,1.688875684369075e+18,6.699074788411458,1.5234470143914223,-2.3634630888700485,2.111353894074758,1.688875684369075e+18,6.699074788411458,1.522505280872186,-2.3589833974838257,2.113491952419281,,,,,,,,,,,,1.6888756843709916e+18,6.700991381835938,-8.958459949493408,49.30873908996582,3.080499917268753,1.6888756843709916e+18,6.700991381835938,-264.35325317382814,144.54193420410155,-130.27769927978517,1.688875684369075e+18,6.699074788411458,-0.4661940634250641,0.520078698794047,-0.400276854634285,0.5910111963748932,1.09897713859876,1.2855816682179768,0.4664644996325175,1.688875684369075e+18,6.699074788411458,-2.7396822373072305,-19.84926160176595,-2.9806594053904214
67,6.800000000000001,1.6888756844728717e+18,6.802871744791666,-5.590179602305095,3.113380273183187,1.5593384305636089,1.6888756844728717e+18,6.802871744791666,-1.6524434487024944,-5.508875956137975,-0.8684949316084385,1.6888756844728717e+18,6.802871744791666,3.914934754371643,-8.606511116027832,-2.4925468365351358,1.6888756844728717e+18,6.802871744791666,0.9302205145359039,-4.664999643961589,1.4088588853677113,1.6888756844728717e+18,6.802871744791666,0.9292533000310262,-4.660519957542419,1.4109714527924855,,,,,,,,,,,,1.688875684470993e+18,6.800992919921875,-18.640379619598388,47.23595848083496,2.583959972858429,1.688875684470993e+18,6.800992919921875,-274.03517456054686,142.46915740966796,-130.77424011230468,1.6888756844728717e+18,6.802871744791666,-0.394549528757731,0.3705309381087621,-0.4029048631588618,0.7347848216692606,0.5258090049028397,1.0947832465171814,0.6574240128199259,1.6888756844728717e+18,6.802871744791666,-1.675175239642461,-5.4933226108551025,-0.9331011244406303
68,6.9,1.6888756845766656e+18,6.906665649414062,-5.488870660463969,9.505422035853067,2.943405548731486,1.6888756845766656e+18,6.906665649414062,-0.19750763972600302,1.301795244216919,1.8839490665122867,1.6888756845766656e+18,6.906665649414062,5.268561601638794,-8.187881628672281,-1.1241699556509654,1.6888756845766656e+18,6.906665649414062,0.2596940866981943,-2.31403390939037,-0.5445354705055555,1.6888756845766656e+18,6.906665649414062,0.25877779318640626,-2.3096051203707852,-0.542397430477043,,,,,,,,,,,,1.6888756845709888e+18,6.900988745117187,-23.162919425964354,45.32787857055664,-2.8511399388313294,1.6888756845709888e+18,6.900988745117187,-278.5577117919922,140.56107635498046,-136.20933532714844,1.6888756845766656e+18,6.906665649414062,-0.31915290157000226,0.2235302925109863,-0.432168369491895,0.8124834497769674,0.16465258101622257,1.0085392991701763,0.657819539308548,1.6888756845766656e+18,6.906665649414062,-0.2202394256989161,1.317348519961039,1.8193428628146648
69,7.0,1.6888756846718141e+18,7.0018141601562505,6.344481992721557,-7.053770637512207,-2.0315491437911986,1.6888756846718141e+18,7.0018141601562505,10.173923015594482,-16.026886892318725,-3.1079177036881447,1.6888756846718141e+18,7.0018141601562505,3.806639528274536,-8.957371139526368,-1.1410820364952088,1.6888756846718141e+18,7.0018141601562505,0.2616641283035278,-0.8421082675457001,-1.7730363488197327,1.6888756846718141e+18,7.0018141601562505,0.2607478320598602,-0.8376795053482056,-1.7709289193153381,,,,,,,,,,,,1.688875684670994e+18,7.000993847656249,-13.605439758300781,48.67677955627441,-2.5266199588775633,1.688875684670994e+18,7.000993847656249,-269.00023498535154,143.90997772216798,-135.88481750488282,1.6888756846718141e+18,7.0018141601562505,-0.2720269918441772,0.2347496837377548,-0.5085139334201813,0.7820076942443848,0.24255504310131068,1.1773689270019532,0.5058736562728882,1.6888756846718141e+18,7.0018141601562505,10.151191234588623,-16.01133303642273,-3.1725238978862764
70,7.1000000000000005,1.6888756847669645e+18,7.096964314778646,-3.000059207280477,-3.63022247950236,0.7653382321198783,1.6888756847669645e+18,7.096964314778646,0.9648059209187828,-12.590035597483316,0.012562289834022558,1.6888756847669645e+18,7.096964314778646,3.9420636892318726,-8.94406795501709,-0.8174894154071808,1.6888756847669645e+18,7.096964314778646,-0.504727433125178,0.9041314323743185,0.6337726910909017,1.6888756847669645e+18,7.096964314778646,-0.5056691567103069,0.9085602561632792,0.6359107246001562,1.688875684723718e+18,7.0537177734375,0.0,0.0,1.0311329364776611,16.88800048828125,0.4275934100151062,204.22415161132807,41.0,-122.7530717,49.1907718,1.6888756847709906e+18,7.100990576171876,-12.195119667053223,48.87563896179199,-3.395259881019592,1.6888756847709906e+18,7.100990576171876,-267.58990783691405,144.10883483886718,-136.75345916748046,1.6888756847669645e+18,7.096964314778646,-0.2557661806543668,0.20402795821428296,-0.5163014878829321,0.7909110089143118,0.15322190398971236,1.1723294854164124,0.5232865959405899,1.6888756847669645e+18,7.096964314778646,0.9420741399129229,-12.574482361475626,-0.05204390486081423
71,7.2,1.6888756848707615e+18,7.200761352539062,-6.121975024541219,2.183888594309489,-0.983210563659668,1.6888756848707615e+18,7.200761352539062,-3.354438285032908,-7.034898479779561,-2.619143764177958,1.6888756848707615e+18,7.200761352539062,2.7447354396184287,-9.203041871388754,-1.7006466488043468,1.6888756848707615e+18,7.200761352539062,-0.0721839318672816,4.636721650759379,-2.2208006183306375,1.6888756848707615e+18,7.200761352539062,-0.07312564427653949,4.641201456387837,-2.2186625401178994,,,,,,,,,,,,1.6888756848709926e+18,7.200992700195313,-10.496879696846008,49.16111946105957,-0.7807999901473522,1.6888756848709926e+18,7.200992700195313,-265.89166870117185,144.39431915283203,-134.13899688720704,1.6888756848707615e+18,7.200761352539062,-0.3335920572280883,0.3352366661032041,-0.49802825848261517,0.7219386299451193,0.5488227705160776,1.2467093865076702,0.4534709577759107,1.6888756848707615e+18,7.200761352539062,-3.3771700660387673,-7.019345184167226,-2.6837499737739563
72,7.300000000000001,1.688875684974558e+18,7.304557739257812,-1.2517836292584736,0.7799205780029297,-3.37550687789917,1.688875684974558e+18,7.304557739257812,-1.3771690949797633,-8.876275221506754,-5.017749051253001,1.688875684974558e+18,7.304557739257812,-0.14818687240282694,-9.640450636545816,-1.70695561170578,1.688875684974558e+18,7.304557739257812,-0.2768492152293523,2.3580670952796936,-1.7235817114512126,1.688875684974558e+18,7.304557739257812,-0.27779095992445946,2.3625467916329703,-1.7214691837628682,,,,,,,,,,,,1.6888756849709944e+18,7.300994555664063,1.0357799891382455,50.206658935546876,-1.68969996124506,1.6888756849709944e+18,7.300994555664063,-254.35901489257813,145.43985595703126,-135.047900390625,1.688875684974558e+18,7.304557739257812,-0.40538669129212695,0.4913962384064992,-0.5148788889249166,0.5721672276655833,1.6607666015625,1.4149908820788066,-0.2811739183962345,1.688875684974558e+18,7.304557739257812,-1.399900880952676,-8.860721826553345,-5.082355245947838
73,7.4,1.688875685069706e+18,7.399706103515625,0.013037776947021528,3.430412006378174,-1.7816348791122436,1.688875685069706e+18,7.399706103515625,-1.2746566176414489,-6.203392696380615,-3.112464064359665,1.688875685069706e+18,7.399706103515625,-1.3104959011077881,-9.618059539794922,-1.3955426454544066,1.688875685069706e+18,7.399706103515625,-0.5679214000701904,2.4477675676345827,-0.10268644392490386,1.688875685069706e+18,7.399706103515625,-0.5688987955451011,2.4521963119506838,-0.10054842233657837,,,,,,,,,,,,1.6888756850709926e+18,7.400992529296874,4.951979851722717,49.92727966308594,-3.304979920387268,1.6888756850709926e+18,7.400992529296874,-250.44281616210938,145.1604797363281,-136.66317443847657,1.688875685069706e+18,7.399706103515625,-0.4507457375526428,0.570826506614685,-0.4869280219078064,0.48254185914993286,2.423688507080078,1.3996142625808716,-0.8005944728851319,1.688875685069706e+18,7.399706103515625,-1.2973884105682374,-6.187839221954346,-3.17707017660141
74,7.5,1.6888756851648494e+18,7.494849487304688,2.3154444495836892,-0.5861078898111979,-6.667055527369182,1.6888756851648494e+18,7.494849487304688,0.42711890240510303,-10.20050319035848,-7.248059352238973,1.6888756851648494e+18,7.494849487304688,-1.9111270308494568,-9.598650137583414,-0.6457173426946005,1.6888756851648494e+18,7.494849487304688,-0.22001331113278866,1.226795603831609,-0.2073378612597783,1.6888756851648494e+18,7.494849487304688,-0.22098050514856973,1.2312752654155095,-0.20525074501832327,,,,,,,,,,,,1.6888756851709906e+18,7.500990576171875,6.346439790725708,49.45269889831543,-7.017439889907837,1.6888756851709906e+18,7.500990576171875,-249.04835662841796,144.68589630126954,-140.37563781738282,1.6888756851648494e+18,7.494849487304688,-0.49092474083105725,0.6067290504773458,-0.472090408205986,0.40947234630584717,2.957503159840902,1.3839902877807617,-1.169202705224355,1.6888756851648494e+18,7.494849487304688,0.4043870766957601,-10.184950033823648,-7.312665383021037
75,7.6000000000000005,1.6888756852686397e+18,7.598639851888021,-1.0692529218892257,-4.569558779398601,-5.559950391451518,1.6888756852686397e+18,7.598639851888021,-1.7478572477897008,-14.159727414449057,-7.257132093111674,1.6888756852686397e+18,7.598639851888021,-0.7014058077863107,-9.574423472086588,-1.7618950605392456,1.6888756852686397e+18,7.598639851888021,1.9112191994984944,-1.8733709848796327,1.993278791507085,1.6888756852686397e+18,7.598639851888021,1.9102774262428284,-1.8689167828609545,1.9953912993272145,1.6888756852426798e+18,7.5726796875,0.0,0.0,1.0447752475738523,19.07699966430664,2.459707260131836,192.28189086914065,41.0,-122.753083,49.190731,1.688875685270989e+18,7.600988940429687,0.9149999797344208,50.13833885192871,-2.0178799092769624,1.688875685270989e+18,7.600988940429687,-254.47979736328125,145.3715362548828,-135.3760772705078,1.6888756852686397e+18,7.598639851888021,-0.4887939790884653,0.5887200832366943,-0.4273093541463216,0.4782874832550685,2.0490593115488687,1.388952652613322,-0.3053879849612713,1.6888756852686397e+18,7.598639851888021,-1.770589033762614,-14.144173940022787,-7.321738203366597
76,7.7,1.688875685372448e+18,7.702448160807292,-4.102752049763997,-8.638264020284018,0.6562934517860413,1.688875685372448e+18,7.702448160807292,-1.8873388630648453,-17.629420121510822,-2.447957227627436,1.688875685372448e+18,7.702448160807292,2.1926119128863015,-8.97541093826294,-3.168964147567749,1.688875685372448e+18,7.702448160807292,1.1991793711980183,-3.202970117330551,2.191224535306295,1.688875685372448e+18,7.702448160807292,1.1982376625140507,-3.198515862226486,2.193362573782603,,,,,,,,,,,,1.6888756853709919e+18,7.700991796875,-11.64123969078064,48.67555885314941,5.012979888916016,1.6888756853709919e+18,7.700991796875,-267.03603515625,143.90875854492188,-128.3452178955078,1.688875685372448e+18,7.702448160807292,-0.4626792271931966,0.49892591436704,-0.36705445249875385,0.6312952140967051,0.9249790708223978,1.1870236198107402,0.607823650042216,1.688875685372448e+18,7.702448160807292,-1.9100706490377586,-17.613866488138836,-2.5125634421904883
77,7.800000000000001,1.6888756854762435e+18,7.8062433268229166,-7.338136196136475,8.72773520151774,2.362021346886953,1.6888756854762435e+18,7.8062433268229166,-2.3848466128110886,0.657926599184672,-0.09900301198164622,1.6888756854762435e+18,7.8062433268229166,4.930488228797913,-8.054063479105631,-2.5257378220558167,1.6888756854762435e+18,7.8062433268229166,0.8423577000697454,-4.183357874552409,1.2994630951434374,1.6888756854762435e+18,7.8062433268229166,0.8414414301514626,-4.17887814839681,1.301601114993294,,,,,,,,,,,,1.6888756854709937e+18,7.800993627929688,-22.495579147338866,45.713399505615236,3.168339964747429,1.6888756854709937e+18,7.800993627929688,-277.8903747558594,140.94659576416015,-130.18985595703126,1.6888756854762435e+18,7.8062433268229166,-0.37643957634766895,0.3287501881519953,-0.3762318988641103,0.7772130370140076,0.43413156270980835,0.9905461668968201,0.6624942123889923,1.6888756854762435e+18,7.8062433268229166,-2.4075784037510553,0.6734797755877175,-0.1636092448607087
78,7.9,1.6888756855713838e+18,7.90138369140625,-3.4674189567565916,5.204252243041992,2.573034703731537,1.6888756855713838e+18,7.90138369140625,1.9422541618347169,-2.9243881464004517,1.54504554271698,1.6888756855713838e+18,7.90138369140625,5.386871719360352,-8.112895202636718,-1.0927026391029357,1.6888756855713838e+18,7.90138369140625,0.09844093918800353,-1.03285094499588,-1.552269661426544,1.6888756855713838e+18,7.90138369140625,0.09749409854412076,-1.0283916532993316,-1.5501621961593628,,,,,,,,,,,,1.6888756855709875e+18,7.900987524414063,-22.639539337158205,45.597499465942384,-3.2659399271011353,1.6888756855709875e+18,7.900987524414063,-278.0343353271484,140.83069915771483,-136.62413787841797,1.6888756855713838e+18,7.90138369140625,-0.3209608197212219,0.2196952909231186,-0.4295269727706909,0.8145684480667115,0.15306763201951976,0.9997366070747375,0.6669728398323059,1.6888756855713838e+18,7.90138369140625,1.9195222795009612,-2.9088347434997557,1.4804393351078033
79,8.0,1.6888756856665313e+18,7.996531331380208,7.992378393809001,-6.306679964065552,-3.7119628886381784,1.6888756856665313e+18,7.996531331380208,11.924631516138712,-15.190635124842325,-5.12642309255898,1.6888756856665313e+18,7.996531331380208,3.9094516038894653,-8.868209838867188,-1.479173719882965,1.6888756856665313e+18,7.996531331380208,0.5679265111684798,-1.1423943489789963,-1.3063862149914105,1.6888756856665313e+18,7.996531331380208,0.5669847627480825,-1.1378892262776692,-1.3042736649513245,,,,,,,,,,,,1.688875685670987e+18,8.000986865234376,-12.623339653015137,48.99397926330566,-1.1223999857902527,1.688875685670987e+18,8.000986865234376,-268.0181365966797,144.22717742919923,-134.48059844970703,1.6888756856665313e+18,7.996531331380208,-0.2758229797085126,0.2527002866069476,-0.4956583579381307,0.7830584943294525,0.31414936482906336,1.1597820520401,0.4698706616957982,1.6888756856665313e+18,7.996531331380208,11.901899735132853,-15.175082047780355,-5.1910292860120535
80,8.1,1.6888756857703283e+18,8.100328531901042,-6.930941899617513,-2.7190892696380615,3.869457185268402,1.6888756857703283e+18,8.100328531901042,-3.1690940062204995,-11.672687331835428,2.402792751789093,1.6888756857703283e+18,8.100328531901042,3.7390464146931968,-8.93785285949707,-1.5313778519630432,1.6888756857703283e+18,8.100328531901042,-0.5109633306662242,2.0112229138612747,0.25429810397326946,1.6888756857703283e+18,8.100328531901042,-0.511905074119568,2.015651653210322,0.25643613406767446,1.6888756857616801e+18,8.09168017578125,0.0,0.0,0.9944103956222534,21.18600082397461,7.3037919998168945,185.76492309570312,41.0,-122.7530953,49.1906023,1.6888756857709862e+18,8.100986206054689,-11.923059844970702,49.108658981323245,-0.8747399814426899,1.6888756857709862e+18,8.100986206054689,-267.31785583496094,144.34185638427735,-134.23293914794922,1.6888756857703283e+18,8.100328531901042,-0.281508594751358,0.26380981504917145,-0.498426412542661,0.7751345932483673,0.33990739782651264,1.1752057075500488,0.46917422115802765,1.6888756857703283e+18,8.100328531901042,-3.1918259660402932,-11.657134195168814,2.338186544676622
81,8.200000000000001,1.688875685874132e+18,8.204131917317708,-8.269410014152527,3.0231019655863443,-1.0334151983261108,1.688875685874132e+18,8.204131917317708,-6.4283181031545,-6.317450602849324,-3.038984537124634,1.688875685874132e+18,8.204131917317708,1.8182906198004882,-9.324807325998941,-2.070282836755117,1.688875685874132e+18,8.204131917317708,-0.9942086345205704,4.4270422259966535,-2.6424503723780313,1.688875685874132e+18,8.204131917317708,-0.9951503770425916,4.431521892547607,-2.6403123339017234,,,,,,,,,,,,1.6888756858709921e+18,8.200992065429688,-7.188239885121584,49.80771903991699,0.3769799813628197,1.6888756858709921e+18,8.200992065429688,-262.5830352783203,145.0409194946289,-132.98121795654296,1.688875685874132e+18,8.204131917317708,-0.36285300552845,0.40550245344638824,-0.49267016847928363,0.6726471285025278,0.9215116798877716,1.2978312373161316,0.24339863906304038,1.688875685874132e+18,8.204131917317708,-6.451049904028575,-6.3018971880276995,-3.103590667247772
82,8.3,1.6888756859692818e+18,8.29928193359375,2.760413932800293,0.09800806045532236,-4.400395464897156,1.6888756859692818e+18,8.29928193359375,2.0884556770324707,-9.5830153465271,-5.785725474357605,1.6888756859692818e+18,8.29928193359375,-0.6947597384452819,-9.665278244018555,-1.4500434398651123,1.6888756859692818e+18,8.29928193359375,0.08155049309134484,2.358336865901947,-1.3873971343040465,1.6888756859692818e+18,8.29928193359375,0.08060366213321686,2.3627962350845335,-1.3852896809577941,,,,,,,,,,,,1.688875685970994e+18,8.300993920898438,3.836899960041046,49.93093910217285,-3.667319917678833,1.688875685970994e+18,8.300993920898438,-251.55789642333986,145.1641357421875,-137.0255157470703,1.6888756859692818e+18,8.29928193359375,-0.4192759692668915,0.5134309530258179,-0.5203128337860108,0.5368931293487549,2.0708306312561033,1.4317158222198487,-0.6249278485774994,1.6888756859692818e+18,8.29928193359375,2.0657238960266113,-9.567462062835693,-5.850331902503967
83,8.4,1.6888756860644268e+18,8.39442667643229,1.5255118707815807,2.794241507848104,-1.7642846703529358,1.6888756860644268e+18,8.39442667643229,-0.014556338389714632,-6.801698128382365,-3.097608665625254,1.6888756860644268e+18,8.39442667643229,-1.5628696878751118,-9.580194473266602,-1.3980374534924824,1.6888756860644268e+18,8.39442667643229,-0.21736621608336767,2.2002602418263755,-0.18051068733135855,1.6888756860644268e+18,8.39442667643229,-0.21830796947081885,2.2047144969304404,-0.17837264637152353,,,,,,,,,,,,1.6888756860709932e+18,8.400993066406249,5.888939952850341,49.926059341430665,-3.9991599321365356,1.6888756860709932e+18,8.400993066406249,-249.50585479736327,145.1592575073242,-137.35735626220702,1.6888756860644268e+18,8.39442667643229,-0.4599301815032959,0.5917317966620127,-0.47447283069292706,0.4606358806292216,2.5186310609181723,1.3821967442830403,-0.8306402464707693,1.6888756860644268e+18,8.39442667643229,-0.037288145472606025,-6.786144653956096,-3.1622148553530374
84,8.5,1.6888756861682276e+18,8.498227579752603,0.21398210525512695,-0.09941673278808594,-7.994688232739766,1.6888756861682276e+18,8.498227579752603,-1.65164581934611,-9.702497005462646,-8.77657421429952,1.6888756861682276e+18,8.498227579752603,-1.8884294033050537,-9.587335109710693,-0.8465995391209921,1.6888756861682276e+18,8.498227579752603,0.08676832914352417,0.49444450189669925,0.2671008196969827,1.6888756861682276e+18,8.498227579752603,0.08580110470453899,0.4989241858323415,0.26923885320623714,,,,,,,,,,,,1.6888756861709932e+18,8.500993188476562,5.511959886550903,49.4746597290039,-6.679499864578247,1.6888756861709932e+18,8.500993188476562,-249.8828338623047,144.70785827636718,-140.0376983642578,1.6888756861682276e+18,8.498227579752603,-0.4962818771600723,0.6191951632499695,-0.4540242205063502,0.4049768000841141,2.863394300142924,1.382686734199524,-1.0342615743478139,1.6888756861682276e+18,8.498227579752603,-1.6743776400883992,-9.686943531036377,-8.841180483500162
85,8.6,1.6888756862720236e+18,8.6020234375,-1.2663436383008957,-6.876851399739583,-3.5421695709228516,1.6888756862720236e+18,8.6020234375,-1.6777675126989682,-16.398412068684895,-5.708377480506897,1.6888756862720236e+18,8.6020234375,-0.434225358068943,-9.505815505981445,-2.230921447277069,1.6888756862720236e+18,8.6020234375,1.6994016369183857,-2.629291296005249,1.7379879554112752,1.6888756862720236e+18,8.6020234375,1.6983835498491924,-2.624837040901184,1.7401260137557983,1.6888756862806646e+18,8.61066455078125,0.0,0.0,0.9944103956222534,21.582000732421875,0.0935830622911453,0.0,41.0,-122.7530817,49.1906645,1.6888756862709896e+18,8.600989624023438,0.14517998509109026,50.31889877319336,-0.91621994972229,1.6888756862709896e+18,8.600989624023438,-255.24961700439454,145.5520980834961,-134.27441864013673,1.6888756862720236e+18,8.6020234375,-0.471584677696228,0.5814237892627716,-0.4232489864031474,0.5074735432863235,1.8269666234652202,1.3633726239204407,-0.13319211422155303,1.6888756862720236e+18,8.6020234375,-1.70049932350715,-16.382859388987224,-5.77298374970754
86,8.700000000000001,1.6888756863758226e+18,8.705822509765625,-4.808749834696452,-6.31255038579305,1.151148756345113,1.6888756863758226e+18,8.705822509765625,-2.445265288154284,-15.329617977142334,-1.7973088870445888,1.6888756863758226e+18,8.705822509765625,2.340683082739512,-9.001322428385416,-3.013171116511027,1.6888756863758226e+18,8.705822509765625,0.9396889234582583,-3.4077371458212533,2.0689751505851746,1.6888756863758226e+18,8.705822509765625,0.9386962379018465,-3.403308466076851,2.071113169193268,,,,,,,,,,,,1.6888756863709919e+18,8.700991967773437,-11.208139801025391,49.181858444213866,3.62095992565155,1.6888756863709919e+18,8.700991967773437,-266.6029296875,144.41505432128906,-129.73723449707032,1.6888756863758226e+18,8.705822509765625,-0.442238782842954,0.4758494446674983,-0.38945528368155163,0.6493534644444784,0.8662180801232656,1.1954262057940166,0.5807760804891586,1.6888756863758226e+18,8.705822509765625,-2.4679970741271973,-15.314064820607504,-1.8619150817394257
87,8.8,1.6888756864709652e+18,8.80096533203125,-8.130836868286133,8.832746219635009,2.968178868293762,1.6888756864709652e+18,8.80096533203125,-3.461935877799988,0.6050251722335817,0.4116851255297661,1.6888756864709652e+18,8.80096533203125,4.646099472045899,-8.21197566986084,-2.6212071895599367,1.6888756864709652e+18,8.80096533203125,0.8280889332294464,-3.6608543395996094,1.3328163385391236,1.6888756864709652e+18,8.80096533203125,0.8271726071834564,-3.6564255237579344,1.3349543809890747,,,,,,,,,,,,1.688875686470992e+18,8.800991821289063,-20.33373966217041,46.66621894836426,2.7303599625825883,1.688875686470992e+18,8.800991821289063,-275.72853698730466,141.8994171142578,-130.62783813476562,1.6888756864709652e+18,8.80096533203125,-0.3540030479431152,0.33213580846786495,-0.3959182322025299,0.778025770187378,0.47408968210220337,1.0221058964729308,0.5833276391029358,1.6888756864709652e+18,8.80096533203125,-3.484667658805847,0.6205785512924195,0.34707893133163453
88,8.9,1.6888756865661166e+18,8.89611669921875,-1.403219223022461,7.098055760065715,2.5855571031570435,1.6888756865661166e+18,8.89611669921875,3.5362927416960397,-1.1970095274349055,0.8701898207267124,1.6888756865661166e+18,8.89611669921875,4.916710535685222,-8.279320240020752,-1.780080775419871,1.6888756865661166e+18,8.89611669921875,0.4190281021098296,-0.6286312540372213,-1.8669569082558155,1.6888756865661166e+18,8.89611669921875,0.41806089660773676,-0.6241261015335718,-1.8648188685377438,,,,,,,,,,,,1.6888756865709937e+18,8.900993676757812,-19.707879543304443,46.896799087524414,-0.5380200065672398,1.6888756865709937e+18,8.900993676757812,-275.10267639160156,142.12999725341797,-133.8962173461914,1.6888756865661166e+18,8.89611669921875,-0.30029863119125366,0.2570085947712262,-0.43736949066321057,0.8071025709311167,0.31000644465287525,1.0370562970638275,0.5321652988592783,1.6888756865661166e+18,8.89611669921875,3.5135609060525894,-1.181456133723259,0.8055836061636606
89,9.0,1.6888756866699133e+18,8.999913411458333,7.876619458198547,-6.595502058664958,-1.58358101050059,1.6888756866699133e+18,8.999913411458333,11.688141147295633,-15.49691609541575,-3.209273745616277,1.6888756866699133e+18,8.999913411458333,3.7887200117111206,-8.885668436686197,-1.6904062032699585,1.6888756866699133e+18,8.999913411458333,0.2710714641337593,-1.033125855649511,-0.23665936912099525,1.6888756866699133e+18,8.999913411458333,0.2701297113671899,-1.0286715893695753,-0.23452136168877288,,,,,,,,,,,,1.6888756866709924e+18,9.000992431640626,-10.5151798248291,49.50637969970703,-0.11101999394595623,1.6888756866709924e+18,9.000992431640626,-265.90997314453125,144.7395782470703,-133.4692184448242,1.6888756866699133e+18,8.999913411458333,-0.25092075516780216,0.2531990384062131,-0.5036837408939997,0.7862785160541534,0.3801037569840749,1.1681925654411316,0.36495786408583325,1.6888756866699133e+18,8.999913411458333,11.665409167607626,-15.48136297861735,-3.2738799353440604
90,9.1,1.6888756867737137e+18,9.103713541666666,-9.698491136233011,-2.490037759145101,1.7208394408226013,1.6888756867737137e+18,9.103713541666666,-6.531109643479188,-11.617153962453207,0.08574282626310992,1.6888756867737137e+18,9.103713541666666,3.1445802052815757,-9.111371040344238,-1.6998100678126018,1.6888756867737137e+18,9.103713541666666,-0.7563275098800659,3.374928633371989,-1.131882408944269,1.6888756867737137e+18,9.103713541666666,-0.7572947144508362,3.3794084390004477,-1.1297443661217887,1.6888756867996677e+18,9.129667724609376,0.0,0.0,1.0038577318191528,22.076000213623047,0.0454335995018482,0.0,41.0,-122.7530798,49.1906462,1.688875686770994e+18,9.100993969726563,-10.356579780578613,49.6125186920166,-1.528659969381988,1.688875686770994e+18,9.100993969726563,-265.7513763427734,144.84571838378906,-134.88685760498046,1.6888756867737137e+18,9.103713541666666,-0.3173764000336329,0.31164869169394177,-0.499471182624499,0.741582969824473,0.45356734097003937,1.2240789532661438,0.484340563416481,1.6888756867737137e+18,9.103713541666666,-6.553841429452102,-11.601600488026937,0.02113659183184302
91,9.200000000000001,1.6888756868688602e+18,9.198860107421876,-6.2523894786834715,0.5834486961364747,-3.7621633529663088,1.6888756868688602e+18,9.198860107421876,-5.516174006462097,-8.950472927093506,-5.885386562347412,1.6888756868688602e+18,9.198860107421876,0.7134140029549598,-9.518176460266114,-2.187936615943909,1.6888756868688602e+18,9.198860107421876,-0.9575312599539757,3.071186137199402,-1.6136616468429565,1.6888756868688602e+18,9.198860107421876,-0.9584781259298325,3.0756454467773438,-1.6115235805511474,,,,,,,,,,,,1.688875686870994e+18,9.200993920898437,-1.2736800000071526,50.36281967163086,-0.5148399755358696,1.688875686870994e+18,9.200993920898437,-256.6684768676758,145.59601745605468,-133.87303466796874,1.6888756868688602e+18,9.198860107421876,-0.378265243768692,0.45969470143318175,-0.5048471927642822,0.6235833764076233,1.27276930809021,1.3638372898101807,0.004558139014989138,1.6888756868688602e+18,9.198860107421876,-5.5389057993888855,-8.934919452667236,-5.949992752075195
92,9.3,1.688875686964004e+18,9.294004313151042,2.4925910234451294,2.7996610005696616,-0.2494468688964844,1.688875686964004e+18,9.294004313151042,1.4875380992889404,-6.732804616292317,-2.275175541639328,1.688875686964004e+18,9.294004313151042,-1.027854432662328,-9.516720453898111,-2.09044216076533,1.688875686964004e+18,9.294004313151042,0.5245805308222771,2.697657267252604,-1.0730611351318657,1.688875686964004e+18,9.294004313151042,0.5236133305976788,2.70208603143692,-1.0709231323562562,,,,,,,,,,,,1.688875686970994e+18,9.30099375,5.880399894714356,50.20177955627442,-1.5018199801445007,1.688875686970994e+18,9.30099375,-249.51439514160157,145.4349792480469,-134.86001892089843,1.688875686964004e+18,9.294004313151042,-0.4016897877057393,0.5461596747239431,-0.5029167135556539,0.5341803779204687,2.076647778352102,1.3592110673586528,-0.5955928415060043,1.688875686964004e+18,9.294004313151042,1.464806209007899,-6.717251380284627,-2.3397817413012185
93,9.4,1.6888756870678016e+18,9.3978017578125,1.851403792699178,1.0564417044321697,-4.396286269028981,1.6888756870678016e+18,9.3978017578125,-0.14566308259963992,-8.427820444107056,-5.871687591075897,1.6888756870678016e+18,9.3978017578125,-2.0198683738708496,-9.468516985575357,-1.5401148796081543,1.6888756870678016e+18,9.3978017578125,-0.7430921196937561,1.7582229177157085,-0.39581522966424626,1.6888756870678016e+18,9.3978017578125,-0.7440593242645264,1.762677123149236,-0.3937026560306549,,,,,,,,,,,,1.6888756870709924e+18,9.400992504882812,7.340739822387695,49.94801902770996,-3.6965999484062193,1.6888756870709924e+18,9.400992504882812,-248.0540557861328,145.18121490478515,-137.05479583740234,1.6888756870678016e+18,9.3978017578125,-0.45666931569576263,0.6206554571787516,-0.4617417554060618,0.43860642115275067,2.585905353228251,1.3338303963343303,-0.8366132577260336,1.6888756870678016e+18,9.3978017578125,-0.1683948983748753,-8.412267128626505,-5.93629378080368
94,9.5,1.6888756871716027e+18,9.501602701822916,-0.030293961366017585,-2.036600430806478,-7.83166750272115,1.6888756871716027e+18,9.501602701822916,-1.873779535293579,-11.548958460489908,-9.276873588562012,1.6888756871716027e+18,9.501602701822916,-1.8662869930267334,-9.496612866719564,-1.5099195043245952,1.6888756871716027e+18,9.501602701822916,0.8281805713971456,-0.8816312650839487,1.0629309962193172,1.6888756871716027e+18,9.501602701822916,0.8272133419911066,-0.8771261113385359,1.0650689750909805,,,,,,,,,,,,1.688875687170991e+18,9.500991137695312,6.877139949798584,49.6686393737793,-4.82997989654541,1.688875687170991e+18,9.500991137695312,-248.5176544189453,144.90183715820314,-138.18817749023438,1.6888756871716027e+18,9.501602701822916,-0.47105720639228815,0.623304029305776,-0.448497196038564,0.4330971489350001,2.5567540725072226,1.3482322891553242,-0.7714168330033621,1.6888756871716027e+18,9.501602701822916,-1.8965113560358684,-11.53340514500936,-9.341479937235514
95,9.600000000000001,1.6888756872753984e+18,9.605398600260417,-2.6957652966181436,-10.276166598002115,0.2743280331293742,1.6888756872753984e+18,9.605398600260417,-1.9961126446723938,-19.52383804321289,-2.7546373109022775,1.6888756872753984e+18,9.605398600260417,0.6768512055277824,-9.231926282246908,-3.093678832054138,1.6888756872753984e+18,9.605398600260417,1.3445398717497785,-1.7131715814272563,2.735123634338379,1.6888756872753984e+18,9.605398600260417,1.3435980991149943,-1.7087173610925674,2.7372617721557617,1.688875687318649e+18,9.648649169921876,0.0,0.0,1.0038577318191528,22.416000366210938,0.0134525038301944,0.0,41.0,-122.7530762,49.1906169,1.6888756872709916e+18,9.600991674804687,-3.24886000175029,50.15175857543945,2.490019899606705,1.6888756872709916e+18,9.600991674804687,-258.6436538696289,145.38495635986328,-130.86817626953126,1.6888756872753984e+18,9.605398600260417,-0.45642344156901044,0.5561709801355997,-0.3902767300605774,0.5720047652721405,1.3644590477148693,1.266674518585205,0.25709783285856247,1.6888756872753984e+18,9.605398600260417,-2.018844425678253,-19.508283933003742,-2.8192435428500175
96,9.700000000000001,1.6888756873705457e+18,9.700545654296874,-4.597205424308777,-0.37027816772460936,0.5135183334350586,1.6888756873705457e+18,9.700545654296874,-1.2666406631469727,-8.97882800102234,-2.7382265627384186,1.6888756873705457e+18,9.700545654296874,3.3077633380889893,-8.592804718017579,-3.3164583683013915,1.6888756873705457e+18,9.700545654296874,1.3668720841407775,-4.238916063308716,1.39100124835968,1.6888756873705457e+18,9.700545654296874,1.3658946752548218,-4.234456777572632,1.3931392669677733,,,,,,,,,,,,1.6888756873709916e+18,9.700991674804687,-16.901879692077635,47.684919357299805,4.592079925537109,1.6888756873709916e+18,9.700991674804687,-272.2966705322266,142.91811981201172,-128.7661148071289,1.6888756873705457e+18,9.700545654296874,-0.42498955726623533,0.44329685568809507,-0.36691645383834837,0.6963861227035523,0.7440508008003235,1.0992807626724244,0.62487233877182,1.6888756873705457e+18,9.700545654296874,-1.289372491836548,-8.963274383544922,-2.802832806110382
97,9.8,1.6888756874656924e+18,9.795692301432291,-7.967641790707906,9.93752940495809,4.288489818572998,1.6888756874656924e+18,9.795692301432291,-2.6622146169344583,2.0146569311618805,2.062413697441419,1.6888756874656924e+18,9.795692301432291,5.282625834147136,-7.907127062479655,-2.2907896637916565,1.6888756874656924e+18,9.795692301432291,0.06419175366560617,-3.5070283015569053,0.4780275026957194,1.6888756874656924e+18,9.795692301432291,0.06327546139558153,-3.502574145793915,0.4801655213038127,,,,,,,,,,,,1.6888756874709932e+18,9.800993237304688,-23.600899696350098,45.475498580932616,0.10613998174667358,1.6888756874709932e+18,9.800993237304688,-278.9956970214844,140.7086959838867,-133.25205993652344,1.6888756874656924e+18,9.795692301432291,-0.3496852368116379,0.2952522461613019,-0.3839147537946701,0.8001067141691843,0.37014295905828476,0.9663039942582449,0.6272073984146118,1.6888756874656924e+18,9.795692301432291,-2.684946447610855,2.0302103459835052,1.9978074555595715
98,9.9,1.6888756875694897e+18,9.899489542643229,4.543917655944824,1.138900438944499,-0.13907009363174438,1.6888756875694897e+18,9.899489542643229,9.074381033579508,-7.353343367576599,-1.9625133872032166,1.6888756875694897e+18,9.899489542643229,4.507661739985148,-8.4764986038208,-1.8881566921869914,1.6888756875694897e+18,9.899489542643229,0.5592725823322932,0.20334178209304807,-1.9798142649233341,1.6888756875694897e+18,9.899489542643229,0.5583308388789495,0.20777054131031034,-1.9776762252052624,,,,,,,,,,,,1.6888756875709906e+18,9.900990600585938,-16.676179599761962,48.066778564453124,-0.8320399820804596,1.6888756875709906e+18,9.900990600585938,-272.07098083496095,143.29997711181642,-134.19023895263672,1.6888756875694897e+18,9.899489542643229,-0.30109755694866175,0.27441495905319846,-0.4505714625120163,0.7935348252455393,0.3657384117444356,1.076810856660207,0.500738282998403,1.6888756875694897e+18,9.899489542643229,9.05164917310079,-7.337790131568909,-2.0271195769309998
99,10.0,1.6888756876732895e+18,10.003289388020834,-0.6801136334737145,-9.566544691721598,-0.7068507075309753,1.6888756876732895e+18,10.003289388020834,3.5444681507845712,-18.278273423512776,-2.3511476491888366,1.6888756876732895e+18,10.003289388020834,4.201780279477437,-8.695983409881592,-1.7090105017026265,1.6888756876732895e+18,10.003289388020834,-0.42987096806367237,-0.2199623982111613,0.5928956344723701,1.6888756876732895e+18,10.003289388020834,-0.43078724046548206,-0.21548267205556235,0.5950336630145708,,,,,,,,,,,,1.6888756876709944e+18,10.000994555664063,-12.491579723358154,49.08791885375977,-0.5807199992239476,1.6888756876709944e+18,10.000994555664063,-267.886376953125,144.32111511230468,-133.938916015625,1.6888756876732895e+18,10.003289388020834,-0.2673910111188888,0.2546883349617322,-0.4812086174885432,0.7946984569231669,0.34884188572565716,1.1228585441907246,0.4279674142599106,1.6888756876732895e+18,10.003289388020834,3.5217363635698953,-18.262720266977947,-2.415753940741221
100,10.100000000000001,1.688875687768438e+18,10.098438037109375,-7.152396583557129,3.6318937301635743,4.434695863723755,1.688875687768438e+18,10.098438037109375,-3.856153392791748,-5.243990451097488,2.0193030148744584,1.688875687768438e+18,10.098438037109375,3.273441767692566,-8.860139083862304,-2.480106234550476,1.688875687768438e+18,10.098438037109375,-0.05097670555114751,5.187986898422241,-1.8952705144882203,1.688875687768438e+18,10.098438037109375,-0.0519235730171204,5.192507219314575,-1.893132495880127,,,,,,,,,,,,1.6888756877709942e+18,10.100994091796874,-12.507439708709716,49.20869903564453,1.1480199821293353,1.6888756877709942e+18,10.100994091796874,-267.90223693847656,144.4418960571289,-132.2101791381836,1.688875687768438e+18,10.098438037109375,-0.3352074146270752,0.3601790130138397,-0.4541574239730835,0.7391583323478699,0.6297364354133606,1.1592950820922852,0.42497979998588564,1.688875687768438e+18,10.098438037109375,-3.8788851737976073,-5.228437054157257,1.954696822166443
101,10.200000000000001,1.6888756878635837e+18,10.19358378092448,-4.766173119346301,-0.004595359166463216,-5.609310666720073,1.6888756878635837e+18,10.19358378092448,-4.561417885435124,-9.567302465438843,-7.706683456897736,1.6888756878635837e+18,10.19358378092448,0.1819538536171118,-9.546961943308512,-2.162086327870687,1.6888756878635837e+18,10.19358378092448,-1.174490253130595,2.7719283550977707,-1.7535650332768757,1.6888756878635837e+18,10.19358378092448,-1.1754828890164692,2.7763825356960297,-1.7514525006214778,1.6888756878376364e+18,10.16763623046875,0.0,0.0,1.0142457485198977,22.874000549316406,0.0045778290368616,0.0,41.0,-122.7530737,49.1906053,1.688875687870993e+18,10.200992822265624,-0.7673800021409989,50.497018814086914,-1.34322000592947,1.688875687870993e+18,10.200992822265624,-256.16217346191405,145.73022003173827,-134.7014175415039,1.6888756878635837e+18,10.19358378092448,-0.425330917040507,0.5174021472533544,-0.4723488390445709,0.5714192688465118,1.5162528157234192,1.374672810236613,-0.04720105727513629,1.6888756878635837e+18,10.19358378092448,-4.584149676995972,-9.551749388376871,-7.771289815505345
102,10.3,1.6888756879673815e+18,10.297381388346354,2.188260495662689,3.148978312810262,-1.4298500219980876,1.6888756879673815e+18,10.297381388346354,0.8143573005994161,-6.3896340529123945,-3.2513474424680076,1.6888756879673815e+18,10.297381388346354,-1.3967046936353047,-9.522867202758789,-1.8862109382947285,1.6888756879673815e+18,10.297381388346354,-0.0627664091686408,2.0971258083979287,-0.5869396713872751,1.6888756879673815e+18,10.297381388346354,-0.06370815758903824,2.101605494817098,-0.5848016661281387,,,,,,,,,,,,1.6888756879709906e+18,10.300990454101562,4.463979935646057,50.31157875061035,-2.884079933166504,1.6888756879709906e+18,10.300990454101562,-250.93081359863282,145.544775390625,-136.24227600097657,1.6888756879673815e+18,10.297381388346354,-0.45766185224056244,0.604874849319458,-0.4492486268281936,0.47114158670107525,2.279187719027201,1.3595275084177654,-0.5652593672275543,1.6888756879673815e+18,10.297381388346354,0.7916255195935568,-6.374080737431844,-3.3159536321957908
103,10.4,1.688875688071181e+18,10.401180786132812,1.2798473238945007,-0.41517829895019526,-5.0862770875295,1.688875688071181e+18,10.401180786132812,-0.7603193748121461,-9.931510130564371,-6.312365730603536,1.688875688071181e+18,10.401180786132812,-2.062968134880066,-9.500586668650309,-1.2908021410306294,1.688875688071181e+18,10.401180786132812,-0.35979963342348736,0.9390526016553243,-0.2806925917975605,1.688875688071181e+18,10.401180786132812,-0.36076682806015015,0.9434813807408015,-0.27855456667020917,,,,,,,,,,,,1.688875688070994e+18,10.4009939453125,6.018259859085083,49.72963905334473,-5.733999919891358,1.688875688070994e+18,10.4009939453125,-249.37653503417968,144.96284027099608,-139.09219818115236,1.688875688071181e+18,10.401180786132812,-0.48473358651002246,0.6397993365923563,-0.43612395723660785,0.40645274519920344,2.6859739621480307,1.3462479909261067,-0.8304411967595419,1.688875688071181e+18,10.401180786132812,-0.7830512275298437,-9.915956735610962,-6.376972079277039
104,10.5,1.688875688174978e+18,10.504978068033855,-0.4943152765432994,-3.1453117529551187,-5.549999753634135,1.688875688174978e+18,10.504978068033855,-1.5746767297387123,-12.635499556859335,-7.592027584711711,1.688875688174978e+18,10.504978068033855,-1.1031628400087357,-9.474442640940348,-2.1067413489023843,1.688875688174978e+18,10.504978068033855,1.6008741458257039,-1.4258358379205067,1.872378336886565,1.688875688174978e+18,10.504978068033855,1.5999324421087902,-1.4213561813036601,1.874516357978185,,,,,,,,,,,,1.688875688170991e+18,10.500991015625,2.346059930510819,50.19445953369141,-2.5302799463272097,1.688875688170991e+18,10.500991015625,-253.04873657226562,145.4276596069336,-135.88847808837892,1.688875688174978e+18,10.504978068033855,-0.4908538709084193,0.6266160905361176,-0.3966851681470871,0.4545770734548569,2.1025587916374207,1.345159610112508,-0.2629871815443039,1.688875688174978e+18,10.504978068033855,-1.5974085753162701,-12.619945764541626,-7.656633615493774
105,10.600000000000001,1.6888756882701225e+18,10.60012255859375,-2.682716941833496,-11.908260726928711,1.10162296295166,1.6888756882701225e+18,10.60012255859375,-1.1400603473186492,-20.919371795654296,-2.3644676923751833,1.6888756882701225e+18,10.60012255859375,1.5198551297187806,-8.99536590576172,-3.53080415725708,1.6888756882701225e+18,10.60012255859375,1.2337034463882446,-1.7500067353248596,2.459251856803894,1.6888756882701225e+18,10.60012255859375,1.23272602558136,-1.7455474615097046,2.4613898754119874,,,,,,,,,,,,1.6888756882709947e+18,10.600994677734374,-10.001559829711914,49.19161872863769,4.862919926643372,1.6888756882709947e+18,10.600994677734374,-265.39635314941404,144.42481536865233,-128.49527740478516,1.6888756882701225e+18,10.60012255859375,-0.4874276340007782,0.5544363021850586,-0.3327424585819244,0.5854911208152771,1.1269416570663453,1.1944895029067992,0.5697527825832367,1.6888756882701225e+18,10.60012255859375,-1.1627921342849732,-20.903818321228027,-2.4290739774703978
106,10.700000000000001,1.6888756883652703e+18,10.695270345052082,-6.424120525519053,3.760817845662435,1.4929910898208618,1.6888756883652703e+18,10.695270345052082,-2.4053849975268045,-4.356831560221811,-2.1838494489590325,1.6888756883652703e+18,10.695270345052082,3.995934168497721,-8.101904153823853,-3.7415539820988974,1.6888756883652703e+18,10.695270345052082,1.6110043227672577,-4.190586487452189,1.182075132926305,1.6888756883652703e+18,10.695270345052082,1.6100626190503438,-4.18610684076945,1.1842131614685059,1.6888756883566241e+18,10.6866240234375,0.0,0.0,1.0142457485198977,23.131000518798828,0.0134467715397477,0.0,41.0,-122.7530676,49.1905862,1.688875688370991e+18,10.700991064453124,-20.452079582214356,46.14527893066406,6.461119937896728,1.688875688370991e+18,10.700991064453124,-275.846875,141.37847900390625,-126.89707794189454,1.6888756883652703e+18,10.695270345052082,-0.4304252217213313,0.4378356337547302,-0.3219537188609441,0.717599888642629,0.7171877920627594,1.0030428965886433,0.67348712682724,1.6888756883652703e+18,10.695270345052082,-2.4281168282032013,-4.341278186417185,-2.248455641170343
107,10.8,1.6888756884690716e+18,10.79907157389323,-5.432901064554851,8.985700289408365,4.57065071662267,1.6888756884690716e+18,10.79907157389323,0.02243269483248393,1.1540383361279964,2.3274188290039697,1.6888756884690716e+18,10.79907157389323,5.43253223101298,-7.815916856129964,-2.307945430278778,1.6888756884690716e+18,10.79907157389323,-0.08300131435195603,-2.556903749704361,-0.9681196299691995,1.6888756884690716e+18,10.79907157389323,-0.0839430677394072,-2.552449509501457,-0.9659815899406871,,,,,,,,,,,,1.688875688470992e+18,10.800991845703125,-23.436199569702147,45.30347900390625,0.6807599604129791,1.688875688470992e+18,10.800991845703125,-278.83098754882815,140.53667907714845,-132.67743682861328,1.6888756884690716e+18,10.79907157389323,-0.35327312846978504,0.2933941185474395,-0.37693849702676135,0.8032763501008352,0.36052023867766064,0.9516411125659943,0.6423673033714294,1.6888756884690716e+18,10.79907157389323,-0.00029910604159037274,1.1695917105923097,2.262812614440918
108,10.9,1.6888756885728686e+18,10.902868693033854,7.608104944229126,-7.483330726623535,-2.4660998980204263,1.6888756885728686e+18,10.902868693033854,11.681461016337076,-16.1845539410909,-4.458327074845632,1.6888756885728686e+18,10.902868693033854,4.050554633140564,-8.68547789255778,-2.0569406549135842,1.6888756885728686e+18,10.902868693033854,0.5320890843868256,-1.1363621254762013,-1.358437051375707,1.6888756885728686e+18,10.902868693033854,0.5311727921168009,-1.1318823844194412,-1.3563244715332985,,,,,,,,,,,,1.6888756885709919e+18,10.900991821289063,-13.6786395072937,48.643838500976564,-0.40747998356819154,1.6888756885709919e+18,10.900991821289063,-269.0734375,143.87703704833984,-133.76567687988282,1.6888756885728686e+18,10.902868693033854,-0.2986378272374471,0.29459268848101294,-0.4641103545824687,0.7793851892153422,0.4357661058505376,1.1203425526618958,0.4545946270227432,1.6888756885728686e+18,10.902868693033854,11.658728996912638,-16.16900046666463,-4.522933264573415
109,11.0,1.6888756886766615e+18,11.006661661783854,-7.002479076385498,-1.781343936920166,2.848927140235901,1.6888756886766615e+18,11.006661661783854,-3.108376403649648,-10.494321823120117,0.5672983328501383,1.6888756886766615e+18,11.006661661783854,3.8713010946909585,-8.697232723236084,-2.3463422854741416,1.6888756886766615e+18,11.006661661783854,-0.1829541424910228,2.3652701949079833,0.010537434369325638,1.6888756886766615e+18,11.006661661783854,-0.1838959058125814,2.3697753374775252,0.012675456702709179,,,,,,,,,,,,1.6888756886709937e+18,11.000993676757812,-12.536719703674317,49.11719970703125,0.9784399695694447,1.6888756886709937e+18,11.000993676757812,-267.9315185546875,144.35039825439452,-132.37975463867187,1.6888756886766615e+18,11.006661661783854,-0.29313486814498896,0.3119534502426783,-0.4618461032708486,0.775276392698288,0.5147109478712082,1.1228407224019368,0.3949164052804311,1.6888756886766615e+18,11.006661661783854,-3.131108204523722,-10.478768507639566,0.5026921232541403
110,11.100000000000001,1.6888756887718113e+18,11.101811376953126,-5.526902770996093,1.5528928756713867,2.8083940505981446,1.6888756887718113e+18,11.101811376953126,-3.605026423931122,-7.497072219848633,-0.2740978330373764,1.6888756887718113e+18,11.101811376953126,1.8990749061107635,-9.034219932556152,-3.1472054004669188,1.6888756887718113e+18,11.101811376953126,-0.7880466997623443,5.861496448516846,-1.818973469734192,1.6888756887718113e+18,11.101811376953126,-0.7889630123972893,5.8659556865692135,-1.8168354272842406,,,,,,,,,,,,1.6888756887709914e+18,11.100991235351563,-7.840940046310425,49.81869888305664,3.3171799182891846,1.6888756887709914e+18,11.100991235351563,-263.23573303222656,145.05189666748046,-130.0410171508789,1.6888756887718113e+18,11.101811376953126,-0.3743892192840576,0.4636213660240173,-0.4334893524646759,0.670285427570343,1.034461534023285,1.2052803754806518,0.26355137825012204,1.6888756887718113e+18,11.101811376953126,-3.6277583956718447,-7.481518745422363,-0.33870403915643693
111,11.200000000000001,1.6888756888669604e+18,11.196960530598957,-1.1728715499242146,0.896214485168457,-4.337880849838257,1.6888756888669604e+18,11.196960530598957,-1.7028920849164324,-8.632606029510498,-6.534698963165283,1.6888756888669604e+18,11.196960530598957,-0.5528220143169165,-9.513075351715088,-2.261531670888265,1.6888756888669604e+18,11.196960530598957,-0.728838582833608,2.021811231970787,-1.3461179236570995,1.6888756888669604e+18,11.196960530598957,-0.7297803511222204,2.026265482107798,-1.3439799050490062,1.6888756888756114e+18,11.205611328125,0.0,0.0,1.024652361869812,23.55900001525879,0.0214076545089483,0.0,41.0,-122.7530634,49.1905781,1.6888756888709898e+18,11.200989770507812,1.7433799356222153,50.46773910522461,-1.5079199492931366,1.6888756888709898e+18,11.200989770507812,-253.6514129638672,145.70093841552733,-134.86611785888672,1.6888756888669604e+18,11.196960530598957,-0.43900435169537855,0.5662013292312622,-0.4538856198390325,0.5282336821158727,1.8364747365315754,1.3570317228635151,-0.24240196651468673,1.6888756888669604e+18,11.196960530598957,-1.725623885790507,-8.617052793502808,-6.599305152893066
112,11.3,1.6888756889707581e+18,11.300758260091145,2.12383496761322,2.813136418660482,-2.1893731156984964,1.6888756889707581e+18,11.300758260091145,0.48644085725148517,-6.669793764750163,-4.074478407700856,1.6888756889707581e+18,11.300758260091145,-1.6601956288019817,-9.467185020446777,-1.9498187899589539,1.6888756889707581e+18,11.300758260091145,-0.23556490490833917,2.1864139437675476,-0.10425433393296162,1.6888756889707581e+18,11.300758260091145,-0.23653210699558258,2.1908427079518638,-0.10211631203613557,,,,,,,,,,,,1.688875688970993e+18,11.300992944335936,3.68073992729187,50.14443855285644,-2.211859941482544,1.688875688970993e+18,11.300992944335936,-251.71405487060548,145.37763519287108,-135.57005615234374,1.6888756889707581e+18,11.300758260091145,-0.4818563560644786,0.6442204415798187,-0.40530062715212506,0.432991956671079,2.33343497912089,1.336840569972992,-0.4717279424269994,1.6888756889707581e+18,11.300758260091145,0.4637090712785721,-6.654240369796753,-4.139084716637929
113,11.4,1.688875689074549e+18,11.40454923502604,0.8868542909622192,-0.6897187232971191,-6.83798623085022,1.688875689074549e+18,11.40454923502604,-1.1383853455384572,-10.18774159749349,-8.226225217183432,1.688875689074549e+18,11.40454923502604,-2.048041065533956,-9.482277711232504,-1.4529524445533752,1.688875689074549e+18,11.40454923502604,0.012013673782348577,0.297109584013621,0.15368351355815926,1.688875689074549e+18,11.40454923502604,0.011021029204130173,0.3015638043483098,0.15582154629131156,,,,,,,,,,,,1.6888756890709885e+18,11.4009884765625,4.468859910964966,49.70523910522461,-4.9275798320770265,1.6888756890709885e+18,11.4009884765625,-250.92593536376953,144.93843536376954,-138.28577728271483,1.688875689074549e+18,11.40454923502604,-0.5051644990841547,0.6665325363477071,-0.39140797158082324,0.38377468287944794,2.604541619618734,1.3415217796961467,-0.631910502910614,1.688875689074549e+18,11.40454923502604,-1.1611172209183376,-10.17218812306722,-8.290831327438354
114,11.5,1.6888756891696952e+18,11.49969521484375,-1.1446272134780884,-5.164188957214355,-3.4992837429046633,1.6888756891696952e+18,11.49969521484375,-1.7927026987075805,-14.614642524719239,-5.916134214401245,1.6888756891696952e+18,11.49969521484375,-0.6708769291639328,-9.434708404541016,-2.481563997268677,1.6888756891696952e+18,11.49969521484375,1.5932281970977784,-2.3626739978790283,2.100643444061279,1.6888756891696952e+18,11.49969521484375,1.5923119068145752,-2.358214783668518,2.102781438827515,,,,,,,,,,,,1.6888756891709875e+18,11.5009873046875,-1.1846200287342072,50.074898910522464,-0.8637600064277648,1.6888756891709875e+18,11.5009873046875,-256.57941284179685,145.30809783935547,-134.22195892333986,1.6888756891696952e+18,11.49969521484375,-0.5047019422054291,0.630549955368042,-0.3609589099884033,0.46409711241722107,1.8559663772583008,1.3301319360733033,0.02862278968095776,1.6888756891696952e+18,11.49969521484375,-1.815434503555298,-14.599089431762696,-5.980740499496461
115,11.600000000000001,1.6888756892648456e+18,11.594845499674479,-3.2027449111143746,-8.889455318450928,1.3411925633748372,1.6888756892648456e+18,11.594845499674479,-1.3265209893385572,-17.74746576944987,-2.3328026831150055,1.6888756892648456e+18,11.594845499674479,1.8534225324789684,-8.842265288035074,-3.738708734512329,1.6888756892648456e+18,11.594845499674479,1.3320425748825073,-2.368706295887629,1.95405608912309,1.6888756892648456e+18,11.594845499674479,1.3311008016268413,-2.3642520954211554,1.9561686565478642,,,,,,,,,,,,1.6888756892709875e+18,11.600987670898437,-13.859199714660644,48.19731903076172,5.920659923553467,1.6888756892709875e+18,11.600987670898437,-269.2539978027344,143.430517578125,-127.43753814697266,1.6888756892648456e+18,11.594845499674479,-0.49698056777318317,0.553548683722814,-0.3069570213556289,0.59157062570254,1.076080193122228,1.1538790464401245,0.6501159320274988,1.6888756892648456e+18,11.594845499674479,-1.349252978960673,-17.73191277186076,-2.39740888774395
116,11.700000000000001,1.6888756893686408e+18,11.698640950520833,-7.4185551404953,5.628921190897624,2.279271920522054,1.6888756893686408e+18,11.698640950520833,-2.9715865602095923,-2.321037928263346,-1.2838490170737107,1.6888756893686408e+18,11.698640950520833,4.424167076746623,-7.934213876724243,-3.627834439277649,1.6888756893686408e+18,11.698640950520833,1.1630365339418252,-4.095164338747661,1.0902926524480183,1.6888756893686408e+18,11.698640950520833,1.162043858319521,-4.090659141540527,1.0924306909243267,,,,,,,,,,,,1.688875689370986e+18,11.700985791015626,-22.306479835510252,45.359598541259764,5.288699913024902,1.688875689370986e+18,11.700985791015626,-277.70127563476564,140.5927963256836,-128.06949844360352,1.6888756893686408e+18,11.698640950520833,-0.4248324930667877,0.4157701333363851,-0.31817496319611865,0.7359529733657837,0.653898020585378,0.9701252977053324,0.6916969319184622,1.6888756893686408e+18,11.698640950520833,-2.9943183859189353,-2.3054846425851188,-1.3484552204608917
117,11.8,1.6888756894724444e+18,11.802444417317709,-2.785397926966349,7.1482603549957275,4.760403076807658,1.6888756894724444e+18,11.802444417317709,2.6036901772022247,-0.7289135853449503,2.4970100969076157,1.6888756894724444e+18,11.802444417317709,5.366286675135295,-7.861428896586101,-2.3281065225601196,1.6888756894724444e+18,11.802444417317709,0.5194136326511701,-1.2063570320606232,-1.4962889850139618,1.6888756894724444e+18,11.802444417317709,0.5184718749175469,-1.201902762055397,-1.4941509415705998,,,,,,,,,,,,1.688875689470991e+18,11.800991137695313,-22.85913963317871,45.30347862243652,-0.1671399949118495,1.688875689470991e+18,11.800991137695313,-278.2539367675781,140.53667602539062,-133.52533721923828,1.6888756894724444e+18,11.802444417317709,-0.35307734211285907,0.29770718514919275,-0.3788330852985382,0.8013888696829478,0.37648946046829224,0.9578118820985159,0.6315336227416992,1.6888756894724444e+18,11.802444417317709,2.580958306789398,-0.7133602499961853,2.4324038848280907
