seconds_elapsed_rounded,accelerometer_time,accelerometer_seconds_elapsed,accelerometer_z,accelerometer_y,accelerometer_x,accelerometeruncalibrated_time,accelerometeruncalibrated_seconds_elapsed,accelerometeruncalibrated_z,accelerometeruncalibrated_y,accelerometeruncalibrated_x,gravity_time,gravity_seconds_elapsed,gravity_z,gravity_y,gravity_x,gyroscope_time,gyroscope_seconds_elapsed,gyroscope_z,gyroscope_y,gyroscope_x,gyroscopeuncalibrated_time,gyroscopeuncalibrated_seconds_elapsed,gyroscopeuncalibrated_z,gyroscopeuncalibrated_y,gyroscopeuncalibrated_x,location_time,location_seconds_elapsed,location_bearingAccuracy,location_speedAccuracy,location_verticalAccuracy,location_horizontalAccuracy,location_speed,location_bearing,location_altitude,location_longitude,location_latitude,magnetometer_time,magnetometer_seconds_elapsed,magnetometer_z,magnetometer_y,magnetometer_x,magnetometeruncalibrated_time,magnetometeruncalibrated_seconds_elapsed,magnetometeruncalibrated_z,magnetometeruncalibrated_y,magnetometeruncalibrated_x,orientation_time,orientation_seconds_elapsed,orientation_qz,orientation_qy,orientation_qx,orientation_qw,orientation_roll,orientation_pitch,orientation_yaw
0.0,1.6888758576711473e+18,180.00114721679688,-8.265719413757324,11.427746454874674,1.5665154059727986,1.6888758576711473e+18,180.00114721679688,-4.273780504862468,2.6043879985809326,3.3268210887908936,1.6888758576711473e+18,180.00114721679688,3.969137271245321,-8.807613054911295,1.695592204729716,1.6888758576711473e+18,180.00114721679688,0.0299833025783299,-3.0740265448888144,0.0463748514497031,1.6888758576711473e+18,180.00114721679688,0.0293215401470661,-3.069343328475952,0.0487674111500382,,,,,,,,,,,,1.6888758576660006e+18,179.99600078125,-3.869839859008789,49.06352005004883,-11.070279693603515,1.6888758576660006e+18,179.99600078125,-259.496435546875,143.91851806640625,-144.1966766357422,1.6888758576711473e+18,180.00114721679688,-0.0340015900631745,-0.082322838405768,-0.5407192508379618,0.8362530867258707,-0.4100279013315837,1.11765722433726,0.3398678104082743
0.05,1.6888758577230472e+18,180.05304720052084,-3.4368789196014404,8.461946487426758,1.3168388605117796,1.6888758577230472e+18,180.05304720052084,0.3722833146651585,-0.411565468336145,3.2267212867736816,1.6888758577230472e+18,180.05304720052084,3.7863606611887617,-8.8577667872111,1.8451689879099529,1.6888758577230472e+18,180.05304720052084,1.0098620454470315,-1.4424055417378745,-0.678416778643926,1.6888758577230472e+18,180.05304720052084,1.009149392445882,-1.4377222259839375,-0.6759732961654663,,,,,,,,,,,,1.6888758577159972e+18,180.04599736328126,-2.5961599349975586,49.16599960327149,-10.567639923095705,1.6888758577159972e+18,180.04599736328126,-258.22275390625,144.02099609375,-143.69403686523438,1.6888758577230472e+18,180.05304720052084,-0.0038754359508554,-0.1113677521546681,-0.5442903637886047,0.8313485383987427,-0.4597290456295013,1.1297557353973389,0.3038086990515391
0.1,1.688875857774947e+18,180.10494702148438,10.172256787618002,-4.664229869842529,2.170136014620463,1.688875857774947e+18,180.10494702148438,13.220345179239908,-13.88315693537394,3.770889163017273,1.688875857774947e+18,180.10494702148438,3.0252869923909507,-9.203181902567543,1.5360397100448608,1.688875857774947e+18,180.10494702148438,0.7406232059001923,-0.361224964261055,-0.994895855585734,1.688875857774947e+18,180.10494702148438,0.7399614453315735,-0.3565925856431325,-0.9925032655398052,1.6888758577662945e+18,180.09629443359376,0.0,0.0,1.1154385805130005,6.794000148773193,1.8046393394470217,5.821417331695557,35.685890187759284,-122.7499739,49.191475,1.6888758577659968e+18,180.09599682617187,2.174039936065674,49.446598815917966,-7.993439674377441,1.6888758577659968e+18,180.09599682617187,-253.45255126953128,144.30159606933594,-141.11983947753907,1.688875857774947e+18,180.10494702148438,0.0266631549845138,-0.116529087225596,-0.5784721175829569,0.8068471749623617,-0.4776789049307505,1.2219357093175252,0.2716774741808573
0.15,1.688875857826842e+18,180.1568421223958,5.429101308186849,-3.7030011812845873,8.0300399462382,1.688875857826842e+18,180.1568421223958,8.766504605611166,-12.719248294830322,10.132606824239096,1.688875857826842e+18,180.1568421223958,3.3146021366119385,-9.000501950581869,2.037853399912516,1.688875857826842e+18,180.1568421223958,-0.6058765153090159,-3.2501593430836997,1.7083864609400432,1.688875857826842e+18,180.1568421223958,-0.6065382758776346,-3.245577891667684,1.7107789913813274,,,,,,,,,,,,1.6888758578159964e+18,180.14599633789064,2.8938400030136107,49.4368392944336,-7.89095983505249,1.6888758578159964e+18,180.14599633789064,-252.73275451660157,144.29183959960938,-141.0173583984375,1.688875857826842e+18,180.1568421223958,0.0485694197316964,-0.1602071970701216,-0.5547446211179098,0.8144843777020773,-0.5569718281428019,1.1682197252909343,0.2542046904563903
0.2,1.6888758578700846e+18,180.2000848388672,-12.927299976348875,-8.348738670349121,7.908655166625977,1.6888758578700846e+18,180.2000848388672,-9.173783004283903,-17.026428699493408,10.666007041931152,1.6888758578700846e+18,180.2000848388672,3.7307149171829224,-8.66194486618042,2.692638397216797,1.6888758578700846e+18,180.2000848388672,-2.1663572788238525,2.7507261633872986,0.9034696966409684,1.6888758578700846e+18,180.2000848388672,-2.1670444011688232,2.755307734012604,0.905913144350052,,,,,,,,,,,,1.68887585786599e+18,180.19599013671876,-0.314760011434555,48.968359375,-10.814079856872558,1.68887585786599e+18,180.19599013671876,-255.94135131835935,143.82335510253907,-143.9404754638672,1.6888758578700846e+18,180.2000848388672,0.029683562926948,-0.1846760734915732,-0.5278697907924652,0.8282289803028107,-0.6330220401287079,1.0881084203720093,0.3195606619119644
0.25,1.6888758579133368e+18,180.2433369140625,-5.1927930514017735,-6.179290135701497,-5.0346310933430996,1.6888758579133368e+18,180.2433369140625,-1.536391655604045,-14.962917963663736,-2.5367907285690308,1.6888758579133368e+18,180.2433369140625,3.6335999170939126,-8.767882664998373,2.4331267674764,1.6888758579133368e+18,180.2433369140625,1.1017972839375336,0.997237509737412,-2.3091216137011847,1.6888758579133368e+18,180.2433369140625,1.1011864033838112,1.0019717377920945,-2.306729033589363,,,,,,,,,,,,1.6888758579159946e+18,180.24599458007813,-1.229759979248047,48.44131851196289,-12.163399696350098,1.6888758579159946e+18,180.24599458007813,-256.8563629150391,143.29631652832032,-145.2897979736328,1.6888758579133368e+18,180.2433369140625,0.0090490061168868,-0.156098316113154,-0.5402305523554484,0.8264299829800924,-0.5959979097048441,1.1115652720133464,0.3553750514984131
0.3,1.6888758579652396e+18,180.29523966471356,-8.518476963043213,-1.6862869262695312,-0.3479060729344685,1.6888758579652396e+18,180.29523966471356,-7.00239626566569,-11.307881355285645,0.7435696621735891,1.6888758579652396e+18,180.29523966471356,1.49327951669693,-9.605849266052246,1.0267622272173562,1.6888758579652396e+18,180.29523966471356,1.7647897005081177,5.95527442296346,-5.6943840980529785,1.6888758579652396e+18,180.29523966471356,1.7640770475069685,5.96000862121582,-5.691940625508626,,,,,,,,,,,,1.6888758579659912e+18,180.295991015625,8.727879953384399,48.17291946411133,-8.3155198097229,1.6888758579659912e+18,180.295991015625,-246.89871520996093,143.02792053222657,-141.4419158935547,1.6888758579652396e+18,180.29523966471356,-0.029246344231069,-0.0423688720911741,-0.6479686498641968,0.7572602232297262,-0.6543708642323812,1.3839757045110066,0.6353362003962199
0.35,1.6888758580171354e+18,180.34713509114584,-3.9053232272466025,2.1198477745056152,3.307274480660757,1.6888758580171354e+18,180.34713509114584,-4.206981023152669,-7.668198744455974,4.120041648546855,1.6888758580171354e+18,180.34713509114584,-0.3244592706517626,-9.77230135599772,0.7480537295341492,1.6888758580171354e+18,180.34713509114584,-0.3698280056317647,6.226651191711426,-2.5727099577585855,1.6888758580171354e+18,180.34713509114584,-0.3704897612333298,6.2313346068064375,-2.5702664057413735,,,,,,,,,,,,1.6888758580159903e+18,180.34599052734376,16.765239334106447,45.74511947631836,-11.328919601440427,1.6888758580159903e+18,180.34599052734376,-238.86135559082032,140.60011596679686,-144.4553192138672,1.6888758580171354e+18,180.34713509114584,-0.1485977073510487,0.0999473184347152,-0.7104811867078146,0.6790538231531779,-1.905510107676188,1.485447645187378,2.259529153505961
0.4,1.6888758580690378e+18,180.39903767903647,-3.5628394285837808,2.313894430796305,-2.8528443972269693,1.6888758580690378e+18,180.39903767903647,-5.025326410929362,-7.340382099151611,-1.810967892408371,1.6888758580690378e+18,180.39903767903647,-1.4852883617083232,-9.638531366984049,0.9771629373232524,1.6888758580690378e+18,180.39903767903647,-0.2644537389278411,1.0920743296543756,-2.8007662296295166,1.6888758580690378e+18,180.39903767903647,-0.2651155193646748,1.0967576429247856,-2.798424561818441,,,,,,,,,,,,1.688875858065991e+18,180.395991015625,20.46915969848633,42.90495834350586,-16.028359603881835,1.688875858065991e+18,180.395991015625,-235.15743408203124,137.75995483398438,-149.15475463867188,1.6888758580690378e+18,180.39903767903647,-0.1985232383012771,0.1573284665743509,-0.7410500248273214,0.621416449546814,-2.529056946436564,1.390290300051371,0.9456363519032795
0.45,1.6888758581209388e+18,180.4509387207031,9.622971773147585,1.7142264048258464,-4.819557984670003,1.6888758581209388e+18,180.4509387207031,7.109674173096816,-7.692326545715332,-3.506083329518636,1.6888758581209388e+18,180.4509387207031,-2.5360987981160483,-9.390807787577312,1.2487611770629885,1.6888758581209388e+18,180.4509387207031,-0.4793765048185984,1.90717218319575,-1.896634817123413,1.6888758581209388e+18,180.4509387207031,-0.4800891776879628,1.911753644545873,-1.894242246945699,,,,,,,,,,,,1.6888758581159913e+18,180.44599130859373,25.20519943237305,40.32099838256836,-17.30447998046875,1.6888758581159913e+18,180.44599130859373,-230.42139282226563,135.17599792480468,-150.43087768554688,1.6888758581209388e+18,180.4509387207031,-0.2113603303829828,0.1748050500949223,-0.773045281569163,0.5715362826983134,-2.682325522104899,1.2801214456558228,-3.041442076365153
0.5,1.688875858172842e+18,180.5028420410156,1.794570525487264,2.0744481086730957,-4.065934340159099,1.688875858172842e+18,180.5028420410156,-1.244666576385498,-7.062615553538005,-2.096112608909607,1.688875858172842e+18,180.5028420410156,-3.0620385011037192,-9.121318499247232,1.9051082928975425,1.688875858172842e+18,180.5028420410156,-0.3020219604174296,2.9032898346583047,-1.4748323162396748,1.688875858172842e+18,180.5028420410156,-0.3026328285535176,2.9078713059425354,-1.4723888238271077,,,,,,,,,,,,1.6888758581659914e+18,180.49599135742187,25.185679626464843,37.65895919799805,-22.5041202545166,1.6888758581659914e+18,180.49599135742187,-230.44091186523437,132.51395263671876,-155.6305145263672,1.688875858172842e+18,180.5028420410156,-0.2789724171161651,0.2304757138093311,-0.7764963308970133,0.5154640674591064,-2.5821492671966553,1.193065841992696,-2.949772675832113
0.55,1.6888758582247478e+18,180.55474780273437,4.612273216247559,-2.8150993982950845,-5.145884354909261,1.6888758582247478e+18,180.55474780273437,1.2073783924182255,-11.763116518656412,-2.916252613067627,1.6888758582247478e+18,180.55474780273437,-3.427696466445923,-8.932271957397461,2.1649183432261148,1.6888758582247478e+18,180.55474780273437,-0.6249151627222697,-0.1063923587401707,-0.7408777276674906,1.6888758582247478e+18,180.55474780273437,-0.6256278157234192,-0.1017090628544489,-0.7384342551231384,,,,,,,,,,,,1.6888758582159982e+18,180.54599838867188,25.90547981262207,35.66059951782226,-24.883119583129883,1.6888758582159982e+18,180.54599838867188,-229.7211151123047,130.51559753417968,-158.0095184326172,1.6888758582247478e+18,180.55474780273437,-0.2885484198729196,0.2348034779230753,-0.7876313527425131,0.4911203086376189,-2.5739639600118003,1.141325831413269,-2.9322818915049234
0.6,1.688875858276644e+18,180.6066443684896,6.72895622253418,-2.9346240361531577,-5.104052146275838,1.688875858276644e+18,180.6066443684896,3.2277182936668396,-11.81874942779541,-2.766900618871053,1.688875858276644e+18,180.6066443684896,-3.5240392684936523,-8.868380228678385,2.2724379698435464,1.688875858276644e+18,180.6066443684896,0.195171445608139,0.6804021000862122,0.0556396345297495,1.688875858276644e+18,180.6066443684896,0.1944587702552477,0.6850344638029734,0.0580322047074635,1.6888758582852923e+18,180.61529223632812,0.0,0.0,1.1154385805130005,6.795000076293945,1.791365623474121,7.5504984855651855,35.685890187759284,-122.7499668,49.1914845,1.688875858265996e+18,180.59599619140627,26.578919219970704,34.52599945068359,-26.042119216918945,1.688875858265996e+18,180.59599619140627,-229.04767456054688,129.38099975585936,-159.16851806640625,1.688875858276644e+18,180.6066443684896,-0.2964209119478861,0.240613654255867,-0.7894964615503947,0.4805122911930084,-2.5628307660420737,1.1230177879333496,-2.9202500184377036
0.65,1.6888758583198927e+18,180.6498928222656,3.645182251930237,-1.9251575469970703,-0.6332553029060364,1.6888758583198927e+18,180.6498928222656,0.9586246013641356,-11.065309047698976,1.787139356136322,1.6888758583198927e+18,180.6498928222656,-2.7093591690063477,-9.124406337738035,2.3556811809539795,1.6888758583198927e+18,180.6498928222656,0.0878882333636283,1.6140587329864502,2.9255863428115845,1.6888758583198927e+18,180.6498928222656,0.087124653160572,1.618716537952423,2.9279534816741943,,,,,,,,,,,,1.6888758583159951e+18,180.6459951171875,24.08035888671875,35.828958892822264,-26.74971923828125,1.6888758583159951e+18,180.6459951171875,-231.54623413085935,130.6839569091797,-159.87611694335936,1.6888758583198927e+18,180.6498928222656,-0.324695274233818,0.2454430535435676,-0.7615472376346588,0.504109799861908,-2.416762351989746,1.1869277954101562,-3.0199599266052246
0.7,1.688875858363145e+18,180.69314485677083,-8.784858544667562,-8.436450322469076,0.3869443337122599,1.688875858363145e+18,180.69314485677083,-10.125827153523764,-17.94616953531901,2.449452757835388,1.688875858363145e+18,180.69314485677083,-1.3637699286142986,-9.493974049886068,1.9977949460347493,1.688875858363145e+18,180.69314485677083,1.5528194308280945,-1.033380349477132,3.4093916416168213,1.688875858363145e+18,180.69314485677083,1.5521576801935832,-1.0287988781929016,3.411835114161174,,,,,,,,,,,,1.6888758583659986e+18,180.69599868164065,16.616399383544923,39.901319122314455,-26.14703941345215,1.6888758583659986e+18,180.69599868164065,-239.01019287109375,134.75632019042968,-159.2734375,1.688875858363145e+18,180.69314485677083,-0.3348617951075236,0.2404799958070118,-0.7167374690373739,0.5616643826166788,-2.155635436375936,1.3123159011205037,3.0014994144439697
0.75,1.6888758584150436e+18,180.7450436197917,2.317079027493795,-9.901734352111816,6.709356625874837,1.6888758584150436e+18,180.7450436197917,2.7467610438664756,-19.626928329467773,7.994819323221843,1.6888758584150436e+18,180.7450436197917,0.4068805873394012,-9.70944881439209,1.2207494974136353,1.6888758584150436e+18,180.7450436197917,0.8821403135855993,-3.530444860458374,4.36488676071167,1.6888758584150436e+18,180.7450436197917,0.8814785704016684,-3.525761604309082,4.367330233256022,,,,,,,,,,,,1.6888758584159962e+18,180.74599619140628,11.736399841308591,44.33723907470703,-21.03767967224121,1.6888758584159962e+18,180.74599619140628,-243.89019470214845,139.19223327636718,-154.16407775878906,1.6888758584150436e+18,180.7450436197917,-0.2768229444821675,0.1824185003836949,-0.6692915757497152,0.6637455224990845,-1.3146969477335613,1.4247316122055054,1.97823699315389
0.8,1.68887585846694e+18,180.79693994140624,-3.793870131174723,-8.286009788513184,4.829730232556661,1.68887585846694e+18,180.79693994140624,-1.6243278980255127,-17.799809137980144,6.035895037154357,1.68887585846694e+18,180.79693994140624,2.1467408339182534,-9.498054186503092,1.1414515177408855,1.68887585846694e+18,180.79693994140624,0.5169956088066102,-1.0112365086873372,2.9154052734375,1.68887585846694e+18,180.79693994140624,0.5163847506046295,-1.0066550374031067,2.917797883351644,,,,,,,,,,,,1.688875858465996e+18,180.79599604492188,4.421279859542847,46.26483840942383,-19.837199783325197,1.688875858465996e+18,180.79599604492188,-251.20531311035157,141.11983947753907,-152.9635986328125,1.68887585846694e+18,180.79693994140624,-0.267072707414627,0.1406053404013315,-0.6106966137886047,0.7317380507787069,-0.5233594874540964,1.3213448921839397,1.1129892071088154
0.85,1.6888758585188434e+18,180.8488433430989,-3.5694910685221353,-0.0588283538818357,-1.3644850651423135,1.6888758585188434e+18,180.8488433430989,-0.2311067779858907,-9.254440943400065,-0.3930211265881856,1.6888758585188434e+18,180.8488433430989,3.315582831700643,-9.17986742655436,0.906750480333964,1.6888758585188434e+18,180.8488433430989,1.168839732805888,-1.9922351837158203,2.9182560443878174,1.6888758585188434e+18,180.8488433430989,1.1681779821713765,-1.9876028299331665,2.9206485748291016,,,,,,,,,,,,1.6888758585159974e+18,180.84599741210937,-0.0683199763298035,47.52875900268555,-17.070239639282228,1.6888758585159974e+18,180.84599741210937,-255.69491271972657,142.38375549316407,-150.19664001464844,1.6888758585188434e+18,180.8488433430989,-0.2193961491187413,0.098079944650332,-0.5684305826822916,0.7864776849746704,-0.2841450969378153,1.2152174711227417,0.7443960309028625
0.9,1.6888758585707418e+18,180.9007416992187,-8.623804410298666,8.442275365193685,1.4196329315503438,1.6888758585707418e+18,180.9007416992187,-4.367898464202881,-0.3415754185989499,2.6554348866144815,1.6888758585707418e+18,180.9007416992187,4.233104546864827,-8.768105506896973,1.1710884769757588,1.6888758585707418e+18,180.9007416992187,-0.0760018229484558,-2.7230846087137857,1.6321810285250349,1.6888758585707418e+18,180.9007416992187,-0.0767144908507664,-2.71850307782491,1.634624461332957,,,,,,,,,,,,1.688875858565994e+18,180.89599418945312,-5.172799873352051,47.887438201904295,-15.655039596557618,1.688875858565994e+18,180.89599418945312,-260.7993957519531,142.74243774414063,-148.78143615722655,1.6888758585707418e+18,180.9007416992187,-0.1880110005537668,0.0479960646480321,-0.5311254262924194,0.8244677186012268,-0.2722573727369308,1.1068588892618816,0.6169070402781168
0.95,1.6888758586226422e+18,180.9526421712239,-9.085744539896648,10.11800479888916,0.6308040221532186,1.6888758586226422e+18,180.9526421712239,-4.861218531926473,1.473579963048299,2.716053088506063,1.6888758586226422e+18,180.9526421712239,4.201724688212077,-8.628679275512695,2.0205355882644653,1.6888758586226422e+18,180.9526421712239,-0.0410806909203529,-3.165300130844116,0.4066326320171356,1.6888758586226422e+18,180.9526421712239,-0.0417424614230791,-3.1606167952219644,0.4090760846932729,,,,,,,,,,,,1.6888758586159977e+18,180.94599775390623,-5.109359979629517,47.80935897827148,-16.977519607543947,1.6888758586159977e+18,180.94599775390623,-260.7359558105469,142.66435852050782,-150.10391845703126,1.6888758586226422e+18,180.9526421712239,-0.1508082598447799,-0.0275284331291913,-0.5326489210128784,0.8320464889208475,-0.4469508330027262,1.0727092425028482,0.6271071434020996
1.0,1.6888758586745434e+18,181.00454321289064,-1.1211852232615154,8.59091567993164,-1.4760847489039104,1.6888758586745434e+18,181.00454321289064,3.0285160144170127,0.0203389624754589,1.0414760410785675,1.6888758586745434e+18,181.00454321289064,4.126899719238281,-8.554831186930338,2.4528473218282065,1.6888758586745434e+18,181.00454321289064,0.7507024804751078,-2.429309288660685,0.4445062801241874,1.6888758586745434e+18,181.00454321289064,0.7499388953049978,-2.424626032511393,0.4469497228662173,,,,,,,,,,,,1.688875858665991e+18,180.9959908691406,-3.3671998977661133,47.72639846801758,-16.843320083618163,1.688875858665991e+18,180.9959908691406,-258.99379272460936,142.5813995361328,-149.96971740722657,1.6888758586745434e+18,181.00454321289064,-0.1079933245976765,-0.0812764912843703,-0.5305588245391846,0.8366031249364217,-0.5343439777692159,1.0562305053075154,0.573418378829956
1.05,1.6888758587264415e+18,181.05644165039064,9.505587736765545,2.5173330307006836,-1.4206593831380208,1.6888758587264415e+18,181.05644165039064,13.313665072123207,-6.135994990666707,1.3395818670590718,1.6888758587264415e+18,181.05644165039064,3.7852757771809897,-8.637582778930664,2.695527712504069,1.6888758587264415e+18,181.05644165039064,-0.0796161244312922,-2.402838389078776,-0.302734633286794,1.6888758587264415e+18,181.05644165039064,-0.0802778700987498,-2.3982569376627603,-0.3002911806106567,,,,,,,,,,,,1.688875858716001e+18,181.0460009765625,-0.6539199948310852,48.22903823852539,-15.081639671325684,1.688875858716001e+18,181.0460009765625,-256.2805114746094,143.08403930664062,-148.20803833007812,1.6888758587264415e+18,181.05644165039064,-0.0630797122915585,-0.1250717639923095,-0.539725144704183,0.8299475510915121,-0.6202906767527262,1.0764950513839722,0.5298265417416891
1.1,1.688875858769687e+18,181.09968701171871,4.431322336196899,-7.238527774810791,13.91396427154541,1.688875858769687e+18,181.09968701171871,7.926224946975707,-15.69542121887207,17.568402767181396,1.688875858769687e+18,181.09968701171871,3.4721012115478516,-8.441148281097412,3.5897250175476074,1.688875858769687e+18,181.09968701171871,-1.3260357081890106,-3.1757357120513916,0.3317761793732642,1.688875858769687e+18,181.09968701171871,-1.3267229199409485,-3.1711541414260864,0.3342196494340896,,,,,,,,,,,,1.6888758587660012e+18,181.096001171875,2.3350799560546873,47.92647933959961,-17.345959663391113,1.6888758587660012e+18,181.096001171875,-253.2915161132813,142.78147888183594,-150.47235717773438,1.688875858769687e+18,181.09968701171871,-0.0503364913165569,-0.190456286072731,-0.5359679162502289,0.8208009898662567,-0.8043259680271149,1.0368611812591553,0.5984722673892975
1.15,1.688875858812942e+18,181.14294197591144,-4.658385992050171,1.9912681579589844,5.1548722585042315,1.688875858812942e+18,181.14294197591144,-1.1298110683759053,-6.164110620816548,9.412765979766846,1.688875858812942e+18,181.14294197591144,3.505773385365804,-8.139633655548096,4.193180322647095,1.688875858812942e+18,181.14294197591144,-1.003346135218938,-1.6276504198710124,1.7263052066167195,1.688875858812942e+18,181.14294197591144,-1.0040588825941086,-1.622967153787613,1.7287485996882122,1.688875858804292e+18,181.1342919921875,0.0,0.0,1.1091675758361816,6.770999908447266,1.7837390899658203,8.732809066772461,35.685890187759284,-122.7499615,49.1914887,1.6888758588159995e+18,181.145999609375,1.793399953842163,47.44580001831055,-18.670879364013672,1.6888758588159995e+18,181.145999609375,-253.83319091796875,142.30079650878906,-151.79727783203126,1.688875858812942e+18,181.14294197591144,-0.0266703069210052,-0.243310198187828,-0.5122414032618204,0.8229575157165527,-0.8766957918802897,0.9800125161806744,0.5548905928929647
1.2,1.6888758588648384e+18,181.19483829752605,2.7004493872324624,-20.16130765279134,1.657720565795899,1.6888758588648384e+18,181.19483829752605,7.132605791091919,-27.31885592142741,6.783652305603027,1.6888758588648384e+18,181.19483829752605,4.409354527791341,-7.1418023109436035,5.06121842066447,1.6888758588648384e+18,181.19483829752605,-2.084068576494853,1.389922062555949,1.6044376095136004,1.6888758588648384e+18,181.19483829752605,-2.08473040163517,1.3945544163386028,1.606830100218455,,,,,,,,,,,,1.688875858865999e+18,181.19599912109376,-3.852759861946106,44.75204010009766,-23.85587959289551,1.688875858865999e+18,181.19599912109376,-259.47935180664064,139.60703735351564,-156.9822784423828,1.6888758588648384e+18,181.19483829752605,-0.0710130520164966,-0.2669337292512257,-0.4515342215696971,0.8481366038322449,-0.856226642926534,0.8158326943715414,0.5570733745892843
1.25,1.6888758589167378e+18,181.24673787434895,-5.702967484792073,1.0791432062784831,-4.997045477231344,1.6888758589167378e+18,181.24673787434895,-1.263809084892273,-6.702894369761149,-0.9477572242418923,1.6888758589167378e+18,181.24673787434895,4.416357040405273,-7.766292413075765,3.984574794769287,1.6888758589167378e+18,181.24673787434895,2.027003566424052,4.796768347422282,-3.916562557220459,1.6888758589167378e+18,181.24673787434895,2.0263927380243936,4.801400820414226,-3.914170026779175,,,,,,,,,,,,1.6888758589159956e+18,181.24599555664065,-4.623799896240234,45.39375915527344,-21.82823944091797,1.6888758589159956e+18,181.24599555664065,-260.2503967285156,140.2487579345703,-154.954638671875,1.6888758589167378e+18,181.24673787434895,-0.1034426813324292,-0.18020827571551,-0.4891787370045979,0.8455124100049337,-0.7284788091977438,0.9145329793294272,0.6126588384310404
1.3,1.6888758589686415e+18,181.29864135742187,-11.08955224355062,-1.869972546895345,-0.5019447803497314,1.6888758589686415e+18,181.29864135742187,-8.430312951405844,-11.033504803975424,1.809771498044332,1.6888758589686415e+18,181.29864135742187,2.63643749554952,-9.147787094116213,2.247002800305685,1.6888758589686415e+18,181.29864135742187,1.4908166726430256,3.885713815689087,-5.510768016179402,1.6888758589686415e+18,181.29864135742187,1.490154852469762,3.890448013941447,-5.50832470258077,,,,,,,,,,,,1.6888758589659976e+18,181.29599775390628,3.757599949836731,47.7776382446289,-16.499279594421388,1.6888758589659976e+18,181.29599775390628,-251.8689971923828,142.63263854980468,-149.62567443847655,1.6888758589686415e+18,181.29864135742187,-0.1351485525568325,-0.0413782866671681,-0.5995388229688009,0.7862112919489542,-0.7050527731577555,1.204124887784322,0.8397748867670695
1.35,1.688875859020538e+18,181.35053816731775,-8.677894910176596,-4.118803024291992,2.123746395111084,1.688875859020538e+18,181.35053816731775,-6.778866608937581,-13.542977015177408,4.227320035298665,1.688875859020538e+18,181.35053816731775,1.8762269417444863,-9.408428827921549,2.0388601620992026,1.688875859020538e+18,181.35053816731775,-1.4738651116689043,2.287130435307821,-0.4085670456600686,1.688875859020538e+18,181.35053816731775,-1.4745268821716309,2.291813691457113,-0.4061235942256947,,,,,,,,,,,,1.6888758590159982e+18,181.3459983886719,7.583519744873047,46.755279541015625,-17.619239807128906,1.6888758590159982e+18,181.3459983886719,-248.04307556152344,141.6102783203125,-150.74563598632812,1.688875859020538e+18,181.35053816731775,-0.2116381476322809,0.0411866754293441,-0.6314271688461304,0.7445810238520304,-0.8001112739245096,1.2800637086232505,1.163566033045451
1.4,1.6888758590724403e+18,181.4024403483073,15.141182581583658,0.6965144475301107,-0.2103310426076253,1.6888758590724403e+18,181.4024403483073,15.812569936116535,-8.728617986043295,2.4985056122144065,1.6888758590724403e+18,181.4024403483073,0.6485859677195549,-9.409387270609535,2.644123156865438,1.6888758590724403e+18,181.4024403483073,-0.1785762657721837,-2.500678618748983,-3.284876902898153,1.6888758590724403e+18,181.4024403483073,-0.1792380437254905,-2.496046304702759,-3.28243350982666,,,,,,,,,,,,1.688875859065996e+18,181.39599614257813,12.878319931030273,45.4083984375,-19.698119735717775,1.688875859065996e+18,181.39599614257813,-242.7482757568359,140.26339721679688,-152.82451782226562,1.6888758590724403e+18,181.4024403483073,-0.1858554035425186,-0.011553421820281,-0.6801181435585022,0.7084034482638041,-1.3108247915903728,1.282970309257507,1.5605982939402263
1.45,1.6888758591243407e+18,181.45434057617183,0.1270632743835449,3.522531191507975,-5.743340651194255,1.6888758591243407e+18,181.45434057617183,-0.2729811668395996,-5.91804854075114,-2.995415210723877,1.6888758591243407e+18,181.45434057617183,-0.4228457460800807,-9.424834569295248,2.6832118034362793,1.6888758591243407e+18,181.45434057617183,-0.10364346858114,4.134794155756633,-2.5146776835123696,1.6888758591243407e+18,181.45434057617183,-0.1042543342337012,4.139477491378784,-2.512285073598226,,,,,,,,,,,,1.6888758591160008e+18,181.44600097656252,19.771319961547853,42.52431945800781,-20.83271942138672,1.6888758591160008e+18,181.44600097656252,-235.8552795410156,137.3793182373047,-153.95911865234376,1.6888758591243407e+18,181.45434057617183,-0.2355321943759918,0.0511452443897723,-0.7183020313580831,0.651779294013977,-1.7091857592264812,1.291465957959493,2.1217345794041953
1.5,1.688875859176238e+18,181.5062381998698,3.72440900405248,3.078064282735189,-3.1887861092885337,1.688875859176238e+18,181.5062381998698,2.42372993628184,-6.262615203857422,-0.4101696734627087,1.688875859176238e+18,181.5062381998698,-1.323480506738027,-9.324934323628744,2.7139029502868652,1.688875859176238e+18,181.5062381998698,0.0181732401251792,0.1756237645943959,-2.839912494023641,1.688875859176238e+18,181.5062381998698,0.0175623757143815,0.1803070356448491,-2.8374691009521484,,,,,,,,,,,,1.6888758591659976e+18,181.49599760742188,21.320719909667968,40.51619873046875,-23.675319290161134,1.6888758591659976e+18,181.49599760742188,-234.30587463378907,135.37119750976564,-156.80171813964844,1.688875859176238e+18,181.5062381998698,-0.2649055123329162,0.0989401141802469,-0.7452837427457174,0.6034267743428549,-2.0077501138051352,1.2582936286926267,2.53475284576416
1.55,1.6888758592194872e+18,181.5494874267578,8.359519481658936,-0.2949910163879394,-4.349821090698242,1.6888758592194872e+18,181.5494874267578,5.951248943805695,-9.416654586791992,-1.5646068640053272,1.6888758592194872e+18,181.5494874267578,-2.4310719966888428,-9.105918407440186,2.7205007076263428,1.6888758592194872e+18,181.5494874267578,-0.280234420672059,1.049390153028071,-1.912924498319626,1.6888758592194872e+18,181.5494874267578,-0.2808452975004911,1.0540479822084308,-1.9105574786663055,,,,,,,,,,,,1.6888758592159985e+18,181.54599843750003,27.19379920959473,37.21975936889648,-23.870519638061523,1.6888758592159985e+18,181.54599843750003,-228.43279724121095,132.07475891113282,-156.99691467285157,1.6888758592194872e+18,181.5494874267578,-0.2588356286287308,0.1141625195741653,-0.7809736430644989,0.5567429959774017,-2.2964974641799927,1.1911213994026184,2.8403621912002563
1.6,1.6888758592627397e+18,181.5927399902344,1.4357476234436035,-4.717563311258952,-4.385357300440471,1.6888758592627397e+18,181.5927399902344,-0.857029323776563,-13.827324231465658,-1.4638092120488484,1.6888758592627397e+18,181.5927399902344,-2.3155784606933594,-9.094015757242838,2.8568344910939536,1.6888758592627397e+18,181.5927399902344,0.2307034432888031,0.6866634488105774,-0.2905173500378926,1.6888758592627397e+18,181.5927399902344,0.229939858118693,0.6912958224614462,-0.2881756573915481,,,,,,,,,,,,1.6888758592659937e+18,181.59599375,27.01079978942871,35.97779922485351,-25.512639617919923,1.6888758592659937e+18,181.59599375,-228.6157958984375,130.83279418945312,-158.6390350341797,1.6888758592627397e+18,181.5927399902344,-0.2822692890961965,0.1323501914739608,-0.7746681372324625,0.5501271486282349,-2.249514897664388,1.1864505608876543,2.856135686238607
1.65,1.6888758593146337e+18,181.64463321940104,-1.0167827606201172,-7.323120752970378,-6.145577987035115,1.6888758593146337e+18,181.64463321940104,-2.7742784321308136,-16.566508293151855,-3.3202408949534097,1.6888758593146337e+18,181.64463321940104,-1.7802971998850503,-9.227642377217611,2.7606235345204673,1.6888758593146337e+18,181.64463321940104,0.1218167096376419,0.4870632092158,2.987691044807434,1.6888758593146337e+18,181.64463321940104,0.1211549341678619,0.4917465249697366,2.9901344776153564,1.68887585932329e+18,181.6532900390625,0.0,0.0,1.1091675758361816,6.677999973297119,1.7652508020401,11.176684379577637,35.685890187759284,-122.7499478,49.1914981,1.6888758593159974e+18,181.64599755859376,24.54640007019043,37.388119506835935,-24.60739974975586,1.6888758593159974e+18,181.64599755859376,-231.0801971435547,132.2431182861328,-157.73380126953126,1.6888758593146337e+18,181.64463321940104,-0.2834549049536387,0.1280373434225717,-0.7578385670979818,0.5728660424550375,-2.131070613861084,1.224380334218343,2.730851332346598
1.7,1.6888758593665395e+18,181.69653971354165,-5.762268523375194,-6.120288213094075,-2.8734567562739053,1.6888758593665395e+18,181.69653971354165,-6.0053866902987165,-15.71765391031901,-0.769890695810318,1.6888758593665395e+18,181.69653971354165,-0.2659196903308232,-9.581620534261068,2.0388524929682412,1.6888758593665395e+18,181.69653971354165,1.832341154416402,-3.758450349171957,3.4473161697387695,1.6888758593665395e+18,181.69653971354165,1.8316794236501055,-3.753715991973877,3.4497087001800537,,,,,,,,,,,,1.6888758593659983e+18,181.6959984375,18.814839935302736,42.42183990478516,-20.381319046020508,1.6888758593659983e+18,181.6959984375,-236.8117523193359,137.27683715820314,-153.50771484375,1.6888758593665395e+18,181.69653971354165,-0.2368004371722538,0.0980796441435813,-0.709840734799703,0.6548091769218445,-1.6803204615910847,1.3559726476669312,2.1617234150568643
1.75,1.6888758594184358e+18,181.74843595377604,-4.924049615859985,-12.64365577697754,10.353662331899008,1.6888758594184358e+18,181.74843595377604,-3.2879377206166587,-22.133808771769207,12.303096453348797,1.6888758594184358e+18,181.74843595377604,1.61331045627594,-9.4744078318278,1.884721000989278,1.6888758594184358e+18,181.74843595377604,-0.4467970132827759,0.3364849140246709,3.8757871786753335,1.6888758594184358e+18,181.74843595377604,-0.4475605885187785,0.3411173621813456,3.8782308101654057,,,,,,,,,,,,1.6888758594160013e+18,181.7460013671875,10.928759574890137,45.45719909667969,-18.72943992614746,1.6888758594160013e+18,181.7460013671875,-244.69783630371097,140.31219787597655,-151.8558349609375,1.6888758594184358e+18,181.74843595377604,-0.2185598264137903,0.0601243861019611,-0.6432276169459025,0.7307720184326172,-0.8914559483528137,1.311276872952779,1.291706879933675
1.8,1.6888758594703296e+18,181.80032958984376,-5.625192483266194,-3.291038195292155,-2.5697034994761148,1.6888758594703296e+18,181.80032958984376,-3.1413773695627847,-12.689337730407717,-1.0825528701146443,1.6888758594703296e+18,181.80032958984376,2.4610135555267334,-9.382554372151692,1.4224372307459514,1.6888758594703296e+18,181.80032958984376,3.0818660259246826,-4.464712301890056,1.9017762343088789,1.6888758594703296e+18,181.80032958984376,3.081204334894816,-4.460029125213623,1.904219627380371,,,,,,,,,,,,1.688875859466e+18,181.79600024414063,6.441599941253662,47.28719940185547,-15.24267921447754,1.688875859466e+18,181.79600024414063,-249.18499755859375,142.14219970703124,-148.36907653808595,1.6888758594703296e+18,181.80032958984376,-0.1472474311788876,0.0226714160914222,-0.6109275420506796,0.7764082749684652,-0.523517906665802,1.2730738719304402,0.7672603329022726
1.85,1.6888758595222387e+18,181.85223885091145,-8.103819529215494,11.45068327585856,-1.2169626553853352,1.6888758595222387e+18,181.85223885091145,-4.634099880854289,2.289532502492269,-0.388434886932373,1.6888758595222387e+18,181.85223885091145,3.446918249130249,-9.145405769348145,0.7638143102327982,1.6888758595222387e+18,181.85223885091145,1.7321083943049114,-4.432081937789917,2.9848403135935464,1.6888758595222387e+18,181.85223885091145,1.731446663538615,-4.427449385325114,2.9872328440348306,,,,,,,,,,,,1.6888758595159944e+18,181.84599428710936,3.0670799016952515,49.52467803955078,-7.239479732513428,1.6888758595159944e+18,181.84599428710936,-252.5595184326172,144.37967834472656,-140.36587829589843,1.6888758595222387e+18,181.85223885091145,-0.0206583254039287,-0.032902435089151,-0.5665504932403564,0.8222118218739828,-0.2199084758758545,1.1987758080164592,0.2020470052957534
1.9,1.688875859574139e+18,181.90413867187505,-5.680136362711589,12.165422757466636,4.646622498830159,1.688875859574139e+18,181.90413867187505,-1.3084751665592194,3.449453274408976,5.968696594238281,1.688875859574139e+18,181.90413867187505,4.348859786987305,-8.700224240620932,1.2573607365290325,1.688875859574139e+18,181.90413867187505,0.3902410864830017,-3.224655866622925,1.5214616854985554,1.688875859574139e+18,181.90413867187505,0.389579306046168,-3.220074415206909,1.5238542556762695,,,,,,,,,,,,1.688875859566e+18,181.89599995117183,-1.7787599936127665,50.261559295654294,-4.901959991455078,1.688875859566e+18,181.89599995117183,-257.4053619384766,145.11655883789064,-138.02835388183593,1.688875859574139e+18,181.90413867187505,0.0439497220019498,-0.102849930524826,-0.5156977574030558,0.8490530649820963,-0.2818683981895446,1.0873348315556843,0.0674623288214206
1.95,1.6888758596260344e+18,181.9560345052083,-4.995912233988444,7.809175491333008,2.3265997568766275,1.6888758596260344e+18,181.9560345052083,-0.8299106558163961,-0.904885749022166,4.224129517873128,1.6888758596260344e+18,181.9560345052083,4.143200000127156,-8.698315938313803,1.8328163226445515,1.6888758596260344e+18,181.9560345052083,0.4574871758619944,-2.6953410307566323,-0.6667085041602453,1.6888758596260344e+18,181.9560345052083,0.4567744930585225,-2.6906577746073403,-0.6642650614182154,,,,,,,,,,,,1.6888758596159951e+18,181.94599506835937,-2.4912399291992187,50.11759948730469,-4.718959903717041,1.6888758596159951e+18,181.94599506835937,-258.1178283691406,144.97259826660155,-137.845361328125,1.6888758596260344e+18,181.9560345052083,0.0918199022610981,-0.1682550112406412,-0.5092395146687826,0.8387669722239176,-0.4190609355767568,1.0875900586446126,0.0379379640022913
2.0,1.6888758596692828e+18,181.9992828369141,-1.9111871123313904,7.974539756774902,0.7005659341812134,1.6888758596692828e+18,181.9992828369141,1.5595221519470217,-0.9726824164390564,2.895913600921631,1.6888758596692828e+18,181.9992828369141,3.44790780544281,-8.931477069854736,2.1306341886520386,1.6888758596692828e+18,181.9992828369141,0.0587957836687564,-1.4149166345596311,-1.8924604654312136,1.6888758596692828e+18,181.9992828369141,0.0580321960151195,-1.4102588295936584,-1.890017092227936,,,,,,,,,,,,1.6888758596659996e+18,181.99599965820312,0.9662399470806122,50.00291900634765,-3.7941998481750487,1.6888758596659996e+18,181.99599965820312,-254.6603576660156,144.85791625976563,-136.92059936523438,1.6888758596692828e+18,181.9992828369141,0.1109905317425727,-0.2063657715916633,-0.5301854312419891,0.8147938847541809,-0.5560182631015778,1.1428475379943848,0.092596162110567
2.05,1.688875859712538e+18,182.0425380045573,8.443804025650024,-7.284546693166097,4.731905539830525,1.688875859712538e+18,182.0425380045573,11.452847003936768,-16.268800894419353,7.395417133967082,1.688875859712538e+18,182.0425380045573,2.9862414995829263,-8.968509356180826,2.5987981955210366,1.688875859712538e+18,182.0425380045573,-1.1626292864481609,-1.6804393529891968,0.8197811444600424,1.688875859712538e+18,182.0425380045573,-1.163291037082672,-1.6758579015731812,0.8222245872020723,,,,,,,,,,,,1.6888758597159962e+18,182.0459962402344,4.299279880523682,49.707678985595706,-5.221599864959717,1.6888758597159962e+18,182.0459962402344,-251.3273193359375,144.56267700195312,-138.347998046875,1.688875859712538e+18,182.0425380045573,0.1118345657984414,-0.2411844879388808,-0.5378344456354777,0.7997501293818156,-0.7169746359189352,1.1545095443725586,0.2008139888445536
2.1,1.688875859764438e+18,182.09443806966144,9.900128444035849,-5.460748672485352,3.0358547369639077,1.688875859764438e+18,182.09443806966144,13.3208433787028,-14.086746772130333,6.3479589621226,1.688875859764438e+18,182.09443806966144,3.3979132175445557,-8.610252698262533,3.247390906016032,1.688875859764438e+18,182.09443806966144,0.8369871775309244,-2.493399182955424,0.7626652667919794,1.688875859764438e+18,182.09443806966144,0.8362745344638824,-2.4887667894363403,0.7651087045669556,,,,,,,,,,,,1.688875859765997e+18,182.0959972167969,0.6270799845457077,49.60275955200195,-6.5977599143981935,1.688875859765997e+18,182.0959972167969,-254.9995147705078,144.45775451660157,-139.72415771484376,1.688875859764438e+18,182.09443806966144,0.1490618735551833,-0.2958389023939768,-0.4895776808261871,0.8063999017079672,-0.7641723155975342,1.0717239777247112,0.1028269591430822
2.15,1.6888758598163374e+18,182.14633740234376,-8.605003039042154,5.745587348937988,-1.0553385416666667,1.6888758598163374e+18,182.14633740234376,-5.548556963602702,-3.0277183453241983,2.2153549790382385,1.6888758598163374e+18,182.14633740234376,3.033644437789917,-8.75756041208903,3.205979903539022,1.6888758598163374e+18,182.14633740234376,-0.6931284070014955,0.4957680379350979,-1.241939942042033,1.6888758598163374e+18,182.14633740234376,-0.6937393347422282,0.500400406618913,-1.239496539036433,1.6888758598422958e+18,182.1722958984375,0.0,0.0,1.1485819816589355,6.577000141143799,1.7630128860473633,12.2205171585083,35.045323867502944,-122.7499402,49.1915014,1.6888758598159985e+18,182.14599843750003,1.0589599549770354,49.60519943237305,-4.531079959869385,1.6888758598159985e+18,182.14599843750003,-254.56763305664063,144.46019592285157,-137.6574737548828,1.6888758598163374e+18,182.14633740234376,0.1728541006644566,-0.3152416050434112,-0.4964637955029805,0.789844274520874,-0.8151668111483256,1.104382316271464,0.0898167233293254
2.2,1.688875859868234e+18,182.19823396809895,-9.238763173421225,-19.498161633809406,4.752940813700358,1.688875859868234e+18,182.19823396809895,-6.031309127807617,-28.259634653727215,7.893124341964721,1.688875859868234e+18,182.19823396809895,3.18465256690979,-8.745726585388184,3.075469573338826,1.688875859868234e+18,182.19823396809895,0.1364774902661641,3.9649226665496826,-1.6737199227015178,1.688875859868234e+18,182.19823396809895,0.1358157098293304,3.969555020332336,-1.6713273525238037,,,,,,,,,,,,1.688875859865996e+18,182.19599619140627,2.2838399417698385,48.995198822021486,-8.10079984664917,1.688875859865996e+18,182.19599619140627,-253.3427520751953,143.8501953125,-141.227197265625,1.688875859868234e+18,182.19823396809895,0.0833992039163907,-0.2479567478100458,-0.5250074664751688,0.8094412883122762,-0.7700209021568298,1.1015435457229614,0.2831243971983591
2.25,1.6888758599201364e+18,182.25013647460935,-8.047815322875977,2.662797292073568,-7.025250593821208,1.6888758599201364e+18,182.25013647460935,-6.5968124071757,-6.83848762512207,-4.984249591827393,1.6888758599201364e+18,182.25013647460935,1.4282012979189556,-9.485539754231771,1.9762874444325764,1.6888758599201364e+18,182.25013647460935,0.959058423837026,3.255809942881266,-4.450255076090495,1.6888758599201364e+18,182.25013647460935,0.9583966334660848,3.26044233640035,-4.447811683019002,,,,,,,,,,,,1.6888758599159977e+18,182.24599750976563,11.145919609069823,47.74591979980469,-5.5070798873901365,1.6888758599159977e+18,182.24599750976563,-244.48067626953124,142.60091552734374,-138.63347778320312,1.6888758599201364e+18,182.25013647460935,0.0549818103512128,-0.1789906620979308,-0.6269206404685974,0.7551566561063131,-0.9629987676938376,1.3145599762598674,0.627439926067988
2.3,1.6888758599720264e+18,182.3020265299479,-7.274296204249064,-4.080847104390462,-4.887035210927327,1.6888758599720264e+18,182.3020265299479,-6.962116718292236,-13.698909441630043,-2.8508487542470298,1.6888758599720264e+18,182.3020265299479,0.2893779563407103,-9.602317174275717,1.971472938855489,1.6888758599720264e+18,182.3020265299479,-0.0760527451833088,0.3050254285335541,-1.7713055610656738,1.6888758599720264e+18,182.3020265299479,-0.076765414327383,0.3096577525138855,-1.7689130703608196,,,,,,,,,,,,1.6888758599659963e+18,182.2959966796875,18.129199600219728,45.481598663330075,-7.295599842071534,1.6888758599659963e+18,182.2959966796875,-237.49739685058591,140.33659973144532,-140.4219970703125,1.6888758599720264e+18,182.3020265299479,0.0043858039425685,-0.1452306061983108,-0.679523249467214,0.7190066377321879,-1.4084627230962117,1.3622610171635945,1.1953130960464478
2.35,1.6888758600239337e+18,182.3539336751302,13.111708323160808,3.180675506591797,3.7471406857172647,1.6888758600239337e+18,182.3539336751302,11.56291643778483,-6.397012074788411,5.161717176437378,1.6888758600239337e+18,182.3539336751302,-1.571593205134074,-9.561942418416342,1.349863052368164,1.6888758600239337e+18,182.3539336751302,1.691791296005249,-0.2749912142753599,-4.680245876312256,1.6888758600239337e+18,182.3539336751302,1.6910786231358843,-0.2703587214152018,-4.677802483240764,,,,,,,,,,,,1.6888758600159982e+18,182.34599829101563,25.79567947387695,42.50967864990234,-4.4798399925231935,1.6888758600159982e+18,182.34599829101563,-229.83091430664064,137.36467590332032,-137.60623779296876,1.6888758600239337e+18,182.3539336751302,0.0324033293873071,-0.144603336850802,-0.7461463212966919,0.6479483644167582,-2.3665489753087363,1.3491675853729248,2.113986094792684
2.4,1.688875860075837e+18,182.40583666992188,8.181706269582113,3.671978314717611,2.9650537172953286,1.688875860075837e+18,182.40583666992188,5.940780321756999,-5.782854080200195,4.433701088031133,1.688875860075837e+18,182.40583666992188,-2.2637272675832114,-9.439087231953938,1.4039338032404582,1.688875860075837e+18,182.40583666992188,-0.0615446766217549,3.7704130013783774,-0.0345138808091481,1.688875860075837e+18,182.40583666992188,-0.0621555373072624,3.7750962575276694,-0.0321722229321797,,,,,,,,,,,,1.6888758600659963e+18,182.39599658203127,33.1693603515625,39.144918823242186,-5.314319849014282,1.6888758600659963e+18,182.39599658203127,-222.45723571777344,133.99991455078126,-138.4407165527344,1.688875860075837e+18,182.40583666992188,-0.0214508040808141,-0.089376335342725,-0.7789157231648763,0.6198162039120992,-2.580998500188192,1.295366287231445,2.4839372634887695
2.45,1.6888758601190863e+18,182.44908630371097,-3.121985971927643,3.3775787353515625,-5.719534635543823,1.6888758601190863e+18,182.44908630371097,-5.3198429346084595,-6.019444465637207,-3.8425740003585815,1.6888758601190863e+18,182.44908630371097,-2.2206584215164185,-9.381278038024902,1.812247097492218,1.6888758601190863e+18,182.44908630371097,-0.0466548331314698,4.803767919540405,-1.4046082496643066,1.6888758601190863e+18,182.44908630371097,-0.0472656985512003,4.808349370956421,-1.4021648168563845,,,,,,,,,,,,1.6888758601159985e+18,182.44599853515624,31.780998992919923,38.05667953491211,-10.601799869537354,1.6888758601159985e+18,182.44599853515624,-223.84559631347656,132.91167907714845,-143.7281951904297,1.6888758601190863e+18,182.44908630371097,-0.0924128592014312,-0.0330245615914463,-0.7822183966636658,0.6148112714290619,-2.455787420272827,1.273857593536377,2.5407910346984863
2.5,1.6888758601623327e+18,182.49233260091148,-6.003095626831055,0.578085422515869,-1.662776231765747,1.6888758601623327e+18,182.49233260091148,-8.54716252287229,-8.64128033320109,0.6049853165944418,1.6888758601623327e+18,182.49233260091148,-2.5668683846791587,-9.203620592753092,2.20304807027181,1.6888758601623327e+18,182.49233260091148,-0.9006698926289877,-0.8167776465415956,-1.3645711143811543,1.6888758601623327e+18,182.49233260091148,-0.9013825754324596,-0.8121452331542969,-1.36217858393987,,,,,,,,,,,,1.688875860166001e+18,182.49600087890627,32.073799514770506,36.41455917358398,-15.720919799804689,1.688875860166001e+18,182.49600087890627,-223.55279235839845,131.2695556640625,-148.84731750488282,1.6888758601623327e+18,182.49233260091148,-0.1350808863838513,-0.0093871374313797,-0.7935046354929606,0.5928839643796285,-2.4254790941874185,1.2192185322443645,2.606231451034546
2.55,1.688875860214236e+18,182.54423608398437,13.19030507405599,-3.3011693954467773,-1.891473372777303,1.688875860214236e+18,182.54423608398437,9.886744181315104,-12.224332809448242,0.5684947893023491,1.688875860214236e+18,182.54423608398437,-3.3263632456461587,-8.907418251037598,2.395254691441854,1.688875860214236e+18,182.54423608398437,-0.5892304281393687,1.8259779612223308,-0.5187773456176122,1.688875860214236e+18,182.54423608398437,-0.5898922085762024,1.8306104342142744,-0.5163338631391525,,,,,,,,,,,,1.688875860215997e+18,182.545996875,36.46335906982422,33.33039932250976,-14.393559837341307,1.688875860215997e+18,182.545996875,-219.1632354736328,128.1853988647461,-147.51995544433595,1.688875860214236e+18,182.54423608398437,-0.1183920577168464,-0.0460216601689656,-0.8167947928110758,0.5620152354240417,-2.5161797205607095,1.1381739377975464,2.6210688749949136
2.6,1.6888758602661358e+18,182.5961358235677,0.1836043993631998,-0.9228326479593912,-7.311361471811931,1.6888758602661358e+18,182.5961358235677,-2.3676980336507163,-9.957133134206137,-4.375276247660319,1.6888758602661358e+18,182.5961358235677,-2.5741039911905923,-9.018555323282875,2.8713718255360923,1.6888758602661358e+18,182.5961358235677,-0.1294525234649578,-0.1975640058517456,1.542587478955587,1.6888758602661358e+18,182.5961358235677,-0.1301142987795173,-0.1928297678629557,1.545030911763509,,,,,,,,,,,,1.6888758602659983e+18,182.5959983886719,32.5447193145752,34.22587966918945,-19.512680053710938,1.6888758602659983e+18,182.5959983886719,-223.08187561035157,129.08087768554688,-152.63907775878906,1.6888758602661358e+18,182.5961358235677,-0.1712663571039835,-0.0181069395815332,-0.7942585746447245,0.582448144753774,-2.300019900004069,1.1660068035125732,2.52164618174235
2.65,1.6888758603180275e+18,182.6480274251302,0.8565781911214186,-8.132446924845377,-6.73359743754069,1.6888758603180275e+18,182.6480274251302,-0.3601197401682536,-17.454644203186035,-3.8829530080159502,1.6888758603180275e+18,182.6480274251302,-1.23949933052063,-9.306452433268229,2.78593103090922,1.6888758603180275e+18,182.6480274251302,0.7030040621757507,1.8110627780357995,3.2496503988901773,1.6888758603180275e+18,182.6480274251302,0.702342301607132,1.8156951069831848,3.2520429293314614,,,,,,,,,,,,1.6888758603159977e+18,182.64599790039065,28.04779930114746,37.5515998840332,-18.858759307861327,1.6888758603159977e+18,182.64599790039065,-227.57879638671875,132.40659790039064,-151.98515930175782,1.6888758603180275e+18,182.6480274251302,-0.1668954541285832,-0.0277144825085997,-0.7501725554466248,0.6384445826212565,-1.978044271469116,1.2490853865941365,2.1777494748433432
2.7,1.6888758603699372e+18,182.6999369303385,-10.39209763209025,-16.88996982574463,4.144938151041667,1.6888758603699372e+18,182.6999369303385,-10.11206849416097,-26.588048299153645,5.67477818330129,1.6888758603699372e+18,182.6999369303385,0.2572279348969459,-9.682333628336588,1.4651264150937398,1.6888758603699372e+18,182.6999369303385,3.3195435206095376,-1.6839518571893377,2.5313237508138022,1.6888758603699372e+18,182.6999369303385,3.3188308080037436,-1.6792176042993865,2.5337162812550864,1.6888758603612856e+18,182.6912856445313,0.0,0.0,1.1485819816589355,6.550000190734863,1.7581982612609863,13.70218276977539,35.045323867502944,-122.749928,49.1915096,1.6888758603659996e+18,182.69599980468752,20.730239486694337,43.08551788330078,-16.038119506835937,1.6888758603659996e+18,182.69599980468752,-234.89635620117187,137.94051513671874,-149.16451721191407,1.6888758603699372e+18,182.6999369303385,-0.1282842357953389,0.0207412947590151,-0.6977708141009012,0.7037107547124227,-1.3456059296925862,1.413519064585368,1.5575261116027832
2.75,1.6888758604218324e+18,182.75183243815104,-4.253814220428467,-9.277694702148438,12.707521120707192,1.6888758604218324e+18,182.75183243815104,-2.4574288924535117,-18.870795885721844,13.793625513712565,1.6888758604218324e+18,182.75183243815104,1.7735838095347087,-9.577356020609535,1.0213911930720012,1.6888758604218324e+18,182.75183243815104,0.2941316105425358,-5.137834787368774,4.31311575571696,1.6888758604218324e+18,182.75183243815104,0.2933680402735869,-5.133151531219482,4.315559387207031,,,,,,,,,,,,1.6888758604159956e+18,182.7459957519531,15.047479820251464,47.24571838378906,-9.43791980743408,1.6888758604159956e+18,182.7459957519531,-240.57911682128903,142.10071716308593,-142.56431579589844,1.6888758604218324e+18,182.75183243815104,-0.0427964211752016,-0.0311845641893644,-0.638230582078298,0.7663779457410177,-0.5475017329057058,1.3596830765406291,0.5637908577919006
2.8,1.6888758604737352e+18,182.80373518880208,0.78769850730896,-2.025958220163981,0.1820238828659057,1.6888758604737352e+18,182.80373518880208,4.247659047444661,-11.132407983144123,1.4783656500900786,1.6888758604737352e+18,182.80373518880208,3.4371589024861655,-9.090704600016275,1.2316283186276753,1.6888758604737352e+18,182.80373518880208,1.8567248980204265,-3.607668419679006,3.8794524669647217,1.6888758604737352e+18,182.80373518880208,1.8561140298843384,-3.6029849449793496,3.8818957805633545,,,,,,,,,,,,1.6888758604659983e+18,182.79599843750003,6.62459979057312,49.4539192199707,-4.909279870986938,1.6888758604659983e+18,182.79599843750003,-249.0019958496094,144.3089172363281,-138.03567810058593,1.6888758604737352e+18,182.80373518880208,0.0721932090818881,-0.1254862795273462,-0.5556761026382446,0.817983071009318,-0.3546387751897175,1.1877657175064087,0.0686459740002949
2.85,1.6888758605256343e+18,182.85563435872396,-12.5744997660319,8.840551694234213,-1.4724961519241333,1.6888758605256343e+18,182.85563435872396,-7.863413333892822,0.263808677593867,-0.4650051941474278,1.6888758605256343e+18,182.85563435872396,4.688284873962402,-8.56099796295166,0.942777454853058,1.6888758605256343e+18,182.85563435872396,1.1324423551559448,-3.3242268562316895,2.448195219039917,1.6888758605256343e+18,182.85563435872396,1.1317805747191112,-3.319645404815674,2.4506385723749795,,,,,,,,,,,,1.6888758605159956e+18,182.84599575195313,-3.0353599071502684,50.07611846923828,0.1927600026130676,1.6888758605159956e+18,182.84599575195313,-258.6619537353516,144.93111572265624,-132.9336364746094,1.6888758605256343e+18,182.85563435872396,0.1458917632699012,-0.1414608607689539,-0.4897253016630808,0.8472811182339987,-0.1999420126279195,1.059456427892049,-0.2236651529868444
2.9,1.688875860577538e+18,182.90753784179688,-9.952135721842447,10.708083152770996,-1.4304321606953938,1.688875860577538e+18,182.90753784179688,-4.5766721566518145,2.707877593114972,0.5549353659152985,1.688875860577538e+18,182.90753784179688,5.352662086486816,-7.984460671742757,1.920654018719991,1.688875860577538e+18,182.90753784179688,-0.2566652223467827,-3.554573933283488,2.3052018880844116,1.688875860577538e+18,182.90753784179688,-0.2572760830322901,-3.549941619237264,2.307645241419474,,,,,,,,,,,,1.688875860565998e+18,182.8959981445313,-9.81123971939087,49.55151901245117,0.7637199759483337,1.688875860565998e+18,182.8959981445313,-265.4378356933594,144.4065185546875,-132.36267700195313,1.688875860577538e+18,182.90753784179688,0.2054145584503809,-0.2170862307151158,-0.4224940041700999,0.8551975091298422,-0.3457877536614736,0.9485147794087728,-0.2931753396987914
2.95,1.688875860620784e+18,182.95078430175784,-4.449879169464111,8.555517673492432,3.47756564617157,1.688875860620784e+18,182.95078430175784,1.0336993783712387,0.8500502556562424,6.238088607788086,1.688875860620784e+18,182.95078430175784,5.460777044296265,-7.689722061157227,2.695809483528137,1.688875860620784e+18,182.95078430175784,0.1776854316703974,-2.4887412786483765,0.0490219295024871,1.688875860620784e+18,182.95078430175784,0.1769982120022177,-2.484159827232361,0.0514653921127319,,,,,,,,,,,,1.688875860615994e+18,182.94599409179688,-13.86407985687256,48.71703948974609,-1.829999923706055,1.688875860615994e+18,182.94599409179688,-269.490673828125,143.57203674316406,-134.956396484375,1.688875860620784e+18,182.95078430175784,0.2341489866375923,-0.2688377499580383,-0.3858952820301056,0.8508102893829346,-0.4607916921377181,0.8988744020462036,-0.3117625415325165
3.0,1.6888758606640292e+18,182.99402905273436,0.5904286702473959,6.86445681254069,1.2245550950368245,1.6888758606640292e+18,182.99402905273436,5.349753220876058,-1.2847463091214495,4.016552289326985,1.6888758606640292e+18,182.99402905273436,4.736523151397705,-8.133457819620768,2.7272837162017822,1.6888758606640292e+18,182.99402905273436,1.1436415314674375,-0.4533129284779231,-2.831665833791097,1.6888758606640292e+18,182.99402905273436,1.14287797609965,-0.44862961769104,-2.829222400983175,,,,,,,,,,,,1.6888758606659922e+18,182.99599223632816,-9.542839908599854,49.62471923828125,-1.346879959106445,1.6888758606659922e+18,182.99599223632816,-265.16943359375,144.47971801757814,-134.47327880859376,1.6888758606640292e+18,182.99402905273436,0.2446864048639932,-0.2920641601085663,-0.4159912864367167,0.825359841187795,-0.524396816889445,0.979195515314738,-0.2918238242467244
3.05,1.688875860715934e+18,183.04593408203127,10.193251450856527,-11.46020253499349,7.826333999633789,1.688875860715934e+18,183.04593408203127,14.117254575093588,-20.091933568318684,10.471988836924234,1.688875860715934e+18,183.04593408203127,3.9012011686960855,-8.615985870361328,2.580941359202067,1.688875860715934e+18,183.04593408203127,-0.695979118347168,-1.3363186717033386,0.349974791208903,1.688875860715934e+18,183.04593408203127,-0.6966918309529623,-1.3315843641757965,0.3523164987564087,,,,,,,,,,,,1.6888758607159944e+18,183.04599443359376,-4.269999980926514,50.47139892578125,-0.0122000038623809,1.6888758607159944e+18,183.04599443359376,-259.89659423828124,145.32640075683594,-133.1385986328125,1.688875860715934e+18,183.04593408203127,0.2429324040810266,-0.303074300289154,-0.4577136933803558,0.7994793653488159,-0.5827096303304037,1.0748027563095093,-0.2368538280328114
3.1,1.68887586076783e+18,183.0978301595052,-0.1165186564127604,-10.5622927347819,3.5761164824167886,1.68887586076783e+18,183.0978301595052,4.428117752075195,-18.3990109761556,7.4454671541849775,1.68887586076783e+18,183.0978301595052,4.521834373474121,-7.820972919464111,3.8046371936798096,1.68887586076783e+18,183.0978301595052,-2.077196399370829,0.0103847285111745,1.7893260717391968,1.68887586076783e+18,183.0978301595052,-2.0778581301371255,0.0150171021620432,1.7917695840199788,,,,,,,,,,,,1.6888758607659945e+18,183.09599462890623,-9.13535976409912,49.614959716796875,-5.128879880905151,1.6888758607659945e+18,183.09599462890623,-264.7619567871094,144.46995849609374,-138.25527648925782,1.68887586076783e+18,183.0978301595052,0.2449366003274917,-0.3512484729290008,-0.3827445904413859,0.8182709018389384,-0.699692169825236,0.9254980285962424,-0.2217024564743041
3.15,1.6888758608197332e+18,183.1497333170573,-11.163949807484943,2.860625425974528,-4.272273063659668,1.6888758608197332e+18,183.1497333170573,-6.334399700164795,-4.887539744377136,-0.566500723361969,1.6888758608197332e+18,183.1497333170573,4.806748231252034,-7.732419967651367,3.641058921813965,1.6888758608197332e+18,183.1497333170573,0.8648834228515625,1.2131274541219077,-1.1178833742936451,1.6888758608197332e+18,183.1497333170573,0.8641707102457682,1.2178107698758442,-1.1154399315516157,,,,,,,,,,,,1.6888758608159985e+18,183.1459983886719,-11.94623966217041,48.77071914672852,-6.531879997253418,1.6888758608159985e+18,183.1459983886719,-267.5728393554688,143.62571716308594,-139.6582794189453,1.6888758608197332e+18,183.1497333170573,0.2159103552500406,-0.3226366738478343,-0.3884965976079305,0.8355422417322794,-0.6484940846761068,0.9086858034133912,-0.1805321971575418
3.2,1.688875860871632e+18,183.20163224283857,-6.922111352284749,-3.9044068654378257,1.2490191459655762,1.688875860871632e+18,183.20163224283857,-3.2514472007751465,-12.725030581156412,3.4516467253367105,1.688875860871632e+18,183.20163224283857,3.647862513860067,-8.80487855275472,2.137913982073466,1.688875860871632e+18,183.20163224283857,1.0837767322858174,5.894747734069824,-6.082792441050212,1.688875860871632e+18,183.20163224283857,1.0830641090869904,5.899380207061768,-6.080399990081787,1.688875860880283e+18,183.2102829589844,0.0,0.0,1.1507394313812256,6.534999847412109,1.7606287002563477,13.714980125427246,34.63967406327086,-122.7499227,49.1915148,1.6888758608659942e+18,183.195994140625,-5.599800086021423,49.95411911010742,-2.0666799426078795,1.6888758608659942e+18,183.195994140625,-261.2263977050781,144.80911865234376,-135.19307556152344,1.688875860871632e+18,183.20163224283857,0.176883449157079,-0.2426438579956689,-0.5015225311120352,0.8085155089696249,-0.5313464403152466,1.1220494508743286,-0.0895464768012364
3.25,1.688875860923525e+18,183.25352526855468,-2.341991364955902,-0.7109107971191406,-1.989601731300354,1.6888758609235264e+18,183.2535266113281,-1.6723836610714595,-10.930613199869793,-0.2440678675969441,1.688875860923525e+18,183.25352526855468,1.4855902791023254,-9.607347011566162,1.2958749532699585,1.6888758609235264e+18,183.2535266113281,-0.243429809808731,4.120642423629761,-3.896047671635946,1.6888758609235264e+18,183.2535266113281,-0.2441424677769343,4.1253767013549805,-3.893604119618734,,,,,,,,,,,,1.6888758609159918e+18,183.2459917480469,10.367559719085694,49.414879608154294,-1.0125999808311463,1.6888758609159918e+18,183.2459917480469,-245.2590301513672,144.26987915039064,-134.13899841308594,1.688875860923525e+18,183.25352526855468,0.0770362056791782,-0.1524572223424911,-0.6324007213115692,0.7552499175071716,-0.7218074798583984,1.3658902049064636,0.3939742892980575
3.3,1.6888758609667768e+18,183.29677701822916,-2.674931009610494,0.4753427505493164,-4.210968017578125,1.6888758609754268e+18,183.30542675781248,-2.1930219729741416,-9.14337412516276,-2.7118657430013022,1.6888758609667768e+18,183.29677701822916,0.2752591421206792,-9.694895744323729,1.412055770556132,1.6888758609754268e+18,183.30542675781248,-0.3073161306480567,0.5876523753007253,-2.9487483501434326,1.6888758609754268e+18,183.30542675781248,-0.3080287886162599,0.5923356662193935,-2.9463558197021484,,,,,,,,,,,,1.6888758609659894e+18,183.29598940429688,18.551319694519044,47.11639938354492,-3.786880016326904,1.6888758609659894e+18,183.29598940429688,-237.0752746582031,141.97139587402344,-136.91327819824218,1.6888758609667768e+18,183.29677701822916,0.0281419257322946,-0.1278934528430302,-0.684104859828949,0.7171705365180969,-1.371350606282552,1.4159144163131714,1.149556279182434
3.35,1.6888758610186826e+18,183.3486829427083,4.522557377815247,3.975144068400065,-1.4376802841822307,1.6888758610273324e+18,183.35733235677085,5.0051867961883545,-4.938586473464966,0.8735797007878622,1.6888758610186826e+18,183.3486829427083,-0.893113911151886,-9.669272104899088,1.3791482051213582,1.6888758610273324e+18,183.35733235677085,0.1742493137717246,0.847728238751491,-1.7028377850850422,1.6888758610273324e+18,183.35733235677085,0.1735366359353065,0.8523606273035208,-1.7004452149073284,,,,,,,,,,,,1.6888758610159972e+18,183.34599716796873,24.966079711914062,44.27867965698242,-4.601840019226074,1.6888758610159972e+18,183.34599716796873,-230.66051635742187,139.13367614746093,-137.72823791503907,1.6888758610186826e+18,183.3486829427083,0.0172295871501167,-0.1235605080922443,-0.7272233565648397,0.6748575965563456,-2.121991197268168,1.401772141456604,1.9218359390894573
3.4,1.688875861070586e+18,183.40058601888015,4.033491055170695,4.05177370707194,-1.4087279240290325,1.688875861070575e+18,183.4005751953125,2.900400221347809,-5.589932918548584,0.1214357316493988,1.688875861070586e+18,183.40058601888015,-1.4517050584157307,-9.587576548258465,1.4790095090866089,1.688875861070575e+18,183.4005751953125,-0.0072540250839665,3.2023847103118896,-1.5581645369529724,1.688875861070575e+18,183.4005751953125,-0.0080176059855148,3.2069661617279053,-1.5557210445404053,,,,,,,,,,,,1.6888758610659983e+18,183.3959983886719,28.055119705200195,42.455998229980466,-6.207359981536865,1.6888758610659983e+18,183.3959983886719,-227.57147521972655,137.31099548339844,-139.33375854492186,1.688875861070586e+18,183.40058601888015,-0.0255007432618488,-0.08634731421868,-0.7522692680358887,0.6521568497021993,-2.341256856918335,1.3578922351201377,2.2546980381011963
3.45,1.6888758611224824e+18,183.4524825032552,-2.741170605023702,-1.3299620946248372,-2.2382620175679526,1.6888758611138327e+18,183.44383268229168,-4.4606203238169355,-9.60718297958374,-0.9060821533203124,1.6888758611224824e+18,183.4524825032552,-1.7340755065282183,-9.496570905049644,1.7390518585840862,1.6888758611138327e+18,183.44383268229168,-0.1274672156820694,2.7430903911590576,-0.9104437430699668,1.6888758611138327e+18,183.44383268229168,-0.1280780763675768,2.747722784678141,-0.9080002903938292,,,,,,,,,,,,1.6888758611160005e+18,183.44600043945312,29.31903953552246,40.84315948486328,-11.13371982574463,1.6888758611160005e+18,183.44600043945312,-226.30755310058595,135.69815368652343,-144.26011657714844,1.6888758611224824e+18,183.4524825032552,-0.0877330849568048,-0.0340060982853174,-0.7659124732017517,0.6358549197514852,-2.349393049875895,1.3180512189865112,2.4260271390279136
3.5,1.6888758611743857e+18,183.5043856608073,5.318538427352905,-6.015129725138347,-5.136425097783406,1.6888758611657295e+18,183.4957294921875,1.9712869723637896,-14.842479705810549,-1.8472590843836467,1.6888758611743857e+18,183.5043856608073,-2.421896775563558,-9.340418497721354,1.765628417332967,1.6888758611657295e+18,183.4957294921875,-0.3486513445774714,-1.1213449388742447,-1.2397001112500825,1.6888758611657295e+18,183.4957294921875,-0.3493640025456746,-1.1167125701904297,-1.237358475724856,,,,,,,,,,,,1.6888758611659948e+18,183.49599487304687,32.23727951049805,38.58127899169922,-12.01211986541748,1.6888758611659948e+18,183.49599487304687,-223.38931579589843,133.4362762451172,-145.13851623535157,1.6888758611743857e+18,183.5043856608073,-0.0806856329242388,-0.0438255742192267,-0.7881693641344706,0.6085391243298849,-2.509002606074015,1.2604241768519084,2.5617668628692627
3.55,1.688875861226282e+18,183.55628190104164,2.9983205795288086,-6.143541971842448,-6.839486440022786,1.6888758612176274e+18,183.54762752278648,1.5120645112668474,-16.416557947794598,-5.741976737976074,1.688875861226282e+18,183.55628190104164,-2.28792134920756,-9.389473915100098,1.6770639816919963,1.6888758612176274e+18,183.54762752278648,0.5366960068543752,0.4749986392756303,0.3393865525722503,1.6888758612176274e+18,183.54762752278648,0.5360342462857565,0.4796819314360618,0.341779092947642,,,,,,,,,,,,1.6888758612160005e+18,183.54600048828124,32.59351844787598,37.92735900878906,-12.15851993560791,1.6888758612160005e+18,183.54600048828124,-223.03307189941407,132.78235778808593,-145.2849151611328,1.688875861226282e+18,183.55628190104164,-0.0829747344056764,-0.0336413669089475,-0.7846148610115051,0.6134244998296102,-2.5095417499542236,1.27670419216156,2.5800859133402505
3.6,1.6888758612695265e+18,183.5995262451172,-0.7580686211585999,-2.182631015777588,-0.9906410276889802,1.6888758612695314e+18,183.59953125,-2.2937198877334595,-12.593226114908854,-0.5132604688405991,1.6888758612695265e+18,183.5995262451172,-1.6632384061813354,-9.590462684631348,1.1912317872047424,1.6888758612695314e+18,183.59953125,1.015308936436971,-1.3864604830741882,2.658943692843119,1.6888758612695314e+18,183.59953125,1.0146472056706746,-1.3817262649536133,2.6613871256510415,,,,,,,,,,,,1.6888758612659976e+18,183.59599765625,30.10471954345703,40.52839889526367,-9.818559837341308,1.6888758612659976e+18,183.59599765625,-225.521875,135.3833984375,-142.94495849609376,1.6888758612695265e+18,183.5995262451172,-0.054065953940153,-0.0304629337042569,-0.7642286121845245,0.641753613948822,-2.5159398317337036,1.3597887754440308,2.549533724784851
3.65,1.6888758613127785e+18,183.64277856445312,-3.378755251566569,-6.362399101257324,1.5775540272394817,1.68887586132142e+18,183.65142024739583,-3.3884363174438477,-16.440685590108234,3.8520456651846566,1.6888758613127785e+18,183.64277856445312,-0.2721635599931081,-9.775202751159668,0.5888400673866272,1.68887586132142e+18,183.65142024739583,1.0374527871608734,-1.6096299489339192,3.716656843821207,1.68887586132142e+18,183.65142024739583,1.0366892367601392,-1.6049975156784058,3.718998511632284,,,,,,,,,,,,1.688875861315993e+18,183.64599306640625,22.953079223632812,45.32055892944336,-5.224039888381958,1.688875861315993e+18,183.64599306640625,-232.67351684570312,140.17555541992186,-138.35043640136718,1.6888758613127785e+18,183.64277856445312,-0.0097009387488166,-0.0331053522725899,-0.7159958879152933,0.696679413318634,-1.764081954956055,1.4918680985768635,1.730962594350179
3.7,1.6888758613646707e+18,183.69467073567708,-4.297830740610759,-9.223730087280272,12.473069190979004,1.688875861373322e+18,183.70332194010416,-2.558525691429774,-17.86621030171712,12.950953165690104,1.6888758613646707e+18,183.69467073567708,1.7370420296986897,-9.617562611897789,0.6149650911490122,1.688875861373322e+18,183.70332194010416,-0.3840815151731173,-2.6583327452341714,3.905923207600912,1.688875861373322e+18,183.70332194010416,-0.3847432980934779,-2.653700351715088,3.908315817515055,,,,,,,,,,,,1.688875861365993e+18,183.69599301757813,13.329719734191894,48.92199935913086,-3.2256799221038817,1.688875861365993e+18,183.69599301757813,-242.2968780517578,143.777001953125,-136.3520751953125,1.6888758613646707e+18,183.69467073567708,0.0295539659758408,-0.0652493101855118,-0.6375429630279541,0.7663296461105347,-0.3550261358420054,1.381198525428772,0.2200837979714075
3.75,1.6888758614165755e+18,183.74657576497395,-1.1200466950734456,-0.2204542160034179,0.4062118927637736,1.688875861425224e+18,183.7552240397135,1.7004992564519246,-8.381658871968588,0.1124626596768697,1.6888758614165755e+18,183.74657576497395,3.1008354822794595,-9.240774154663086,1.0519068837165833,1.688875861425224e+18,183.7552240397135,0.7901032666365305,-2.590730388959249,2.8671469688415527,1.688875861425224e+18,183.7552240397135,0.7894415259361267,-2.585996230443319,2.869488557179769,1.6888758613992822e+18,183.7292822265625,0.0,0.0,1.1507394313812256,6.559999942779541,1.7575258016586304,13.288447380065918,34.63967406327086,-122.7499158,49.1915238,1.6888758614159916e+18,183.74599150390625,5.001999926567078,50.68367919921875,-1.8226799726486207,1.6888758614159916e+18,183.74599150390625,-250.62459411621097,145.53867797851564,-134.94907836914064,1.6888758614165755e+18,183.74657576497395,0.089115264515082,-0.1293827618161837,-0.569780170917511,0.8061135609944662,-0.3310644030570983,1.229640007019043,0.0159594509750604
3.8,1.6888758614684744e+18,183.79847428385415,-9.148409207661947,7.180811723073323,-2.570690313975016,1.6888758614771274e+18,183.80712736002604,-5.02133830388387,-0.2295115788777669,-1.2907284100850422,1.6888758614684744e+18,183.79847428385415,4.291109085083008,-8.75828774770101,1.0086679855982463,1.6888758614771274e+18,183.80712736002604,0.4562654147545497,-2.774957180023194,2.5531113147735596,1.6888758614771274e+18,183.80712736002604,0.4555527468522389,-2.77032478650411,2.555503845214844,,,,,,,,,,,,1.6888758614659937e+18,183.79599345703124,-2.654719950258732,50.75199890136719,1.0272399812936783,1.6888758614659937e+18,183.79599345703124,-258.28131103515625,145.60699768066405,-132.09915466308593,1.6888758614684744e+18,183.79847428385415,0.1478516211112339,-0.1517920444409052,-0.5070949594179789,0.8350244561831156,-0.2327332894007364,1.1026171445846558,-0.2067454804976781
3.85,1.6888758615203704e+18,183.8503704427083,-8.510013103485107,11.578927993774414,-2.4651670853296914,1.6888758615203722e+18,183.85037243652343,-4.031906008720398,3.949652910232544,-0.9293124973773956,1.6888758615203704e+18,183.8503704427083,5.044139703114827,-8.217020034790039,1.7731352249781291,1.6888758615203722e+18,183.85037243652343,-0.324064016342163,-3.39007306098938,2.2226332426071167,1.6888758615203722e+18,183.85037243652343,-0.3246748819947243,-3.385415196418762,2.225000262260437,,,,,,,,,,,,1.6888758615159926e+18,183.8459925292969,-8.967000007629395,50.22251892089844,0.6099999666213989,1.6888758615159926e+18,183.8459925292969,-264.593603515625,145.0775146484375,-132.51639404296876,1.6888758615203704e+18,183.8503704427083,0.1979537854592005,-0.2112330595652262,-0.4435137609640757,0.847770611445109,-0.3391085565090179,0.9905558625857036,-0.2748546401659648
3.9,1.688875861572275e+18,183.9022747395833,-2.1092934608459473,7.157822608947754,1.5380926926930745,1.688875861563622e+18,183.89362223307293,2.9928228855133057,-0.1996012926101684,3.425724426905314,1.688875861572275e+18,183.9022747395833,5.202744801839192,-7.975577354431152,2.3533272743225098,1.688875861563622e+18,183.89362223307293,0.4617632189765573,-1.7454965511957805,0.1926261881987253,1.688875861563622e+18,183.89362223307293,0.4610505405192573,-1.7408641179402669,0.1950696508089701,,,,,,,,,,,,1.6888758615659912e+18,183.8959911621094,-12.361039733886718,49.717438507080075,-1.14191997051239,1.6888758615659912e+18,183.8959911621094,-267.9876403808594,144.5724365234375,-134.26831970214843,1.688875861572275e+18,183.9022747395833,0.2305464396874109,-0.2554410447676976,-0.411289632320404,0.8439760804176331,-0.4268424808979034,0.947835385799408,-0.3118939697742462
3.95,1.6888758616241713e+18,183.9541710611979,6.695222536722819,2.076143264770508,3.748028039932251,1.6888758616155195e+18,183.9455196126302,7.86660369237264,-4.021537224451701,5.243272622426351,1.6888758616241713e+18,183.9541710611979,4.445689678192139,-8.475954373677572,2.130631049474081,1.6888758616155195e+18,183.9455196126302,1.0657562017440796,-0.3967060695091883,-2.151925484339396,1.6888758616155195e+18,183.9455196126302,1.0651453733444214,-0.3920736908912658,-2.149532993634542,,,,,,,,,,,,1.6888758616159928e+18,183.9459927734375,-9.042639827728271,50.173719787597655,0.2366800040006637,1.6888758616159928e+18,183.9459927734375,-264.6692321777344,145.02872009277343,-132.88971862792968,1.6888758616241713e+18,183.9541710611979,0.2475658158461252,-0.2694842020670573,-0.4480155209700265,0.8155557711919149,-0.4484733442465464,1.0439311663309734,-0.3283380369345347
4.0,1.688875861676072e+18,184.00607202148436,5.7190626462300616,-15.261408170064293,8.831111749013266,1.6888758616674253e+18,183.99742537434895,12.25324567159017,-24.8863525390625,10.59023412068685,1.688875861676072e+18,184.00607202148436,4.427632013956706,-8.242498715718588,2.9115583896636963,1.6888758616674253e+18,183.99742537434895,-1.344667136669159,-2.7403923670450845,1.668731113274892,1.6888758616674253e+18,183.99742537434895,-1.3453798095385234,-2.7357091108957925,1.6711746056874592,,,,,,,,,,,,1.6888758616659924e+18,183.995992578125,-6.534319877624512,50.70075912475586,-0.1805600047111511,1.6888758616659924e+18,183.995992578125,-262.1609130859375,145.55575561523438,-133.30695495605468,1.688875861676072e+18,184.00607202148436,0.2564119050900141,-0.3144899904727935,-0.4179177284240722,0.8121668895085653,-0.5791525443394979,0.9991311430931092,-0.2901984055836995
4.05,1.688875861719325e+18,184.04932495117188,-2.51993727684021,-8.015876054763794,9.018295764923096,1.6888758617193257e+18,184.04932568359376,-0.6979066530863444,-14.83789316813151,11.0464657942454,1.688875861719325e+18,184.04932495117188,4.786767959594727,-7.657219409942627,3.828362345695496,1.6888758617193257e+18,184.04932568359376,-1.5559755563735962,0.0726929505666097,1.4999287128448486,1.6888758617193257e+18,184.04932568359376,-1.5566882689793904,0.0774272282918293,1.5023212830225627,,,,,,,,,,,,1.6888758617160005e+18,184.0460001953125,-11.241079711914065,49.63935928344726,-4.953200006484986,1.6888758617160005e+18,184.0460001953125,-266.86767578125,144.4943603515625,-138.07959899902343,1.688875861719325e+18,184.04932495117188,0.2596435919404029,-0.3521090447902679,-0.363758772611618,0.8222489655017853,-0.6750366985797882,0.896604061126709,-0.277322381734848
4.1,1.6888758617625792e+18,184.09257934570311,-9.875314553578695,0.2694814999898269,-6.334958712259929,1.6888758617712243e+18,184.1012245279948,-2.2763720055421195,-4.087140440940857,-3.2839497725168862,1.6888758617625792e+18,184.09257934570311,5.018213431040446,-7.60987122853597,3.6074325243632,1.6888758617712243e+18,184.1012245279948,1.0958922629555066,2.2333232959111533,-2.132123271624247,1.6888758617712243e+18,184.1012245279948,1.095179537932078,2.2379557291666665,-2.1296799083550773,,,,,,,,,,,,1.688875861765996e+18,184.09599619140627,-13.441959571838378,48.9244384765625,-5.245999956130982,1.688875861765996e+18,184.09599619140627,-269.0685546875,143.77943725585936,-138.37239685058594,1.6888758617625792e+18,184.09257934570311,0.2369863192240397,-0.3253394365310669,-0.3714195092519124,0.8363911509513855,-0.6232601801554362,0.8881750305493673,-0.2483766973018645
4.15,1.68887586181448e+18,184.14447981770832,-6.002248207728068,3.0164009730021157,-1.1989405155181885,1.6888758618231296e+18,184.15312947591147,-3.967698733011882,-7.886743466059367,1.79023015499115,1.68887586181448e+18,184.14447981770832,3.936375061670939,-8.71910317738851,2.0133899450302124,1.6888758618231296e+18,184.15312947591147,1.0241664747397106,5.599547227223714,-6.013306458791097,1.6888758618231296e+18,184.15312947591147,1.0235047141710918,5.604179700215657,-6.010863145192464,,,,,,,,,,,,1.688875861815997e+18,184.14599672851563,-3.667319893836975,50.35183868408203,-0.0195199966430663,1.688875861815997e+18,184.14599672851563,-259.2939147949219,145.20684204101562,-133.1459167480469,1.68887586181448e+18,184.14447981770832,0.1989420056343078,-0.2443507611751556,-0.4862862229347229,0.8128527800242106,-0.4686943789323171,1.099737803141276,-0.1898207664489745
4.2,1.6888758618663785e+18,184.19637841796873,-5.74975601832072,-1.815964698791504,0.9926483631134032,1.6888758618750282e+18,184.2050283203125,-3.3475588162740073,-11.403793970743816,1.5411771734555562,1.6888758618663785e+18,184.19637841796873,1.1373213628927867,-9.660419146219889,1.081023931503296,1.6888758618750282e+18,184.2050283203125,-0.2957605818907419,6.766961574554443,-5.154430150985718,1.6888758618750282e+18,184.2050283203125,-0.2964732646942138,6.771543025970459,-5.151986598968506,,,,,,,,,,,,1.6888758618659988e+18,184.195998828125,14.069039916992187,48.66823959350586,-0.2732800003141165,1.6888758618659988e+18,184.195998828125,-241.55755615234375,143.5232360839844,-133.3996795654297,1.6888758618663785e+18,184.19637841796873,0.0880139904717603,-0.149513746301333,-0.6454115509986877,0.7413253585497538,-0.8357341885566711,1.402244210243225,0.4962363342444102
4.25,1.688875861918279e+18,184.24827888997393,-7.334528128306071,-0.9301325480143228,-4.414355595906575,1.6888758619269284e+18,184.25692830403645,-6.522036989529927,-10.019146919250488,-3.76849627494812,1.688875861918279e+18,184.24827888997393,-0.3947576022086044,-9.717536926269531,1.2425620555877686,1.6888758619269284e+18,184.25692830403645,-0.5046765009562174,1.413542091846466,-2.402838389078776,1.6888758619269284e+18,184.25692830403645,-0.5053891738255819,1.4181746244430542,-2.4003949960072837,1.688875861918281e+18,184.24828100585935,0.0,0.0,1.1492542028427124,6.568999767303467,1.7554597854614258,12.63803768157959,34.63967406327086,-122.7499144,49.1915293,1.6888758619159972e+18,184.24599721679687,22.20887985229492,45.58407974243164,-6.690479755401611,1.6888758619159972e+18,184.24599721679687,-233.41771240234377,140.43907470703124,-139.81687927246094,1.688875861918279e+18,184.24827888997393,-0.0325767016038298,-0.0578747031589348,-0.7174722154935201,0.6930104692776998,-1.8274056514104209,1.4345080455144246,1.791550874710083
4.3,1.6888758619701773e+18,184.30017724609377,11.085558891296388,1.6301538149515789,-1.1731053988138835,1.688875861970178e+18,184.3001779785156,11.257034063339232,-8.744271278381348,0.8210372924804689,1.6888758619701773e+18,184.30017724609377,-1.401875336964925,-9.61979611714681,1.303606390953064,1.688875861970178e+18,184.3001779785156,-0.0828485935926437,-0.6393468677997589,-1.5608370304107666,1.688875861970178e+18,184.3001779785156,-0.0835358239710331,-0.6346889734268188,-1.5583935976028442,,,,,,,,,,,,1.688875861965996e+18,184.29599599609375,27.249919509887697,42.93423919677734,-7.32731990814209,1.688875861965996e+18,184.29599599609375,-228.37667846679688,137.78923645019532,-140.45372009277344,1.6888758619701773e+18,184.30017724609377,-0.0318022618691126,-0.065561590095361,-0.7519856095314026,0.6550429264704386,-2.373468001683553,1.375779628753662,2.3254913489023843
4.35,1.6888758620220785e+18,184.35207853190104,-0.8569545745849609,1.7136216163635254,-3.201911171277364,1.6888758620134244e+18,184.34342447916663,0.6378866434097296,-7.478567759195964,-0.9535398483276368,1.6888758620220785e+18,184.35207853190104,-1.7189886569976809,-9.531180063883465,1.558532992998759,1.6888758620134244e+18,184.34342447916663,-0.0050396385292212,4.086790243784587,-1.0607675313949585,1.6888758620134244e+18,184.34342447916663,-0.0058032187322775,4.091524521509807,-1.0583749016125996,,,,,,,,,,,,1.6888758620159974e+18,184.34599741210937,28.555319595336915,41.27259902954101,-10.521279907226562,1.6888758620159974e+18,184.34599741210937,-227.07127990722657,136.12759704589843,-143.64767761230468,1.6888758620220785e+18,184.35207853190104,-0.0928073823451995,-0.0132775198047359,-0.7654551466306051,0.6359320481618246,-2.39810840288798,1.333439866701762,2.5115177631378174
4.4,1.6888758620739743e+18,184.4039745279948,-1.68525234858195,-0.2072140375773112,0.3035754362742106,1.688875862065324e+18,184.39532421875,-4.919842720031738,-9.453842798868816,1.2000005046526592,1.6888758620739743e+18,184.4039745279948,-2.005945563316345,-9.455011367797852,1.660425901412964,1.688875862065324e+18,184.39532421875,0.3985895812511444,1.949067364136378,-1.1592695116996763,1.688875862065324e+18,184.39532421875,0.3978768984476725,1.953801542520523,-1.1568260391553242,,,,,,,,,,,,1.6888758620659963e+18,184.3959962402344,28.13075942993164,40.25023956298829,-14.89131965637207,1.6888758620659963e+18,184.3959962402344,-227.49583740234377,135.10523986816406,-148.01771850585936,1.6888758620739743e+18,184.4039745279948,-0.1422038823366165,0.0414112036426861,-0.7739522457122803,0.6154845158259074,-2.4401513735453286,1.3035249312718709,2.7029335498809814
4.45,1.6888758621258783e+18,184.45587849934896,8.016191124916077,-3.668381373087565,-4.897602796554565,1.6888758621172273e+18,184.4472273763021,6.038885990778605,-11.315059979756674,-1.312861979007721,1.6888758621258783e+18,184.45587849934896,-2.6643139521280923,-9.318870862325031,1.501681208610535,1.6888758621172273e+18,184.4472273763021,-0.2711732586224873,-0.4702644944190979,-0.9362018903096516,1.6888758621172273e+18,184.4472273763021,-0.2718350291252136,-0.4655810991923014,-0.9338093400001526,,,,,,,,,,,,1.688875862115994e+18,184.445994140625,32.05183982849121,38.16403884887696,-13.524919891357422,1.688875862115994e+18,184.445994140625,-223.5747589111328,133.01903686523437,-146.651318359375,1.6888758621258783e+18,184.45587849934896,-0.1246301631132761,0.0381006362537542,-0.7958344419797262,0.5911538203557333,-2.6249818801879883,1.2547677357991536,2.8585683504740396
4.5,1.688875862169127e+18,184.4991265869141,-2.0793206691741943,-9.07493543624878,-9.96428918838501,1.688875862169127e+18,184.4991270345052,-4.113262176513672,-18.071194966634113,-7.952944755554199,1.688875862169127e+18,184.4991265869141,-2.302904486656189,-9.390584468841553,1.6545069813728333,1.688875862169127e+18,184.4991270345052,0.5948300262292227,0.2652682450910408,0.7310020724932352,1.688875862169127e+18,184.4991270345052,0.5941682855288187,0.2699006510277588,0.7334455450375875,,,,,,,,,,,,1.6888758621659983e+18,184.4959983886719,30.570759582519532,38.17379913330078,-15.186559677124023,1.6888758621659983e+18,184.4959983886719,-225.0558349609375,133.02879638671874,-148.31295776367188,1.688875862169127e+18,184.4991265869141,-0.1472813785076141,0.051550818607211,-0.7835705280303955,0.6013613939285278,-2.5158796310424805,1.2786172032356262,2.8010690212249756
4.55,1.688875862212377e+18,184.54237744140627,1.7260499795277913,-3.8670129776000977,-0.3026906649271647,1.688875862221028e+18,184.55102783203128,0.4987041354179382,-12.97847048441569,2.4093729654947915,1.688875862212377e+18,184.54237744140627,-1.7420718272527058,-9.589631080627443,1.0284063617388408,1.688875862221028e+18,184.55102783203128,1.213585654894511,-1.3471105496088664,2.795879284540812,1.688875862221028e+18,184.55102783203128,1.2129747072855632,-1.3424781958262126,2.7983227968215942,,,,,,,,,,,,1.6888758622159964e+18,184.5459963867187,28.689519119262695,40.716278839111325,-12.334199714660643,1.6888758622159964e+18,184.5459963867187,-226.93707275390625,135.57127685546874,-145.46059875488282,1.688875862212377e+18,184.54237744140627,-0.1115435510873794,0.0521890458961327,-0.7650763988494873,0.631598154703776,-2.601978858311971,1.3637299140294392,2.8354188601175943
4.6,1.6888758622642737e+18,184.5942737630208,-3.0979310870170593,-5.685933430989583,4.355377753575643,1.6888758622729267e+18,184.6029267578125,-3.706482251485189,-16.656239191691082,5.466403325398763,1.6888758622642737e+18,184.5942737630208,-0.2217811544736226,-9.785666465759276,0.4999508957068125,1.6888758622729267e+18,184.6029267578125,0.5112433036168417,-0.7792604168256124,3.3097697099049888,1.6888758622729267e+18,184.6029267578125,0.5105815380811691,-0.7746280332406362,3.312213182449341,,,,,,,,,,,,1.6888758622659948e+18,184.59599492187505,22.357719802856444,44.94723968505859,-9.052400016784668,1.6888758622659948e+18,184.59599492187505,-233.2688720703125,139.80223693847657,-142.17879638671874,1.6888758622642737e+18,184.5942737630208,-0.0822619100411732,0.0476736724376678,-0.7128864328066508,0.6944495439529419,-1.7969866196314497,1.5030944347381592,1.9811216195424397
4.65,1.6888758623161766e+18,184.64617675781247,-5.29827904701233,-8.192526499430338,8.828474839528402,1.6888758623248274e+18,184.6548274739583,-4.61136809984843,-17.064414660135906,9.418947537740072,1.6888758623161766e+18,184.64617675781247,1.6296136379241943,-9.64218552907308,0.5732171932856241,1.6888758623248274e+18,184.6548274739583,-0.3492622027794519,-2.206699788570404,3.4909421602884927,1.6888758623248274e+18,184.6548274739583,-0.3499748806158702,-2.202016512552897,3.493385553359986,,,,,,,,,,,,1.6888758623159985e+18,184.6459984375,13.437080001831054,48.294918823242185,-7.632319736480713,1.6888758623159985e+18,184.6459984375,-242.18951416015625,143.14991455078126,-140.7587158203125,1.6888758623161766e+18,184.64617675781247,-0.0675109277168909,0.0189045953253904,-0.6443599859873453,0.7609402934710184,-0.3506759007771809,1.391621708869934,0.473455270131429
4.7,1.6888758623680737e+18,184.69807356770832,-1.355082869529724,0.1306435267130533,1.095215956370036,1.6888758623767265e+18,184.70672615559897,1.8596219221750896,-8.040283044179281,0.8071788611511389,1.6888758623680737e+18,184.69807356770832,2.7731592655181885,-9.348800977071129,1.0253159403800964,1.6888758623767265e+18,184.70672615559897,0.6317364672819773,-3.1093549331029258,2.5742879708607993,1.6888758623767265e+18,184.70672615559897,0.6310237944126129,-3.104722579320272,2.576731483141581,,,,,,,,,,,,1.6888758623659935e+18,184.6959932617187,6.861279726028442,50.0468391418457,-6.753919792175293,1.6888758623659935e+18,184.6959932617187,-248.76531677246095,144.90183715820314,-139.88031616210938,1.6888758623680737e+18,184.69807356770832,-0.0105430603337784,-0.0573204408089319,-0.5948591629664103,0.801121175289154,-0.3555975258350372,1.2621599833170574,0.2884902159372965
4.75,1.688875862419972e+18,184.74997200520832,-7.703191598256429,6.849675019582112,-1.322716216246287,1.6888758624199762e+18,184.74997619628903,-4.229314088821411,-1.825424522161484,-0.2392822697293013,1.688875862419972e+18,184.74997200520832,3.9244562784830728,-8.934030214945475,0.9664771358172098,1.6888758624199762e+18,184.74997619628903,0.919810324907303,-1.9091066122055056,2.6177866458892822,1.6888758624199762e+18,184.74997619628903,0.9191231429576874,-1.9044488072395325,2.620153784751892,1.6888758624312412e+18,184.7612412109375,0.0,0.0,1.1492542028427124,6.580999851226807,1.7435051202774048,11.070379257202148,34.63967406327086,-122.7499144,49.1915376,1.6888758624159985e+18,184.7459984375,-0.3830799698829651,50.51043853759766,-3.9454798221588137,1.6888758624159985e+18,184.7459984375,-256.0096771240234,145.36543884277344,-137.071875,1.688875862419972e+18,184.74997200520832,0.0426474058379729,-0.0867849042018254,-0.5392741560935974,0.8362399140993754,-0.2435315301020939,1.1426942348480225,0.0557810905544707
4.8,1.6888758624718769e+18,184.80187679036456,-7.93807856241862,12.382330576578775,-1.9749832948048909,1.6888758624632223e+18,184.79322265625,-4.408376932144165,3.310669561227163,-0.432103877266248,1.6888758624718769e+18,184.80187679036456,4.621955712636312,-8.548837025960287,1.3186444441477458,1.6888758624632223e+18,184.79322265625,0.5469280083974203,-3.156238873799642,1.8306612968444824,1.6888758624632223e+18,184.79322265625,0.5462153355280558,-3.1516574223836265,1.8330539067586265,,,,,,,,,,,,1.6888758624659937e+18,184.79599350585937,-5.250879907608033,50.67635879516602,-2.317999982833862,1.6888758624659937e+18,184.79599350585937,-260.8774719238281,145.53135681152344,-135.44440002441405,1.6888758624718769e+18,184.80187679036456,0.1002011249462763,-0.1377202197909355,-0.4933760066827138,0.8525957465171814,-0.2791321376959483,1.0542691946029663,-0.0709144324064254
4.85,1.6888758625237755e+18,184.85377579752603,-2.2347583770751953,7.077822685241699,0.0823580821355183,1.6888758625151222e+18,184.84512207031253,1.4775679757197695,-0.2396811048189799,1.1615159511566162,1.6888758625237755e+18,184.85377579752603,4.738976955413818,-8.416614532470703,1.7101576725641887,1.6888758625151222e+18,184.84512207031253,0.5561419129371643,-1.9785925547281904,0.0828740497430165,1.6888758625151222e+18,184.84512207031253,0.555429220199585,-1.9739092588424685,0.0853175123532612,,,,,,,,,,,,1.6888758625159982e+18,184.8459984375,-7.46639986038208,50.43479919433594,-2.3863200187683105,1.6888758625159982e+18,184.8459984375,-263.09299926757814,145.2897979736328,-135.5127166748047,1.6888758625237755e+18,184.85377579752603,0.1424559702475865,-0.1831113298734028,-0.4729318122069041,0.8499142924944559,-0.3486710786819458,1.0279182195663452,-0.133926473557949
4.9,1.6888758625756726e+18,184.90567252604168,7.409395217895508,0.0279730161031087,2.332039594650269,1.6888758625670254e+18,184.8970254720052,9.60279623667399,-6.332206169764201,3.3026934464772544,1.6888758625756726e+18,184.90567252604168,4.010480880737305,-8.836957931518555,1.3986623684565227,1.6888758625670254e+18,184.8970254720052,1.2614367008209229,-0.3570507417122523,-2.057852268218994,1.6888758625670254e+18,184.8970254720052,1.2607240676879885,-0.3524183332920074,-2.055408835411072,,,,,,,,,,,,1.688875862565994e+18,184.89599423828128,-4.01135995388031,50.63731918334961,-0.0244000017642975,1.688875862565994e+18,184.89599423828128,-259.63795776367186,145.49231872558593,-133.15079650878906,1.6888758625756726e+18,184.90567252604168,0.1676963965098062,-0.1912629504998524,-0.5078781843185425,0.8228461742401123,-0.3374624053637187,1.1202354431152344,-0.1894841343164443
4.95,1.6888758626275756e+18,184.95757552083333,6.024602333704631,-13.715657234191896,4.800114075342814,1.688875862618925e+18,184.9489249674479,11.65204906463623,-24.648466110229492,6.884549617767334,1.6888758626275756e+18,184.95757552083333,4.102750857671102,-8.700711568196615,1.8769502639770508,1.688875862618925e+18,184.9489249674479,-0.7403177917003632,-2.853707790374756,1.716124137242635,1.688875862618925e+18,184.9489249674479,-0.7409795522689819,-2.8490245590607324,1.7185675899187725,,,,,,,,,,,,1.6888758626159982e+18,184.94599833984375,-1.5689199268817902,50.9593994140625,0.1756800055503845,1.6888758626159982e+18,184.94599833984375,-257.1955169677734,145.81439819335938,-132.95071716308593,1.6888758626275756e+18,184.95757552083333,0.1884946773449579,-0.2288862218459446,-0.4865781565507253,0.8210065563519796,-0.4273964663346608,1.0895224412282307,-0.1908136804898579
5.0,1.6888758626708252e+18,185.0008251953125,-1.0284732580184937,2.99953556060791,8.25738263130188,1.6888758626708214e+18,185.0008215332031,1.8845473130544024,-7.255038340886434,9.619146982828775,1.6888758626708252e+18,185.0008251953125,4.208464860916138,-8.512107849121094,2.461159348487854,1.6888758626708214e+18,185.0008215332031,-0.0798706213633219,-0.9948449929555258,-0.484619786341985,1.6888758626708214e+18,185.0008215332031,-0.0805324018001556,-0.9902635018030802,-0.4821762641270955,,,,,,,,,,,,1.6888758626659963e+18,184.99599643554689,-5.292359828948975,50.75687866210937,-0.9759999632835388,1.6888758626659963e+18,184.99599643554689,-260.91895751953126,145.61187133789062,-134.10239868164064,1.6888758626708252e+18,185.0008251953125,0.2209188267588615,-0.2780027538537979,-0.4559030830860138,0.816104531288147,-0.5311404764652252,1.0490867495536804,-0.21643678098917
5.05,1.688875862714074e+18,185.04407421875,-13.354848861694336,-3.628085136413574,-1.0148972670237224,1.6888758627227246e+18,185.05272477213543,-7.324430088202159,-10.661420504252115,-0.867398182551066,1.688875862714074e+18,185.04407421875,3.847496589024862,-8.732247034708658,2.2616501251856485,1.6888758627227246e+18,185.05272477213543,0.5263622105121613,3.055853366851806,-1.0483465492725372,1.6888758627227246e+18,185.05272477213543,0.5257513523101807,3.060434897740682,-1.0459540088971455,,,,,,,,,,,,1.6888758627159964e+18,185.0459963378906,-3.5892398834228514,50.59827880859375,-1.654319977760315,1.6888758627159964e+18,185.0459963378906,-259.21583251953126,145.45327453613282,-134.7807189941406,1.688875862714074e+18,185.04407421875,0.1873960842688878,-0.2550201366345088,-0.4876427749792735,0.8133137027422587,-0.5318661828835806,1.095770239830017,-0.123811883231004
5.1,1.6888758627659748e+18,185.09597501627604,-3.2716524600982666,2.639723618825277,-2.1627363761266074,1.6888758627746158e+18,185.10461564127604,-1.2023934523264568,-6.861020088195801,-0.4594219637413819,1.6888758627659748e+18,185.09597501627604,3.151144027709961,-9.20224666595459,1.151861011981964,1.6888758627746158e+18,185.10461564127604,0.5199990570545197,4.564486980438232,-3.768885850906372,1.6888758627746158e+18,185.10461564127604,0.5193881491820017,4.569068431854248,-3.76644237836202,,,,,,,,,,,,1.6888758627659978e+18,185.0959978515625,1.3005200147628784,50.612918090820315,1.2151199638843535,1.6888758627659978e+18,185.0959978515625,-254.3260711669922,145.4679168701172,-131.9112762451172,1.6888758627659748e+18,185.09597501627604,0.1497089813152948,-0.1772142052650451,-0.5527017513910929,0.7993141810099283,-0.3465308845043182,1.21787432829539,-0.1282816330591837
5.15,1.6888758628178683e+18,185.14786832682293,-8.375153064727783,-0.0570046106974283,-0.2967289686203003,1.6888758628265247e+18,185.15652473958335,-7.050451914469401,-11.676575660705566,0.9996016422907512,1.6888758628178683e+18,185.14786832682293,1.1976125240325928,-9.67082373301188,0.9632222255071003,1.6888758628265247e+18,185.15652473958335,-1.9706512292226157,3.620598395665487,-3.8786888122558594,1.6888758628265247e+18,185.15652473958335,-1.9712621768315632,3.6252307097117105,-3.8762454986572266,,,,,,,,,,,,1.6888758628159985e+18,185.14599848632815,12.346399593353272,49.178199768066406,-1.156559979915619,1.6888758628159985e+18,185.14599848632815,-243.2801971435547,144.0332000732422,-134.2829559326172,1.6888758628178683e+18,185.14786832682293,0.0510193891823291,-0.1100443998972574,-0.6514496008555094,0.7477274139722189,-0.7189413209756216,1.4009815851847331,0.4896546937525272
5.2,1.6888758628697743e+18,185.19977425130207,-3.2325525283813477,-2.5657924016316733,-3.053526600201925,1.6888758628697708e+18,185.19977087402344,-3.66670161485672,-12.40857982635498,-1.851446509361267,1.6888758628697743e+18,185.19977425130207,-0.1822743515173594,-9.705008506774902,1.3830296595891316,1.6888758628697708e+18,185.19977087402344,0.445549835683778,1.0321332067251203,-2.2410354614257812,1.6888758628697708e+18,185.19977087402344,0.4449389590881765,1.0367910414934158,-2.238592028617859,,,,,,,,,,,,1.6888758628659986e+18,185.19599877929687,20.081199645996097,46.13307876586914,-6.570919799804687,1.6888758628659986e+18,185.19599877929687,-235.54539489746097,140.98807678222656,-139.69731750488282,1.6888758628697743e+18,185.19977425130207,-0.0185563514629999,-0.0824487283825873,-0.7070679267247518,0.7018465002377828,-1.678782065709432,1.4239106178283691,1.5881435076395671
5.25,1.6888758629216745e+18,185.2516744791667,5.3723758061726885,3.405099868774414,-0.8328666687011719,1.6888758629130227e+18,185.24302270507815,3.868197202682495,-6.069594065348308,-0.456231489777565,1.6888758629216745e+18,185.2516744791667,-1.319601853688558,-9.662139256795248,1.0385422309239705,1.6888758629130227e+18,185.24302270507815,0.6703736980756124,0.7531968578696251,-2.381865461667379,1.6888758629130227e+18,185.24302270507815,0.6697119275728861,0.7578292439381281,-2.379421909650167,,,,,,,,,,,,1.6888758629159995e+18,185.245999609375,25.663919067382817,44.00539932250977,-6.148799896240234,1.6888758629159995e+18,185.245999609375,-229.96267395019532,138.8603973388672,-139.27519836425782,1.6888758629216745e+18,185.2516744791667,-0.0212694940467675,-0.0566610433161258,-0.7495203415552775,0.6589715679486593,-2.4442225297292075,1.400227944056193,2.3939932187398276
5.3,1.6888758629735703e+18,185.3035705566406,2.374704341093699,1.2621889114379885,-1.0771886110305786,1.6888758629649244e+18,185.29492439778645,1.3886347338557243,-7.937989711761475,0.486939400434494,1.6888758629735703e+18,185.3035705566406,-1.7767676909764607,-9.58383560180664,1.1028042236963909,1.6888758629649244e+18,185.29492439778645,0.0066176975766817,2.071393132209778,-0.9401725133260092,1.6888758629649244e+18,185.29492439778645,0.0059559345245361,2.0759745836257935,-0.9377290606498718,1.688875862956272e+18,185.28627197265624,0.0,0.0,1.148087978363037,6.589000225067139,1.7282168865203855,9.267050743103027,35.13712342687496,-122.7499164,49.1915443,1.6888758629660024e+18,185.29600249023437,28.550439453125,42.04119873046875,-7.759199810028076,1.6888758629660024e+18,185.29600249023437,-227.0761535644531,136.8961944580078,-140.885595703125,1.6888758629735703e+18,185.3035705566406,-0.0581259789566198,-0.0184913802271087,-0.7670891086260477,0.6384715040524801,-2.5757158597310386,1.3586682081222534,2.6321141719818115
5.35,1.6888758630254735e+18,185.3554736328125,1.5644389788309734,-1.392457644144694,-1.2237116893132527,1.6888758630168248e+18,185.3468249511719,-1.0610174338022869,-10.548559188842772,-0.0767697195212046,1.6888758630254735e+18,185.3554736328125,-2.1453663110733032,-9.475152333577476,1.3514209985733032,1.6888758630168248e+18,185.3468249511719,-0.2321287890275319,1.209767719109853,-1.0317514141400654,1.6888758630168248e+18,185.3468249511719,-0.2328414718310038,1.214501937230428,-1.0293588439623516,,,,,,,,,,,,1.688875863015995e+18,185.3459948730469,29.931478881835936,40.46251907348633,-10.365119743347169,1.688875863015995e+18,185.3459948730469,-225.6951110839844,135.31751403808593,-143.49151916503905,1.6888758630254735e+18,185.3554736328125,-0.0911000842849413,0.0032895762124098,-0.7795440157254537,0.6195934414863586,-2.5704456170399985,1.311910589536031,2.7051753203074136
5.4,1.6888758630773732e+18,185.40737337239585,3.9938289324442544,-3.573256174723307,-4.360296646753947,1.6888758630687224e+18,185.3987227376302,2.004188378651937,-12.245070457458496,-1.7597216963768003,1.6888758630773732e+18,185.40737337239585,-2.6297899881998696,-9.330446561177572,1.5013645092646282,1.6888758630687224e+18,185.3987227376302,-0.4692463328440984,-0.0195476983984311,-0.782416562239329,1.6888758630687224e+18,185.3987227376302,-0.4699589808781941,-0.0148134840031464,-0.7799730996290842,,,,,,,,,,,,1.6888758630659978e+18,185.39599780273437,32.78139877319336,38.25675964355469,-11.807159614562988,1.6888758630659978e+18,185.39599780273437,-222.8451934814453,133.11175842285155,-144.93355712890624,1.6888758630773732e+18,185.40737337239585,-0.0960605094830194,-0.0004422819668737,-0.7954523762067159,0.5983287692070007,-2.6179853280385337,1.2590504089991252,2.7549784978230796
5.45,1.6888758631206195e+18,185.4506193847656,0.4176645874977112,-6.883906364440918,-7.74468183517456,1.6888758631206172e+18,185.45061710611975,-1.870389699935913,-16.19980812072754,-6.075576146443685,1.6888758631206195e+18,185.4506193847656,-2.517735242843628,-9.358083248138428,1.5223384499549866,1.6888758631206172e+18,185.45061710611975,0.5961535597840945,0.3876448993881543,0.0731511091192563,1.6888758631206172e+18,185.45061710611975,0.5953900093833605,0.3922773084292809,0.075594571729501,,,,,,,,,,,,1.6888758631159967e+18,185.44599658203128,32.29583969116211,38.25675964355469,-12.70263957977295,1.6888758631159967e+18,185.44599658203128,-223.33075866699215,133.11175842285155,-145.82903442382812,1.6888758631206195e+18,185.4506193847656,-0.1046303026378153,0.008541009388864,-0.7918802797794342,0.6015671789646149,-2.5932745933532715,1.2680359482765198,2.755351424217224
5.5,1.688875863163866e+18,185.4938662109375,2.243848522504171,-5.323734283447266,-1.93319567044576,1.6888758631725197e+18,185.50251944986977,0.6859424735109011,-13.981462160746256,1.010369300842285,1.688875863163866e+18,185.4938662109375,-2.2700398365656533,-9.486648877461752,0.9915127158164978,1.6888758631725197e+18,185.50251944986977,1.1157962878545125,-0.6968445181846619,2.135075827439626,1.6888758631725197e+18,185.50251944986977,1.1151854395866394,-0.6921103398005167,2.137519359588623,,,,,,,,,,,,1.68887586316599e+18,185.49598994140624,31.441838836669923,39.56215972900391,-10.61399974822998,1.68887586316599e+18,185.49598994140624,-224.18475646972655,134.4171569824219,-143.7403991699219,1.688875863163866e+18,185.4938662109375,-0.0835275997718174,0.0241036340594291,-0.7835983435312907,0.6149229208628336,-2.7287988662719727,1.317070484161377,2.882436196009318
5.55,1.6888758632157696e+18,185.5457697753906,-1.1847121715545652,-3.551873524983724,3.7926203409830728,1.688875863224422e+18,185.55442211914064,-2.552942395210266,-14.25404421488444,4.681158701578776,1.6888758632157696e+18,185.5457697753906,-0.7322078247865041,-9.757412592569986,0.5269155402978262,1.688875863224422e+18,185.55442211914064,0.6593781312306722,-0.2438879460096359,3.370347181955973,1.688875863224422e+18,185.55442211914064,0.6587163607279459,-0.2392555599411328,3.372790575027466,,,,,,,,,,,,1.6888758632159982e+18,185.5459982910156,24.663519668579102,44.163998413085935,-8.205719661712646,1.6888758632159982e+18,185.5459982910156,-230.96307373046875,139.0189971923828,-141.33211975097657,1.6888758632157696e+18,185.5457697753906,-0.0619139584402242,0.0270163522412378,-0.7316945989926656,0.6778611739476522,-2.371958494186402,1.4768799146016438,2.497976303100586
5.6,1.688875863267665e+18,185.5976648763021,-3.182424545288086,-8.09621556599935,8.861250241597494,1.688875863276322e+18,185.6063221028646,-2.459223449230194,-17.21496295928955,9.455238342285156,1.688875863267665e+18,185.5976648763021,1.039382706085841,-9.731915791829428,0.3884974122047424,1.688875863276322e+18,185.6063221028646,-0.2186388423045476,-1.4216870466868083,3.759010155995687,1.688875863276322e+18,185.6063221028646,-0.2194024324417114,-1.4170546531677246,3.761402686436971,,,,,,,,,,,,1.6888758632659983e+18,185.59599853515624,16.357759857177733,48.17779922485352,-6.514799880981445,1.6888758632659983e+18,185.59599853515624,-239.26883544921876,143.03279724121094,-139.64119873046874,1.688875863267665e+18,185.5976648763021,-0.0476355031132697,0.0162112955003976,-0.6672280430793762,0.7425772547721863,-0.4323694407939911,1.4538462559382122,0.5228552917639414
5.65,1.6888758633195732e+18,185.64957324218753,-3.1956835985183716,-1.1072874069213867,2.7989304463068643,1.6888758633195648e+18,185.6495645751953,-0.0795613527297973,-10.754241943359377,3.6846476793289185,1.6888758633195732e+18,185.64957324218753,2.389830986658732,-9.470192591349283,0.8729480306307474,1.6888758633195648e+18,185.6495645751953,-0.1722639948129654,-4.240168333053589,2.0252473950386047,1.6888758633195648e+18,185.6495645751953,-0.1729512251913548,-4.235510587692261,2.027690827846527,,,,,,,,,,,,1.6888758633159982e+18,185.6459984375,9.069479846954346,49.64179916381836,-6.117079830169677,1.6888758633159982e+18,185.6459984375,-246.55711364746097,144.49679870605468,-139.24347534179688,1.6888758633195732e+18,185.64957324218753,-0.0102171680579582,-0.0484435968101024,-0.6115444699923197,0.7889944116274515,-0.3469953040281932,1.3056645393371584,0.2923146883646647
5.7,1.6888758633714683e+18,185.7014685872396,-5.348904609680176,6.087615331013997,-2.1713122526804605,1.688875863362823e+18,185.69282291666664,-0.4897309939066569,-4.112863183021545,-1.0199406544367473,1.6888758633714683e+18,185.7014685872396,3.5316855907440186,-9.09819253285726,0.9287318587303162,1.688875863362823e+18,185.69282291666664,0.6917539735635122,-1.294321676095327,2.8572712739308677,1.688875863362823e+18,185.69282291666664,0.691143125295639,-1.2896383206049602,2.8596638838450112,,,,,,,,,,,,1.688875863365994e+18,185.69599404296875,3.4135599017143248,50.42015838623047,-3.818599891662598,1.688875863365994e+18,185.69599404296875,-252.213037109375,145.27515869140626,-136.94499816894532,1.6888758633714683e+18,185.7014685872396,0.0378733656058708,-0.0834961707393328,-0.5581105351448059,0.8244196573893229,-0.261479636033376,1.185794194539388,0.0862943325191735
5.75,1.6888758634233672e+18,185.7533671875,-9.688055356343588,9.593790054321287,-2.226157625516256,1.6888758634147213e+18,185.74472119140623,-4.794618288675944,0.5058825959761938,-1.0835498571395874,1.6888758634233672e+18,185.7533671875,4.41779359181722,-8.69589106241862,1.0214635332425437,1.6888758634147213e+18,185.74472119140623,0.5102251966794332,-2.4334325790405273,2.044158697128296,1.6888758634147213e+18,185.74472119140623,0.5095125138759613,-2.4287492831548056,2.046602209409078,,,,,,,,,,,,1.6888758634159946e+18,185.74599453125,-3.3427999019622803,50.85204010009765,-2.3106799125671387,1.6888758634159946e+18,185.74599453125,-258.9693969726562,145.70703735351563,-135.43707580566405,1.6888758634233672e+18,185.7533671875,0.0834919909636179,-0.1123485043644904,-0.5100175340970358,0.8483204046885172,-0.2282612075408299,1.0858567158381145,-0.0582439502080281
5.8,1.6888758634752727e+18,185.80527286783857,-3.7004220485687256,7.657380104064941,-0.8024932742118835,1.688875863466621e+18,185.79662109375,-0.5022933085759481,0.2245265245437622,-0.0502492586771647,1.6888758634752727e+18,185.80527286783857,4.818997065226237,-8.40015983581543,1.5619078079859416,1.688875863466621e+18,185.79662109375,0.3284418831268946,-2.61185614267985,1.1503610809644065,1.688875863466621e+18,185.79662109375,0.3278310100237528,-2.607172886530558,1.1527536114056904,1.6888758634752712e+18,185.80527124023436,0.0,0.0,1.1413594484329224,6.635000228881836,1.7168610095977783,7.697848320007324,35.13712342687496,-122.749918,49.1915542,1.688875863465996e+18,185.79599614257813,-7.776279926300049,50.60803909301758,-2.688879919052124,1.688875863465996e+18,185.79599614257813,-263.4028686523437,145.463037109375,-135.81527709960938,1.6888758634752727e+18,185.80527286783857,0.1320270871122677,-0.1677877952655156,-0.4738157590230306,0.8542110721270243,-0.3158374031384786,1.0236551761627195,-0.1282727395494778
5.85,1.6888758635271729e+18,185.85717268880208,3.3260717391967773,4.3178073565165205,1.9488584597905476,1.688875863518522e+18,185.84852197265627,6.213362852732341,-3.805186112721761,3.2845478852589927,1.6888758635271729e+18,185.85717268880208,4.466285069783528,-8.624098141988119,1.3415641784667969,1.688875863518522e+18,185.84852197265627,1.2783373594284058,-0.3647374560435613,-1.4156802296638489,1.688875863518522e+18,185.84852197265627,1.277726451555888,-0.3601050600409508,-1.4132367471853893,,,,,,,,,,,,1.6888758635159928e+18,185.84599287109376,-7.520079898834228,50.42015914916992,-1.1345999844372272,1.6888758635159928e+18,185.84599287109376,-263.1466796875,145.27515563964843,-134.26099548339843,1.6888758635271729e+18,185.85717268880208,0.1617358873287836,-0.1774195979038874,-0.4892163972059886,0.8382890621821085,-0.2939926882584889,1.0713226000467937,-0.2062666416168213
5.9,1.6888758635704202e+18,185.9004201660156,7.244234681129456,-10.10493516921997,5.981664180755615,1.688875863570419e+18,185.90041918945312,10.637293259302774,-19.26700719197591,7.455237785975139,1.6888758635704202e+18,185.9004201660156,3.676538228988647,-9.01472234725952,1.1999863982200625,1.688875863570419e+18,185.90041918945312,-0.6039420962333679,-0.9800314605236052,-0.9975429773330688,1.688875863570419e+18,185.90041918945312,-0.6045529643694559,-0.9753481348355612,-0.9950994650522867,,,,,,,,,,,,1.6888758635659963e+18,185.89599672851563,-2.1789200246334075,50.947198486328126,0.3245199978351593,1.6888758635659963e+18,185.89599672851563,-257.8055084228516,145.80219421386718,-132.8018768310547,1.6888758635704202e+18,185.9004201660156,0.158227264881134,-0.1790271997451781,-0.5285177528858185,0.8145833015441895,-0.3187784999608993,1.1621668338775637,-0.1732508391141891
5.95,1.6888758636136676e+18,185.9436676432292,5.052365303039551,-5.01790968577067,6.949744304021199,1.6888758636223168e+18,185.9523166503906,9.894720395406088,-7.522835254669189,8.89312473932902,1.6888758636136676e+18,185.9436676432292,4.059433937072754,-8.655484199523926,2.1723860104878745,1.6888758636223168e+18,185.9523166503906,-0.1292489071687063,-3.1471776962280273,1.9710585872332256,1.6888758636223168e+18,185.9523166503906,-0.129910667737325,-3.142596165339152,1.973451097806295,,,,,,,,,,,,1.6888758636159946e+18,185.94599458007812,-3.1524799883365633,51.01063842773438,-1.8617200136184693,1.6888758636159946e+18,185.94599458007812,-258.7790771484375,145.86564025878906,-134.98811950683594,1.6888758636136676e+18,185.9436676432292,0.1893762449423471,-0.2469395200411478,-0.4800328910350799,0.8195653955141703,-0.4921142359574635,1.078748385111491,-0.1559293121099471
6.0,1.6888758636655708e+18,185.99557071940103,-7.99056339263916,-3.076595942179362,6.545276641845703,1.6888758636742213e+18,186.00422102864584,-5.272185921669007,-15.372489293416342,6.716653088728587,1.6888758636655708e+18,185.99557071940103,4.004250446955363,-8.602978388468424,2.474759817123413,1.6888758636742213e+18,186.00422102864584,-0.6536258086562156,2.9861638148625693,-1.6698001623153689,1.6888758636742213e+18,186.00422102864584,-0.6543384778002898,2.990847190221151,-1.6674075424671173,,,,,,,,,,,,1.688875863665997e+18,185.9959970214844,-4.0601600170135494,50.92279891967773,-3.118319940567017,1.688875863665997e+18,185.9959970214844,-259.68674926757814,145.77779541015624,-136.24471740722657,1.6888758636655708e+18,185.99557071940103,0.1840097904205321,-0.2616986831029256,-0.4758224487304687,0.8188663522402445,-0.5563552578290304,1.0675431887308755,-0.1068767768641312
6.05,1.6888758637174705e+18,186.0474706217448,-6.553650856018066,-1.3730751673380537,-4.944706519444783,1.6888758637261166e+18,186.0561166178385,-1.641476313273112,-8.852446715037027,-3.0261230071385703,1.6888758637174705e+18,186.0474706217448,3.696152289708456,-8.92105484008789,1.67341148853302,1.6888758637261166e+18,186.0561166178385,1.2691743870576222,3.3738596439361572,-2.5922576785087585,1.6888758637261166e+18,186.0561166178385,1.2684616545836132,3.378542979558309,-2.589814066886902,,,,,,,,,,,,1.6888758637159985e+18,186.0459986328125,-1.176079943776131,50.65439987182617,-1.8055999636650089,1.6888758637159985e+18,186.0459986328125,-256.80267639160155,145.5093994140625,-134.93199768066407,1.6888758637174705e+18,186.0474706217448,0.129530703028043,-0.1876036475102106,-0.5238667130470276,0.8201997677485148,-0.4229488670825957,1.140192985534668,-0.0406526302297909
6.1,1.688875863769369e+18,186.0993690592448,-7.1683104038238525,2.272075812021891,-0.9329655766487122,1.6888758637693627e+18,186.09936279296875,-6.486942291259766,-7.041179895401001,-0.1259222896769642,1.688875863769369e+18,186.0993690592448,1.8745193481445312,-9.590930302937826,0.4772249559561412,1.6888758637693627e+18,186.09936279296875,0.7057784348726273,4.9371657371521,-5.000313758850098,1.6888758637693627e+18,186.09936279296875,0.7051675878465176,4.94189977645874,-4.997946739196777,,,,,,,,,,,,1.6888758637659983e+18,186.09599853515627,8.783999824523926,49.72475891113281,0.3269599787890911,1.6888758637659983e+18,186.09599853515627,-246.84259338378905,144.5797576904297,-132.7994384765625,1.688875863769369e+18,186.0993690592448,0.0830991913874943,-0.0988884965578714,-0.62549356619517,0.7678129275639852,-0.2540600548187891,1.367624004681905,-0.0059612927337487
6.15,1.6888758638212705e+18,186.15127018229168,-5.460102478663127,-0.9785588582356772,-1.3012845516204834,1.688875863812616e+18,186.14261580403647,-5.7429737250010175,-9.71186892191569,-0.5150550777713457,1.6888758638212705e+18,186.15127018229168,-0.0966994563738504,-9.770008087158203,0.7785449127356211,1.688875863812616e+18,186.14261580403647,-1.5613715648651123,3.908977746963501,-3.397123336791992,1.688875863812616e+18,186.14261580403647,-1.56198247273763,3.913610061009725,-3.394730885823568,,,,,,,,,,,,1.688875863815998e+18,186.14599794921875,19.412639808654784,46.948038482666014,-4.008919954299927,1.688875863815998e+18,186.14599794921875,-236.21395568847657,141.80303649902345,-137.13531799316405,1.6888758638212705e+18,186.15127018229168,-0.0150087761382261,-0.0413047596812247,-0.7075008551279703,0.7045739889144897,-1.520063579082489,1.4828476508458457,1.482846697171529
6.2,1.6888758638731704e+18,186.20317057291663,1.910826524098714,1.0294329325358074,-1.9128766854604085,1.6888758638645194e+18,186.19451944986977,-1.06520489230752,-9.52522865931193,-0.8468598326047262,1.6888758638731704e+18,186.20317057291663,-1.294943650563558,-9.662744839986166,1.0425795316696167,1.6888758638645194e+18,186.19451944986977,-0.1066977977752685,-0.1279762784639994,-2.389195760091146,1.6888758638645194e+18,186.19451944986977,-0.107410470644633,-0.1233438750108083,-2.3867523670196533,,,,,,,,,,,,1.6888758638659963e+18,186.19599633789065,25.019759750366212,44.183519744873045,-7.810439777374268,1.6888758638659963e+18,186.19599633789065,-230.6068359375,139.03851928710938,-140.93683776855468,1.6888758638731704e+18,186.20317057291663,-0.0439148942629495,-0.0313061705480018,-0.7499377330144247,0.6590959032376608,-2.4215784867604575,1.402184247970581,2.439469814300537
6.25,1.6888758639250696e+18,186.2550694986979,5.426175753275554,1.1074102719624836,0.4977009296417236,1.688875863916413e+18,186.2464130045573,3.5258241494496665,-8.52821938196818,1.5312070846557615,1.6888758639250696e+18,186.2550694986979,-2.0162734587987265,-9.54191811879476,1.0501486857732136,1.688875863916413e+18,186.2464130045573,0.27402396996816,2.000023682912191,-1.415374795595805,1.688875863916413e+18,186.2464130045573,0.2732603798309961,2.0046560764312744,-1.4129312833150227,,,,,,,,,,,,1.6888758639159928e+18,186.2459929199219,28.94571914672851,41.81671905517578,-8.215479946136474,1.6888758639159928e+18,186.2459929199219,-226.68087158203124,136.67171630859374,-141.34187927246094,1.6888758639250696e+18,186.2550694986979,-0.0649707292517025,-0.0051738405600189,-0.7748535672823588,0.628413995107015,-2.650607188542684,1.3405661980311077,2.735814015070597
6.3,1.688875863976966e+18,186.3069657389323,1.6859993934631348,0.6203695933024088,-2.910317579905192,1.6888758639683123e+18,186.2983123372396,-0.2424726883570352,-8.565906206766764,-1.2161521042386692,1.688875863976966e+18,186.3069657389323,-2.419867992401123,-9.408616383870443,1.3568695386250813,1.6888758639683123e+18,186.2983123372396,-0.2112575682500997,2.303420146306356,-1.0886127750078838,1.6888758639683123e+18,186.2983123372396,-0.2119702423612276,2.308103362719218,-1.0862202445665996,1.6888758639942707e+18,186.32427075195312,0.0,0.0,1.1413594484329224,6.616000175476074,1.710774540901184,6.798019886016846,35.13712342687496,-122.7499206,49.1915569,1.6888758639659953e+18,186.2959952636719,30.4463191986084,39.96963882446289,-11.46555976867676,1.6888758639659953e+18,186.2959952636719,-225.1802764892578,134.82463684082032,-144.59195556640626,1.688875863976966e+18,186.3069657389323,-0.115460140009721,0.0361766355733076,-0.7874587774276733,0.6041937470436096,-2.624799966812134,1.2874540487925212,2.8418909708658853
6.35,1.6888758640202184e+18,186.35021826171877,4.848054647445679,-0.5765767097473145,-2.271540641784668,1.688875864020218e+18,186.3502182617187,1.847857286222279,-9.907880783081056,-0.8235297799110413,1.6888758640202184e+18,186.35021826171877,-2.8151222467422485,-9.27029514312744,1.5359395146369934,1.688875864020218e+18,186.3502182617187,-0.341219147046407,0.1836159154772758,-1.2542591094970703,1.688875864020218e+18,186.3502182617187,-0.3419318199157715,0.188299203912417,-1.2518664995829265,,,,,,,,,,,,1.6888758640159964e+18,186.34599643554688,31.554080200195312,38.220159912109374,-14.37403964996338,1.6888758640159964e+18,186.34599643554688,-224.07251586914063,133.07515869140624,-147.500439453125,1.6888758640202184e+18,186.35021826171877,-0.1308450847864151,0.0452440232038497,-0.7998352348804474,0.5840031802654266,-2.6370455026626587,1.2409119606018066,2.8901774883270264
6.4,1.6888758640634655e+18,186.39346541341143,2.7808896700541177,-4.226149241129558,-4.652780850728353,1.688875864072115e+18,186.40211474609373,-1.091924746831258,-14.01496156056722,-3.4498521089553833,1.6888758640634655e+18,186.39346541341143,-2.991328239440918,-9.177653312683107,1.7461918195088704,1.688875864072115e+18,186.40211474609373,-0.025452713171641,1.1968377629915874,0.1060869296391804,1.688875864072115e+18,186.40211474609373,-0.0261654009421666,1.2015719413757324,0.1085303922494252,,,,,,,,,,,,1.6888758640659963e+18,186.3959962402344,32.881439208984375,36.68539886474609,-16.289439392089843,1.6888758640659963e+18,186.3959962402344,-222.74515686035156,131.54039611816407,-149.41583862304688,1.6888758640634655e+18,186.39346541341143,-0.145629530151685,0.0494564635058243,-0.8053309321403503,0.5724433461825053,-2.6092525323232016,1.2124963998794556,2.8905699253082275
6.45,1.6888758641153636e+18,186.44536336263025,5.686058918635051,-1.7460543314615886,-4.007747650146484,1.688875864124018e+18,186.45401806640623,3.241875966389974,-10.88973585764567,-1.328814188639323,1.6888758641153636e+18,186.44536336263025,-2.77286688486735,-9.275294621785482,1.578327178955078,1.688875864124018e+18,186.45401806640623,0.5688682794570923,-0.1347975923369328,1.0985902150472004,1.688875864124018e+18,186.45401806640623,0.5681555916865667,-0.1301652037849029,1.1010336925586064,,,,,,,,,,,,1.6888758641159967e+18,186.44599658203123,32.36415901184082,37.056278991699216,-16.286999893188476,1.6888758641159967e+18,186.44599658203123,-223.2624359130859,131.9112762451172,-149.41339416503905,1.6888758641153636e+18,186.44536336263025,-0.1503522743781407,0.0679601108034451,-0.7971734801928202,0.5807108879089355,-2.621156692504883,1.2416953643163045,2.935427983601888
6.5,1.688875864167261e+18,186.49726074218748,-1.4671450058619182,-7.161373774210612,-0.0648712317148844,1.688875864175911e+18,186.50591080729168,-4.78923453266422,-17.635302861531574,1.0959128091732662,1.688875864167261e+18,186.49726074218748,-1.4579509298006694,-9.602350234985352,1.2721423705418904,1.688875864175911e+18,186.50591080729168,1.34268186489741,0.579863836367925,3.469358285268148,1.688875864175911e+18,186.50591080729168,1.3420199950536091,0.5845471272865931,3.471750815709432,,,,,,,,,,,,1.688875864165991e+18,186.4959908203125,27.381679153442384,40.83095932006836,-15.04015941619873,1.688875864165991e+18,186.4959908203125,-228.2449188232422,135.6859619140625,-148.16655578613282,1.688875864167261e+18,186.49726074218748,-0.1496461431185404,0.0751425996422767,-0.7531675497690836,0.6355616251627604,-2.3871113459269204,1.3722230195999146,2.7080372969309487
6.55,1.6888758642191675e+18,186.5491673177083,-4.311886111895244,-8.797254880269369,4.580247004826863,1.688875864219161e+18,186.5491612548828,-4.256532430648804,-18.198911666870117,5.004289507865906,1.6888758642191675e+18,186.5491673177083,0.1877864648898442,-9.783619244893393,0.4802663326263428,1.688875864219161e+18,186.5491612548828,1.539074957370758,-2.4963008165359497,3.4592535495758057,1.688875864219161e+18,186.5491612548828,1.538464069366455,-2.491642951965332,3.461696982383728,,,,,,,,,,,,1.6888758642159987e+18,186.5459986328125,19.556599807739257,45.50355834960938,-11.936479759216308,1.6888758642159987e+18,186.5459986328125,-236.0699920654297,140.35855407714843,-145.06287841796876,1.6888758642191675e+18,186.5491673177083,-0.1166201631228129,0.0809572438398996,-0.6944755713144938,0.704590380191803,-1.1921409865220387,1.4993663628896077,1.4727222323417664
