seconds_elapsed_rounded,accelerometer_time,accelerometer_seconds_elapsed,accelerometer_z,accelerometer_y,accelerometer_x,accelerometeruncalibrated_time,accelerometeruncalibrated_seconds_elapsed,accelerometeruncalibrated_z,accelerometeruncalibrated_y,accelerometeruncalibrated_x,gravity_time,gravity_seconds_elapsed,gravity_z,gravity_y,gravity_x,gyroscope_time,gyroscope_seconds_elapsed,gyroscope_z,gyroscope_y,gyroscope_x,gyroscopeuncalibrated_time,gyroscopeuncalibrated_seconds_elapsed,gyroscopeuncalibrated_z,gyroscopeuncalibrated_y,gyroscopeuncalibrated_x,location_time,location_seconds_elapsed,location_bearingAccuracy,location_speedAccuracy,location_verticalAccuracy,location_horizontalAccuracy,location_speed,location_bearing,location_altitude,location_longitude,location_latitude,magnetometer_time,magnetometer_seconds_elapsed,magnetometer_z,magnetometer_y,magnetometer_x,magnetometeruncalibrated_time,magnetometeruncalibrated_seconds_elapsed,magnetometeruncalibrated_z,magnetometeruncalibrated_y,magnetometeruncalibrated_x,orientation_time,orientation_seconds_elapsed,orientation_qz,orientation_qy,orientation_qx,orientation_qw,orientation_roll,orientation_pitch,orientation_yaw
0.0,1.6888757826758188e+18,105.00581876627604,-6.534676233927409,0.6325527826944987,-1.7203303575515747,1.6888757826758188e+18,105.00581876627604,-4.252643962701161,-8.848458607991537,-0.6689933234204849,1.6888757826758188e+18,105.00581876627604,2.2592307726542153,-9.465266227722168,0.9866235454877218,1.6888757826758188e+18,105.00581876627604,0.985834661871195,4.3683483600616455,-4.991685310999553,1.6888757826758188e+18,105.00581876627604,0.985172918687264,4.3730316162109375,-4.9892927805582685,,,,,,,,,,,,1.6888757826659917e+18,104.9959916015625,-6.136599826812744,44.14447937011719,-24.512239837646483,1.6888757826659917e+18,104.9959916015625,-261.76320190429686,138.99947814941407,-157.63863525390624,1.6888757826758188e+18,105.00581876627604,-0.4808705151081085,0.3257852494716644,-0.5259178479512533,0.6192181905110677,-0.4330727756023407,1.3135134379069011,1.6601157585779829
0.05,1.6888757827190697e+18,105.04906982421876,-9.10954523086548,-2.466485500335694,-1.980684518814087,1.6888757827190697e+18,105.04906982421876,-8.76520824432373,-12.23210954666138,-0.9233304187655448,1.6888757827190697e+18,105.04906982421876,0.3215354904532432,-9.749878883361816,0.9926406145095824,1.6888757827190697e+18,105.04906982421876,-1.905746877193451,4.834311246871948,-3.778812527656555,1.6888757827190697e+18,105.04906982421876,-1.9064341187477112,4.838968992233276,-3.7763688564300537,,,,,,,,,,,,1.6888757827159964e+18,105.0459963378906,-0.0463599622249603,45.03507919311524,-23.22147903442383,1.6888757827159964e+18,105.0459963378906,-255.67295532226564,139.89007568359375,-156.3478759765625,1.6888757827190697e+18,105.04906982421876,-0.501052513718605,0.4297769367694855,-0.5460234582424164,0.51511050760746,-1.2360728979110718,1.456607460975647,2.676237463951111
0.1,1.6888757827623217e+18,105.09232153320312,-1.2507109840710957,-1.010851542154948,-1.919925610224406,1.6888757827623217e+18,105.09232153320312,-1.6516457200050354,-10.732806523640951,-0.5256233712037405,1.6888757827623217e+18,105.09232153320312,-0.4237360457579295,-9.706209818522137,1.329588770866394,1.6888757827623217e+18,105.09232153320312,0.0323249598344167,0.7063129246234894,-1.9422460794448853,1.6888757827623217e+18,105.09232153320312,0.0316631893316904,0.7109962602456412,-1.9398534695307417,,,,,,,,,,,,1.6888757827659945e+18,105.09599433593748,2.552239990234375,43.48811798095703,-25.912799453735353,1.6888757827659945e+18,105.09599433593748,-253.07435302734376,138.343115234375,-159.03919372558593,1.6888757827623217e+18,105.09232153320312,-0.5182904005050659,0.4685179988543193,-0.5488602916399637,0.458696444829305,-1.859697222709656,1.4222344954808552,-2.8734984397888184
0.15,1.6888757828142193e+18,105.14421940104168,6.624462286631267,2.7161882718404136,0.453711450099945,1.6888757828142193e+18,105.14421940104168,5.121637503306071,-6.9276204109191895,1.6043875813484192,1.6888757828142193e+18,105.14421940104168,-1.5256261428197224,-9.628063519795736,1.0859626531600952,1.6888757828142193e+18,105.14421940104168,0.5011131167411804,1.3482813934485118,-1.867007811864217,1.6888757828142193e+18,105.14421940104168,0.5004513661066691,1.3529647092024486,-1.864564339319865,,,,,,,,,,,,1.6888757828159951e+18,105.14599516601564,7.568879699707031,43.67843856811523,-25.21007919311523,1.6888757828159951e+18,105.14599516601564,-248.05771484375,138.53344116210937,-158.336474609375,1.6888757828142193e+18,105.14421940104168,-0.4880463679631551,0.508021742105484,-0.5644068916638693,0.429957777261734,-2.4978391329447427,1.3776934544245405,-2.212823470433553
0.2,1.688875782866123e+18,105.196123046875,0.5705498059590658,2.4848500887552896,-2.360941549142202,1.688875782866123e+18,105.196123046875,-1.2590235322713852,-7.086743195851644,-1.0825528502464294,1.688875782866123e+18,105.196123046875,-1.852374792098999,-9.555848121643066,1.2136751810709636,1.688875782866123e+18,105.196123046875,-0.1731802995006243,1.8316285610198977,-0.9236282308896384,1.688875782866123e+18,105.196123046875,-0.1738420675198237,1.836210012435913,-0.921235700448354,,,,,,,,,,,,1.6888757828659963e+18,105.19599643554687,6.995479869842529,43.39051895141601,-25.449199676513672,1.6888757828659963e+18,105.19599643554687,-248.63111572265623,138.24551391601562,-158.57559509277343,1.688875782866123e+18,105.196123046875,-0.5067492127418518,0.5464482108751932,-0.5427012840906779,0.3871619900067647,-2.5430596669514975,1.343255837758382,-2.0450852711995444
0.25,1.6888757829180198e+18,105.24801985677082,2.580115000406901,-0.3611129124959309,-1.914359629154205,1.6888757829180198e+18,105.24801985677082,0.2839482678100467,-9.796813964843752,-0.3998007973035176,1.6888757829180198e+18,105.24801985677082,-2.3189682165781655,-9.419955889383951,1.449845314025879,1.6888757829180198e+18,105.24801985677082,-0.4366668363412221,0.101861777404944,-1.0480411450068157,1.6888757829180198e+18,105.24801985677082,-0.4373795141776402,0.1064432710409164,-1.0456485748291016,1.6888757829266752e+18,105.25667529296877,0.0,0.0,1.444279670715332,6.765999794006348,1.6726902723312378,95.60977172851562,39.10000228881836,-122.7506246,49.1905184,1.6888757829159928e+18,105.24599277343752,7.932439994812012,42.33644027709961,-26.459360122680664,1.6888757829159928e+18,105.24599277343752,-247.69415588378905,137.19143371582032,-159.58575439453125,1.6888757829180198e+18,105.24801985677082,-0.5033144156138102,0.5599563121795654,-0.5507600506146749,0.3601835568745931,-2.567594846089681,1.2886719306310015,-1.990781505902608
0.3,1.6888757829699205e+18,105.29992000325522,3.578440030415853,-2.1147549947102866,-1.7775950034459431,1.6888757829699205e+18,105.29992000325522,0.824127991994222,-11.397811571756998,-0.0915254950523376,1.6888757829699205e+18,105.29992000325522,-2.777113358179728,-9.267311414082846,1.6213560104370115,1.6888757829699205e+18,105.29992000325522,-0.1921680221954981,0.9855801661809286,-0.8572984760006269,1.6888757829699205e+18,105.29992000325522,-0.19288070499897,0.9902634421984354,-0.8549568019807338,,,,,,,,,,,,1.6888757829659963e+18,105.29599643554688,9.821000099182127,41.51903839111328,-27.413399124145503,1.6888757829659963e+18,105.29599643554688,-245.80559692382812,136.37403564453126,-160.539794921875,1.6888757829699205e+18,105.29992000325522,-0.4975633720556895,0.5749953786532084,-0.5563058654467264,0.335006316502889,-2.600695768992106,1.2376755475997925,-1.9276195764541624
0.35,1.6888757830218235e+18,105.35182373046877,3.1613261699676514,-5.711921374003093,-4.547357559204102,1.6888757830218235e+18,105.35182373046877,0.4715855121612549,-15.007783889770508,-2.823730150858561,1.6888757830218235e+18,105.35182373046877,-2.712542136510214,-9.280117352803549,1.6589138905207317,1.6888757830218235e+18,105.35182373046877,0.4644611986974875,0.4632394810517629,0.0129808859395174,1.6888757830218235e+18,105.35182373046877,0.4637994319200516,0.467871884504954,0.0153225401882082,,,,,,,,,,,,1.688875783015995e+18,105.345994921875,8.744960021972656,41.44827880859375,-27.79159965515137,1.688875783015995e+18,105.345994921875,-246.88163146972656,136.30327453613282,-160.91799621582032,1.6888757830218235e+18,105.35182373046877,-0.5070372422536215,0.5832275152206421,-0.5445461869239807,0.3258674343427022,-2.58000914255778,1.2417288223902383,-1.9090547959009807
0.4,1.6888757830737242e+18,105.40372412109376,1.0844346682230632,-5.334785143534343,-2.2541463375091553,1.6888757830737242e+18,105.40372412109376,-1.0079766114552815,-14.826926231384276,-0.85623166958491,1.6888757830737242e+18,105.40372412109376,-2.1152127583821616,-9.476395924886068,1.3332011699676514,1.6888757830737242e+18,105.40372412109376,0.8458956480026245,0.4073962122201919,2.4270185629526773,1.6888757830737242e+18,105.40372412109376,0.8451829751332601,0.4120795130729675,2.4294110536575317,,,,,,,,,,,,1.6888757830659963e+18,105.39599638671876,7.961719989776611,42.62679901123047,-26.71555976867676,1.6888757830659963e+18,105.39599638671876,-247.6648742675781,137.48179931640624,-159.84195861816406,1.6888757830737242e+18,105.40372412109376,-0.5242858131726583,0.5831403930981954,-0.515650471051534,0.3445287644863128,-2.5533613363901773,1.3137219746907551,-1.909031629562378
0.45,1.688875783125624e+18,105.45562410481767,-3.319884697596232,-5.868849754333496,0.4795947670936584,1.688875783125624e+18,105.45562410481767,-3.946163455645243,-15.637295087178549,1.245264808336894,1.688875783125624e+18,105.45562410481767,-0.649080162247022,-9.752700169881184,0.7009565830230713,1.688875783125624e+18,105.45562410481767,1.3237449725468953,-1.9755382140477495,3.1404073238372803,1.688875783125624e+18,105.45562410481767,1.323032299677531,-1.970905860265096,3.142850716908773,,,,,,,,,,,,1.6888757831159913e+18,105.44599130859372,2.030079984664917,44.50315856933594,-24.34387969970703,1.6888757831159913e+18,105.44599130859372,-253.5965148925781,139.3581573486328,-157.47027587890625,1.688875783125624e+18,105.45562410481767,-0.5447310010592142,0.5462573568026224,-0.4826080997784932,0.4137031932671864,-2.169532577196757,1.47062087059021,-2.347525835037231
0.5,1.6888757831775242e+18,105.5075243326823,-1.68073042233785,-8.00931708017985,8.641787687937418,1.6888757831775242e+18,105.5075243326823,-0.4771686792373657,-17.731414794921875,9.281759103139242,1.6888757831775242e+18,105.5075243326823,1.1807602643966677,-9.70635255177816,0.5752578775087992,1.6888757831775242e+18,105.5075243326823,-0.5924884031216303,-1.131627877553304,3.825492620468139,1.6888757831775242e+18,105.5075243326823,-0.5932010511557261,-1.1269445419311523,3.827936013539632,,,,,,,,,,,,1.6888757831659963e+18,105.49599663085937,-3.742959886789322,45.54503860473633,-22.53339958190918,1.6888757831659963e+18,105.49599663085937,-259.3695526123047,140.40003662109376,-155.65979614257813,1.6888757831775242e+18,105.5075243326823,-0.5714498162269592,0.4772796034812927,-0.4584352076053619,0.484427402416865,-0.5039386053880056,1.4319109121958415,2.180925210316976
0.55,1.6888757832207744e+18,105.55077453613282,-2.689119338989258,-1.9691100120544431,2.967648088932038,1.6888757832207744e+18,105.55077453613282,-0.5123631954193115,-11.509177684783936,3.964907050132751,1.6888757832207744e+18,105.55077453613282,2.1539547443389893,-9.524322509765623,0.9325455725193024,1.6888757832207744e+18,105.55077453613282,0.3559053689241409,-3.686266303062439,1.789453387260437,1.6888757832207744e+18,105.55077453613282,0.3552181273698807,-3.681532144546509,1.7918968200683594,,,,,,,,,,,,1.688875783215993e+18,105.5459931640625,-9.098759841918945,43.91999969482422,-24.307279205322267,1.688875783215993e+18,105.5459931640625,-264.72535400390626,138.77499694824218,-157.43367614746094,1.6888757832207744e+18,105.55077453613282,-0.5763491094112396,0.4151962101459503,-0.4653727561235428,0.5277379751205444,-0.4180976301431655,1.3257370591163635,1.9872905015945437
0.6,1.6888757832640197e+18,105.59401977539063,-6.591873009999593,4.287208239237468,-1.3806284467379253,1.6888757832640197e+18,105.59401977539063,-3.5505500634511313,-5.015156825383504,-0.4342973083257675,1.6888757832640197e+18,105.59401977539063,3.018521467844645,-9.286619822184244,0.8816176851590475,1.6888757832640197e+18,105.59401977539063,0.803440511226654,-1.847561955451965,2.6654595534006753,1.6888757832640197e+18,105.59401977539063,0.8027787407239279,-1.8429295619328816,2.667903105417887,,,,,,,,,,,,1.6888757832659942e+18,105.59599418945314,-10.745759773254395,43.5222785949707,-24.202359771728517,1.6888757832659942e+18,105.59599418945314,-266.3723510742187,138.3772766113281,-157.32875366210936,1.6888757832640197e+18,105.59401977539063,-0.5634930928548177,0.3660730818907419,-0.4594934880733489,0.5803669492403666,-0.2970086733500162,1.241410772005717,1.755843718846639
0.65,1.688875783315925e+18,105.64592496744793,-9.816658973693848,9.37654177347819,-0.5842581788698832,1.688875783315925e+18,105.64592496744793,-5.736193974812825,0.4989035328229268,0.5439683397610983,1.688875783315925e+18,105.64592496744793,4.0576638380686445,-8.861893018086752,1.0635130405426023,1.688875783315925e+18,105.64592496744793,0.4034255941708882,-2.8513662020365396,2.652071475982666,1.688875783315925e+18,105.64592496744793,0.402763823668162,-2.846733887990316,2.654514948527018,,,,,,,,,,,,1.6888757833159972e+18,105.64599702148436,-13.9104398727417,42.85860061645508,-24.00959930419922,1.6888757833159972e+18,105.64599702148436,-269.5370361328125,137.71359558105468,-157.13599548339843,1.688875783315925e+18,105.64592496744793,-0.5462623437245687,0.2983732720216115,-0.4509795109430949,0.6390937368075053,-0.2632662653923034,1.126998504002889,1.5815251270929973
0.7,1.688875783367818e+18,105.69781770833332,-3.913501501083374,9.15075397491455,-0.8994750181833903,1.688875783367818e+18,105.69781770833332,1.0105687379837036,0.7806583642959595,0.7076772848765055,1.688875783367818e+18,105.69781770833332,4.9012688000996905,-8.354350090026855,1.5424388249715169,1.688875783367818e+18,105.69781770833332,0.2695951908826828,-1.9267199039459229,1.5727234681447346,1.688875783367818e+18,105.69781770833332,0.2688825279474258,-1.922036608060201,1.5751669605573018,,,,,,,,,,,,1.688875783365992e+18,105.69599174804686,-15.979559516906738,41.43607940673828,-25.615119552612303,1.688875783365992e+18,105.69599174804686,-271.60615234375,136.29107666015625,-158.74151611328125,1.688875783367818e+18,105.69781770833332,-0.5295776128768921,0.2270909001429875,-0.4454341729482015,0.6850488583246866,-0.3111868500709533,1.0180199940999348,1.4908029635747273
0.75,1.6888757834197217e+18,105.74972167968748,2.915441354115804,4.316937287648519,1.3531259695688884,1.6888757834197217e+18,105.74972167968748,7.620542049407959,-4.1924246946970625,2.851247549057007,1.6888757834197217e+18,105.74972167968748,4.682299296061198,-8.493616739908854,1.4334081411361694,1.6888757834197217e+18,105.74972167968748,1.3797409931818645,-0.328340083360672,-1.7703892787297566,1.6888757834197217e+18,105.74972167968748,1.3790791829427085,-0.3237076501051584,-1.7679458061854043,,,,,,,,,,,,1.6888757834159898e+18,105.74598994140624,-13.456599807739256,42.53651885986328,-24.92703971862793,1.6888757834159898e+18,105.74598994140624,-269.08319702148435,137.39151611328126,-158.05343627929688,1.6888757834197217e+18,105.74972167968748,-0.5007865031560262,0.2224595993757248,-0.4600377182165782,0.6984089016914368,-0.3031502266724904,1.046384612719218,1.4193965196609497
0.8,1.6888757834716232e+18,105.801623046875,5.107793251673381,-8.252961794535318,4.371823151906331,1.6888757834716232e+18,105.801623046875,8.871389706929525,-17.260626157124836,5.59122896194458,1.6888757834716232e+18,105.801623046875,3.740795056025187,-8.99191919962565,1.15469229221344,1.6888757834716232e+18,105.801623046875,-0.0149153023958205,-1.748194471001625,-0.9395107428232828,1.6888757834716232e+18,105.801623046875,-0.0156279702981313,-1.743511160214742,-0.9370672702789308,1.6888757834456758e+18,105.77567578125,0.0,0.0,1.444279670715332,6.683000087738037,1.6792175769805908,95.07286071777344,39.10000228881836,-122.7506076,49.1905193,1.6888757834659932e+18,105.7959932128906,-8.188639831542968,45.03995895385742,-22.862799453735352,1.6888757834659932e+18,105.7959932128906,-263.815234375,139.89495544433595,-155.98919982910155,1.6888757834716232e+18,105.801623046875,-0.4670025110244751,0.2490986237923304,-0.4969179630279541,0.6874608794848124,-0.3086943328380584,1.1583091815312705,1.3963178396224976
0.85,1.6888757835235223e+18,105.85352221679686,8.587384541829428,-4.030070940653483,3.0675249099731445,1.6888757835235223e+18,105.85352221679686,12.707882245381674,-12.710474411646524,5.210570653279622,1.6888757835235223e+18,105.85352221679686,4.097695827484131,-8.664658546447754,2.078332265218099,1.6888757835235223e+18,105.85352221679686,-0.0717257633805275,-3.444872776667277,1.7033468286196392,1.6888757835235223e+18,105.85352221679686,-0.0723366340001424,-3.4401893615722656,1.7057903210322063,,,,,,,,,,,,1.6888757835159946e+18,105.84599448242189,-5.977999877929688,43.8223991394043,-25.224719619750974,1.6888757835159946e+18,105.84599448242189,-261.60460205078124,138.67739562988282,-158.3511169433594,1.6888757835235223e+18,105.85352221679686,-0.434241513411204,0.1608137786388397,-0.5149201353391012,0.7209997177124023,-0.4763595660527546,1.0816953976949055,1.3736708164215088
0.9,1.688875783575427e+18,105.9054269205729,-12.528321822484337,-1.879789670308431,3.747035702069601,1.688875783575427e+18,105.9054269205729,-8.591429601113001,-10.593623797098797,6.100700656572978,1.688875783575427e+18,105.9054269205729,3.914090553919474,-8.698088963826498,2.2889513969421387,1.688875783575427e+18,105.9054269205729,-0.3286964036524295,1.5802574356396992,-1.1516846418380735,1.688875783575427e+18,105.9054269205729,-0.3293072742720445,1.5848898490269978,-1.1492411494255066,,,,,,,,,,,,1.6888757835659955e+18,105.89599545898436,-5.599799919128418,43.90779876708984,-25.910359954833982,1.6888757835659955e+18,105.89599545898436,-261.2263977050781,138.76279907226564,-159.03675842285156,1.688875783575427e+18,105.9054269205729,-0.4293179512023926,0.1504261841376622,-0.5271957715352377,0.7174383997917175,-0.536713182926178,1.0886237223943074,1.408471703529358
0.95,1.6888757836273193e+18,105.95731917317708,-2.012417713801066,1.7545901934305828,-3.2963003317515054,1.6888757836273193e+18,105.95731917317708,1.4103695551554365,-7.318049271901448,-1.6731812556584675,1.6888757836273193e+18,105.95731917317708,3.399985949198405,-9.056894302368164,1.5584055582682292,1.6888757836273193e+18,105.95731917317708,1.3496558666229248,2.447889765103658,-2.331316351890564,1.6888757836273193e+18,105.95731917317708,1.3489431738853457,2.452522118886312,-2.3288728396097818,,,,,,,,,,,,1.6888757836159954e+18,105.94599536132812,-5.590039920806885,44.15179977416992,-25.019759750366212,1.6888757836159954e+18,105.94599536132812,-261.2166259765625,139.00679626464844,-158.14615783691406,1.6888757836273193e+18,105.95731917317708,-0.4399524331092834,0.2182345738013585,-0.5276830395062765,0.692491352558136,-0.4333044389883677,1.1772618691126506,1.4225231806437175
1.0,1.6888757836705764e+18,106.00057641601563,-8.171595096588135,-0.4725470542907715,0.1698887050151824,1.6888757836705764e+18,106.00057641601563,-6.233602046966553,-10.0746808052063,0.9400801956653596,1.6888757836705764e+18,106.00057641601563,1.9151917695999143,-9.58638858795166,0.7054780125617981,1.6888757836705764e+18,106.00057641601563,0.2147955000400543,4.840038061141968,-4.913189172744751,1.6888757836705764e+18,106.00057641601563,0.214108258485794,4.844695806503296,-4.910745620727539,,,,,,,,,,,,1.6888757836659963e+18,105.99599643554686,-2.232599937915802,45.954959869384766,-21.864839553833008,1.6888757836659963e+18,105.99599643554686,-257.85919799804685,140.8099578857422,-154.9912353515625,1.6888757836705764e+18,106.00057641601563,-0.4464899003505707,0.3256534934043884,-0.5436732470989227,0.6309294402599335,-0.3750004470348357,1.35924631357193,1.537975192070007
1.05,1.6888757837138207e+18,106.04382063802085,-7.745811621348064,-1.2891632715861003,-0.0476596355438232,1.6888757837138207e+18,106.04382063802085,-7.3298139572143555,-11.050254503885904,0.9872387448946636,1.6888757837138207e+18,106.04382063802085,0.3931962208201487,-9.745346069335938,0.970184902350108,1.6888757837138207e+18,106.04382063802085,-1.7106263240178423,4.597880919774373,-3.025259176890055,1.6888757837138207e+18,106.04382063802085,-1.7112371524175007,4.602564175923665,-3.022815783818563,,,,,,,,,,,,1.68887578371599e+18,106.04599013671876,1.949559950828552,45.030198669433595,-23.831479644775392,1.68887578371599e+18,106.04599013671876,-253.67703247070312,139.88519592285155,-156.95787658691407,1.6888757837138207e+18,106.04382063802085,-0.4869997104008992,0.4137328366438548,-0.5549076199531555,0.5311378141244253,-1.1614718039830525,1.4534270366032918,2.5462769667307534
1.1,1.6888757837657208e+18,106.095720703125,-0.4874472220738728,1.0549268722534175,-2.291379451751709,1.6888757837657208e+18,106.095720703125,-1.1597212950388591,-8.64427121480306,-0.8662018179893494,1.6888757837657208e+18,106.095720703125,-0.6950754920641581,-9.683452924092611,1.360464096069336,1.6888757837657208e+18,106.095720703125,0.0420987904071807,-0.6878342429796854,-2.3061180909474692,1.6888757837657208e+18,106.095720703125,0.04138612250487,-0.6831509669621786,-2.303674578666687,,,,,,,,,,,,1.688875783765991e+18,106.095990625,4.7018798828125,43.22215881347656,-26.166559600830077,1.688875783765991e+18,106.095990625,-250.9247131347656,138.07715759277343,-159.29295654296874,1.6888757837657208e+18,106.095720703125,-0.4932222863038381,0.4515924950440724,-0.5751192371050516,0.4707975288232167,-2.012765328089396,1.408096472422282,-2.801116704940796
1.15,1.6888757838176248e+18,106.1476250813802,7.191415945688884,2.340813318888346,0.1583540439605713,1.6888757838176248e+18,106.1476250813802,5.536792318026225,-7.267201741536458,1.4069797197977705,1.6888757838176248e+18,106.1476250813802,-1.6774251063664751,-9.592269897460938,1.18391219774882,1.6888757838176248e+18,106.1476250813802,0.4774929980436961,2.0076086223125458,-1.4453071355819702,1.6888757838176248e+18,106.1476250813802,0.4768821398417155,2.0122410356998444,-1.4429655075073242,,,,,,,,,,,,1.6888757838159916e+18,106.14599145507812,10.4627197265625,42.99035873413086,-25.485799026489257,1.6888757838159916e+18,106.14599145507812,-245.1638732910156,137.8453582763672,-158.61219787597656,1.6888757838176248e+18,106.1476250813802,-0.469528595606486,0.4871270060539245,-0.5892823934555054,0.441100666920344,-2.509865045547486,1.3591561714808147,-2.276683568954468
1.2,1.688875783869521e+18,106.19952083333334,0.2301519115765889,1.8042758305867512,-2.942339102427165,1.688875783869521e+18,106.19952083333334,-1.6775680979092915,-7.746165275573731,-1.616152306397756,1.688875783869521e+18,106.19952083333334,-1.9305214881896973,-9.534695943196615,1.2614733775456746,1.688875783869521e+18,106.19952083333334,-0.0119118777414162,1.461851437886556,-0.7387397289276123,1.688875783869521e+18,106.19952083333334,-0.0125736457606156,1.4664838314056396,-0.7362962365150452,,,,,,,,,,,,1.6888757838659937e+18,106.19599370117189,9.184159851074218,42.76831893920898,-25.851799774169923,1.6888757838659937e+18,106.19599370117189,-246.4424346923828,137.6233154296875,-158.9781951904297,1.688875783869521e+18,106.19952083333334,-0.4889023502667745,0.5242456992467245,-0.5679795742034912,0.4042752186457316,-2.547645886739095,1.3333565791447957,-2.123546520868937
1.25,1.6888757839214285e+18,106.25142871093747,2.6328237454096475,-1.426963488260905,-0.4008955558141072,1.6888757839214285e+18,106.25142871093747,0.3194417965908845,-10.858429590861002,1.108076274394989,1.6888757839214285e+18,106.25142871093747,-2.3361833890279136,-9.41572093963623,1.4442583322525024,1.6888757839214285e+18,106.25142871093747,-0.2103921740005413,0.3434080779552459,-1.3394238750139873,1.6888757839214285e+18,106.25142871093747,-0.211053937052687,0.3480913837750752,-1.337031324704488,,,,,,,,,,,,1.6888757839159926e+18,106.24599267578124,9.40132007598877,42.27055892944336,-26.73507957458496,1.6888757839159926e+18,106.24599267578124,-246.22527465820312,137.12555236816405,-159.861474609375,1.6888757839214285e+18,106.25142871093747,-0.4899537662665049,0.5418523550033569,-0.569600502649943,0.3765520354111989,-2.5737246672312417,1.2869997024536133,-2.0521053473154702
1.3,1.6888757839733194e+18,106.30331941731772,2.19078262646993,-2.8459930419921875,-3.7520786126454673,1.6888757839733194e+18,106.30331941731772,-0.6510471304257711,-12.1086794535319,-2.1026928884287677,1.6888757839733194e+18,106.30331941731772,-2.864631175994873,-9.246941248575846,1.5846724112828572,1.6888757839733194e+18,106.30331941731772,-0.4642575780550639,0.4432336489359538,-0.3912591834863027,1.6888757839733194e+18,106.30331941731772,-0.464970255891482,0.4478151102860768,-0.3888157407442728,1.6888757839646797e+18,106.2946796875,0.0,0.0,1.4548490047454834,6.626999855041504,1.6912258863449097,94.1306610107422,39.10000228881836,-122.750594,49.1905208,1.6888757839659963e+18,106.29599643554688,12.551359748840332,41.24087905883789,-27.083999252319337,1.6888757839659963e+18,106.29599643554688,-243.0752380371094,136.09587707519532,-160.21039428710938,1.6888757839733194e+18,106.30331941731772,-0.478397528330485,0.5529894232749939,-0.5823708772659302,0.3551514446735382,-2.6259326140085855,1.230830987294515,-1.9911794662475584
1.35,1.688875784025225e+18,106.35522485351562,4.70728321870168,-5.89661184946696,-5.760937531789144,1.688875784025225e+18,106.35522485351562,2.0141584078470864,-15.216756820678713,-4.190430641174316,1.688875784025225e+18,106.35522485351562,-2.715926170349121,-9.304399808247885,1.5057934125264485,1.688875784025225e+18,106.35522485351562,0.8013025025526682,-0.0217875291903813,0.1632537295420965,1.688875784025225e+18,106.35522485351562,0.8006916046142578,-0.0171551307042439,0.1656971921523412,,,,,,,,,,,,1.6888757840159944e+18,106.34599438476562,11.533879852294922,41.082279205322266,-27.547599411010744,1.6888757840159944e+18,106.34599438476562,-244.09271545410155,135.9372772216797,-160.6739959716797,1.688875784025225e+18,106.35522485351562,-0.4836917320887248,0.5553181767463684,-0.5735065937042236,0.3587441146373748,-2.624993085861206,1.2489941517512004,-1.9791876475016277
1.4,1.6888757840771277e+18,106.40712776692708,-0.5554484128952026,-4.660497665405273,-0.0110098918279012,1.6888757840771277e+18,106.40712776692708,-2.2989043394724527,-14.258431116739908,1.0719845294952393,1.6888757840771277e+18,106.40712776692708,-1.766257405281067,-9.582188288370768,1.0182809432347617,1.6888757840771277e+18,106.40712776692708,1.1274536649386089,0.5573636194070181,3.174768447875977,1.6888757840771277e+18,106.40712776692708,1.1267918348312378,0.5620469475785891,3.1772119998931885,,,,,,,,,,,,1.6888757840659963e+18,106.39599667968749,8.635159969329834,42.9952392578125,-26.02259979248047,1.6888757840659963e+18,106.39599667968749,-246.99143676757816,137.85023803710936,-159.1489990234375,1.6888757840771277e+18,106.40712776692708,-0.505999227364858,0.5509024262428284,-0.5338799953460693,0.3933755755424499,-2.584948698679606,1.3613504966100056,-1.9969713687896729
1.45,1.6888757841203756e+18,106.45037548828124,-4.119072198867798,-6.9924726486206055,3.5018755197525024,1.6888757841203756e+18,106.45037548828124,-4.510470628738403,-16.79432487487793,4.040879249572754,1.6888757841203756e+18,106.45037548828124,-0.4141998067498207,-9.786107063293455,0.4742903262376785,1.6888757841203756e+18,106.45037548828124,1.3191635012626648,-1.2785409688949585,3.0603585243225098,1.6888757841203756e+18,106.45037548828124,1.3184762597084043,-1.2738831043243408,3.0627256631851196,,,,,,,,,,,,1.6888757841159962e+18,106.44599614257812,1.417639982700348,45.47915954589844,-23.34591941833496,1.6888757841159962e+18,106.44599614257812,-254.20895385742188,140.33415832519532,-156.47231750488282,1.6888757841203756e+18,106.45037548828124,-0.5283557176589966,0.5254434943199158,-0.4937795549631119,0.447997435927391,-2.154695510864258,1.5044283866882324,-2.445538640022278
1.5,1.6888757841636283e+18,106.49362817382811,-1.40899920463562,-7.694045702616374,9.215317567189537,1.6888757841636283e+18,106.49362817382811,-0.2993022501468657,-17.434704462687176,9.702895641326904,1.6888757841636283e+18,106.49362817382811,1.08689550558726,-9.724913597106934,0.4228646159172058,1.6888757841636283e+18,106.49362817382811,-0.3958915770053863,-1.5724180539449055,3.8342484633127847,1.6888757841636283e+18,106.49362817382811,-0.3966042697429657,-1.567785640557607,3.836691856384278,,,,,,,,,,,,1.6888757841659935e+18,106.49599355468747,-5.158159971237183,45.71584014892578,-22.455319595336913,1.6888757841659935e+18,106.49599355468747,-260.7847534179688,140.57083740234376,-155.58171691894532,1.6888757841636283e+18,106.49362817382811,-0.5460899273554484,0.4661905765533447,-0.4751434922218323,0.5077506303787231,-0.4343226949373881,1.448070804278056,2.034544666608175
1.55,1.6888757842155282e+18,106.54552815755208,-2.2679659525553384,-0.8454497655232748,1.5521926879882812,1.6888757842155282e+18,106.54552815755208,0.2161515951156616,-10.30429204305013,2.576870560646057,1.6888757842155282e+18,106.54552815755208,2.4613161087036133,-9.443097114562988,0.9599644343058268,1.6888757842155282e+18,106.54552815755208,-0.2235257799426714,-3.3859241803487143,2.363895813624064,1.6888757842155282e+18,106.54552815755208,-0.2242384453614553,-3.381190061569214,2.3662882645924888,,,,,,,,,,,,1.688875784215997e+18,106.54599663085938,-9.694119834899904,44.03955841064453,-24.490279769897462,1.688875784215997e+18,106.54599663085938,-265.3207092285156,138.89455871582032,-157.6166778564453,1.6888757842155282e+18,106.54552815755208,-0.5583002964655558,0.3839662373065948,-0.4751301805178324,0.5604601502418518,-0.3776813149452209,1.2953972419102986,1.8540656963984172
1.6,1.6888757842674225e+18,106.59742228190105,-6.377573609352112,4.450019200642903,-2.766556739807129,1.6888757842674225e+18,106.59742228190105,-2.8895326455434165,-4.671388069788615,-1.5890336632728577,1.6888757842674225e+18,106.59742228190105,3.4652396043141684,-9.105662027994793,1.1128095785776777,1.6888757842674225e+18,106.59742228190105,0.6681338648001353,-1.421890656153361,2.3964752356211343,1.6888757842674225e+18,106.59742228190105,0.6674720843633016,-1.4172582626342771,2.3988677660624185,,,,,,,,,,,,1.6888757842659988e+18,106.59599897460936,-11.68027992248535,43.20995941162109,-24.59763946533203,1.6888757842659988e+18,106.59599897460936,-267.30687255859374,138.06495361328126,-157.72403869628906,1.6888757842674225e+18,106.59742228190105,-0.5456290046374003,0.32100310921669,-0.4687741696834564,0.6157448490460714,-0.3201905190944671,1.1884337663650513,1.668511986732483
1.65,1.688875784319329e+18,106.64932877604168,-10.261435826619469,9.177899360656738,-2.719449440638224,1.688875784319329e+18,106.64932877604168,-6.081358750661214,0.4025924106438954,-1.191226879755656,1.688875784319329e+18,106.64932877604168,4.157275756200154,-8.759561856587728,1.4635091225306194,1.688875784319329e+18,106.64932877604168,0.0371609702706337,-3.4657440185546875,1.937359094619751,1.688875784319329e+18,106.64932877604168,0.0365501095851262,-3.461111545562744,1.9397517045338948,,,,,,,,,,,,1.6888757843159977e+18,106.64599770507812,-13.40291976928711,43.019639587402345,-25.37843933105469,1.6888757843159977e+18,106.64599770507812,-269.0295166015625,137.87463989257813,-158.504833984375,1.688875784319329e+18,106.64932877604168,-0.5197460651397705,0.2547538628180821,-0.4717652102311452,0.6645151178042094,-0.343241145213445,1.1030822197596233,1.5396435260772705
1.7,1.688875784371229e+18,106.70122892252604,-3.175335248311361,8.014803568522135,-0.1451762517293294,1.688875784371229e+18,106.70122892252604,1.3846466739972432,-0.4851448088884353,1.833101511001587,1.688875784371229e+18,106.70122892252604,4.537180423736572,-8.484203338623047,1.9135642846425376,1.688875784371229e+18,106.70122892252604,0.8633562127749125,-1.5601498087247212,0.9217447638511658,1.688875784371229e+18,106.70122892252604,0.8626435498396555,-1.5554665525754292,0.9241882264614104,,,,,,,,,,,,1.6888757843659948e+18,106.69599477539062,-12.961279678344727,42.077799224853514,-26.900999450683592,1.6888757843659948e+18,106.69599477539062,-268.58787231445314,136.93279724121095,-160.02739562988282,1.688875784371229e+18,106.70122892252604,-0.4905356466770172,0.1951819757620493,-0.4804222186406453,0.700206995010376,-0.4050682187080383,1.043957233428955,1.4574227333068848
1.75,1.6888757844231252e+18,106.75312540690103,4.894334316253662,3.58274253209432,3.4352362155914307,1.6888757844231252e+18,106.75312540690103,9.211170514424644,-5.16710106531779,4.651647170384725,1.6888757844231252e+18,106.75312540690103,4.294034719467163,-8.734098434448242,1.1516973972320557,1.6888757844231252e+18,106.75312540690103,2.346027930577596,0.3715587854385376,-1.704263150691986,1.6888757844231252e+18,106.75312540690103,2.3453152179718018,0.3761911789576213,-1.701870580514272,,,,,,,,,,,,1.6888757844159951e+18,106.74599516601565,-12.121920013427737,43.849240112304685,-24.03643951416016,1.6888757844159951e+18,106.74599516601565,-267.74851684570314,138.70423583984376,-157.1628387451172,1.6888757844231252e+18,106.75312540690103,-0.4509566624959309,0.2191765209039052,-0.4826609094937642,0.7177330652872721,-0.2649754236141841,1.0987552007039387,1.283307433128357
1.8,1.6888757844750292e+18,106.805029296875,6.287381013234456,-9.766607920328775,3.0349559783935547,1.6888757844750292e+18,106.805029296875,10.03111171722412,-18.815163294474285,3.943969964981079,1.6888757844750292e+18,106.805029296875,3.720929225285848,-9.03281052907308,0.8443006277084351,1.6888757844750292e+18,106.805029296875,-0.1826487183570861,-2.5477662359674773,0.2841541270414988,1.6888757844750292e+18,106.805029296875,-0.1832595666249593,-2.543082886685928,0.2865466674168904,1.6888757844836818e+18,106.81368188476564,0.0,0.0,1.4548490047454834,6.610000133514404,1.697036623954773,93.53551483154295,39.10000228881836,-122.7505773,49.1905217,1.6888757844659945e+18,106.79599462890624,-7.393200016021728,46.61619873046875,-20.32519950866699,1.6888757844659945e+18,106.79599462890624,-263.01979370117186,141.47119750976563,-153.45159912109375,1.6888757844750292e+18,106.805029296875,-0.4157724579175313,0.2311180184284845,-0.5064958532651266,0.7186840176582336,-0.2289256652196248,1.1700455745061238,1.200425108273824
1.85,1.6888757845269268e+18,106.8569267578125,6.234943310419719,-0.2280623118082682,4.038333932558696,1.6888757845269268e+18,106.8569267578125,10.33858875433604,-9.007182677586874,5.767898917198181,1.6888757845269268e+18,106.8569267578125,4.080843846003215,-8.763375282287598,1.664851427078247,1.6888757845269268e+18,106.8569267578125,0.0749327996745705,-2.378861983617147,0.3275764882564545,1.6888757845269268e+18,106.8569267578125,0.0743219365055361,-2.374229629834493,0.3300199309984843,,,,,,,,,,,,1.6888757845159956e+18,106.84599555664064,-5.28503999710083,46.176998901367185,-21.630599594116212,1.6888757845159956e+18,106.84599555664064,-260.91163940429686,141.03199462890626,-154.75699157714843,1.6888757845269268e+18,106.8569267578125,-0.3803639113903045,0.1484055320421854,-0.5198969841003418,0.750219464302063,-0.3945314884185791,1.1042536497116089,1.1835147142410278
1.9,1.688875784570173e+18,106.90017272949216,-17.25654125213623,-10.60521125793457,7.425504446029663,1.688875784570173e+18,106.90017272949216,-13.39561939239502,-19.474584579467773,9.255437850952148,1.688875784570173e+18,106.90017272949216,3.838120698928833,-8.853628158569336,1.7652199864387512,1.688875784570173e+18,106.90017272949216,-0.7044803500175476,2.637487053871155,-0.4901429899036884,1.688875784570173e+18,106.90017272949216,-0.7051675766706467,2.6421449184417725,-0.4876995421946048,,,,,,,,,,,,1.6888757845659988e+18,106.89599887695312,-4.343199920654297,46.0476791381836,-22.794479751586913,1.6888757845659988e+18,106.89599887695312,-259.9697998046875,140.90267639160157,-155.9208770751953,1.688875784570173e+18,106.90017272949216,-0.3919257223606109,0.1574137285351753,-0.5290404260158539,0.7359000444412231,-0.4382604509592056,1.124872624874115,1.2576717734336853
1.95,1.688875784613427e+18,106.9434267578125,-4.033177852630615,3.587999184926351,-4.292284965515137,1.688875784613427e+18,106.9434267578125,-0.4925226966540019,-5.482554912567139,-2.9176483949025473,1.688875784613427e+18,106.9434267578125,3.5178538958231607,-9.054808934529625,1.3099230726559956,1.688875784613427e+18,106.9434267578125,1.1222612460454304,1.2280427316824596,-1.8828903039296467,1.688875784613427e+18,106.9434267578125,1.1215995053450267,1.2326242725054424,-1.8804467916488647,,,,,,,,,,,,1.6888757846159916e+18,106.94599155273436,-5.03615984916687,46.24775924682617,-21.33779983520508,1.6888757846159916e+18,106.94599155273436,-260.6627502441406,141.10275573730468,-154.46419372558594,1.688875784613427e+18,106.9434267578125,-0.3968170583248138,0.1972360263268152,-0.530802309513092,0.7221137086550394,-0.3612212240695953,1.1770652135213215,1.2466599146525066
2.0,1.6888757846653215e+18,106.99532161458336,-5.6090521812438965,2.70316743850708,-0.3400443792343139,1.6888757846653215e+18,106.99532161458336,-3.898107409477234,-6.938188711802165,0.1655035515626271,1.6888757846653215e+18,106.99532161458336,1.688143531481425,-9.625610987345375,0.4408344626426697,1.6888757846653215e+18,106.99532161458336,-0.2729040384292602,5.599343617757161,-5.042794386545817,1.6888757846653215e+18,106.99532161458336,-0.2736167311668396,5.603975931803386,-5.040401776631673,,,,,,,,,,,,1.68887578466599e+18,106.99598999023438,1.4859599575400353,47.36527938842774,-19.678599548339843,1.68887578466599e+18,106.99598999023438,-254.14063415527343,142.22027587890625,-152.80499572753905,1.6888757846653215e+18,106.99532161458336,-0.4087159136931101,0.3181935350100199,-0.5576970974604288,0.6460837125778198,-0.318694328268369,1.3895843426386516,1.404914617538452
2.05,1.688875784717222e+18,107.04722184244793,-9.84961716334025,-4.007716178894043,0.1081661780675252,1.688875784717222e+18,107.04722184244793,-10.033703327178957,-13.758530616760254,1.3042877515157063,1.688875784717222e+18,107.04722184244793,-0.2068873693545659,-9.735069274902344,1.1314080953598022,1.688875784717222e+18,107.04722184244793,-1.806939462820689,3.89981464544932,-2.635119954744974,1.688875784717222e+18,107.04722184244793,-1.8076520562171936,3.904446999231974,-2.6327782471974692,,,,,,,,,,,,1.6888757847159926e+18,107.04599248046875,4.748239994049072,44.31772003173828,-24.365839385986327,1.6888757847159926e+18,107.04599248046875,-250.87835693359375,139.17271728515624,-157.49223937988282,1.688875784717222e+18,107.04722184244793,-0.4730335275332133,0.4180188874403636,-0.5790367523829142,0.514884759982427,-1.68864901860555,1.4480772018432615,0.9613946278889974
2.1,1.688875784769123e+18,107.09912288411458,5.171740293502808,2.285311539967855,-2.500554084777832,1.688875784769123e+18,107.09912288411458,3.9822550614674888,-7.387839794158936,-1.2524432589610417,1.688875784769123e+18,107.09912288411458,-1.2122865319252014,-9.657406171162924,1.1833972533543904,1.688875784769123e+18,107.09912288411458,0.5573127269744873,-0.5510513583819071,-2.1651610136032104,1.688875784769123e+18,107.09912288411458,0.5566509366035461,-0.5463171402613322,-2.162768324216207,,,,,,,,,,,,1.688875784765991e+18,107.0959908203125,8.61075963973999,43.37343978881836,-25.290600204467772,1.688875784765991e+18,107.0959908203125,-247.01583557128907,138.2284362792969,-158.4169952392578,1.688875784769123e+18,107.09912288411458,-0.4593149820963542,0.4485318859418233,-0.6001201669375101,0.4768996139367421,-2.340555508931478,1.393394907315572,-2.54188871383667
2.15,1.6888757848210225e+18,107.1510222981771,5.059091488520305,2.3081459999084473,0.0396975676218668,1.6888757848210225e+18,107.1510222981771,3.1383861700693765,-7.26421054204305,1.1657034655412035,1.6888757848210225e+18,107.1510222981771,-1.9435067971547444,-9.55661137898763,1.0612924098968506,1.6888757848210225e+18,107.1510222981771,0.5965608060359955,3.2934290568033853,-1.1453723311424255,1.6888757848210225e+18,107.1510222981771,0.5958481431007385,3.2980614503224692,-1.1429798007011414,,,,,,,,,,,,1.6888757848159892e+18,107.14598930664064,11.682719612121582,43.532038879394534,-24.60007934570313,1.6888757848159892e+18,107.14598930664064,-243.94387512207032,138.3870391845703,-157.72648010253906,1.6888757848210225e+18,107.1510222981771,-0.4617263476053874,0.5003463824590048,-0.5897017319997152,0.4336077968279521,-2.6287781397501626,1.3427905639012654,-2.1452620029449463
2.2,1.6888757848729231e+18,107.20292309570311,0.4856463273366292,0.9151398340861002,-2.887213389078776,1.6888757848729231e+18,107.20292309570311,-1.54416819413503,-8.61755116780599,-1.6205391486485798,1.6888757848729231e+18,107.20292309570311,-2.0526160399119058,-9.516945838928224,1.2019607623418171,1.6888757848729231e+18,107.20292309570311,-0.1104138928155104,1.7278323570887248,-0.4864523510138194,1.6888757848729231e+18,107.20292309570311,-0.111126571893692,1.7325156529744463,-0.484008898337682,,,,,,,,,,,,1.688875784865987e+18,107.19598730468748,9.284199905395509,43.7150390625,-25.64683952331543,1.688875784865987e+18,107.19598730468748,-246.34239501953124,138.57003479003907,-158.7732391357422,1.6888757848729231e+18,107.20292309570311,-0.4883683224519093,0.535458505153656,-0.5631229082743326,0.3968895375728607,-2.600122849146525,1.3258423805236816,-2.0479440689086914
2.25,1.6888757849248248e+18,107.25482503255208,4.1396751801172895,-1.2913599014282229,-1.6105544567108154,1.6888757849248248e+18,107.25482503255208,1.6141582826773326,-10.680762926737469,-0.1940180361270904,1.6888757849248248e+18,107.25482503255208,-2.548318386077881,-9.373657862345375,1.3518229722976685,1.6888757849248248e+18,107.25482503255208,-0.2108503182729084,-0.2330451011657714,-1.4743741750717163,1.6888757849248248e+18,107.25482503255208,-0.2115120962262153,-0.2283617854118347,-1.471930742263794,,,,,,,,,,,,1.6888757849159892e+18,107.24598935546874,9.550159645080566,42.96839828491211,-26.025040054321288,1.6888757849159892e+18,107.24598935546874,-246.0764373779297,137.82339782714843,-159.15143737792968,1.6888757849248248e+18,107.25482503255208,-0.4847947458426158,0.5549531976381937,-0.5666104952494303,0.3685283660888671,-2.641441742579142,1.2723215023676555,-1.9651188453038533
2.3,1.6888757849767227e+18,107.30672281901042,0.8455480734507242,-4.354066530863444,-6.122472763061523,1.6888757849767227e+18,107.30672281901042,-1.887737552324931,-13.664413134256998,-4.559523502985637,1.6888757849767227e+18,107.30672281901042,-2.756087144215902,-9.294601440429688,1.498235781987508,1.6888757849767227e+18,107.30672281901042,-0.2304489115873972,0.4494950075944264,0.2085086678465207,1.6888757849767227e+18,107.30672281901042,-0.2311106820901235,0.4541274160146713,0.2109521304567655,,,,,,,,,,,,1.688875784965995e+18,107.29599482421877,11.782759666442873,41.78499908447266,-26.85951957702637,1.688875784965995e+18,107.29599482421877,-243.84383544921872,136.6399932861328,-159.9859161376953,1.6888757849767227e+18,107.30672281901042,-0.4819697539011637,0.5566103259722391,-0.574285646279653,0.3578531642754872,-2.634174346923828,1.2455512682596843,-1.970299204190572
2.35,1.688875785019981e+18,107.34998107910155,5.623432636260986,-7.1893463134765625,-6.034238576889038,1.688875785019981e+18,107.34998107910155,3.011965572834015,-16.57448434829712,-4.746762037277222,1.688875785019981e+18,107.34998107910155,-2.6342684030532837,-9.36939287185669,1.2227631211280825,1.688875785019981e+18,107.34998107910155,0.9453903138637544,-0.9644798934459686,0.4954880848526954,1.688875785019981e+18,107.34998107910155,0.9446267485618592,-0.9598219990730286,0.497931532561779,1.688875785002681e+18,107.33268139648438,0.0,0.0,1.4649899005889893,6.5970001220703125,1.7038815021514893,92.51171875,39.10000228881836,-122.7505664,49.1905229,1.688875785015993e+18,107.345993359375,11.321599578857422,42.31203918457031,-26.63503952026367,1.688875785015993e+18,107.345993359375,-244.30499267578125,137.1670379638672,-159.76143493652344,1.688875785019981e+18,107.34998107910155,-0.4762197434902191,0.5557299554347992,-0.5697243809700012,0.3738224804401397,-2.697842240333557,1.270573377609253,-1.925101697444916
2.4,1.6888757850632236e+18,107.39322363281252,-0.6860120296478271,-4.913835525512695,1.08294415473938,1.6888757850632236e+18,107.39322363281252,-2.4273191889127097,-14.544173876444498,1.8438692887624104,1.6888757850632236e+18,107.39322363281252,-1.7641085783640544,-9.614593187967936,0.6962116559346517,1.6888757850632236e+18,107.39322363281252,1.2787445783615112,0.4435390681028366,2.776280721028646,1.6888757850632236e+18,107.39322363281252,1.2780828475952148,0.4481714665889739,2.77867325146993,,,,,,,,,,,,1.6888757850659963e+18,107.39599614257811,8.073959827423096,44.28599853515625,-24.08279914855957,1.6888757850659963e+18,107.39599614257811,-247.5526336669922,139.14099731445313,-157.20919799804688,1.6888757850632236e+18,107.39322363281252,-0.4916163484255473,0.5501173734664917,-0.5349345604578654,0.4110833307107289,-2.7492457230885825,1.3767298062642417,-1.8669328689575195
2.45,1.6888757851151311e+18,107.44513110351562,-2.843576351801554,-6.979038238525391,8.004729270935059,1.6888757851151311e+18,107.44513110351562,-2.955135981241862,-16.784653663635254,8.45324420928955,1.6888757851151311e+18,107.44513110351562,-0.1343610237042109,-9.789870262145996,0.3838015099366506,1.6888757851151311e+18,107.44513110351562,0.2512183239062627,-1.3994413614273071,3.5293757915496826,1.6888757851151311e+18,107.44513110351562,0.2505056659380594,-1.3948089877764385,3.5318191846211753,,,,,,,,,,,,1.6888757851159954e+18,107.44599545898436,1.0540799617767334,46.19895935058594,-22.44311981201172,1.6888757851159954e+18,107.44599545898436,-254.57251892089843,141.053955078125,-155.56951599121095,1.6888757851151311e+18,107.44513110351562,-0.5229406754175822,0.509382943312327,-0.4961877961953481,0.4691567718982696,-1.7356954614321392,1.5076416730880735,-0.8152637481689453
2.5,1.688875785167028e+18,107.49702783203124,-3.5951658884684243,-4.777209599812825,7.82425594329834,1.688875785167028e+18,107.49702783203124,-1.9694924255212147,-14.44606844584147,8.465008894602457,1.688875785167028e+18,107.49702783203124,1.6028719743092854,-9.65311368306478,0.5760395427544912,1.688875785167028e+18,107.49702783203124,-0.3954843307534854,-2.2470677693684897,3.0553952058156333,1.688875785167028e+18,107.49702783203124,-0.3960952013731003,-2.242486278216044,3.057838678359986,,,,,,,,,,,,1.6888757851659958e+18,107.49599589843749,-6.514799880981445,45.77195816040039,-22.82619972229004,1.6888757851659958e+18,107.49599589843749,-262.1413879394531,140.6269561767578,-155.95259704589844,1.688875785167028e+18,107.49702783203124,-0.5482936302820841,0.4356348017851512,-0.4768438140551249,0.5305702487627665,-0.3555147647857666,1.3939884901046753,1.9026650587717693
2.55,1.688875785218931e+18,107.54893107096352,-0.6733399232228597,0.4996442794799804,-2.0530734856923423,1.688875785218931e+18,107.54893107096352,1.994617077211539,-8.899106979370117,-0.950947642326355,1.688875785218931e+18,107.54893107096352,2.645155588785807,-9.38300609588623,1.0374123652776082,1.688875785218931e+18,107.54893107096352,0.140397198498249,-2.6162849267323813,2.556420167287191,1.688875785218931e+18,107.54893107096352,0.1397863328456878,-2.6116016705830893,2.558863639831543,,,,,,,,,,,,1.6888757852159944e+18,107.54599438476562,-8.359439849853516,44.37383804321289,-24.490279769897462,1.6888757852159944e+18,107.54599438476562,-263.9860412597656,139.2288330078125,-157.61667175292968,1.688875785218931e+18,107.54893107096352,-0.534315268198649,0.3520605365435282,-0.4904180765151977,0.5911514163017273,-0.384811262289683,1.2748457193374634,1.7578031619389851
2.6,1.688875785270829e+18,107.60082885742187,-9.255209763844809,7.251368522644043,-2.3559407393137612,1.688875785270829e+18,107.60082885742187,-5.475775241851807,-1.7579270402590434,-1.2117652495702107,1.688875785270829e+18,107.60082885742187,3.756633043289185,-8.993550300598145,1.0794620911280317,1.688875785270829e+18,107.60082885742187,0.3402010345210631,-2.011375625928243,2.3988678455352783,1.688875785270829e+18,107.60082885742187,0.33953926153481,-2.006743232409159,2.4012603759765625,,,,,,,,,,,,1.6888757852659922e+18,107.59599233398436,-12.666039848327635,43.69063873291016,-24.27799949645996,1.6888757852659922e+18,107.59599233398436,-268.2926391601562,138.54563903808594,-157.4043975830078,1.688875785270829e+18,107.60082885742187,-0.5287441611289978,0.298206349213918,-0.4681030909220378,0.6417843898137411,-0.2858092486858368,1.159618059794108,1.5663936932881672
2.65,1.6888757853227318e+18,107.65273185221352,-7.93282429377238,9.08771006266276,-2.1072558959325156,1.6888757853227318e+18,107.65273185221352,-3.509872039159139,0.4642075896263123,-0.3914259076118469,1.6888757853227318e+18,107.65273185221352,4.400150775909424,-8.607757250467936,1.6511165301005046,1.6888757853227318e+18,107.65273185221352,0.093716911971569,-2.811914602915446,1.8134043614069624,1.6888757853227318e+18,107.65273185221352,0.0931060438354809,-2.807333072026571,1.8158478339513144,,,,,,,,,,,,1.688875785315995e+18,107.64599492187502,-13.846999740600586,42.41939926147461,-25.937199783325195,1.688875785315995e+18,107.64599492187502,-269.4735900878906,137.27439575195314,-159.0635986328125,1.6888757853227318e+18,107.65273185221352,-0.5039397577444712,0.2243842234214146,-0.4744794865449269,0.6855976581573486,-0.363404502471288,1.0701306263605754,1.4845452308654783
2.7,1.688875785374632e+18,107.70463208007811,-0.4461057980855306,6.092509746551514,1.5769905646642048,1.688875785374632e+18,107.70463208007811,4.205186367034912,-2.3856441577275596,3.424527963002523,1.688875785374632e+18,107.70463208007811,4.628490765889485,-8.462408701578775,1.782823920249939,1.688875785374632e+18,107.70463208007811,1.2613858183224995,-0.7894924332698187,-0.1379537458221117,1.688875785374632e+18,107.70463208007811,1.26067316532135,-0.7848091473182043,-0.1355102633436521,,,,,,,,,,,,1.688875785365996e+18,107.69599584960936,-13.407799530029298,42.094879150390625,-26.332479858398436,1.688875785365996e+18,107.69599584960936,-269.0343994140625,136.9498779296875,-159.45887451171876,1.688875785374632e+18,107.70463208007811,-0.477500706911087,0.1905991385380426,-0.4774418473243713,0.7124522725741068,-0.3723347087701161,1.0399261713027954,1.3955801328023278
2.75,1.6888757854265295e+18,107.75652945963542,6.062513510386149,3.24377171198527,1.8226172129313152,1.6888757854265295e+18,107.75652945963542,9.975876808166504,-5.711268901824951,2.902892589569092,1.6888757854265295e+18,107.75652945963542,3.890561898549398,-8.939295450846354,1.0155618985493975,1.6888757854265295e+18,107.75652945963542,1.5359697739283245,0.3255911817153294,-2.4195863405863443,1.6888757854265295e+18,107.75652945963542,1.5352570414543152,0.3302744726339975,-2.41719381014506,,,,,,,,,,,,1.688875785415997e+18,107.74599692382812,-10.3943998336792,44.834999084472656,-22.894519805908203,1.688875785415997e+18,107.74599692382812,-266.02099609375,139.68999328613282,-156.0209197998047,1.6888757854265295e+18,107.75652945963542,-0.437185784180959,0.2312605828046798,-0.4980800151824951,0.7119653622309366,-0.259398341178894,1.1475227276484172,1.2687761386235554
2.8,1.6888757854697846e+18,107.79978479003908,5.876288414001465,-17.146823406219482,5.219496965408325,1.6888757854697846e+18,107.79978479003908,9.423832416534424,-26.245376586914062,6.40349268913269,1.6888757854697846e+18,107.79978479003908,3.5247424840927124,-9.082807540893556,1.119282215833664,1.6888757854697846e+18,107.79978479003908,-1.0196868181228638,-2.5243242383003235,1.089020013809204,1.6888757854697846e+18,107.79978479003908,-1.020450383424759,-2.519666373729706,1.0914635211229324,,,,,,,,,,,,1.6888757854659942e+18,107.79599428710938,-5.450959873199463,46.37951889038086,-21.828239822387697,1.6888757854659942e+18,107.79599428710938,-261.0775573730469,141.23451538085936,-154.9546356201172,1.6888757854697846e+18,107.79978479003908,-0.422208160161972,0.2268474698066711,-0.5184441804885864,0.7079490721225739,-0.3123634308576584,1.1832579970359802,1.2858425378799438
2.85,1.6888757855130248e+18,107.84302490234376,4.552673737208049,1.7136128743489585,6.435244242350261,1.6888757855130248e+18,107.84302490234376,8.531808376312256,-7.048058907190959,8.512267112731934,1.6888757855130248e+18,107.84302490234376,3.95633331934611,-8.74592653910319,2.012309432029724,1.6888757855130248e+18,107.84302490234376,-0.1422806965808074,-3.391829252243042,1.1727595031261444,1.6888757855130248e+18,107.84302490234376,-0.1430442817509174,-3.3871459563573203,1.175152043501536,1.6888757855216786e+18,107.8516787109375,0.0,0.0,1.4649899005889893,6.6020002365112305,1.7064998149871826,91.9314422607422,39.10000228881836,-122.7505538,49.1905236,1.6888757855160018e+18,107.84600185546874,-4.618919944763183,45.2375991821289,-24.368279266357423,1.6888757855160018e+18,107.84600185546874,-260.2455200195312,140.09259643554688,-157.4946746826172,1.6888757855130248e+18,107.84302490234376,-0.3958056370417277,0.1422898272673288,-0.527312695980072,0.7378547191619873,-0.4753844936688741,1.1003973086675007,1.2795788447062175
2.9,1.688875785564923e+18,107.8949230143229,-12.523054122924805,-6.442721684773763,1.243600606918335,1.688875785564923e+18,107.8949230143229,-8.782456795374552,-15.28475284576416,3.425126075744629,1.688875785564923e+18,107.8949230143229,3.717795769373576,-8.82628599802653,2.116811911265055,1.688875785564923e+18,107.8949230143229,-0.3124066789944966,2.813085357348124,-1.0324131747086842,1.688875785564923e+18,107.8949230143229,-0.3130684395631154,2.8177177906036377,-1.0299697319666543,,,,,,,,,,,,1.6888757855659963e+18,107.8959966796875,-4.811679935455322,44.576359558105466,-25.056359481811523,1.6888757855659963e+18,107.8959966796875,-260.4382751464844,139.43135681152344,-158.18275756835936,1.688875785564923e+18,107.8949230143229,-0.408513605594635,0.1520762890577315,-0.5360131661097208,0.7225423057874044,-0.522760679324468,1.1184447606404622,1.3607914050420125
2.95,1.6888757856168328e+18,107.9468329264323,-3.214940388997396,2.719414234161377,-2.7885665893554688,1.6888757856168328e+18,107.9468329264323,-0.1577270030975341,-6.528417746225993,-1.4957135319709778,1.6888757856168328e+18,107.9468329264323,3.034411907196045,-9.232086817423502,1.228139599164327,1.6888757856168328e+18,107.9468329264323,1.2702434062957764,2.8424068291982016,-3.0681724548339844,1.6888757856168328e+18,107.9468329264323,1.2695815960566204,2.8470393419265747,-3.0657290617624917,,,,,,,,,,,,1.688875785615994e+18,107.94599404296874,-4.511559867858887,45.74756011962891,-22.72615966796875,1.688875785615994e+18,107.94599404296874,-260.1381591796875,140.60255737304686,-155.85255737304686,1.6888757856168328e+18,107.9468329264323,-0.4178216457366943,0.2333371986945469,-0.5385801792144775,0.6926074425379435,-0.3849241534868876,1.2290359735488892,1.3577033281326294
3.0,1.6888757856687288e+18,107.99872875976564,-7.146081447601318,0.525109608968099,-0.1699008544286091,1.6888757856687288e+18,107.99872875976564,-6.149753570556641,-9.202995300292969,0.6159524222215017,1.6888757856687288e+18,107.99872875976564,0.9735265473524728,-9.7123597462972,0.7211397886276245,1.6888757856687288e+18,107.99872875976564,-1.023911995779296,4.63112211227417,-4.769890308380127,1.6888757856687288e+18,107.99872875976564,-1.0246755466408406,4.63585631052653,-4.767497698465983,,,,,,,,,,,,1.688875785665999e+18,107.99599912109376,1.3078399777412415,46.35267944335938,-21.347560119628906,1.688875785665999e+18,107.99599912109376,-254.31875,141.20767822265626,-154.4739532470703,1.6888757856687288e+18,107.99872875976564,-0.4387974341710408,0.3560828864574432,-0.5679179032643636,0.5964374542236328,-0.7712609469890594,1.4344130357106526,1.969176729520162
3.05,1.68887578572063e+18,108.0506298014323,-5.106500685214996,-3.437283515930176,-1.7831101814905803,1.68887578572063e+18,108.0506298014323,-5.6701920827229815,-13.158131917317707,-0.4478566149870555,1.68887578572063e+18,108.0506298014323,-0.5864929010470709,-9.705103238423666,1.2705400784810383,1.68887578572063e+18,108.0506298014323,-0.4303545753161112,2.4517584840456643,-2.5204808712005615,1.68887578572063e+18,108.0506298014323,-0.4309654335180918,2.456441948811213,-2.5180883407592773,,,,,,,,,,,,1.6888757857159967e+18,108.04599658203124,5.533919906616211,44.39823989868164,-25.03195991516113,1.6888757857159967e+18,108.04599658203124,-250.0926727294922,139.25323791503905,-158.15835571289062,1.68887578572063e+18,108.0506298014323,-0.4789425333340962,0.4352013667424519,-0.5830640196800232,0.4906973938147227,-1.9765673875808711,1.4231725533803303,-0.8016587098439535
3.1,1.688875785772533e+18,108.10253304036458,6.515100479125977,2.417606830596924,-1.3824896415074666,1.688875785772533e+18,108.10253304036458,4.800600369771321,-7.192226568857829,-0.2640081271529197,1.688875785772533e+18,108.10253304036458,-1.7373015880584717,-9.594088236490885,1.0537680983543396,1.688875785772533e+18,108.10253304036458,0.5936082998911539,0.6852381030718485,-2.1246402263641357,1.688875785772533e+18,108.10253304036458,0.5929465194543203,0.6899213790893554,-2.1222476959228516,,,,,,,,,,,,1.6888757857659968e+18,108.09599677734374,9.42083969116211,43.64915924072265,-25.024639129638672,1.6888757857659968e+18,108.09599677734374,-246.2057556152344,138.50416259765626,-158.15103759765626,1.688875785772533e+18,108.10253304036458,-0.4540166954199473,0.4788867533206939,-0.5989186962445577,0.4534253776073456,-2.5776201089223227,1.3607390721638997,-2.254939635594686
3.15,1.6888757858244334e+18,108.15443334960936,3.1516109704971313,3.24596373240153,-0.1010150909423828,1.6888757858244334e+18,108.15443334960936,1.0115657250086467,-6.281159400939941,1.0039885292450588,1.6888757858244334e+18,108.15443334960936,-2.1628467241923013,-9.511377970377604,1.040290157000224,1.6888757858244334e+18,108.15443334960936,0.2784527316689491,2.668361186981201,-0.901688019434611,1.6888757858244334e+18,108.15443334960936,0.2777400687336921,2.673044443130493,-0.899295449256897,,,,,,,,,,,,1.688875785815995e+18,108.1459947265625,11.09223976135254,43.71015853881836,-24.52199935913086,1.688875785815995e+18,108.1459947265625,-244.53435974121095,138.56515502929688,-157.64839782714844,1.6888757858244334e+18,108.15443334960936,-0.46842888991038,0.5247042179107666,-0.5780925750732422,0.413120945294698,-2.683528423309326,1.32364288965861,-2.0269031524658203
3.2,1.6888757858763305e+18,108.20633064778644,0.6303686300913494,0.0625686645507812,-2.624098459879557,1.6888757858763305e+18,108.20633064778644,-1.811566134293874,-9.353543599446615,-1.2273185849189758,1.6888757858763305e+18,108.20633064778644,-2.464736223220825,-9.40036710103353,1.3320663770039876,1.6888757858763305e+18,108.20633064778644,-0.546571671962738,0.7049384946003556,-0.8238026897112528,1.6888757858763305e+18,108.20633064778644,-0.5472334424654642,0.7096217833459377,-0.8214101195335388,,,,,,,,,,,,1.6888757858659932e+18,108.1959932128906,9.947879791259766,43.1635986328125,-25.517519760131837,1.6888757858659932e+18,108.1959932128906,-245.6787139892578,138.0185974121094,-158.64391479492187,1.6888757858763305e+18,108.20633064778644,-0.4829499026139577,0.5479378700256348,-0.5698545376459757,0.3764653503894806,-2.638068675994873,1.2812435626983645,-1.9888234933217368
3.25,1.688875785919578e+18,108.249578125,5.690552473068237,-1.6830120086669922,-1.668078362941742,1.688875785919578e+18,108.249578125,2.775375187397003,-10.935797691345217,-0.0984048396348953,1.688875785919578e+18,108.249578125,-2.9379786252975464,-9.237040519714355,1.504960060119629,1.688875785919578e+18,108.249578125,-0.423100546002388,-0.551534965634346,-1.478981077671051,1.688875785919578e+18,108.249578125,-0.423787772655487,-0.5468771159648895,-1.4765376448631289,,,,,,,,,,,,1.6888757859159967e+18,108.24599658203124,12.631879806518556,41.684959411621094,-26.930279541015626,1.6888757859159967e+18,108.24599658203124,-242.99471435546872,136.53995666503906,-160.05668029785156,1.688875785919578e+18,108.249578125,-0.4708824008703232,0.5522291660308838,-0.5866183638572693,0.3593676537275314,-2.6603987216949463,1.2277378439903257,-1.97369921207428
3.3,1.6888757859628326e+18,108.29283251953125,2.005824247996012,-5.072463035583496,-5.171638647715251,1.6888757859628326e+18,108.29283251953125,-1.042473038037618,-14.24846108754476,-3.4081769784291587,1.6888757859628326e+18,108.29283251953125,-3.071098804473877,-9.160252888997396,1.6987480719884236,1.6888757859628326e+18,108.29283251953125,-0.2438370486100514,0.6064364910125732,0.1301651994387308,1.6888757859628326e+18,108.29283251953125,-0.2444479167461395,0.6111197570959727,0.1325577596823374,,,,,,,,,,,,1.6888757859659894e+18,108.295989453125,13.09060001373291,40.9822395324707,-27.97703971862793,1.6888757859659894e+18,108.295989453125,-242.53599548339844,135.8372344970703,-161.1034393310547,1.6888757859628326e+18,108.29283251953125,-0.4736159940560658,0.5544503728548685,-0.5902730623881022,0.346145361661911,-2.629140059153239,1.2050217787424724,-1.9900153080622356
3.35,1.6888757860147343e+18,108.344734375,5.554849783579509,-4.742402712504069,-3.28624435265859,1.6888757860147343e+18,108.344734375,2.7906293074289956,-14.048660278320312,-1.7722838992873828,1.6888757860147343e+18,108.344734375,-2.7870218753814697,-9.290512402852375,1.449246923128764,1.6888757860147343e+18,108.344734375,0.8804604212443033,0.2843577712774276,1.027577134470145,1.6888757860147343e+18,108.344734375,0.8798495729764303,0.2890410721302032,1.0299697344501813,1.6888757860406725e+18,108.37067236328124,0.0,0.0,1.474599003791809,6.6020002365112305,1.7096009254455566,90.92346954345705,39.10000228881836,-122.7505444,49.1905248,1.6888757860159964e+18,108.34599653320312,11.926719856262206,41.89235916137695,-26.89123954772949,1.6888757860159964e+18,108.34599653320312,-243.6998779296875,136.7473571777344,-160.01763916015625,1.6888757860147343e+18,108.344734375,-0.4805611173311869,0.5600692828496298,-0.5723408460617065,0.3572939038276672,-2.654345989227295,1.2450482447942095,-1.9455005725224812
3.4,1.6888757860666296e+18,108.39662955729166,-4.20200530687968,-6.2292022705078125,-0.7340873082478842,1.6888757860666296e+18,108.39662955729166,-5.549354473749797,-15.896916389465332,0.3030908803145091,1.6888757860666296e+18,108.39662955729166,-1.3701506455739338,-9.651968955993654,0.972464720408122,1.6888757860666296e+18,108.39662955729166,1.298444966475169,-0.1294016446918249,3.397988796234131,1.6888757860666296e+18,108.39662955729166,1.2977322936058044,-0.1247691959142684,3.400432268778483,,,,,,,,,,,,1.6888757860659937e+18,108.39599360351562,5.155719900131226,44.23231887817383,-25.019759368896484,1.6888757860659937e+18,108.39599360351562,-250.47087707519532,139.08731689453126,-158.14615478515626,1.6888757860666296e+18,108.39662955729166,-0.5155612230300903,0.5419143637021383,-0.5245582660039266,0.4058124721050262,-2.490237236022949,1.398126482963562,-2.094430605570475
3.45,1.6888757861185275e+18,108.44852775065104,-1.7214430967966716,-8.432005246480307,6.460411389668782,1.6888757861185275e+18,108.44852775065104,-1.439681629339854,-18.235302607218426,6.878766854604085,1.6888757861185275e+18,108.44852775065104,0.258959949016571,-9.787552197774252,0.3536421557267507,1.6888757861185275e+18,108.44852775065104,0.5804746945699056,-1.9611828327178955,3.5121697584788003,1.6888757861185275e+18,108.44852775065104,0.579711119333903,-1.956550439198812,3.5145622889200845,,,,,,,,,,,,1.688875786115996e+18,108.44599584960936,-1.0370000004768372,46.24043960571289,-22.43335952758789,1.688875786115996e+18,108.44599584960936,-256.66359252929686,141.0954376220703,-155.55975646972655,1.6888757861185275e+18,108.44852775065104,-0.5254236261049906,0.492974579334259,-0.4926845928033193,0.4871344268321991,-1.147407243649165,1.5060797532399497,0.6624089479446412
3.5,1.6888757861704338e+18,108.50043375651042,-5.343350728352864,-5.070518175760905,7.057288646697998,1.6888757861704338e+18,108.50043375651042,-3.3872398932774863,-14.675779342651367,7.768498102823893,1.6888757861704338e+18,108.50043375651042,1.9333094358444216,-9.589516003926596,0.646496057510376,1.6888757861704338e+18,108.50043375651042,-0.1866193289558092,-2.771648367245992,2.928793430328369,1.6888757861704338e+18,108.50043375651042,-0.1872811118761698,-2.7669140299161277,2.931236823399862,,,,,,,,,,,,1.6888757861659963e+18,108.49599643554689,-7.956839942932129,45.56455917358399,-23.150719451904298,1.6888757861659963e+18,108.49599643554689,-263.58343505859375,140.41956176757813,-156.27711791992186,1.6888757861704338e+18,108.50043375651042,-0.548412561416626,0.4167720476786296,-0.4761180877685547,0.545813798904419,-0.3314750889937082,1.3596551815668745,1.8450813293457031
3.55,1.688875786222331e+18,108.55233097330728,-2.4811694622039795,2.3121740023295083,-1.9425921440124512,1.688875786222331e+18,108.55233097330728,0.6618148684501648,-6.954739093780518,-1.006381306797266,1.688875786222331e+18,108.55233097330728,3.120182832082113,-9.251167933146158,0.8714973131815592,1.688875786222331e+18,108.55233097330728,0.639932264884313,-2.187304854393006,2.966005325317383,1.688875786222331e+18,108.55233097330728,0.6392195820808411,-2.182672381401062,2.9684487183888755,,,,,,,,,,,,1.6888757862159944e+18,108.54599443359376,-9.759999847412107,44.57391891479492,-23.663119888305665,1.6888757862159944e+18,108.54599443359376,-265.3865966796875,139.42891845703124,-156.78951721191407,1.688875786222331e+18,108.55233097330728,-0.5277077158292135,0.3351244727770487,-0.4775752623875935,0.6168791850407919,-0.2829768608013788,1.2325109640757244,1.6181101401646931
3.6,1.688875786274231e+18,108.60423087565106,-11.096858342488607,10.351410230000814,-1.3603545626004536,1.688875786274231e+18,108.60423087565106,-6.908677260080974,1.508275846640269,-0.3577269939705729,1.688875786274231e+18,108.60423087565106,4.165379603703816,-8.827389081319174,0.9379141132036845,1.688875786274231e+18,108.60423087565106,0.4500040759642918,-3.0206267833709717,2.2296581268310547,1.688875786274231e+18,108.60423087565106,0.4493931954105696,-3.015994389851888,2.2321015993754068,,,,,,,,,,,,1.6888757862659945e+18,108.59599453125,-13.520039939880371,44.076158905029295,-23.075079345703124,1.6888757862659945e+18,108.59599453125,-269.146630859375,138.9311553955078,-156.20148010253905,1.688875786274231e+18,108.60423087565106,-0.5092185437679291,0.2754964679479599,-0.4595898787180583,0.6729034582773844,-0.2250662744045257,1.119423508644104,1.4368144671122234
3.65,1.688875786326138e+18,108.65613826497396,-5.736653486887614,10.071665287017822,-1.3229881127675374,1.688875786326138e+18,108.65613826497396,-0.9391828974088036,1.6819548805554707,0.5435695648193359,1.688875786326138e+18,108.65613826497396,4.774669170379639,-8.3739652633667,1.8018442392349243,1.688875786326138e+18,108.65613826497396,-0.2642501244942347,-2.7373889684677124,1.5134695172309875,1.688875786326138e+18,108.65613826497396,-0.2649118974804878,-2.7327057123184204,1.5158112247784932,,,,,,,,,,,,1.6888757863159944e+18,108.6459943847656,-14.332559967041016,43.01475830078125,-25.08075942993164,1.6888757863159944e+18,108.6459943847656,-269.9591552734375,137.8697540283203,-158.2071563720703,1.688875786326138e+18,108.65613826497396,-0.4836639066537221,0.1884703437487283,-0.4700243274370829,0.7135866284370422,-0.3640288114547729,1.022657473882039,1.3968387444814043
3.7,1.6888757863693796e+18,108.69937963867189,0.5531994104385376,5.1166558265686035,2.1005560159683228,1.6888757863693796e+18,108.69937963867189,5.310869812965393,-3.247957706451416,4.18863582611084,1.6888757863693796e+18,108.69937963867189,4.734869003295898,-8.348868370056152,2.023366332054138,1.6888757863693796e+18,108.69937963867189,1.1360566318035126,-1.0015899240970612,-0.9793696999549866,1.6888757863693796e+18,108.69937963867189,1.135445773601532,-0.9968557357788084,-0.976926252245903,,,,,,,,,,,,1.6888757863659945e+18,108.69599433593751,-12.858799743652344,42.265679931640626,-26.264159774780275,1.6888757863659945e+18,108.69599433593751,-268.485400390625,137.1206787109375,-159.39055786132812,1.6888757863693796e+18,108.69937963867189,-0.4624892473220825,0.1633036583662033,-0.4818559437990188,0.7260704338550568,-0.4080575406551361,1.01757150888443,1.3640769720077517
3.75,1.688875786412635e+18,108.74263460286458,4.911477247873942,3.3505859375,1.6911122401555378,1.688875786412635e+18,108.74263460286458,8.728817462921143,-5.579464276631673,3.2313076655069985,1.688875786412635e+18,108.74263460286458,3.794538736343384,-8.914305051167807,1.4754819869995115,1.688875786412635e+18,108.74263460286458,1.5831081867218018,-0.0394517183303832,-2.7922141551971436,1.688875786412635e+18,108.74263460286458,1.5823446313540142,-0.0347684174776077,-2.7897706826527915,,,,,,,,,,,,1.688875786415993e+18,108.74599306640626,-7.46639986038208,44.939918518066406,-23.750959396362305,1.688875786415993e+18,108.74599306640626,-263.0929870605469,139.7949188232422,-156.87735595703126,1.688875786412635e+18,108.74263460286458,-0.4235110481580098,0.1987115045388539,-0.5166849891344706,0.7167128721872965,-0.3750293950239817,1.1418180465698242,1.3094817002614338
3.8,1.6888757864645317e+18,108.79453141276042,8.777898152669271,-15.940070152282717,5.159944613774617,1.6888757864645317e+18,108.79453141276042,12.41276772816976,-24.8723939259847,7.093522707621257,1.6888757864645317e+18,108.79453141276042,3.6120681762695312,-8.91657829284668,1.86886465549469,1.6888757864645317e+18,108.79453141276042,-0.9406815667947134,-3.2914437850316367,1.8529578844706216,1.6888757864645317e+18,108.79453141276042,-0.941394254565239,-3.286760369936625,1.855401416619619,,,,,,,,,,,,1.6888757864659932e+18,108.79599301757813,-3.5160399436950684,45.630438232421874,-23.970559692382817,1.6888757864659932e+18,108.79599301757813,-259.14263305664065,140.48544006347657,-157.09696044921876,1.6888757864645317e+18,108.79453141276042,-0.4026247064272563,0.1659955581029256,-0.5362626314163208,0.7221844991048177,-0.4781091411908467,1.1416692733764648,1.3266417582829793
3.85,1.688875786516435e+18,108.84643497721356,-4.613550027211507,4.026237805684407,5.959979772567749,1.688875786516435e+18,108.84643497721356,-0.8646066188812256,-4.759922345479329,8.349356015523275,1.688875786516435e+18,108.84643497721356,3.726142168045044,-8.77041498819987,2.3246628443400064,1.688875786516435e+18,108.84643497721356,0.3153082529703775,-0.6301584243774414,-0.6684392690658569,1.688875786516435e+18,108.84643497721356,0.314595619837443,-0.6254750887552897,-0.6660467386245728,,,,,,,,,,,,1.6888757865159964e+18,108.84599643554688,-2.7108399629592896,45.396199798583986,-24.63668022155762,1.6888757865159964e+18,108.84599643554688,-258.3374389648437,140.2511962890625,-157.76307983398436,1.688875786516435e+18,108.84643497721356,-0.3711924950281779,0.1117961555719375,-0.5458313624064127,0.7427467107772827,-0.5634479920069376,1.1059211095174153,1.2806845506032307
3.9,1.68887578656833e+18,108.8983299967448,-10.436304092407228,-4.372553825378418,-1.1051367123921711,1.68887578656833e+18,108.8983299967448,-6.9104718764623,-13.294123967488607,1.1090734004974363,1.68887578656833e+18,108.8983299967448,3.50303061803182,-8.905824979146322,2.1494966745376587,1.68887578656833e+18,108.8983299967448,-0.0253000110387802,2.61827023824056,-0.6656394998232523,1.68887578656833e+18,108.8983299967448,-0.0259108717242876,2.6229535341262817,-0.6632469594478607,1.688875786559675e+18,108.8896748046875,0.0,0.0,1.474599003791809,6.593999862670898,1.710279941558838,90.38490295410156,39.10000228881836,-122.7505302,49.1905259,1.688875786565999e+18,108.8959990234375,-3.2525199174880983,44.73251876831055,-24.73671951293945,1.688875786565999e+18,108.8959990234375,-258.8791137695313,139.58751831054687,-157.8631164550781,1.68887578656833e+18,108.8983299967448,-0.4025511642297109,0.1520678351322809,-0.5462122360865275,0.7184220353762308,-0.5549365878105164,1.1374671856562295,1.3815107742945354
3.95,1.688875786620235e+18,108.95023518880208,-2.5524110794067383,1.0458650588989258,-2.12490443388621,1.688875786620235e+18,108.95023518880208,-0.1266202529271443,-8.383652687072754,-0.877368301153183,1.688875786620235e+18,108.95023518880208,2.402989625930786,-9.413772583007812,1.1828226645787556,1.688875786620235e+18,108.95023518880208,1.0150034725666046,4.6317330201466875,-4.403625726699829,1.688875786620235e+18,108.95023518880208,1.0142908294995625,4.636314471562703,-4.401284058888753,,,,,,,,,,,,1.6888757866159972e+18,108.94599716796874,-1.7641199558973313,45.9598388671875,-22.328439712524418,1.6888757866159972e+18,108.94599716796874,-257.39072265625,140.81483764648436,-155.4548370361328,1.688875786620235e+18,108.95023518880208,-0.4136268695195516,0.2540456155935923,-0.5578380028406779,0.6712259848912557,-0.4635981023311615,1.292736291885376,1.4585085312525432
4.0,1.6888757866721354e+18,109.00213533528648,-8.944522221883139,-0.8957052230834961,-0.3187559644381205,1.6888757866721354e+18,109.00213533528648,-8.60877768198649,-10.64526907602946,0.8127621014912924,1.6888757866721354e+18,109.00213533528648,0.3129429916540782,-9.733818689982096,1.066804587841034,1.6888757866721354e+18,109.00213533528648,-1.5031357606252034,4.874857425689697,-3.875787337621053,1.6888757866721354e+18,109.00213533528648,-1.503848413626353,4.879540681838989,-3.8733437061309814,,,,,,,,,,,,1.6888757866659948e+18,108.99599458007812,3.7795598983764647,45.679239654541014,-23.067759704589843,1.6888757866659948e+18,108.99599458007812,-251.84703674316407,140.53423767089845,-156.19415588378905,1.6888757866721354e+18,109.00213533528648,-0.4607798357804616,0.3854944904645284,-0.5785201986630758,0.5499375065167745,-1.265589972337087,1.4448407888412476,2.552527983983358
4.05,1.6888757867240315e+18,109.05403173828124,-1.0490516026814785,0.6778262456258138,-3.2072957356770835,1.6888757867240315e+18,109.05403173828124,-2.004387855529785,-8.998408953348795,-1.7996020317077637,1.6888757867240315e+18,109.05403173828124,-0.97813747326533,-9.660490036010742,1.3429802656173706,1.6888757867240315e+18,109.05403173828124,0.3103704502185185,-0.5939646164576212,-2.47456423441569,1.6888757867240315e+18,109.05403173828124,0.3096577723821004,-0.5892813603083292,-2.4722224871317544,,,,,,,,,,,,1.6888757867159964e+18,109.0459963378906,6.770999908447266,43.619879150390624,-25.74931945800781,1.6888757867159964e+18,109.0459963378906,-248.85559692382813,138.4748779296875,-158.87571411132814,1.6888757867240315e+18,109.05403173828124,-0.4656486312548319,0.4346620639165242,-0.6003892223040262,0.4830525318781535,-2.17391304175059,1.3952285051345823,-2.72259529431661
4.1,1.6888757867759355e+18,109.1059354654948,7.532981077829997,2.4544394810994468,1.1205344200134275,1.6888757867759355e+18,109.1059354654948,5.58704153696696,-7.114459991455078,2.2259232997894287,1.6888757867759355e+18,109.1059354654948,-1.968740979830424,-9.553154309590658,1.040675401687622,1.6888757867759355e+18,109.1059354654948,0.8428922096888224,2.583705464998881,-1.5815809965133667,1.6888757867759355e+18,109.1059354654948,0.842179556687673,2.5883888006210327,-1.5791375239690144,,,,,,,,,,,,1.6888757867659914e+18,109.09599130859374,12.265879821777345,43.23435897827149,-24.704999923706055,1.6888757867659914e+18,109.09599130859374,-243.3607147216797,138.08935546875,-157.83139343261718,1.6888757867759355e+18,109.1059354654948,-0.4420471886793772,0.4771525959173837,-0.6098410884539286,0.4520562291145324,-2.644666910171509,1.3413254419962566,-2.211505572001139
4.15,1.688875786819192e+18,109.14919201660156,1.3828923106193542,1.973210334777832,-0.7198872566223145,1.688875786819192e+18,109.14919201660156,-0.8536394536495209,-7.526025295257568,0.4366901218891142,1.688875786819192e+18,109.14919201660156,-2.2593332529067993,-9.483490467071531,1.0918639302253723,1.688875786819192e+18,109.14919201660156,0.3306308165192604,2.58220374584198,-0.9193522036075592,1.688875786819192e+18,109.14919201660156,0.3300199583172798,2.586861491203308,-0.9169087707996368,,,,,,,,,,,,1.6888757868159985e+18,109.1459986328125,11.284999656677249,43.65159912109375,-24.966079711914062,1.6888757868159985e+18,109.1459986328125,-244.34159240722656,138.50659790039063,-158.09247741699218,1.688875786819192e+18,109.14919201660156,-0.4665352404117584,0.5251189470291138,-0.5821043848991394,0.4094398617744446,-2.683016300201416,1.3122031092643738,-2.029254674911499
4.2,1.6888757868624325e+18,109.19243212890623,1.0884654919306438,-0.1635745366414387,-2.484266479810079,1.6888757868624325e+18,109.19243212890623,-1.2911272446314497,-9.595417976379396,-1.0833504597345989,1.6888757868624325e+18,109.19243212890623,-2.4023942947387695,-9.416098276774088,1.3362025022506714,1.6888757868624325e+18,109.19243212890623,-0.599106083313624,0.7924449543158213,-0.5528839627901713,1.6888757868624325e+18,109.19243212890623,-0.5998187760512034,0.7971282502015432,-0.5504404902458191,,,,,,,,,,,,1.6888757868659942e+18,109.19599428710936,10.606679725646972,42.931800079345706,-26.054319381713867,1.6888757868659942e+18,109.19599428710936,-245.01991577148436,137.78679504394532,-159.18071594238282,1.6888757868624325e+18,109.19243212890623,-0.4792912701765696,0.5381555954615275,-0.5764325459798177,0.3851453761259715,-2.6272117296854653,1.2867464224497478,-2.0287250677744546
4.25,1.6888757869143355e+18,109.24433561197915,4.905397891998291,-2.092700958251953,-3.936046004295349,1.6888757869143355e+18,109.24433561197915,2.0350956122080484,-11.338788986206056,-2.246062825123469,1.6888757869143355e+18,109.24433561197915,-2.893103758494059,-9.230342864990234,1.6252697308858235,1.6888757869143355e+18,109.24433561197915,-0.6426811615626017,-0.0858774781227111,-1.0637200276056926,1.6888757869143355e+18,109.24433561197915,-0.6432920098304749,-0.0811941723028818,-1.0612765848636627,,,,,,,,,,,,1.688875786915992e+18,109.24599199218753,12.61479969024658,41.35799942016602,-27.55491981506348,1.688875786915992e+18,109.24599199218753,-243.0117950439453,136.21299438476564,-160.6813171386719,1.6888757869143355e+18,109.24433561197915,-0.4713446795940399,0.5422726273536682,-0.5939709544181824,0.3618090748786926,-2.6233273347218833,1.2257578372955322,-2.0303457578023276
4.3,1.688875786966236e+18,109.29623600260418,2.409712791442871,-5.535441080729167,-6.759378115336101,1.688875786966236e+18,109.29623600260418,-0.3980062007904053,-14.78564961751302,-4.981856822967529,1.688875786966236e+18,109.29623600260418,-2.8305204709370932,-9.234463373819986,1.7128077745437622,1.688875786966236e+18,109.29623600260418,0.2592104872067769,-0.3779219587643941,0.5043710668881735,1.688875786966236e+18,109.29623600260418,0.2584469020366668,-0.3732895751794179,0.5067636420329412,,,,,,,,,,,,1.6888757869659942e+18,109.29599438476562,12.800239753723144,40.84803924560547,-28.108799362182616,1.6888757869659942e+18,109.29599438476562,-242.82635498046875,135.70303649902343,-161.23519287109374,1.688875786966236e+18,109.29623600260418,-0.4746545851230621,0.5374929507573446,-0.5956402023633321,0.3618836204210917,-2.591456572214762,1.2267354329427085,-2.065473477045695
4.35,1.6888757870181325e+18,109.34813248697915,2.264984528223674,-5.3023074467976885,-1.5554375449816389,1.6888757870181325e+18,109.34813248697915,0.1678963502248128,-14.804991722106934,-0.2514457603295644,1.6888757870181325e+18,109.34813248697915,-2.119889577229818,-9.486939112345375,1.2392783164978027,1.6888757870181325e+18,109.34813248697915,1.1196650664011638,0.869923023506999,2.470593571662903,1.6888757870181325e+18,109.34813248697915,1.1190033356348674,0.8745553928116957,2.4729861418406167,,,,,,,,,,,,1.688875787015997e+18,109.34599653320312,11.019039916992188,42.47795867919922,-26.54231948852539,1.688875787015997e+18,109.34599653320312,-244.60755310058593,137.33295593261718,-159.66871643066406,1.6888757870181325e+18,109.34813248697915,-0.4855264127254486,0.5339727997779846,-0.5674842596054077,0.3956176936626434,-2.5951200326283774,1.3173154592514038,-2.0604372024536133
4.4,1.6888757870700352e+18,109.4000350748698,-5.140704154968262,-7.8975216547648115,4.068077723185222,1.6888757870700352e+18,109.4000350748698,-5.655037482579549,-17.678971608479817,4.726422945658366,1.6888757870700352e+18,109.4000350748698,-0.5371347945183516,-9.76570479075114,0.593631774187088,1.6888757870700352e+18,109.4000350748698,1.4707598686218262,-1.16349462668101,3.2247067292531333,1.6888757870700352e+18,109.4000350748698,1.4700472354888916,-1.1587604979674022,3.227150201797486,1.6888757870786798e+18,109.4086796875,0.0,0.0,1.4841523170471191,6.59499979019165,1.7106086015701294,89.17042541503906,39.10000228881836,-122.7505215,49.1905282,1.688875787065995e+18,109.39599506835935,3.5623998641967773,45.16195983886719,-24.102319717407227,1.688875787065995e+18,109.39599506835935,-252.06419677734377,140.01695861816407,-157.2287170410156,1.6888757870700352e+18,109.4000350748698,-0.5155669848124186,0.513369083404541,-0.512848953406016,0.4548384348551432,-2.1057753960291543,1.4849098126093547,-2.5452613035837808
4.45,1.688875787121932e+18,109.45193196614584,-1.9805134534835815,-8.607609430948893,8.674192428588867,1.688875787121932e+18,109.45193196614584,-0.7848458190759023,-18.341185251871742,9.16590658823649,1.688875787121932e+18,109.45193196614584,1.1728661457697551,-9.717830657958984,0.4270006318887074,1.688875787121932e+18,109.45193196614584,-0.3342451055844624,-1.487304170926412,3.5249979496002197,1.688875787121932e+18,109.45193196614584,-0.3350086758534114,-1.4826208750406902,3.5274413426717124,,,,,,,,,,,,1.6888757871159913e+18,109.44599125976563,-3.674639940261841,46.31119918823242,-21.837999725341795,1.6888757871159913e+18,109.44599125976563,-259.3012268066406,141.16619873046875,-154.9643981933594,1.688875787121932e+18,109.45193196614584,-0.5316430926322937,0.4492425521214803,-0.4873218735059102,0.526637057463328,-0.3841070433457692,1.4413009484608967,1.9217202266057332
4.5,1.6888757871738327e+18,109.50383276367188,-3.0538620948791504,-1.9503666559855144,1.1958507299423218,1.6888757871738327e+18,109.50383276367188,-0.6590232054392496,-11.450653394063314,2.015354792277018,1.6888757871738327e+18,109.50383276367188,2.3720375696818032,-9.484541575113932,0.7547906041145325,1.6888757871738327e+18,109.50383276367188,0.6197227984666824,-4.096258719762166,2.3973915576934814,1.6888757871738327e+18,109.50383276367188,0.6189592083295187,-4.091626246770223,2.399834950764974,,,,,,,,,,,,1.6888757871659963e+18,109.49599663085937,-7.376119899749756,45.47915878295898,-23.133639526367187,1.6888757871659963e+18,109.49599663085937,-263.0027160644531,140.33415832519532,-156.26003723144532,1.6888757871738327e+18,109.50383276367188,-0.519620935122172,0.3671850760777791,-0.4933184583981831,0.5920397837956747,-0.3166993856430053,1.3128742774327595,1.6867014567057292
4.55,1.6888757872257318e+18,109.55573193359372,-8.129546801249186,8.52378511428833,-1.6984144449234009,1.6888757872257318e+18,109.55573193359372,-4.4751765330632525,-0.5762715289990107,-1.0149556174874306,1.6888757872257318e+18,109.55573193359372,3.631568670272827,-9.084311485290527,0.6187453667322794,1.6888757872257318e+18,109.55573193359372,0.9350310464700065,-1.816305955251058,2.7948612372080484,1.6888757872257318e+18,109.55573193359372,0.9343693057696024,-1.811673601468404,2.797253688176473,,,,,,,,,,,,1.688875787215996e+18,109.54599594726562,-10.962919998168946,45.56455917358399,-22.030759811401367,1.688875787215996e+18,109.54599594726562,-266.5895141601562,140.4195556640625,-155.15715942382812,1.6888757872257318e+18,109.55573193359372,-0.4946310420831044,0.3031456669171651,-0.4717242419719696,0.6634911298751831,-0.1756181319554647,1.184809327125549,1.4006327788035076
4.6,1.6888757872776338e+18,109.60763378906248,-8.833382606506348,11.974726676940918,-1.547595640023549,1.6888757872776338e+18,109.60763378906248,-4.308277050654094,3.3304103215535483,-0.3054836889108022,1.6888757872776338e+18,109.60763378906248,4.502304236094157,-8.628571192423502,1.1773984829584758,1.6888757872776338e+18,109.60763378906248,-0.4271984150012334,-3.207348028818766,2.067269762357076,1.6888757872776338e+18,109.60763378906248,-0.4278602004051208,-3.202664613723755,2.0696623722712197,,,,,,,,,,,,1.68887578726599e+18,109.59598994140624,-13.480999946594238,44.43727951049805,-22.22107925415039,1.68887578726599e+18,109.59598994140624,-269.10759887695315,139.2922790527344,-155.34747924804688,1.6888757872776338e+18,109.60763378906248,-0.4748043616612752,0.2270116905371348,-0.4673637648423512,0.7098330855369568,-0.2573941548665364,1.0752652486165364,1.3324333429336548
4.65,1.6888757873208755e+18,109.65087561035156,-4.740339279174805,7.72654914855957,0.0300305485725402,1.6888757873208755e+18,109.65087561035156,0.1112662553787231,-0.6278168559074402,1.9331015348434448,1.6888757873208755e+18,109.65087561035156,4.828804016113281,-8.338620662689209,1.8383575081825256,1.6888757873208755e+18,109.65087561035156,-0.0255799815058708,-1.8622990846633911,0.6045275256037712,1.6888757873208755e+18,109.65087561035156,-0.0261908397078514,-1.8577176332473757,0.6068946197628975,,,,,,,,,,,,1.688875787315991e+18,109.64599125976562,-13.405359840393066,42.93911895751953,-25.153959655761717,1.688875787315991e+18,109.64599125976562,-269.0319458007813,137.79411926269532,-158.28035583496094,1.6888757873208755e+18,109.65087561035156,-0.4614682793617248,0.1701815724372863,-0.4743714779615402,0.7300636768341064,-0.3673467338085174,1.0155415534973145,1.3333511352539062
4.7,1.6888757873641288e+18,109.6941288248698,1.7368533611297607,4.342329343159993,1.5344786643981934,1.6888757873641288e+18,109.6941288248698,6.212964137395223,-4.224129597345988,3.385844071706136,1.6888757873641288e+18,109.6941288248698,4.453309377034505,-8.550713857014975,1.7866519292195635,1.6888757873641288e+18,109.6941288248698,1.3948599100112915,-0.7678576111793518,-1.587027887503306,1.6888757873641288e+18,109.6941288248698,1.3941471775372822,-0.763225237528483,-1.5845844745635986,,,,,,,,,,,,1.6888757873659896e+18,109.695989453125,-10.54567985534668,44.11519927978516,-24.50247917175293,1.6888757873659896e+18,109.695989453125,-266.1722717285156,138.97019653320314,-157.62887573242188,1.6888757873641288e+18,109.6941288248698,-0.4342879056930542,0.1674688259760538,-0.4949905276298523,0.7335107922554016,-0.3848287065823872,1.0589648087819417,1.2958321968714397
4.75,1.688875787416039e+18,109.74603865559897,7.399375995000203,-7.606566429138184,4.817490895589192,1.688875787416039e+18,109.74603865559897,10.98046350479126,-16.637494723002117,6.379065752029419,1.688875787416039e+18,109.74603865559897,3.5582857926686606,-9.015182495117188,1.496861457824707,1.688875787416039e+18,109.74603865559897,-0.2997311850388844,-1.198975796500842,-0.8253298997879028,1.688875787416039e+18,109.74603865559897,-0.3003929356733958,-1.1942415684461594,-0.8228863875071207,,,,,,,,,,,,1.6888757874159977e+18,109.74599775390624,-4.740919876098633,46.12331924438477,-22.72615966796875,1.6888757874159977e+18,109.74599775390624,-260.3675170898438,140.9783203125,-155.8525604248047,1.688875787416039e+18,109.74603865559897,-0.4002080261707306,0.1880634476741154,-0.5322341720263163,0.7217920621236166,-0.4026064078013101,1.165346662203471,1.2798477411270142
4.8,1.688875787467933e+18,109.79793318684897,6.2779496510823565,-2.896815617879232,6.33264684677124,1.688875787467933e+18,109.79793318684897,10.283354759216309,-11.501102129618326,8.955936431884766,1.688875787467933e+18,109.79793318684897,3.9826036294301352,-8.588541030883789,2.5585761070251465,1.688875787467933e+18,109.79793318684897,-0.2525418748458226,-3.422016223271688,2.0600412686665854,1.688875787467933e+18,109.79793318684897,-0.2532545598223805,-3.417332887649536,2.0624846617380777,,,,,,,,,,,,1.6888757874659968e+18,109.7959966796875,-3.784439945220947,44.666638946533205,-25.451639938354493,1.6888757874659968e+18,109.7959966796875,-259.41103515625,139.52163391113282,-158.57803344726562,1.688875787467933e+18,109.79793318684897,-0.3812624911467234,0.0981526846686998,-0.5358847777048746,0.7463448445002238,-0.5741679072380066,1.0665245056152344,1.2896041870117188
4.85,1.688875787519837e+18,109.84983691406252,-8.263176759084066,-4.933094024658203,3.3212408224741616,1.688875787519837e+18,109.84983691406252,-4.192225138346354,-13.43789291381836,6.174080769220988,1.688875787519837e+18,109.84983691406252,4.048150062561035,-8.489053726196289,2.7881264686584473,1.688875787519837e+18,109.84983691406252,-0.5014694693187872,1.8761198645612849,-0.7376197973887125,1.688875787519837e+18,109.84983691406252,-0.5021821344271301,1.8807522707308333,-0.7351763149102529,,,,,,,,,,,,1.688875787515993e+18,109.845993359375,-4.172399950027466,44.37627944946289,-26.28367958068848,1.688875787515993e+18,109.845993359375,-259.7989990234375,139.2312774658203,-159.4100769042969,1.688875787519837e+18,109.84983691406252,-0.3812025586764018,0.0819489235679308,-0.5358116428057352,0.7486273248990377,-0.6067742307980856,1.0453962087631226,1.298874457677205
4.9,1.6888757875717368e+18,109.90173689778646,-5.156619946161906,0.1757302284240722,-3.879784842332204,1.6888757875717368e+18,109.90173689778646,-1.5667006373405457,-8.73759126663208,-1.790628929932912,1.6888757875717368e+18,109.90173689778646,3.567118008931478,-8.897576332092285,2.024442513783773,1.6888757875717368e+18,109.90173689778646,1.2712105909983318,2.6435193618138633,-2.63552725315094,1.6888757875717368e+18,109.90173689778646,1.2705488006273906,2.648253560066223,-2.633185585339864,,,,,,,,,,,,1.6888757875659955e+18,109.89599560546876,-5.211839866638184,44.38603897094727,-25.192999267578124,1.6888757875659955e+18,109.89599560546876,-260.83843994140625,139.2410400390625,-158.31939392089845,1.6888757875717368e+18,109.90173689778646,-0.4002512792746226,0.1563525895277658,-0.5414297183354696,0.7219934264818827,-0.5171552697817484,1.1381023327509563,1.3468985954920452
4.95,1.6888757876236378e+18,109.9536377766927,-7.11861006418864,0.8526039123535156,-0.544061541557312,1.6888757876236378e+18,109.9536377766927,-5.294518788655599,-8.728817621866861,0.5359922597805659,1.6888757876236378e+18,109.9536377766927,1.801289975643158,-9.56567637125651,1.015340308348338,1.6888757876236378e+18,109.9536377766927,0.0798706312974293,4.5517096519470215,-4.925253709157308,1.6888757876236378e+18,109.9536377766927,0.07920886327823,4.556341965993245,-4.922861099243164,1.688875787597687e+18,109.92768701171876,0.0,0.0,1.4841523170471191,6.572999954223633,1.7096692323684692,88.33868408203125,39.10000228881836,-122.7505075,49.1905304,1.688875787615997e+18,109.94599667968752,-0.5587600097060204,46.17455902099609,-22.02099952697754,1.688875787615997e+18,109.94599667968752,-256.18535766601565,141.02955627441406,-155.14739685058595,1.6888757876236378e+18,109.9536377766927,-0.4146595895290375,0.2857955197493235,-0.5702211260795593,0.6471669475237528,-0.5612808664639791,1.3550820748011272,1.605284055074056
5.0,1.6888757876755323e+18,110.00553263346352,-5.73433272043864,-3.3789714177449546,-0.8209770520528158,1.6888757876755323e+18,110.00553263346352,-5.935595989227295,-13.095918655395508,0.6321039994557699,1.6888757876755323e+18,110.00553263346352,-0.2240647276242574,-9.701202074686686,1.3883675336837769,1.6888757876755323e+18,110.00553263346352,-1.0580186098814013,4.0073269208272295,-3.382106304168701,1.6888757876755323e+18,110.00553263346352,-1.0586294531822205,4.011908372243245,-3.379713773727417,,,,,,,,,,,,1.6888757876659922e+18,109.99599228515623,5.197199821472168,44.95699920654297,-23.636279296875,1.6888757876659922e+18,109.99599228515623,-250.42939453125,139.81199951171874,-156.76267700195314,1.6888757876755323e+18,110.00553263346352,-0.4592143495877583,0.3884413142999013,-0.5999204317728678,0.5263068377971649,-1.6948328812917073,1.4213541348775227,0.8908670743306476
5.05,1.688875787727437e+18,110.05743717447916,2.1735212008158364,2.861133575439453,-2.4281320174535117,1.688875787727437e+18,110.05743717447916,0.8568299214045206,-6.782655080159505,-1.0775678157806396,1.688875787727437e+18,110.05743717447916,-1.3394926985104878,-9.628043492635092,1.285850723584493,1.688875787727437e+18,110.05743717447916,0.5365432997544607,-0.2614503304163615,-2.124436616897583,1.688875787727437e+18,110.05743717447916,0.5358306268850962,-0.256716122229894,-2.1220441261927285,,,,,,,,,,,,1.6888757877159964e+18,110.04599638671876,8.05199966430664,43.3319595336914,-25.624879837036133,1.6888757877159964e+18,110.04599638671876,-247.57459716796876,138.18695678710938,-158.75127563476562,1.688875787727437e+18,110.05743717447916,-0.4493343631426493,0.4368654390176137,-0.6140621701876322,0.4795213143030802,-2.3573517004648843,1.377663016319275,-2.5637815793355307
5.1,1.6888757877706872e+18,110.10068725585938,7.767775058746338,3.4043819904327393,0.9680631160736084,1.6888757877706872e+18,110.10068725585938,5.791528224945068,-6.146862268447876,2.17627215385437,1.6888757877706872e+18,110.10068725585938,-1.9990481734275816,-9.535499095916748,1.1434955596923828,1.6888757877706872e+18,110.10068725585938,0.6582072973251343,3.0405054092407227,-1.6190983057022097,1.6888757877706872e+18,110.10068725585938,0.6575964093208313,3.045163154602051,-1.616654872894287,,,,,,,,,,,,1.6888757877659983e+18,110.09599824218748,11.746159744262696,43.05623931884766,-24.878239822387695,1.6888757877659983e+18,110.09599824218748,-243.88043823242188,137.91123962402344,-158.0046356201172,1.6888757877706872e+18,110.10068725585938,-0.4422782063484192,0.4727662205696106,-0.6147358417510986,0.4501954764127731,-2.614067554473877,1.3334957361221311,-2.249420166015625
5.15,1.6888757878139372e+18,110.14393725585936,0.6516689459482827,1.8844075202941897,-2.301538904507955,1.6888757878139372e+18,110.14393725585936,-1.5557335242629051,-7.583851973215739,-0.857228696346283,1.6888757878139372e+18,110.14393725585936,-2.230203946431478,-9.45251433054606,1.3795967896779378,1.6888757878139372e+18,110.14393725585936,-0.1171843111515045,2.497217138608297,-0.7150686879952749,1.6888757878139372e+18,110.14393725585936,-0.1178460816542307,2.501900394757589,-0.7126761277516681,,,,,,,,,,,,1.688875787815995e+18,110.14599487304687,10.838479804992676,42.987919616699216,-26.15435943603516,1.688875787815995e+18,110.14599487304687,-244.78811340332032,137.8429168701172,-159.28075256347657,1.6888757878139372e+18,110.14393725585936,-0.4726257622241974,0.5145625869433085,-0.5902353326479594,0.4040222565333048,-2.5814010302225747,1.3000229994455974,-2.138107697168986
5.2,1.6888757878658335e+18,110.19583365885416,2.552677869796753,-1.4224249521891277,-2.661547541618347,1.6888757878658335e+18,110.19583365885416,0.0458624462286631,-10.77547836303711,-0.9802596420049668,1.6888757878658335e+18,110.19583365885416,-2.529616912206014,-9.337308247884115,1.6165744066238403,1.6888757878658335e+18,110.19583365885416,-0.2752966073652108,0.0998764832814534,-1.2344568570454917,1.6888757878658335e+18,110.19583365885416,-0.2760092752675215,0.1045597742001215,-1.2320133845011394,,,,,,,,,,,,1.6888757878659963e+18,110.19599658203126,11.316719818115237,42.00459899902344,-27.449999237060545,1.6888757878659963e+18,110.19599658203126,-244.30987854003905,136.8595947265625,-160.57639770507814,1.6888757878658335e+18,110.19583365885416,-0.4798669517040252,0.5306715170542399,-0.5889003078142802,0.3757773439089457,-2.5654397010803223,1.2595579226811726,-2.1005233923594155
5.25,1.6888757879177382e+18,110.2477384440104,3.8552189668019614,-2.9038352966308594,-4.083923101425171,1.6888757879177382e+18,110.2477384440104,0.9308079481124878,-12.117652575174969,-2.3068803747495017,1.6888757879177382e+18,110.2477384440104,-2.9472123781840005,-9.19807211558024,1.7123292287190754,1.6888757879177382e+18,110.2477384440104,-0.2918917834758758,0.5915211836496989,-0.1006909509499867,1.6888757879177382e+18,110.2477384440104,-0.2926044464111328,0.596153567234675,-0.0982983907063802,,,,,,,,,,,,1.688875787915996e+18,110.24599609375,13.773799705505372,40.899279022216795,-27.94043960571289,1.688875787915996e+18,110.24599609375,-241.85279541015623,135.75427856445313,-161.06683654785155,1.6888757879177382e+18,110.2477384440104,-0.4698005119959513,0.5383845369021097,-0.5998794436454773,0.359870433807373,-2.6097379525502524,1.2158113718032837,-2.053439219792684
5.3,1.6888757879696376e+18,110.29963761393228,3.08002241452535,-5.634942690531413,-5.780342181523641,1.6888757879696376e+18,110.29963761393228,0.4697908560434977,-14.971891403198242,-4.173082669576009,1.6888757879696376e+18,110.29963761393228,-2.6330328782399497,-9.321203549702965,1.5425459543863933,1.6888757879696376e+18,110.29963761393228,0.8997535904248556,-0.4059708677232265,0.7146105319261551,1.6888757879696376e+18,110.29963761393228,0.8990409473578135,-0.4012366533279419,0.7170539995034536,,,,,,,,,,,,1.6888757879659963e+18,110.2959966796875,11.85595989227295,41.53123931884765,-27.501239776611328,1.6888757879659963e+18,110.2959966796875,-243.7706329345703,136.38623657226563,-160.62763366699218,1.6888757879696376e+18,110.29963761393228,-0.4775030612945556,0.5389286279678345,-0.5858649412790934,0.371754378080368,-2.6075459321339927,1.2542660236358645,-2.045266310373942
5.35,1.688875788021537e+18,110.351537109375,-0.3708909352620442,-6.868268013000488,2.8335381348927817,1.688875788021537e+18,110.351537109375,-1.805384675661723,-16.517255465189617,3.935794393221537,1.688875788021537e+18,110.351537109375,-1.4572952191034954,-9.63324228922526,1.037542720635732,1.688875788021537e+18,110.351537109375,0.9778425494829812,0.6430883804957072,3.237127701441447,1.688875788021537e+18,110.351537109375,0.977078934510549,0.6477716863155365,3.2395710150400796,,,,,,,,,,,,1.6888757880159954e+18,110.34599526367188,7.783599710464477,43.76872024536133,-25.200319290161133,1.6888757880159954e+18,110.34599526367188,-247.8429931640625,138.62371826171875,-158.32671508789062,1.688875788021537e+18,110.351537109375,-0.5034152766068777,0.5282426079114279,-0.5426068107287089,0.4152999718983968,-2.4858400026957193,1.3861132462819417,-2.1524664560953775
5.4,1.6888757880734344e+18,110.40343432617186,-2.3060078223546348,-6.777233123779297,4.599981307983398,1.6888757880734344e+18,110.40343432617186,-2.269791692495346,-16.577076594034832,5.229513963063558,1.6888757880734344e+18,110.40343432617186,0.0134146821995576,-9.784098307291666,0.5648193260033926,1.6888757880734344e+18,110.40343432617186,0.966745138168335,-1.2045244574546814,3.0013845761617026,1.6888757880734344e+18,110.40343432617186,0.9660834074020386,-1.1998411417007446,3.003827969233195,,,,,,,,,,,,1.6888757880659963e+18,110.39599653320312,0.375760006904602,45.667039489746095,-23.56063957214355,1.6888757880659963e+18,110.39599653320312,-255.25083618164064,140.52203674316405,-156.6870361328125,1.6888757880734344e+18,110.40343432617186,-0.5230865875879923,0.4931104183197021,-0.505427211523056,0.4766196211179097,-1.4569889505704243,1.4981520970662434,-1.126824696858724
5.45,1.6888757881253312e+18,110.4553311360677,-5.2158156633377075,-5.45330810546875,4.931659698486328,1.6888757881253312e+18,110.4553311360677,-3.515056570370992,-15.10648759206136,5.605984687805176,1.6888757881253312e+18,110.4553311360677,1.6779574155807495,-9.637434323628744,0.6096116105715433,1.6888757881253312e+18,110.4553311360677,-0.5530366698900858,-1.0756827592849731,3.0377310514450073,1.6888757881253312e+18,110.4553311360677,-0.553698440392812,-1.0710503682494164,3.040123621622721,1.688875788116675e+18,110.44667504882813,0.0,0.0,1.4937771558761597,6.560999870300293,1.7107080221176147,87.03223419189453,39.10000228881836,-122.7504981,49.1905332,1.688875788115987e+18,110.44598706054688,-6.402559614181518,45.78659896850586,-22.3015998840332,1.688875788115987e+18,110.44598706054688,-262.02915649414064,140.6415985107422,-155.42799682617186,1.6888757881253312e+18,110.4553311360677,-0.5557089050610861,0.4375644226868947,-0.4714185198148091,0.526269813378652,-0.3559039831161499,1.386269251505534,1.922234257062276
5.5,1.6888757881772257e+18,110.50722583007811,-2.934947967529297,0.4724659919738769,0.4154478510220845,1.6888757881772257e+18,110.50722583007811,-0.4013960274557273,-8.982855637868246,1.344965746005376,1.6888757881772257e+18,110.50722583007811,2.5107506116231284,-9.439576466878256,0.8648044069608053,1.6888757881772257e+18,110.50722583007811,0.8272133668263754,-3.098868409792582,2.0435479084650674,1.6888757881772257e+18,110.50722583007811,0.826500674088796,-3.09418519337972,2.0459913412729898,,,,,,,,,,,,1.6888757881659904e+18,110.49599052734376,-9.64043960571289,44.64711990356445,-23.804639434814455,1.6888757881659904e+18,110.49599052734376,-265.267041015625,139.5021179199219,-156.93103637695313,1.6888757881772257e+18,110.50722583007811,-0.5355774164199829,0.3687381446361542,-0.4853092928727467,0.583972175916036,-0.3408199747403462,1.2951874335606892,1.744763731956482
5.55,1.6888757882204792e+18,110.55047924804688,-9.732549667358398,8.122572660446167,-1.41569185256958,1.6888757882204792e+18,110.55047924804688,-6.2703917026519775,-1.0450653433799744,-0.5700899958610535,1.6888757882204792e+18,110.55047924804688,3.439356565475464,-9.15189266204834,0.7808883786201477,1.6888757882204792e+18,110.55047924804688,0.8856782615184784,-2.7970755100250244,2.7960829734802246,1.6888757882204792e+18,110.55047924804688,0.8850673735141754,-2.792494058609009,2.798526406288147,,,,,,,,,,,,1.6888757882159887e+18,110.5459885253906,-11.472879791259766,44.46899948120117,-23.040919494628906,1.6888757882159887e+18,110.5459885253906,-267.09947509765624,139.3239959716797,-156.16732177734374,1.6888757882204792e+18,110.55047924804688,-0.5159888565540314,0.3179505914449692,-0.4725387692451477,0.6395753026008606,-0.2278010472655296,1.20223468542099,1.514581263065338
5.6,1.68887578826373e+18,110.59372965494792,-8.012786070505777,9.809838930765787,-0.9988205432891846,1.68887578826373e+18,110.59372965494792,-3.741975873708725,1.0263215402762096,0.1712862153848012,1.68887578826373e+18,110.59372965494792,4.248008807500203,-8.767772356669107,1.1053932507832844,1.68887578826373e+18,110.59372965494792,0.4798855483531952,-3.219616095225016,2.4374032020568848,1.68887578826373e+18,110.59372965494792,0.4792237977186839,-3.2150346438090005,2.4398467540740967,,,,,,,,,,,,1.68887578826599e+18,110.59598999023436,-13.34435977935791,43.79555816650391,-23.30443992614746,1.68887578826599e+18,110.59598999023436,-268.9709533691406,138.6505584716797,-156.43083801269532,1.68887578826373e+18,110.59372965494792,-0.4883676767349243,0.2496720006068547,-0.4696985880533854,0.6911776661872864,-0.2569689154624939,1.1060682932535808,1.3893919785817463
5.65,1.6888757883156324e+18,110.64563216145832,-2.4738630453745523,8.201685905456543,0.4853537082672119,1.6888757883156324e+18,110.64563216145832,2.3186451296011605,-0.2666003306706748,1.9774685104688008,1.6888757883156324e+18,110.64563216145832,4.769706726074219,-8.45254103342692,1.4274013042449951,1.6888757883156324e+18,110.64563216145832,0.792750358581543,-1.5748106042544048,0.5068145195643107,1.6888757883156324e+18,110.64563216145832,0.7920885880788168,-1.5701273083686829,0.5092071096102396,,,,,,,,,,,,1.688875788315989e+18,110.6459890625,-14.344759750366212,43.26119766235352,-24.192599868774415,1.688875788315989e+18,110.6459890625,-269.9713562011719,138.11619567871094,-157.31900024414062,1.6888757883156324e+18,110.64563216145832,-0.4595697522163391,0.1942141999800999,-0.4681981603304545,0.7291919787724813,-0.2939324180285136,1.038124918937683,1.293469826380412
5.7,1.68887578836753e+18,110.69753002929686,6.486009279886882,5.160649458567302,1.837300380071004,1.68887578836753e+18,110.69753002929686,10.613165378570557,-3.691527207692464,2.9509485562642417,1.68887578836753e+18,110.69753002929686,4.104354699452718,-8.836431503295898,1.0489346782366435,1.68887578836753e+18,110.69753002929686,1.5147931178410847,-0.4923573782046636,-2.7341819206873574,1.68887578836753e+18,110.69753002929686,1.5140803654988606,-0.4877250095208486,-2.7317894299825034,,,,,,,,,,,,1.68887578836599e+18,110.69598989257813,-10.406599712371824,45.288839721679686,-21.90143928527832,1.68887578836599e+18,110.69598989257813,-266.03319091796874,140.14383850097656,-155.02783813476563,1.68887578836753e+18,110.69753002929686,-0.4170269270737965,0.2089055875937143,-0.496915986140569,0.7314037481943766,-0.252692182858785,1.1234814325968423,1.1953123410542803
5.75,1.6888757884194327e+18,110.74943277994792,8.745189825693766,-15.6096617380778,7.302121639251709,1.6888757884194327e+18,110.74943277994792,12.28834056854248,-24.648665110270183,8.852446873982748,1.6888757884194327e+18,110.74943277994792,3.5203493436177573,-9.0232572555542,1.4856115976969402,1.6888757884194327e+18,110.74943277994792,-1.2262610793113708,-3.3768630425135293,1.0178542137145996,1.6888757884194327e+18,110.74943277994792,-1.226871927579244,-3.372179627418518,1.0202977061271663,,,,,,,,,,,,1.688875788415993e+18,110.74599321289062,-3.435519981384277,46.26239929199219,-22.0917594909668,1.688875788415993e+18,110.74599321289062,-259.06212158203124,141.11739501953124,-155.21815490722656,1.6888757884194327e+18,110.74943277994792,-0.3900436560312907,0.1824060082435607,-0.5350663661956787,0.7259533206621805,-0.3967451055844624,1.168484807014465,1.2488224109013877
5.8,1.6888757884713382e+18,110.80133837890624,-2.5246620178222656,5.853492736816406,2.832359234491984,1.6888757884713382e+18,110.80133837890624,1.240877985954285,-2.9306094646453857,5.206582705179851,1.6888757884713382e+18,110.80133837890624,3.742738564809163,-8.768356959025065,2.3095099925994873,1.6888757884713382e+18,110.80133837890624,0.0970257769028345,-1.620320071776708,0.1015563408533732,1.6888757884713382e+18,110.80133837890624,0.0963130891323089,-1.6156876683235168,0.1039998332659403,,,,,,,,,,,,1.688875788465997e+18,110.79599692382811,-2.7523199558258056,45.4108383178711,-23.81927947998047,1.688875788465997e+18,110.79599692382811,-258.3789123535156,140.26583557128907,-156.9456787109375,1.6888757884713382e+18,110.80133837890624,-0.3585903942584991,0.103412536283334,-0.5465913613637289,0.7495536208152771,-0.556589404741923,1.105457425117493,1.241396188735962
5.85,1.6888757885232415e+18,110.85324145507812,-9.810195604960125,-9.51134204864502,1.3723642428716023,1.6888757885232415e+18,110.85324145507812,-6.403991023699443,-18.45564142862956,3.682354787985484,1.6888757885232415e+18,110.85324145507812,3.3834028244018555,-8.92855421702067,2.2452770868937173,1.6888757885232415e+18,110.85324145507812,-0.2164499262968698,2.9189686377843223,-1.397048791249593,1.6888757885232415e+18,110.85324145507812,-0.2171116868654886,2.9236519734064736,-1.3946562608083088,,,,,,,,,,,,1.6888757885159956e+18,110.84599555664064,-2.371679973602295,44.88379898071289,-24.68791961669922,1.6888757885159956e+18,110.84599555664064,-257.99827270507814,139.73879699707032,-157.81431884765624,1.6888757885232415e+18,110.85324145507812,-0.3860328296820323,0.1373749598860739,-0.5554474790891012,0.7231989900271097,-0.5889036258061727,1.143337885538737,1.3659058411916096
5.9,1.6888757885751396e+18,110.90513948567708,-3.2392139037450156,0.8974072138468424,-2.229352037111918,1.6888757885751396e+18,110.90513948567708,-1.0755738019943235,-8.588239351908365,-0.9242277344067892,1.6888757885751396e+18,110.90513948567708,2.140838623046875,-9.469901402791342,1.24041082461675,1.6888757885751396e+18,110.90513948567708,1.645060082276662,3.5271868308385215,-4.18890659014384,1.6888757885751396e+18,110.90513948567708,1.6443983912467957,3.531870166460673,-4.186565001805623,,,,,,,,,,,,1.6888757885659963e+18,110.89599653320312,-0.3903999924659729,45.72071914672851,-22.384559631347656,1.6888757885659963e+18,110.89599653320312,-256.0169982910156,140.57571716308593,-155.51095886230468,1.6888757885751396e+18,110.90513948567708,-0.3875374694665273,0.2370668798685073,-0.5772689580917358,0.6770606438318888,-0.5283806324005127,1.3145457903544109,1.4521628618240356
5.95,1.688875788627034e+18,110.95703401692708,-6.374996980031331,2.119378407796224,-1.1370818614959717,1.688875788627034e+18,110.95703401692708,-5.974878152211507,-7.644071261088054,-0.1148554859682917,1.688875788627034e+18,110.95703401692708,0.3773173242807388,-9.74770450592041,0.957512895266215,1.688875788627034e+18,110.95703401692708,-1.2427034974098206,4.871803045272827,-3.1087950070699057,1.688875788627034e+18,110.95703401692708,-1.2433653275171916,4.87643559773763,-3.1064024766286216,1.688875788635691e+18,110.96569091796874,0.0,0.0,1.4937771558761597,6.590000152587891,1.7125954627990725,86.43533325195312,39.10000228881836,-122.7504839,49.1905355,1.688875788615994e+18,110.94599384765624,4.665279960632324,46.09891891479492,-21.559839248657227,1.688875788615994e+18,110.94599384765624,-250.96131591796876,140.95391845703125,-154.6862365722656,1.688875788627034e+18,110.95703401692708,-0.4312435686588287,0.3587579429149627,-0.5928377509117126,0.5763704578081766,-1.1882843176523843,1.457139293352763,2.3767115672429404
6.0,1.6888757886702886e+18,111.00028869628906,-4.208608627319336,-1.980215072631836,-1.8583341240882871,1.6888757886702886e+18,111.00028869628906,-4.698307394981384,-11.69940710067749,-0.4597210437059402,1.6888757886702886e+18,111.00028869628906,-0.5125002861022949,-9.703446865081789,1.3338996171951294,1.6888757886702886e+18,111.00028869628906,0.0213039219379425,0.8956811539828777,-2.1695643067359924,1.6888757886702886e+18,111.00028869628906,0.0206930637359619,0.9003390409052372,-2.1671208143234253,,,,,,,,,,,,1.6888757886659958e+18,110.99599589843751,6.5391998291015625,44.05175933837891,-24.948999404907227,1.6888757886659958e+18,110.99599589843751,-249.0873901367187,138.90675659179686,-158.0753936767578,1.6888757886702886e+18,111.00028869628906,-0.4580709189176559,0.4033996760845184,-0.6026017367839813,0.5140102505683899,-1.9292888641357424,1.4221007227897644,0.101940631866455
6.05,1.6888757887135347e+18,111.04353491210937,4.370317141215007,3.0783003171284995,-1.6947888533274331,1.6888757887135347e+18,111.04353491210937,2.939183751742045,-6.578866481781006,-0.5798606673876444,1.6888757887135347e+18,111.04353491210937,-1.4539347887039185,-9.64142163594564,1.0502147277196248,1.6888757887135347e+18,111.04353491210937,0.728609542051951,0.8134179711341858,-2.098474860191345,1.6888757887135347e+18,111.04353491210937,0.7279477516810099,0.818050374587377,-2.096031347910563,,,,,,,,,,,,1.6888757887159944e+18,111.04599433593752,11.216679573059082,43.67111892700195,-24.002279663085936,1.6888757887159944e+18,111.04599433593752,-244.4099151611328,138.5261199951172,-157.12867736816406,1.6888757887135347e+18,111.04353491210937,-0.4336044291655223,0.4381628135840098,-0.6178464293479919,0.4878551165262858,-2.4991986751556396,1.3852159976959229,-2.448684295018514
6.1,1.6888757887654387e+18,111.09543872070311,3.174540917078654,1.321345329284668,0.4439750512440999,1.6888757887654387e+18,111.09543872070311,1.2093724409739175,-8.253842035929361,1.4516457517941792,1.6888757887654387e+18,111.09543872070311,-1.9879700342814128,-9.559442202250162,0.9429572224617004,1.6888757887654387e+18,111.09543872070311,0.4003203511238097,2.4880032539367676,-1.1023063659667969,1.6888757887654387e+18,111.09543872070311,0.3995567907889684,2.4926865100860596,-1.0999137560526528,,,,,,,,,,,,1.688875788765997e+18,111.09599716796876,11.973079681396484,43.607678985595705,-23.965679168701172,1.688875788765997e+18,111.09599716796876,-243.6535186767578,138.46268005371093,-157.09207763671876,1.6888757887654387e+18,111.09543872070311,-0.4444190363089244,0.4880725344022115,-0.6021764477094015,0.4486545125643412,-2.6915854612986245,1.3445152441660564,-2.1399744351704917
6.15,1.6888757888173386e+18,111.14733862304688,2.1130830446879068,0.2190071741739908,-1.9898591836293535,1.6888757888173386e+18,111.14733862304688,-0.2422732959191005,-9.244072278340658,-0.7812565664450327,1.6888757888173386e+18,111.14733862304688,-2.3781578540802,-9.44733428955078,1.14388910929362,1.6888757888173386e+18,111.14733862304688,-0.2853249770899613,1.3083206216494243,-1.0309369166692095,1.6888757888173386e+18,111.14733862304688,-0.2859358473991354,1.312953035036723,-1.0285443663597107,,,,,,,,,,,,1.6888757888159936e+18,111.14599379882812,11.68515968322754,43.19043960571289,-25.014879989624024,1.6888757888159936e+18,111.14599379882812,-243.94143371582032,138.04543762207032,-158.14127502441406,1.6888757888173386e+18,111.14733862304688,-0.4602331916491191,0.5210525790850321,-0.5910265247027079,0.4089717070261637,-2.688085158665975,1.298496961593628,-2.043177366256714
6.2,1.6888757888692288e+18,111.19922892252605,4.509266058603923,-1.6865367889404297,-3.5613813002904258,1.6888757888692288e+18,111.19922892252605,1.6382859150568645,-10.954541524251304,-2.004985978205999,1.6888757888692288e+18,111.19922892252605,-2.8937815030415854,-9.252259572347006,1.4916818936665852,1.6888757888692288e+18,111.19922892252605,-0.7917831540107727,0.1916589699685573,-1.1181888381640115,1.6888757888692288e+18,111.19922892252605,-0.792495846748352,0.1962913647294044,-1.1157454053560891,,,,,,,,,,,,1.6888757888659986e+18,111.19599868164062,13.568839645385742,41.702039337158205,-26.49107894897461,1.6888757888659986e+18,111.19599868164062,-242.05775756835936,136.55703430175782,-159.6174774169922,1.6888757888692288e+18,111.19922892252605,-0.4582005838553111,0.5302910804748535,-0.6048645377159119,0.3780174255371094,-2.6614878177642822,1.2325348059336343,-2.04520853360494
6.25,1.6888757889211397e+18,111.2511396484375,1.3649198214213054,-5.651731173197429,-6.6122433344523115,1.6888757889211397e+18,111.2511396484375,-1.5328023433685305,-14.888540903727211,-4.9144589106241865,1.6888757889211397e+18,111.2511396484375,-2.9205235640207925,-9.221064567565918,1.633070945739746,1.6888757889211397e+18,111.2511396484375,0.3093014260133107,0.0636318003137906,0.3029891600211461,1.6888757889211397e+18,111.2511396484375,0.3085887531439463,0.0682641876240571,0.3054326226313908,,,,,,,,,,,,1.6888757889159946e+18,111.24599453125,14.295959663391113,40.27463989257812,-27.647639083862305,1.6888757889159946e+18,111.24599453125,-241.33063659667968,135.129638671875,-160.77403869628907,1.6888757889211397e+18,111.2511396484375,-0.4627273877461751,0.5302055478096008,-0.6060719688733419,0.3706908623377482,-2.6275912125905356,1.2226929267247515,-2.0683783690134683
6.3,1.6888757889730327e+18,111.30303287760417,4.776583989461263,-5.34612496693929,-0.880865216255188,1.6888757889730327e+18,111.30303287760417,2.399402936299642,-14.792429606119793,0.3625126282374064,1.6888757889730327e+18,111.30303287760417,-2.3999824126561484,-9.430559476216636,1.1786643266677856,1.6888757889730327e+18,111.30303287760417,1.0949759880701702,0.8758789400259653,1.9955949385960896,1.6888757889730327e+18,111.30303287760417,1.0942632754643755,0.8804604212443033,1.998038371404012,,,,,,,,,,,,1.6888757889660012e+18,111.29600107421876,12.70507984161377,41.87771987915039,-26.100679779052733,1.6888757889660012e+18,111.29600107421876,-242.9215118408203,136.73271484375,-159.2270751953125,1.6888757889730327e+18,111.30303287760417,-0.4711520373821258,0.5359310507774353,-0.5783332188924154,0.3948282102743785,-2.6757431825002036,1.2945959568023682,-2.0024255514144897
6.35,1.6888757890249393e+18,111.35493920898438,-4.7839287122090655,-5.926501909891765,4.9739768505096436,1.6888757890249393e+18,111.35493920898438,-5.52901570002238,-15.68475310007731,5.748557011286418,1.6888757890249393e+18,111.35493920898438,-0.7678885410229365,-9.74250602722168,0.7098667422930399,1.6888757890249393e+18,111.35493920898438,1.112945556640625,-0.3684026698271433,3.37823756535848,1.6888757890249393e+18,111.35493920898438,1.1122328837712605,-0.3637193540732065,3.380680958429972,,,,,,,,,,,,1.688875789015997e+18,111.34599677734374,4.745799922943116,44.65687866210938,-24.11451950073242,1.688875789015997e+18,111.34599677734374,-250.88079223632812,139.51187744140626,-157.24091796875,1.6888757890249393e+18,111.35493920898438,-0.5135672291119894,0.5182663003603617,-0.5194700360298157,0.4440084596474965,-2.2891305685043335,1.4611543416976929,-2.354754686355591
6.4,1.6888757890768392e+18,111.4068390299479,-0.3077827493349711,-7.553686777750651,7.853251298268636,1.6888757890768392e+18,111.4068390299479,0.6502495606740316,-17.308881759643555,8.415955702463785,1.6888757890768392e+18,111.4068390299479,0.9352308015028636,-9.739449818929035,0.4979909062385559,1.6888757890768392e+18,111.4068390299479,-0.0912225451320409,-1.544420023759206,3.609908103942871,1.6888757890768392e+18,111.4068390299479,-0.0919352105508248,-1.539787660042445,3.612300713857015,,,,,,,,,,,,1.6888757890659968e+18,111.3959967285156,-2.420479917526245,45.8549186706543,-22.225959396362303,1.6888757890659968e+18,111.3959967285156,-258.0470764160156,140.7099182128906,-155.35235900878905,1.6888757890768392e+18,111.4068390299479,-0.5286845366160074,0.4549834231535594,-0.4944951434930165,0.5178719162940979,-0.5949402948220571,1.458685835202535,2.1369609435399375
6.45,1.6888757891200837e+18,111.45008374023438,-3.415699243545532,-3.99829626083374,2.77962875366211,1.6888757891200837e+18,111.45008374023438,-1.1353943943977356,-13.521242618560793,3.685844302177429,1.6888757891200837e+18,111.45008374023438,2.257503390312195,-9.507201194763184,0.8415019512176514,1.6888757891200837e+18,111.45008374023438,-0.4731914922595024,-1.756313979625702,2.7697393894195557,1.6888757891200837e+18,111.45008374023438,-0.473878726363182,-1.7515797019004822,2.772182822227478,,,,,,,,,,,,1.688875789115995e+18,111.445994921875,-8.80351963043213,44.81303939819336,-23.609439086914065,1.688875789115995e+18,111.445994921875,-264.43012084960935,139.66803894042968,-156.7358367919922,1.6888757891200837e+18,111.45008374023438,-0.5538827180862427,0.396863430738449,-0.4764349907636642,0.555451512336731,-0.3609647750854492,1.3215336799621582,1.849931597709656
6.5,1.6888757891633324e+18,111.49333243815104,-3.1924055020014444,1.3229163487752278,-1.7672528425852458,1.6888757891633324e+18,111.49333243815104,-0.2125623822212219,-7.996215184529622,-0.7655038532490531,1.6888757891633324e+18,111.49333243815104,2.9570417404174805,-9.303386370340982,0.9370355407396952,1.6888757891633324e+18,111.49333243815104,0.852106124162674,-2.161699374516805,1.931708574295044,1.6888757891633324e+18,111.49333243815104,0.8514952659606934,-2.157067020734151,1.934152046839396,1.6888757891546918e+18,111.48469189453124,0.0,0.0,1.5041357278823853,6.625999927520752,1.7149018049240112,85.36852264404297,39.10000228881836,-122.7504748,49.1905385,1.6888757891659945e+18,111.49599443359376,-10.906799697875975,44.120079040527344,-23.853439712524413,1.6888757891659945e+18,111.49599443359376,-266.5333984375,138.9750762939453,-156.9798370361328,1.6888757891633324e+18,111.49333243815104,-0.5378675063451132,0.3472685317198434,-0.4778269926706949,0.6011520028114319,-0.313149482011795,1.2478287220001218,1.6871486902236938
6.55,1.6888757892152402e+18,111.545240234375,-11.513575871785482,9.736692110697428,-1.7625802357991536,1.6888757892152402e+18,111.545240234375,-7.789634704589844,0.676371177037557,-0.874177873134613,1.6888757892152402e+18,111.545240234375,3.701139767964681,-9.044575691223145,0.8236889243125916,1.6888757892152402e+18,111.545240234375,0.6539821377179275,-2.8840474685033164,1.910531997680664,1.6888757892152402e+18,111.545240234375,0.6532694892957805,-2.8794151544570923,1.9129753907521565,,,,,,,,,,,,1.6888757892159954e+18,111.54599526367188,-12.609919929504397,44.17619934082031,-22.779839324951173,1.6888757892159954e+18,111.54599526367188,-268.23651733398435,139.03119812011718,-155.90623474121094,1.6888757892152402e+18,111.545240234375,-0.5114773511886597,0.3019802570343017,-0.4686641097068786,0.6533389290173849,-0.2214942673842112,1.1731690168380735,1.4760050773620603
