seconds_elapsed_rounded,accelerometer_time,accelerometer_seconds_elapsed,accelerometer_z,accelerometer_y,accelerometer_x,accelerometeruncalibrated_time,accelerometeruncalibrated_seconds_elapsed,accelerometeruncalibrated_z,accelerometeruncalibrated_y,accelerometeruncalibrated_x,gravity_time,gravity_seconds_elapsed,gravity_z,gravity_y,gravity_x,gyroscope_time,gyroscope_seconds_elapsed,gyroscope_z,gyroscope_y,gyroscope_x,gyroscopeuncalibrated_time,gyroscopeuncalibrated_seconds_elapsed,gyroscopeuncalibrated_z,gyroscopeuncalibrated_y,gyroscopeuncalibrated_x,location_time,location_seconds_elapsed,location_bearingAccuracy,location_speedAccuracy,location_verticalAccuracy,location_horizontalAccuracy,location_speed,location_bearing,location_altitude,location_longitude,location_latitude,magnetometer_time,magnetometer_seconds_elapsed,magnetometer_z,magnetometer_y,magnetometer_x,magnetometeruncalibrated_time,magnetometeruncalibrated_seconds_elapsed,magnetometeruncalibrated_z,magnetometeruncalibrated_y,magnetometeruncalibrated_x,orientation_time,orientation_seconds_elapsed,orientation_qz,orientation_qy,orientation_qx,orientation_qw,orientation_roll,orientation_pitch,orientation_yaw
0.0,1.6888757526773711e+18,75.00737125651041,-2.754972775777181,3.067281723022461,-1.859283248583476,1.6888757526773711e+18,75.00737125651041,1.0079766511917114,-5.836892048517863,-0.0843469699223836,1.6888757526773711e+18,75.00737125651041,3.7401479880015054,-8.888428688049316,1.7102227210998535,1.6888757526773711e+18,75.00737125651041,1.3186544179916382,3.780950387318929,-3.1809280713399253,1.6888757526773711e+18,75.00737125651041,1.3179417848587036,3.785633802413941,-3.178484519322714,,,,,,,,,,,,1.6888757526659958e+18,74.99599565429688,-9.85759983062744,42.141239166259766,-27.11083984375,1.6888757526659958e+18,74.99599565429688,-265.2523986816406,137.37444152832032,-160.46903381347656,1.6888757526773711e+18,75.00737125651041,-0.4652311106522878,0.218329479297002,-0.5098318854967753,0.6886508663495382,-0.4222130278746287,1.1358933051427205,1.458527684211731
0.05,1.6888757527206216e+18,75.05062158203125,-11.556734085083008,-1.853334903717041,-1.2198335826396942,1.6888757527206216e+18,75.05062158203125,-9.701400756835938,-11.450553894042969,-0.3230310492217541,1.6888757527206216e+18,75.05062158203125,1.832531750202179,-9.58147382736206,0.8320890963077545,1.6888757527206216e+18,75.05062158203125,-0.4925864860415458,4.709770917892456,-6.983411550521851,1.6888757527206216e+18,75.05062158203125,-0.4932736903429031,4.714352369308472,-6.980968236923218,,,,,,,,,,,,1.688875752715996e+18,75.04599594726562,-5.685199904441833,44.94723968505859,-23.81195945739746,1.688875752715996e+18,75.04599594726562,-261.0799926757812,140.1804412841797,-157.17015380859374,1.6888757527206216e+18,75.05062158203125,-0.4806588888168334,0.3534628450870513,-0.5295735001564026,0.601701021194458,-0.4618886709213257,1.3612362742424011,1.73244047164917
0.1,1.6888757527638725e+18,75.09387215169271,-9.07569376627604,-6.794200897216797,-2.4854359229405723,1.6888757527638725e+18,75.09387215169271,-9.13340417544047,-16.52064577738444,-1.064008464415868,1.6888757527638725e+18,75.09387215169271,-0.0805118680000305,-9.710699717203775,1.3567139307657878,1.6888757527638725e+18,75.09387215169271,-1.2462160487969716,2.426611269513766,-2.9100093046824136,1.6888757527638725e+18,75.09387215169271,-1.2468777944644291,2.4312945008277893,-2.9075658718744912,,,,,,,,,,,,1.6888757527659955e+18,75.09599536132814,1.6835999459028244,43.834598541259766,-26.11776008605957,1.6888757527659955e+18,75.09599536132814,-253.7111968994141,139.0677947998047,-159.47595825195313,1.6888757527638725e+18,75.09387215169271,-0.5001826882362366,0.4301078021526336,-0.5643872618675232,0.4957531690597534,-1.6012680530548096,1.4290586312611897,0.9473958810170492
0.15,1.6888757528157727e+18,75.14577254231772,7.036126931508382,2.664445718129476,-1.4955116907755537,1.6888757528157727e+18,75.14577254231772,5.9700924555460615,-7.025726159413655,-0.2897309462229411,1.6888757528157727e+18,75.14577254231772,-1.0888357957204182,-9.674426714579264,1.1410672465960183,1.6888757528157727e+18,75.14577254231772,0.9502517779668171,0.0782925536235173,-2.5989261468251548,1.6888757528157727e+18,75.14577254231772,0.9495391249656676,0.0828740770618121,-2.5965336163838706,1.6888757528244206e+18,75.15442065429687,0.0,0.0,1.1307010650634766,6.550000190734863,1.7224645614624023,92.86341094970705,39.10000228881836,-122.751372,49.1905126,1.6888757528159913e+18,75.14599145507813,5.821839952468872,43.336839294433595,-25.993320083618165,1.6888757528159913e+18,75.14599145507813,-249.5729553222656,138.57004089355468,-159.3515167236328,1.6888757528157727e+18,75.14577254231772,-0.4758577843507131,0.4666245579719543,-0.580593208471934,0.467231680949529,-2.305675427118937,1.4055556853612263,-2.5124650796254477
0.2,1.6888757528676662e+18,75.19766642252604,5.2006181081136065,4.141365210215251,1.546268900235494,1.6888757528676662e+18,75.19766642252604,3.41575425863266,-5.461617628733317,2.634497677286466,1.6888757528676662e+18,75.19766642252604,-1.807665228843689,-9.5872376759847,1.0235153436660769,1.6888757528676662e+18,75.19766642252604,0.3142392709851264,3.2350914478302,-0.7269296497106551,1.6888757528676662e+18,75.19766642252604,0.3135265931487083,3.2396729787190757,-0.724588006734848,,,,,,,,,,,,1.6888757528659955e+18,75.195995703125,8.076399803161621,43.54179916381836,-25.23447952270508,1.6888757528659955e+18,75.195995703125,-247.31839599609376,138.77499694824218,-158.59268188476562,1.6888757528676662e+18,75.19766642252604,-0.4801343182722727,0.5208728512128195,-0.5657760500907898,0.4212364753087361,-2.623952627182007,1.3580081065495808,-2.074350913365682
0.25,1.6888757529195738e+18,75.24957381184896,-1.015011151631673,3.050462245941162,-3.87965472539266,1.6888757529195738e+18,75.24957381184896,-2.809373219807943,-6.521239439646403,-2.545165697733561,1.6888757529195738e+18,75.24957381184896,-1.8171634674072263,-9.555956522623696,1.269775629043579,1.6888757529195738e+18,75.24957381184896,-0.2204714516798655,1.6963218847910564,-0.4300491362810135,1.6888757529195738e+18,75.24957381184896,-0.2210823148488998,1.701005220413208,-0.4276565760374069,,,,,,,,,,,,1.688875752915991e+18,75.245991015625,5.4631599426269535,43.46615829467773,-25.87863960266113,1.688875752915991e+18,75.245991015625,-249.93163146972657,138.69935913085936,-159.2368408203125,1.6888757529195738e+18,75.24957381184896,-0.5109418034553528,0.5495117902755737,-0.5386616587638855,0.3830073078473409,-2.529123306274414,1.3435192108154297,-2.0434491634368896
0.3,1.6888757529714706e+18,75.3014706217448,4.307598988215129,-2.278561592102051,-1.2947748104731245,1.6888757529714706e+18,75.3014706217448,1.96271280447642,-11.707084019978842,0.1625125197072824,1.6888757529714706e+18,75.3014706217448,-2.367687781651815,-9.412777264912922,1.392573873202006,1.6888757529714706e+18,75.3014706217448,-0.0638354172309239,-0.099112868309021,-1.8929186662038169,1.6888757529714706e+18,75.3014706217448,-0.0644971852501233,-0.0944805045922597,-1.890576998392741,,,,,,,,,,,,1.6888757529659973e+18,75.29599741210937,6.500159740447998,42.87323913574219,-26.566719436645503,1.6888757529659973e+18,75.29599741210937,-248.89463806152344,138.10643920898437,-159.92491760253907,1.6888757529714706e+18,75.3014706217448,-0.5052085121472677,0.5726811289787292,-0.5405248999595642,0.3526912331581116,-2.6023524602254233,1.2870539426803589,-1.9232126871744792
0.35,1.6888757530233713e+18,75.35337141927083,3.171158393224081,-5.8399912516276045,-7.520222028096517,1.6888757530233713e+18,75.35337141927083,0.6386841932932535,-15.200604756673178,-5.923831303914388,1.6888757530233713e+18,75.35337141927083,-2.5552755196889243,-9.344868342081703,1.53167724609375,1.6888757530233713e+18,75.35337141927083,-0.3570507268110911,0.2510656118392944,0.8261443177858988,1.6888757530233713e+18,75.35337141927083,-0.3577634195486704,0.2557489176591237,0.8285369127988815,,,,,,,,,,,,1.6888757530159956e+18,75.345995703125,9.006039810180663,41.92407913208008,-27.38167953491211,1.6888757530159956e+18,75.345995703125,-246.38875427246097,137.15727844238282,-160.73987731933593,1.6888757530233713e+18,75.35337141927083,-0.5012752413749695,0.5723735888799032,-0.5496744712193807,0.3447896838188171,-2.597761869430542,1.262605627377828,-1.9330430030822752
0.4,1.688875753075275e+18,75.40527490234375,5.100483099619548,-3.8201271692911782,-3.3799975315729776,1.688875753075275e+18,75.40527490234375,3.203590750694275,-13.380464871724447,-2.1766709884007773,1.688875753075275e+18,75.40527490234375,-1.9196939865748088,-9.5445925394694,1.138612985610962,1.688875753075275e+18,75.40527490234375,1.1068369150161743,-0.2069305976231893,1.9970712661743164,1.688875753075275e+18,75.40527490234375,1.1061242421468098,-0.2021964391072591,1.9995146195093791,,,,,,,,,,,,1.6888757530659937e+18,75.39599355468751,7.261439895629883,42.746359252929686,-26.32271957397461,1.6888757530659937e+18,75.39599355468751,-248.13335571289065,137.97955932617188,-159.68091735839843,1.688875753075275e+18,75.40527490234375,-0.5082253217697144,0.559859017531077,-0.5327032804489136,0.3795726001262665,-2.5994296073913574,1.3416641553243,-1.955929438273112
0.45,1.6888757531271795e+18,75.45717944335938,-7.298733075459798,-9.466012636820476,2.685920516649882,1.6888757531271795e+18,75.45717944335938,-7.803393522898356,-19.259430567423504,3.1513473987579346,1.6888757531271795e+18,75.45717944335938,-0.5274617448449135,-9.77767276763916,0.4007134561737378,1.6888757531271795e+18,75.45717944335938,1.7109317382176716,-0.7257079084714254,2.796693801879883,1.6888757531271795e+18,75.45717944335938,1.7102190653483074,-0.7210755348205566,2.799137274424235,,,,,,,,,,,,1.688875753115994e+18,75.44599399414062,1.044319985806942,45.06923828125,-23.59724006652832,1.688875753115994e+18,75.44599399414062,-254.35047912597656,140.30243530273438,-156.95543823242187,1.6888757531271795e+18,75.45717944335938,-0.5352973739306132,0.5454365412394205,-0.4782679776350657,0.4319704373677571,-2.365823745727539,1.5033830006917317,-2.17569899559021
0.5,1.6888757531704266e+18,75.50042663574219,-2.1620882153511047,-9.7218918800354,6.380094766616821,1.6888757531704266e+18,75.50042663574219,-1.3097712397575378,-19.506589889526367,6.479763746261597,1.6888757531704266e+18,75.50042663574219,0.8295155465602875,-9.7689528465271,0.03495560772717,1.6888757531704266e+18,75.50042663574219,-0.2758056819438934,-2.3661102056503296,3.714747905731201,1.6888757531704266e+18,75.50042663574219,-0.276416540145874,-2.36137592792511,3.717115044593811,,,,,,,,,,,,1.688875753165996e+18,75.49599594726563,-4.516439914703369,46.38195877075195,-20.947399520874026,1.688875753165996e+18,75.49599594726563,-259.91123657226564,141.6151550292969,-154.30559997558595,1.6888757531704266e+18,75.50042663574219,-0.5408495366573334,0.4947175532579422,-0.4607473313808441,0.5000630170106888,-0.0053863748908042,1.4847131371498108,1.6510260701179504
0.55,1.6888757532136735e+18,75.54367358398437,-3.7752124468485513,-7.038227399190267,9.196009079615274,1.6888757532136735e+18,75.54367358398437,-1.5890336235364275,-16.587844212849934,9.98744217554728,1.6888757532136735e+18,75.54367358398437,2.163377324740092,-9.5338716506958,0.7267195582389832,1.6888757532136735e+18,75.54367358398437,-0.497142493724823,-3.2408437728881836,2.9933414459228516,1.6888757532136735e+18,75.54367358398437,-0.4979060689608257,-3.236160437266032,2.9957849979400635,,,,,,,,,,,,1.6888757532159913e+18,75.54599140625001,-10.006439781188964,44.376278686523435,-24.004719161987303,1.6888757532159913e+18,75.54599140625001,-265.40123291015624,139.60947875976564,-157.36292114257813,1.6888757532136735e+18,75.54367358398437,-0.5589498480161031,0.4119116862614949,-0.4679630696773529,0.5457724332809448,-0.3221422235171,1.3348698218663533,1.849623640378316
0.6,1.6888757532655718e+18,75.59557177734375,-3.992264668146769,5.231208960215251,-1.3950849572817483,1.6888757532655718e+18,75.59557177734375,-0.6019943058490753,-3.953541189432144,-0.4883352319399515,1.6888757532655718e+18,75.59557177734375,3.3674689133961997,-9.169005076090494,0.842036227385203,1.6888757532655718e+18,75.59557177734375,0.7408268451690674,-1.5176947315533955,2.714787006378174,1.6888757532655718e+18,75.59557177734375,0.7400632500648499,-1.5131132006645205,2.717179536819458,,,,,,,,,,,,1.6888757532659922e+18,75.59599238281251,-12.470839691162109,43.5271598815918,-24.446359634399418,1.6888757532659922e+18,75.59599238281251,-267.8656311035156,138.7603546142578,-157.80455627441407,1.6888757532655718e+18,75.59557177734375,-0.545632561047872,0.3404266039530436,-0.4603141049544016,0.6116151611010233,-0.2489084949096044,1.207788348197937,1.630354682604472
0.65,1.6888757533174705e+18,75.64747070312501,-11.202088356018066,12.809582392374674,-1.4723273515701294,1.6888757533174705e+18,75.64747070312501,-6.829315185546875,4.05264409383138,-0.5066801806290945,1.6888757533174705e+18,75.64747070312501,4.349971612294515,-8.741193135579428,0.9009336431821188,1.6888757533174705e+18,75.64747070312501,0.2293798973162969,-2.4775675932566323,2.2256875038146973,1.6888757533174705e+18,75.64747070312501,0.2286163121461868,-2.4729352394739785,2.2281309763590493,,,,,,,,,,,,1.6888757533159877e+18,75.64598774414063,-16.145479583740233,43.02939987182617,-23.67531967163086,1.6888757533159877e+18,75.64598774414063,-271.54027099609374,138.26259765625,-157.03351745605468,1.6888757533174705e+18,75.64747070312501,-0.5354896783828735,0.2883252600828805,-0.4408829907576243,0.65961754322052,-0.2035261541604995,1.0996263821919758,1.4885636965433755
0.7,1.68887575336937e+18,75.69936979166665,-6.050360997517903,10.68252690633138,-2.5204935471216836,1.68887575336937e+18,75.69936979166665,-1.0937192837397258,2.322234352429708,-0.9599206944306692,1.68887575336937e+18,75.69936979166665,4.933840274810791,-8.344547271728516,1.4958593448003132,1.68887575336937e+18,75.69936979166665,0.180459772547086,-2.177938222885132,1.0770063400268557,1.68887575336937e+18,75.69936979166665,0.1797980070114135,-2.1733058293660483,1.0793988804022472,,,,,,,,,,,,1.688875753365988e+18,75.69598803710937,-16.54563980102539,41.54831924438477,-25.58339958190918,1.688875753365988e+18,75.69598803710937,-271.9404357910156,136.7815155029297,-158.94159851074218,1.68887575336937e+18,75.69936979166665,-0.5150890946388245,0.2202963232994079,-0.4467085897922516,0.6973763505617777,-0.2948144574960072,1.016471266746521,1.4373122453689575
0.75,1.6888757534212698e+18,75.75126969401042,3.07508913675944,4.989608446756999,0.1761521498362223,1.6888757534212698e+18,75.75126969401042,7.830511887868245,-3.4881372451782227,1.711865226427714,1.6888757534212698e+18,75.75126969401042,4.732621192932129,-8.462000528971354,1.4709995985031128,1.6888757534212698e+18,75.75126969401042,1.2412781715393066,-0.6271549860636393,-1.3809117476145427,1.6888757534212698e+18,75.75126969401042,1.2406164010365803,-0.6225225826104482,-1.3784683346748352,,,,,,,,,,,,1.6888757534159877e+18,75.74598745117187,-14.818119621276855,41.98507995605469,-25.70539970397949,1.6888757534159877e+18,75.74598745117187,-270.2129150390625,137.21827697753906,-159.0635986328125,1.6888757534212698e+18,75.75126969401042,-0.4856491287549336,0.2101384550333022,-0.4629074533780415,0.7109749515851339,-0.3018381198247273,1.040168364842733,1.3719786008199055
0.8,1.6888757534731702e+18,75.80316984049479,6.9283342361450195,-13.95956548055013,5.0254491964976,1.6888757534731702e+18,75.80316984049479,11.012567520141602,-22.782662709554035,6.529016176859538,1.6888757534731702e+18,75.80316984049479,4.061431884765625,-8.807351112365723,1.4388535420099895,1.6888757534731702e+18,75.80316984049479,-0.4808018604914348,-2.366593738396962,-0.1879429121812184,1.6888757534731702e+18,75.80316984049479,-0.4815145333607991,-2.362012272079786,-0.1855503320693969,,,,,,,,,,,,1.6888757534659886e+18,75.79598857421874,-9.537959861755372,44.1786392211914,-24.24871940612793,1.6888757534659886e+18,75.79598857421874,-264.93275146484376,139.4118408203125,-157.60691528320314,1.6888757534731702e+18,75.80316984049479,-0.4567380448182424,0.2161546945571898,-0.4954701960086822,0.7060943444569906,-0.3401471773783365,1.1141992410024006,1.3610751628875732
0.85,1.6888757535250778e+18,75.85507763671875,5.055206934611003,-1.3503230412801106,7.842063268025716,1.6888757535250778e+18,75.85507763671875,9.502497037251793,-9.755139271418251,10.406784375508629,1.6888757535250778e+18,75.85507763671875,4.424488703409831,-8.389071146647135,2.5000078678131104,1.6888757535250778e+18,75.85507763671875,-0.0094175040721893,-2.7346400817235312,1.5842280785242715,1.6888757535250778e+18,75.85507763671875,-0.0100792745749155,-2.7300076882044473,1.5866206586360931,,,,,,,,,,,,1.6888757535159944e+18,75.84599438476563,-6.995479965209961,43.170919799804686,-27.03275947570801,1.6888757535159944e+18,75.84599438476563,-262.39027709960936,138.40411682128905,-160.39095764160157,1.6888757535250778e+18,75.85507763671875,-0.4256673753261566,0.1208414038022359,-0.509389340877533,0.7377835710843405,-0.5150296489397684,1.025356928507487,1.3409322102864585
0.9,1.6888757535769812e+18,75.90698111979167,-12.302794456481934,-2.5979944864908853,2.3157498836517334,1.6888757535769812e+18,75.90698111979167,-7.73499854405721,-10.900104522705078,5.008377234141032,1.6888757535769812e+18,75.90698111979167,4.544994513193767,-8.286364873250326,2.627914031346639,1.6888757535769812e+18,75.90698111979167,-0.8442666952808698,2.3923519452412925,-0.664774090051651,1.6888757535769812e+18,75.90698111979167,-0.8449793433149656,2.396984338760376,-0.6623815496762594,,,,,,,,,,,,1.6888757535659953e+18,75.89599526367188,-8.069079780578614,42.10219879150391,-28.267398834228516,1.6888757535659953e+18,75.89599526367188,-263.46387939453126,137.33539733886718,-161.62559509277344,1.6888757535769812e+18,75.90698111979167,-0.4459324578444163,0.1232803662618001,-0.5027773181597391,0.7299246589342753,-0.5248737533887228,1.005232055981954,1.3900258541107178
0.95,1.6888757536202314e+18,75.9502314453125,-0.4368486404418943,2.459521532058716,-3.282143473625183,1.6888757536202314e+18,75.9502314453125,3.689134359359741,-6.244070768356323,-1.2628121674060822,1.6888757536202314e+18,75.9502314453125,4.103181600570679,-8.687847137451172,1.9546178579330444,1.6888757536202314e+18,75.9502314453125,1.3531429171562197,3.192458152770996,-2.811583638191223,1.6888757536202314e+18,75.9502314453125,1.3524556159973145,3.1971921920776367,-2.809140205383301,,,,,,,,,,,,1.6888757536159985e+18,75.94599838867188,-8.935279846191406,42.59751968383789,-26.583799743652342,1.6888757536159985e+18,75.94599838867188,-264.330078125,137.83071899414062,-159.9419952392578,1.6888757536202314e+18,75.9502314453125,-0.4601033329963683,0.1878170520067215,-0.5049335062503815,0.7054494023323059,-0.4434117078781128,1.0877425074577332,1.4262909889221191
1.0,1.6888757536634734e+18,75.99347330729167,-11.508758862813314,-1.0086431503295898,-0.5117074251174928,1.6888757536634734e+18,75.99347330729167,-9.101300398508709,-10.466804504394531,0.3026920408010483,1.6888757536634734e+18,75.99347330729167,2.384657144546509,-9.442416191101074,0.7496859828631083,1.6888757536634734e+18,75.99347330729167,0.7201592152317365,5.12179962793986,-6.050976594289144,1.6888757536634734e+18,75.99347330729167,0.7194465268403292,5.126483043034871,-6.048533280690511,,,,,,,,,,,,1.688875753665994e+18,75.99599384765625,-5.019079852104187,45.51087951660156,-22.735919952392575,1.688875753665994e+18,75.99599384765625,-260.41387939453125,140.74407958984375,-156.0941192626953,1.6888757536634734e+18,75.99347330729167,-0.468549480040868,0.3258249461650848,-0.5193045536677042,0.6334265271822611,-0.3120224674542745,1.3110310236612956,1.518374999364217
1.05,1.6888757537153836e+18,76.04538346354167,-5.597763856252034,-3.0815041859944663,-3.615752776463826,1.6888757537153836e+18,76.04538346354167,-5.663611809412639,-12.8598264058431,-2.6741787592569985,1.6888757537153836e+18,76.04538346354167,-0.0886492480834325,-9.762577056884766,0.8768605987230936,1.6888757537153836e+18,76.04538346354167,-1.4256067872047424,4.7238718668619795,-3.3632713158925376,1.6888757537153836e+18,76.04538346354167,-1.426319420337677,4.7285551230112715,-3.360827883084615,,,,,,,,,,,,1.6888757537159928e+18,76.04599287109374,1.9812799453735352,44.76911849975586,-24.22187919616699,1.6888757537159928e+18,76.04599287109374,-253.41351623535155,140.0023162841797,-157.5800750732422,1.6888757537153836e+18,76.04538346354167,-0.4927504559357961,0.4504252274831136,-0.5484124223391215,0.5017960468928019,-1.5741954644521077,1.474700133005778,-1.1510500113169353
1.1,1.6888757537672824e+18,76.0972822265625,3.312285820643107,1.7922366460164387,-1.2107106844584148,1.6888757537672824e+18,76.0972822265625,2.1856440703074136,-7.895716667175293,-0.0161515772342681,1.6888757537672824e+18,76.0972822265625,-1.1494431893030803,-9.672208150227863,1.1298456192016602,1.6888757537672824e+18,76.0972822265625,0.0762054386238256,-0.608421802520752,-2.045278628667196,1.6888757537672824e+18,76.0972822265625,0.0755945729712644,-0.6037893692652384,-2.042835235595703,,,,,,,,,,,,1.6888757537659924e+18,76.09599233398437,4.723839950561524,43.53447952270508,-25.76639938354492,1.6888757537659924e+18,76.09599233398437,-250.67095336914065,138.7676788330078,-159.12459716796874,1.6888757537672824e+18,76.0972822265625,-0.4928496976693471,0.491826593875885,-0.5622813900311788,0.4458530644575755,-2.3437567551930747,1.4043329159418745,-2.3921844959259033
1.15,1.6888757538191823e+18,76.14918229166666,5.855201800664266,2.656959851582845,-0.028153419494629,1.6888757538191823e+18,76.14918229166666,4.186043878396352,-6.961917241414388,1.1068798800309498,1.6888757538191823e+18,76.14918229166666,-1.6919595003128052,-9.603131930033364,1.0703198115030923,1.6888757538191823e+18,76.14918229166666,0.262061197310686,2.692846695582072,-0.9659815828005472,1.6888757538191823e+18,76.14918229166666,0.2614503266910711,2.6974281469980874,-0.9635381102561952,,,,,,,,,,,,1.6888757538159985e+18,76.14599838867187,7.5273998260498045,43.34904022216797,-25.34671974182129,1.6888757538159985e+18,76.14599838867187,-247.86739501953124,138.58223571777344,-158.70491638183594,1.6888757538191823e+18,76.14918229166666,-0.4882138669490814,0.5218890905380249,-0.5596312880516052,0.4189654588699341,-2.5745179653167725,1.365844209988912,-2.10616668065389
1.2,1.6888757538710848e+18,76.20108471679687,-1.0365270376205444,3.070399761199951,-3.2692325115203857,1.6888757538710848e+18,76.20108471679687,-2.9136603673299155,-6.491329034169515,-1.9804595311482749,1.6888757538710848e+18,76.20108471679687,-1.899934728940328,-9.5459836324056,1.2240594228108723,1.6888757538710848e+18,76.20108471679687,0.173587542027235,2.199369430541992,-0.6078618168830872,1.6888757538710848e+18,76.20108471679687,0.1728239568571249,2.2040018240610757,-0.6054692765076956,1.6888757538624343e+18,76.19243432617188,0.0,0.0,1.1403027772903442,6.678999900817871,1.7358238697052002,92.10199737548828,39.10000228881836,-122.7513418,49.1905142,1.688875753865994e+18,76.19599409179688,5.367999935150147,43.458839416503906,-25.961599349975582,1.688875753865994e+18,76.19599409179688,-250.02679138183595,138.692041015625,-159.3197998046875,1.6888757538710848e+18,76.20108471679687,-0.5155327916145325,0.5641884207725525,-0.527235766251882,0.3711130321025848,-2.5664636294047036,1.338963309923808,-1.963046312332153
1.25,1.688875753922985e+18,76.25298486328126,4.067280689875285,-2.0909252166748047,-1.484696090221405,1.688875753922985e+18,76.25298486328126,1.6500506202379863,-11.51446215311686,-0.1130608816941579,1.688875753922985e+18,76.25298486328126,-2.4400314490000405,-9.40779177347819,1.3069216807683308,1.688875753922985e+18,76.25298486328126,-0.3331760913133621,-0.2471968034903208,-1.659211794535319,1.688875753922985e+18,76.25298486328126,-0.333786944548289,-0.242513507604599,-1.6567683617273967,,,,,,,,,,,,1.688875753915988e+18,76.24598793945313,5.809639930725098,43.28071899414063,-26.056759643554688,1.688875753915988e+18,76.24598793945313,-249.58515319824215,138.5139190673828,-159.4149597167969,1.688875753922985e+18,76.25298486328126,-0.5069587429364523,0.585589329401652,-0.530042827129364,0.3448908925056457,-2.6447578271230063,1.2851621707280476,-1.8473275899887085
1.3,1.688875753974885e+18,76.30488525390625,3.8816401163736978,-5.921797434488933,-5.622634728749593,1.688875753974885e+18,76.30488525390625,1.2007981364925702,-15.247464497884115,-4.058626095453898,1.688875753974885e+18,76.30488525390625,-2.703643480936686,-9.309921900431316,1.4992951154708862,1.688875753974885e+18,76.30488525390625,-0.21986057360967,0.2663372545503079,0.122529385300974,1.688875753974885e+18,76.30488525390625,-0.220471441745758,0.2709187384073933,0.1249728474455575,,,,,,,,,,,,1.6888757539659955e+18,76.295995703125,8.420439624786377,42.155879974365234,-26.92784004211426,1.6888757539659955e+18,76.295995703125,-246.97435607910157,137.38907775878906,-160.28603820800782,1.688875753974885e+18,76.30488525390625,-0.502056618531545,0.5869500041007996,-0.541163444519043,0.3325039048989613,-2.633208910624186,1.2508247296015422,-1.860621690750122
1.35,1.688875754026786e+18,76.3567861328125,5.083773096402486,-3.021578788757324,-1.6708560387293498,1.688875754026786e+18,76.3567861328125,2.853241483370463,-12.488340695699057,-0.3016950289408366,1.688875754026786e+18,76.3567861328125,-2.2533329725265503,-9.451016743977863,1.3044474919637044,1.688875754026786e+18,76.3567861328125,0.558127224445343,0.7419467270374298,1.8621717989444733,1.688875754026786e+18,76.3567861328125,0.5574654440085093,0.7466300576925278,1.864564379056295,,,,,,,,,,,,1.6888757540159995e+18,76.34599946289063,7.300479888916016,42.54383850097656,-26.85951957702637,1.6888757540159995e+18,76.34599946289063,-248.0943145751953,137.77703552246095,-160.21771850585938,1.688875754026786e+18,76.3567861328125,-0.515295684337616,0.5844754179318746,-0.5221455295880636,0.346180538336436,-2.606691360473633,1.3021587133407593,-1.8716060320536296
1.4,1.6888757540700365e+18,76.40003662109376,-10.230807304382324,-8.801937103271484,-3.1441386938095093,1.6888757540700365e+18,76.40003662109376,-11.213664054870604,-18.525232315063477,-2.1233309507369995,1.6888757540700365e+18,76.40003662109376,-1.0056580007076263,-9.707550048828123,0.956094205379486,1.6888757540700365e+18,76.40003662109376,1.4953981041908264,-0.5623014867305756,2.9665907621383667,1.6888757540700365e+18,76.40003662109376,1.494710922241211,-0.5576435923576355,2.968957781791687,,,,,,,,,,,,1.6888757540659942e+18,76.39599443359376,1.010159957408905,44.12739868164063,-25.302799224853516,1.6888757540659942e+18,76.39599443359376,-254.38463134765624,139.360595703125,-158.66099853515624,1.6888757540700365e+18,76.40003662109376,-0.5509035289287567,0.5657462775707245,-0.4802975058555602,0.3814725875854491,-2.370188355445862,1.4292506575584412,-2.0859419107437134
1.45,1.6888757541132882e+18,76.44328824869793,-1.91788649559021,-8.531437238057455,4.466335773468018,1.6888757541132882e+18,76.44328824869793,-1.6255241235097249,-18.33380699157715,4.8664030234018965,1.6888757541132882e+18,76.44328824869793,0.2695609529813131,-9.786624590555826,0.3353537221749623,1.6888757541132882e+18,76.44328824869793,0.8404996593793234,-3.4286847909291587,3.59545103708903,1.6888757541132882e+18,76.44328824869793,0.8398888210455576,-3.423950672149658,3.5978945096333823,,,,,,,,,,,,1.6888757541159951e+18,76.44599497070313,-4.165079927444458,45.66215896606445,-22.562680053710935,1.6888757541159951e+18,76.44599497070313,-259.55987548828125,140.89535217285157,-155.92088012695314,1.6888757541132882e+18,76.44328824869793,-0.5457838972409567,0.5153758625189463,-0.4686196049054463,0.4641672174135844,-1.0908855001131694,1.5062702496846516,0.6958553393681844
1.5,1.688875754165187e+18,76.49518709309895,-3.569634914398194,-6.7816727956136065,10.060324668884276,1.688875754165187e+18,76.49518709309895,-1.5156538089116414,-16.354544003804524,10.904292106628418,1.688875754165187e+18,76.49518709309895,2.0311797062555947,-9.55712604522705,0.7792539596557617,1.688875754165187e+18,76.49518709309895,-0.5419392784436544,-2.181959748268127,3.2022573947906494,1.688875754165187e+18,76.49518709309895,-0.5426519513130188,-2.177327354749044,3.2046500047047934,,,,,,,,,,,,1.6888757541659958e+18,76.49599575195313,-10.016199684143066,44.06883926391602,-24.631799697875977,1.6888757541659958e+18,76.49599575195313,-265.4110046386719,139.30203552246093,-157.98999633789063,1.688875754165187e+18,76.49518709309895,-0.5683855613072714,0.4238954186439514,-0.4646669427553813,0.5297130743662516,-0.3675152460734049,1.3460828065872192,1.9361206690470376
1.55,1.6888757542170885e+18,76.54708837890625,-5.432106971740723,5.214010079701741,-1.2133859793345134,1.6888757542170885e+18,76.54708837890625,-2.19740871588389,-4.033102530287579,-0.373878538608551,1.6888757542170885e+18,76.54708837890625,3.2118967374165854,-9.231367429097494,0.7747939229011536,1.6888757542170885e+18,76.54708837890625,1.1598803599675496,-2.168724298477173,2.600351572036743,1.6888757542170885e+18,76.54708837890625,1.159167726834615,-2.1640919049580893,2.602794965108236,,,,,,,,,,,,1.6888757542159962e+18,76.54599633789061,-12.573319816589356,43.33927917480469,-24.12427978515625,1.6888757542159962e+18,76.54599633789061,-267.9681091308594,138.57247619628907,-157.48247680664062,1.6888757542170885e+18,76.54708837890625,-0.5541866223017374,0.357295423746109,-0.4561533232529958,0.5971532662709554,-0.2409938275814056,1.225963870684306,1.667595664660136
1.6,1.6888757542689882e+18,76.5989881998698,-11.079608281453451,11.351007779439293,-2.5735053221384683,1.6888757542689882e+18,76.5989881998698,-6.861618200937907,2.5306093295415244,-1.5140585501988728,1.6888757542689882e+18,76.5989881998698,4.195188522338867,-8.80465316772461,0.994733234246572,1.6888757542689882e+18,76.5989881998698,0.1871283948421478,-3.6242635250091553,2.4891231060028076,1.6888757542689882e+18,76.5989881998698,0.1864666144053141,-3.619580109914144,2.4915157159169516,,,,,,,,,,,,1.6888757542659958e+18,76.59599575195313,-14.99623966217041,42.74391860961914,-23.92663955688477,1.6888757542659958e+18,76.59599575195313,-270.3910278320312,137.97712097167968,-157.2848358154297,1.6888757542689882e+18,76.5989881998698,-0.5285700360933939,0.2852833668390909,-0.4514129956563313,0.659103274345398,-0.2312232851982116,1.1143880287806194,1.495893160502116
1.65,1.6888757543208896e+18,76.65088956705729,-4.953172127405803,9.003018697102865,-2.063870350519816,1.6888757543208896e+18,76.65088956705729,-0.0368893543879191,0.6588238030672073,-0.2975076058258613,1.6888757543208896e+18,76.65088956705729,4.893481413523356,-8.328449567159018,1.7016493082046509,1.6888757543208896e+18,76.65088956705729,0.0731002117196719,-1.975894570350647,1.3768393993377686,1.6888757543208896e+18,76.65088956705729,0.0724384387334188,-1.9712621768315632,1.379282792409261,,,,,,,,,,,,1.688875754315991e+18,76.645991015625,-16.08691997528076,41.06031951904297,-26.430079650878906,1.688875754315991e+18,76.645991015625,-271.4817138671875,136.29351501464845,-159.78827514648438,1.6888757543208896e+18,76.65088956705729,-0.5087848504384359,0.2066952933867772,-0.4554908474286397,0.7005053559939066,-0.3351510266462962,1.0135185917218523,1.443532903989156
1.7,1.6888757543727895e+18,76.70278979492188,5.8180413246154785,5.066696643829346,1.232813835144043,1.6888757543727895e+18,76.70278979492188,10.5589280128479,-3.429712454477946,2.6675984462102256,1.6888757543727895e+18,76.70278979492188,4.718085289001465,-8.480663935343424,1.3700711131095886,1.6888757543727895e+18,76.70278979492188,1.9495255549748736,0.3807217677434285,-1.7414241035779316,1.6888757543727895e+18,76.70278979492188,1.9488637844721477,0.3854050636291504,-1.7390315632025402,1.68887575438144e+18,76.71143994140625,0.0,0.0,1.1508105993270874,6.781000137329102,1.742261290550232,90.39962005615234,39.10000228881836,-122.7513175,49.1905188,1.6888757543659963e+18,76.69599658203126,-14.61315975189209,41.83379898071289,-25.698079299926757,1.6888757543659963e+18,76.69599658203126,-270.00795288085936,137.0669952392578,-159.0562774658203,1.6888757543727895e+18,76.70278979492188,-0.4789929787317912,0.2118139266967773,-0.462730864683787,0.7149247527122498,-0.2807541191577911,1.0445623795191448,1.3417410453160603
1.75,1.68887575442469e+18,76.75469002278646,3.5456912517547607,-11.853620847066244,6.487909475962321,1.68887575442469e+18,76.75469002278646,7.322635332743327,-20.87737719217936,7.482755184173584,1.68887575442469e+18,76.75469002278646,3.7541426022847495,-9.008010864257812,0.9301323095957438,1.68887575442469e+18,76.75469002278646,-0.4001676241556803,-2.2448789477348328,-0.8896233638127645,1.68887575442469e+18,76.75469002278646,-0.4008803566296895,-2.240246574083964,-0.887179970741272,,,,,,,,,,,,1.6888757544159954e+18,76.74599526367187,-9.23539972305298,45.27907943725586,-21.972199630737304,1.6888757544159954e+18,76.74599526367187,-264.63018798828125,140.5122802734375,-155.3303955078125,1.68887575442469e+18,76.75469002278646,-0.442651093006134,0.2450589934984842,-0.4977372984091441,0.7039620478947958,-0.2440834095080693,1.163273811340332,1.283650279045105
1.8,1.688875754476591e+18,76.80659106445313,7.104878107706706,-5.380621115366618,5.986976782480876,1.688875754476591e+18,76.80659106445313,11.45563824971517,-13.922239462534586,8.223333835601807,1.688875754476591e+18,76.80659106445313,4.327958583831787,-8.525873184204102,2.171643614768982,1.688875754476591e+18,76.80659106445313,-0.5149084863563379,-3.1008028984069824,2.2811744610468545,1.688875754476591e+18,76.80659106445313,-0.515621155500412,-3.0961705446243286,2.283617913722992,,,,,,,,,,,,1.6888757544659937e+18,76.79599350585937,-6.282999801635742,44.32747955322266,-25.18811950683594,1.6888757544659937e+18,76.79599350585937,-261.67779541015625,139.56067504882813,-158.54631652832032,1.688875754476591e+18,76.80659106445313,-0.4179216722647349,0.1382542103528976,-0.5095462203025818,0.7388612826665243,-0.465038537979126,1.0535227457682292,1.3030919631322224
1.85,1.6888757545198415e+18,76.84984155273438,-16.98337697982788,-4.277904272079468,1.662179708480835,1.6888757545198415e+18,76.84984155273438,-12.469596862792969,-12.704991102218628,4.031607151031494,1.6888757545198415e+18,76.84984155273438,4.490978479385376,-8.411341667175293,2.3047139644622803,1.6888757545198415e+18,76.84984155273438,-0.8403978645801544,2.9765173196792603,-0.9021716117858888,1.6888757545198415e+18,76.84984155273438,-0.841008722782135,2.981098771095276,-0.8997281491756439,,,,,,,,,,,,1.688875754515994e+18,76.84599418945312,-8.18131980895996,42.89519882202149,-26.73264007568359,1.688875754515994e+18,76.84599418945312,-263.57611694335935,138.1283966064453,-160.0908416748047,1.6888757545198415e+18,76.84984155273438,-0.4355241507291794,0.1373522207140922,-0.5019824504852295,0.7343572974205017,-0.4749760180711746,1.0295849442481997,1.3427764177322388
1.9,1.6888757545630874e+18,76.89308740234375,-4.91372545560201,6.440143903096517,-1.3141719500223796,1.6888757545630874e+18,76.89308740234375,-0.7872386773427328,-2.309073885281881,0.4689932217200597,1.6888757545630874e+18,76.89308740234375,4.10368545850118,-8.73347250620524,1.718451698621114,1.6888757545630874e+18,76.89308740234375,1.0673852022737265,2.7742954095204673,-1.863953431447347,1.6888757545630874e+18,76.89308740234375,1.066774361456434,2.7789787451426187,-1.8615100383758545,,,,,,,,,,,,1.688875754565994e+18,76.89599389648438,-9.537960052490234,43.22703857421875,-25.58339920043945,1.688875754565994e+18,76.89599389648438,-264.93275756835936,138.46023864746093,-158.94159851074218,1.6888757545630874e+18,76.89308740234375,-0.4533980687459309,0.1966515878836313,-0.5012963612874349,0.7097713152567545,-0.3936915000279744,1.0983173449834187,1.378780206044515
1.95,1.6888757546149937e+18,76.94499357096355,-8.19480013847351,0.3820435206095378,0.3041719198226928,1.6888757546149937e+18,76.94499357096355,-5.863213062286377,-9.108279546101889,0.922831915318966,1.6888757546149937e+18,76.94499357096355,2.3087854782740274,-9.47457790374756,0.5539465248584747,1.6888757546149937e+18,76.94499357096355,-0.3586288193861644,6.067877292633057,-6.119393348693848,1.6888757546149937e+18,76.94499357096355,-0.3592905600865681,6.07250960667928,-6.116950035095215,,,,,,,,,,,,1.6888757546159916e+18,76.94599165039062,-6.651439762115478,45.652398681640626,-21.95023956298828,1.6888757546159916e+18,76.94599165039062,-262.046240234375,140.885595703125,-155.30843811035157,1.6888757546149937e+18,76.94499357096355,-0.4716169039408365,0.3428378403186798,-0.5118327339490255,0.6274294455846151,-0.2602542440096536,1.3239621718724568,1.501030683517456
2.0,1.6888757546668966e+18,76.99689680989583,-9.986148675282797,-6.473676363627116,-2.6630074183146157,1.6888757546668966e+18,76.99689680989583,-10.161121368408203,-16.220147132873535,-1.4245270391305287,1.6888757546668966e+18,76.99689680989583,-0.1977740824222564,-9.730725606282553,1.173766851425171,1.6888757546668966e+18,76.99689680989583,-1.8062267005443573,3.332575341065725,-3.0242919921875,1.6888757546668966e+18,76.99689680989583,-1.8068885207176208,3.3373095194498696,-3.0218995014826455,,,,,,,,,,,,1.688875754665991e+18,76.9959904296875,0.8515599966049194,44.23719940185547,-24.81479949951172,1.688875754665991e+18,76.9959904296875,-254.54323120117184,139.47039794921875,-158.172998046875,1.6888757546668966e+18,76.99689680989583,-0.511001706123352,0.4592816134293874,-0.5464110771814982,0.4780094623565674,-1.6798547506332395,1.446388840675354,-0.9923730691274008
2.05,1.6888757547187937e+18,77.04879370117187,5.915538469950358,2.2837882041931152,-3.81889009475708,1.6888757547187937e+18,77.04879370117187,4.858227411905925,-7.402595678965251,-2.552144765853882,1.6888757547187937e+18,77.04879370117187,-1.0801125168800354,-9.670638720194498,1.2020318110783894,1.6888757547187937e+18,77.04879370117187,0.527023990948995,-0.0007635752360025,-2.197689493497213,1.6888757547187937e+18,77.04879370117187,0.5263622005780538,0.0038179059823354,-2.1952460606892905,,,,,,,,,,,,1.6888757547159946e+18,77.04599467773437,4.592079973220825,43.43687896728515,-26.08603973388672,1.6888757547159946e+18,77.04599467773437,-250.80271911621097,138.67007751464843,-159.4442352294922,1.6888757547187937e+18,77.04879370117187,-0.4982432126998901,0.4905032217502594,-0.5602563619613647,0.4438356260458628,-2.2812039852142334,1.4030547539393108,-2.446582794189453
2.1,1.6888757547706908e+18,77.10069083658854,4.42862065633138,3.466004689534506,0.751253088315328,1.6888757547706908e+18,77.10069083658854,2.584049105644226,-6.123233159383138,1.8590238094329832,1.6888757547706908e+18,77.10069083658854,-1.8673729101816816,-9.573492685953775,1.0430572430292766,1.6888757547706908e+18,77.10069083658854,0.618195633093516,2.809216578801473,-1.301804741223653,1.6888757547706908e+18,77.10069083658854,0.6174829403559366,2.813848892847697,-1.299463113149007,,,,,,,,,,,,1.6888757547659927e+18,77.09599272460937,7.241919898986817,43.395399475097655,-25.153959274291992,1.6888757547659927e+18,77.09599272460937,-248.1528747558594,138.62859802246095,-158.51215515136718,1.6888757547706908e+18,77.10069083658854,-0.4939307471116383,0.5421545505523682,-0.5481811364491781,0.4013161758581797,-2.6282511552174888,1.3515748580296834,-1.9969542026519775
2.15,1.6888757548225976e+18,77.15259757486979,1.2672687768936155,3.3568832079569497,-1.568781057993571,1.6888757548225976e+18,77.15259757486979,-0.7421738107999166,-6.176074504852295,-0.2709871580203374,1.6888757548225976e+18,77.15259757486979,-2.0322441260019937,-9.517212549845375,1.2330804268519084,1.6888757548225976e+18,77.15259757486979,-0.2955569624900817,1.6405295133590698,-0.3939062803983688,1.6888757548225976e+18,77.15259757486979,-0.2962696403264999,1.6451619068781536,-0.3914628078540166,,,,,,,,,,,,1.6888757548159926e+18,77.14599272460937,5.675439834594727,43.58571929931641,-25.473600006103517,1.6888757548159926e+18,77.14599272460937,-249.71935424804687,138.81891784667968,-158.83179626464843,1.6888757548225976e+18,77.15259757486979,-0.515089233716329,0.5722552935282389,-0.5250052014986674,0.3625650902589162,-2.5942164262135825,1.326611876487732,-1.916538953781128
2.2,1.6888757548744955e+18,77.20449552408854,1.7177222967147827,-1.3473771413167317,-1.4834432204564412,1.6888757548744955e+18,77.20449552408854,-0.6759723772605261,-10.737991015116371,0.1507478157679239,1.6888757548744955e+18,77.20449552408854,-2.416496197382609,-9.374868710835775,1.5694775581359863,1.6888757548744955e+18,77.20449552408854,-0.5397503475348154,0.3957388812753682,-1.3359623352686565,1.6888757548744955e+18,77.20449552408854,-0.540361225605011,0.4004221699821452,-1.3335187832514446,,,,,,,,,,,,1.688875754865996e+18,77.19599604492188,5.209399890899658,42.80979843139649,-26.839999389648437,1.688875754865996e+18,77.19599604492188,-250.18539428710935,138.04299621582032,-160.1981994628906,1.6888757548744955e+18,77.20449552408854,-0.5204614400863647,0.5902629494667053,-0.5236984491348267,0.3260785539944966,-2.562076965967814,1.2732323010762532,-1.8856640656789143
2.25,1.6888757549263956e+18,77.25639583333333,3.799827496210734,-6.179881731669108,-8.041184743245443,1.6888757549263956e+18,77.25639583333333,1.1659028058250744,-15.480565388997396,-6.2546389897664385,1.6888757549263956e+18,77.25639583333333,-2.6567262013753257,-9.28493849436442,1.721832275390625,1.6888757549263956e+18,77.25639583333333,-0.0512108703454335,-0.2004656108717123,-0.0382808839591841,1.6888757549263956e+18,77.25639583333333,-0.051872635881106,-0.1957823162277539,-0.0358883291482926,1.6888757548990868e+18,77.2290869140625,0.0,0.0,1.1595529317855835,6.791999816894531,1.7492897510528564,89.49296569824219,39.10000228881836,-122.7513076,49.1905218,1.6888757549159956e+18,77.24599580078124,7.48835973739624,41.731320190429685,-27.70131950378418,1.6888757549159956e+18,77.24599580078124,-247.90643615722655,136.9645202636719,-161.05951538085938,1.6888757549263956e+18,77.25639583333333,-0.5137462019920349,0.5896245241165161,-0.5360036492347717,0.3179597655932109,-2.564427693684896,1.2427949905395508,-1.8944827715555828
2.3,1.688875754969641e+18,77.29964086914063,7.158372521400452,-2.264190673828125,-4.889370918273926,1.688875754969641e+18,77.29964086914063,4.686642110347748,-11.65902853012085,-3.404388323426246,1.688875754969641e+18,77.29964086914063,-2.4945318698883057,-9.379092693328856,1.420269250869751,1.688875754969641e+18,77.29964086914063,0.785496324300766,0.3069597706198692,1.2050080001354218,1.688875754969641e+18,77.29964086914063,0.7848091423511505,0.3116176277399063,1.2073752135038376,,,,,,,,,,,,1.6888757549659922e+18,77.29599233398437,7.607919788360595,42.41695938110352,-26.698479461669923,1.6888757549659922e+18,77.29599233398437,-247.78687744140623,137.65015869140626,-160.05667419433593,1.688875754969641e+18,77.29964086914063,-0.5126956403255463,0.5921589136123657,-0.5253518521785736,0.3322888314723968,-2.6207062005996704,1.2744287252426147,-1.8410720825195312
2.35,1.688875755012897e+18,77.34289721679687,-5.653023322423299,-8.106359481811523,-0.4517929355303446,1.688875755012897e+18,77.34289721679687,-7.039684295654297,-17.779070536295574,0.4963112870852153,1.688875755012897e+18,77.34289721679687,-1.4094624519348145,-9.656965891520182,0.8833907246589661,1.688875755012897e+18,77.34289721679687,1.7532850901285808,-0.9600765109062196,2.7775533199310303,1.688875755012897e+18,77.34289721679687,1.7526233196258545,-0.9553932746251425,2.779996871948242,,,,,,,,,,,,1.688875755015994e+18,77.34599370117186,2.2130798935890197,44.320159149169925,-24.37559928894043,1.688875755015994e+18,77.34599370117186,-253.1817138671875,139.55335998535156,-157.73379516601562,1.688875755012897e+18,77.34289721679687,-0.5356420477231344,0.5766248305638632,-0.4885988235473633,0.3757669230302174,-2.5886199474334717,1.4006812572479248,-1.8742020924886067
2.4,1.6888757550647974e+18,77.39479760742188,-1.4599049886067708,-10.255857785542808,6.358332475026448,1.6888757550647974e+18,77.39479760742188,-1.3710872928301494,-20.066609700520832,6.478567520777385,1.6888757550647974e+18,77.39479760742188,0.0660162332157294,-9.79500675201416,0.0555215080579121,1.6888757550647974e+18,77.39479760742188,0.4776457548141479,-2.6951374212900796,3.562057097752889,1.6888757550647974e+18,77.39479760742188,0.476983924706777,-2.69040318330129,3.564500490824382,,,,,,,,,,,,1.688875755065996e+18,77.39599599609376,-1.800719937682152,46.330718994140625,-20.73267936706543,1.688875755065996e+18,77.39599599609376,-257.1955139160156,141.563916015625,-154.09088134765625,1.6888757550647974e+18,77.39479760742188,-0.5305299361546835,0.5241311391194662,-0.4700571596622467,0.470925360918045,-0.6655913690725962,1.523814678192139,0.2558013598124186
2.45,1.6888757551166968e+18,77.44669710286458,-4.441847443580627,-7.726199785868327,10.50199325879415,1.6888757551166968e+18,77.44669710286458,-2.4789643585681915,-17.343178431193035,10.967702229817707,1.6888757551166968e+18,77.44669710286458,1.9400816758473711,-9.60123348236084,0.4009958803653717,1.6888757551166968e+18,77.44669710286458,0.0486655980348586,-2.385377809405327,3.064049045244853,1.6888757551166968e+18,77.44669710286458,0.047952930132548,-2.380745440721512,3.066441814104716,,,,,,,,,,,,1.6888757551159916e+18,77.44599150390624,-9.069480037689209,45.222958374023435,-22.30403938293457,1.6888757551159916e+18,77.44599150390624,-264.4642700195312,140.4561553955078,-155.66223754882813,1.6888757551166968e+18,77.44669710286458,-0.5638407468795776,0.4425979952017466,-0.4520647525787353,0.5300696690877279,-0.2077961961428324,1.3664026260375977,1.8029619057973223
2.5,1.6888757551685988e+18,77.4985987955729,-4.337003072102864,3.657203038533529,-1.3372743129730225,1.6888757551685988e+18,77.4985987955729,-1.3066805998484292,-5.683551907539368,-0.948754201332728,1.6888757551685988e+18,77.4985987955729,3.007521152496338,-9.32500966389974,0.3238066335519154,1.6888757551685988e+18,77.4985987955729,1.029817004998525,-1.9393953879674275,2.5818728605906167,1.6888757551685988e+18,77.4985987955729,1.0290534098943074,-1.934712052345276,2.5842654705047607,,,,,,,,,,,,1.6888757551659922e+18,77.49599208984375,-11.133719635009763,44.83743896484375,-21.925839614868163,1.6888757551659922e+18,77.49599208984375,-266.528515625,140.0706359863281,-155.28403930664064,1.6888757551685988e+18,77.4985987955729,-0.5399270256360372,0.3775109052658081,-0.4512422581513722,0.6015479365984598,-0.1129594867428143,1.2560831308364868,1.546513279279073
2.55,1.688875755220495e+18,77.5504951171875,-11.226943016052246,12.227824211120604,-0.9086706240971884,1.688875755220495e+18,77.5504951171875,-7.007181723912557,3.3704901536305747,-0.3092723339796066,1.688875755220495e+18,77.5504951171875,4.196959892908732,-8.841588973999023,0.5346848169962565,1.688875755220495e+18,77.5504951171875,-0.1163698385159174,-2.9694669246673584,2.677473227183024,1.688875755220495e+18,77.5504951171875,-0.1170315941174824,-2.964834372202555,2.679916779200236,,,,,,,,,,,,1.6888757552159956e+18,77.54599584960938,-15.659919929504394,44.000518798828125,-21.105999374389647,1.6888757552159956e+18,77.54599584960938,-271.0547119140625,139.2337158203125,-154.46419677734374,1.688875755220495e+18,77.5504951171875,-0.5321749846140543,0.3106831014156341,-0.4342689414819081,0.6563562154769897,-0.1244369025031725,1.1233063141504924,1.4401393334070842
2.6,1.6888757552723968e+18,77.60239689127604,-5.707996050516765,10.246134122212728,-1.718384901682536,1.6888757552723968e+18,77.60239689127604,-0.7282156546910604,1.8705890985826652,-0.3345963954925537,1.6888757552723968e+18,77.60239689127604,4.956978797912598,-8.3597993850708,1.319075067838033,1.6888757552723968e+18,77.60239689127604,-0.0712676122784614,-2.1646519104639688,1.3022629022598269,1.6888757552723968e+18,77.60239689127604,-0.0719802901148795,-2.1600194772084556,1.3047063052654266,,,,,,,,,,,,1.6888757552659937e+18,77.59599365234375,-17.46307945251465,41.72643890380859,-23.99983940124512,1.6888757552659937e+18,77.59599365234375,-272.8578735351563,136.95963439941406,-157.3580352783203,1.6888757552723968e+18,77.60239689127604,-0.5196191271146139,0.2316295852263768,-0.4395948847134908,0.6948562860488892,-0.260474294424057,1.0195752382278442,1.4302337567011516
2.65,1.6888757553242995e+18,77.65429972330729,-0.7497173150380453,6.7440338134765625,-0.3493485450744629,1.6888757553242995e+18,77.65429972330729,4.061018745104472,-1.7054843703905742,1.1772687037785847,1.6888757553242995e+18,77.65429972330729,4.78793462117513,-8.433773040771484,1.4619037707646687,1.6888757553242995e+18,77.65429972330729,1.2444342970848083,-1.160643955071767,-1.0783298710982006,1.6888757553242995e+18,77.65429972330729,1.243721644083659,-1.1560115814208984,-1.0758864283561709,,,,,,,,,,,,1.688875755315994e+18,77.64599389648438,-15.508639907836914,41.92895965576171,-24.829439163208008,1.688875755315994e+18,77.64599389648438,-270.9034362792969,137.162158203125,-158.18763732910156,1.6888757553242995e+18,77.65429972330729,-0.4904346168041229,0.2117333362499872,-0.4591614802678426,0.7096400459607443,-0.2970101336638132,1.0343483686447144,1.3790212472279866
2.7,1.6888757553762004e+18,77.70620027669271,8.316455205281576,-10.526097297668455,5.0711963176727295,1.6888757553762004e+18,77.70620027669271,12.43270778656006,-19.382461865743,6.262415726979573,1.6888757553762004e+18,77.70620027669271,4.0934507846832275,-8.840619087219238,1.126506010691325,1.6888757553762004e+18,77.70620027669271,-0.0307977944612503,-1.108618646860123,-0.8963938156763712,1.6888757553762004e+18,77.70620027669271,-0.0314595401287078,-1.1039353509744008,-0.8939503828684489,,,,,,,,,,,,1.6888757553660004e+18,77.69600043945312,-10.560319709777833,44.50803909301758,-22.821319580078125,1.6888757553660004e+18,77.69600043945312,-265.9551147460937,139.74123840332032,-156.1795196533203,1.6888757553762004e+18,77.70620027669271,-0.4591717620690663,0.2342670659224192,-0.4858479698499043,0.705697774887085,-0.269577885667483,1.1220159928003948,1.3236738443374634
2.75,1.6888757554194463e+18,77.74944604492188,7.553066730499268,-6.749107360839844,7.628664016723633,1.6888757554194463e+18,77.74944604492188,11.9730863571167,-15.230615615844728,9.961021423339844,1.6888757554194463e+18,77.74944604492188,4.397218227386475,-8.465763568878174,2.267643690109253,1.6888757554194463e+18,77.74944604492188,-1.0691669285297394,-4.533001899719238,2.8211283683776855,1.6888757554194463e+18,77.74944604492188,-1.069854125380516,-4.52834415435791,2.8235719203948975,1.6888757554194516e+18,77.74945166015625,0.0,0.0,1.1595529317855835,6.843999862670898,1.754025101661682,89.05076599121094,39.10000228881836,-122.7512916,49.1905239,1.688875755415996e+18,77.74599584960939,-7.642079830169678,43.20751876831055,-26.06895942687988,1.688875755415996e+18,77.74599584960939,-263.03687744140626,138.4407165527344,-159.42715454101562,1.6888757554194463e+18,77.74944604492188,-0.4428361952304839,0.147515945136547,-0.5034855306148529,0.7267029881477356,-0.4758338779211044,1.0410335063934326,1.3705474734306335
2.8,1.6888757554627018e+18,77.79270190429686,-2.3432459831237793,7.718993186950684,4.005037784576416,1.6888757554627018e+18,77.79270190429686,2.19322141011556,-0.6065801779429117,6.672784646352132,1.6888757554627018e+18,77.79270190429686,4.513665994008382,-8.30982780456543,2.6030333836873374,1.6888757554627018e+18,77.79270190429686,0.1236493090788523,0.5503895779450735,-0.9143634835879008,1.6888757554627018e+18,77.79270190429686,0.1229366262753804,0.5550728489955267,-0.9119199911753336,,,,,,,,,,,,1.6888757554659937e+18,77.79599379882812,-7.532279777526855,42.88055953979492,-26.842439651489254,1.6888757554659937e+18,77.79599379882812,-262.92706909179685,138.11375732421874,-160.2006378173828,1.6888757554627018e+18,77.79270190429686,-0.4291115502516429,0.1142615055044491,-0.5065575043360392,0.7389092048009237,-0.5240876873334249,1.0100218256314597,1.3468019564946492
2.85,1.6888757555146028e+18,77.84460286458334,-12.98678461710612,-13.345459620157875,1.4970307350158691,1.6888757555146028e+18,77.84460286458334,-8.680363019307455,-22.00459639231364,3.3180474837621055,1.6888757555146028e+18,77.84460286458334,4.2836198806762695,-8.643391927083334,1.7563031911849976,1.6888757555146028e+18,77.84460286458334,0.2848668123284976,4.149913032849629,-1.3945544560750325,1.6888757555146028e+18,77.84460286458334,0.2841541444261868,4.154545346895854,-1.3921109636624651,,,,,,,,,,,,1.6888757555159923e+18,77.84599228515626,-10.470039749145508,42.9757194519043,-25.510199356079102,1.6888757555159923e+18,77.84599228515626,-265.8648376464844,138.20891723632812,-158.86839599609374,1.6888757555146028e+18,77.84460286458334,-0.4739948213100433,0.20265893638134,-0.4896289805571238,0.7026588916778564,-0.3883854150772095,1.0778260231018066,1.4206701914469402
2.9,1.6888757555665009e+18,77.89650073242187,-3.720905701319377,2.3128819465637207,-0.9909561475118002,1.6888757555665009e+18,77.89650073242187,-0.6642076174418131,-6.993422985076904,-0.4767698968450227,1.6888757555665009e+18,77.89650073242187,3.033896525700887,-9.290559768676758,0.4494727520893016,1.6888757555665009e+18,77.89650073242187,1.2877548734347026,4.875977198282878,-4.147571484247844,1.6888757555665009e+18,77.89650073242187,1.287093127767245,4.880711476008098,-4.145127932230632,,,,,,,,,,,,1.6888757555659958e+18,77.89599580078125,-8.561959743499756,45.66703872680664,-20.981559371948244,1.6888757555659958e+18,77.89599580078125,-263.9567565917969,140.90023803710938,-154.33975830078126,1.6888757555665009e+18,77.89650073242187,-0.4753931760787964,0.3217840492725372,-0.4893804987271626,0.6544736425081888,-0.1280648619867861,1.2497131029764812,1.3449756701787312
2.95,1.6888757556184005e+18,77.94840047200522,-9.39800707499186,1.9997156461079917,-1.6790972550710042,1.6888757556184005e+18,77.94840047200522,-8.918050130208334,-7.776474157969157,-1.2386844952901204,1.6888757556184005e+18,77.94840047200522,0.4571554362773895,-9.76044464111328,0.3756993059068918,1.6888757556184005e+18,77.94840047200522,-2.363793929417928,4.532569249471028,-5.018563429514567,1.6888757556184005e+18,77.94840047200522,-2.364506642023722,4.53725250562032,-5.016120036443074,,,,,,,,,,,,1.6888757556159913e+18,77.94599145507813,-1.761680018901825,46.10867919921875,-20.47647933959961,1.6888757556159913e+18,77.94599145507813,-257.15647583007814,141.34187927246094,-153.83467712402344,1.6888757556184005e+18,77.94840047200522,-0.4994856417179107,0.4583270748456319,-0.5152365763982137,0.5218777457873026,-0.8748296154662967,1.4765311082204182,0.2717332045237223
3.0,1.6888757556702968e+18,78.00029695638021,-0.2678437232971191,-1.043671449025472,-2.4889851411183677,1.6888757556702968e+18,78.00029695638021,-1.3637095292409267,-10.729017734527588,-1.2426725228627522,1.6888757556702968e+18,78.00029695638021,-1.1186671058336894,-9.669601122538248,1.1815991401672363,1.6888757556702968e+18,78.00029695638021,-0.42852198642989,-0.2588032086690268,-2.135890324910482,1.6888757556702968e+18,78.00029695638021,-0.4291837395479281,-0.2541708548863728,-2.1334468523661294,,,,,,,,,,,,1.6888757556659942e+18,77.99599423828124,3.374519920349121,43.819959259033205,-25.09783935546875,1.6888757556659942e+18,77.99599423828124,-252.02027587890623,139.05315856933595,-158.45603637695314,1.6888757556702968e+18,78.00029695638021,-0.5045785109202067,0.5019581218560537,-0.551839808622996,0.4343614478905995,-2.308234691619873,1.4028520186742146,-2.3837533791859946
3.05,1.6888757557221957e+18,78.05219555664063,9.058232307434082,1.6384234428405762,1.262296477953593,1.6888757557221957e+18,78.05219555664063,7.16092046101888,-7.936992804209392,2.3996023337046304,1.6888757557221957e+18,78.05219555664063,-1.9201134045918784,-9.5596710840861,1.0725923776626587,1.6888757557221957e+18,78.05219555664063,0.5937101046244303,2.694679240385691,-1.4244359334309895,1.6888757557221957e+18,78.05219555664063,0.5930483341217041,2.699362635612488,-1.4219924807548523,,,,,,,,,,,,1.6888757557159895e+18,78.04598950195313,8.188639831542968,43.53691864013672,-24.836759567260746,1.6888757557159895e+18,78.04598950195313,-247.20615234375,138.77011108398438,-158.19495544433593,1.6888757557221957e+18,78.05219555664063,-0.4904544254144032,0.5392360885938009,-0.5534572998682658,0.4021302262941995,-2.628858725229899,1.345266620318095,-2.008884827295939
3.1,1.6888757557740982e+18,78.10409798177083,-0.1198192437489828,3.5851097106933594,-3.1820438305536904,1.6888757557740982e+18,78.10409798177083,-2.1262223422527313,-5.948158264160156,-1.879761608938376,1.6888757557740982e+18,78.10409798177083,-2.029204527537028,-9.517522811889648,1.2375686168670654,1.6888757557740982e+18,78.10409798177083,0.1351539343595504,3.0644054412841797,-0.3273728638887405,1.6888757557740982e+18,78.10409798177083,0.1344412565231323,3.069037834803263,-0.3250312209129333,,,,,,,,,,,,1.6888757557659878e+18,78.09598798828125,6.119519901275635,43.76627883911133,-25.107599639892577,1.6888757557659878e+18,78.09598798828125,-249.27527770996093,138.99947814941407,-158.4657989501953,1.6888757557740982e+18,78.10409798177083,-0.525002916653951,0.5863826076189677,-0.5089074273904165,0.348060925801595,-2.5922249952952066,1.3267157475153606,-1.8630771239598591
3.15,1.6888757558260017e+18,78.15600170898438,1.0450526873270671,-2.176311492919922,-2.2357277075449624,1.6888757558260017e+18,78.15600170898438,-1.1940184831619265,-11.619945526123049,-0.6959126020471255,1.6888757558260017e+18,78.15600170898438,-2.2618726094563804,-9.427888870239258,1.4751017093658447,1.6888757558260017e+18,78.15600170898438,-0.3538945913314819,-0.0512108989059925,-1.355815460284551,1.6888757558260017e+18,78.15600170898438,-0.3545563717683156,-0.046476644774278,-1.3533719380696614,,,,,,,,,,,,1.6888757558159877e+18,78.14598784179688,2.9060399532318115,43.534478759765626,-25.49067916870117,1.6888757558159877e+18,78.14598784179688,-252.4887573242187,138.7676788330078,-158.848876953125,1.6888757558260017e+18,78.15600170898438,-0.5358482201894125,0.6078017155329386,-0.4953433672587077,0.3128810922304789,-2.5588534673055015,1.2923024495442708,-1.81317941347758
3.2,1.688875755869248e+18,78.19924780273438,6.900526046752931,-3.812037944793701,-5.527547597885132,1.688875755869248e+18,78.19924780273438,4.077369749546051,-13.083355903625488,-3.893421530723572,1.688875755869248e+18,78.19924780273438,-2.845957517623902,-9.25557279586792,1.5694125890731812,1.688875755869248e+18,78.19924780273438,-0.7793876826763153,0.0081703066825866,-0.4395939409732818,1.688875755869248e+18,78.19924780273438,-0.7800749242305756,0.0129045248031616,-0.4372267723083496,,,,,,,,,,,,1.6888757558659937e+18,78.19599345703125,7.024759769439697,42.35595932006836,-26.3251594543457,1.6888757558659937e+18,78.19599345703125,-248.37003173828128,137.5891571044922,-159.68335571289063,1.688875755869248e+18,78.19924780273438,-0.5118115544319153,0.6108287870883942,-0.5210842490196228,0.3055858612060547,-2.6363284587860107,1.233712911605835,-1.774695634841919
3.25,1.6888757559125074e+18,78.24250748697916,2.758727471033733,-5.582159042358398,-7.033178329467773,1.6888757559125074e+18,78.24250748697916,0.1876370509465535,-14.92523161570231,-5.391627709070842,1.6888757559125074e+18,78.24250748697916,-2.5938920180002847,-9.327327410380043,1.576837142308553,1.6888757559125074e+18,78.24250748697916,0.4504113097985585,-0.4429791073004405,0.558279941479365,1.6888757559125074e+18,78.24250748697916,0.449749544262886,-0.4383467237154643,0.5607233941555023,1.688875755938458e+18,78.26845776367188,0.0,0.0,1.1707119941711426,6.85699987411499,1.7611864805221558,88.6631088256836,39.10000228881836,-122.751288,49.1905254,1.6888757559159946e+18,78.24599462890625,6.661199760437012,42.4023193359375,-26.866839599609374,1.6888757559159946e+18,78.24599462890625,-248.7335968017578,137.6355194091797,-160.22503662109375,1.6888757559125074e+18,78.24250748697916,-0.5211225350697836,0.6052379806836446,-0.5152379274368286,0.3107495208581288,-2.594745318094889,1.2566876411437988,-1.8123228947321577
3.3,1.688875755964409e+18,78.2944090983073,-0.7030071020126343,-4.892057100931804,-0.2751778960227966,1.688875755964409e+18,78.2944090983073,-2.396611213684082,-14.496317863464355,0.8572287360827128,1.688875755964409e+18,78.2944090983073,-1.7164055903752644,-9.588515599568684,1.0676931341489155,1.688875755964409e+18,78.2944090983073,1.1665999094645183,0.2128865321477254,2.8020898501078286,1.688875755964409e+18,78.2944090983073,1.165887216726939,0.2175189405679702,2.8045331637064614,,,,,,,,,,,,1.6888757559659945e+18,78.29599462890626,2.6156799361109733,43.85899963378906,-24.50735969543457,1.6888757559659945e+18,78.29599462890626,-252.77911682128905,139.09219665527343,-157.8655578613281,1.688875755964409e+18,78.2944090983073,-0.5387969613075256,0.5923536618550619,-0.4857361714045207,0.3497535785039266,-2.572208563486735,1.3634864886601763,-1.841744701067607
3.35,1.6888757560163092e+18,78.34630924479167,-4.77621587117513,-7.922511100769043,3.8415990670522056,1.6888757560163092e+18,78.34630924479167,-4.993222554524739,-17.728622754414875,4.2091743151346845,1.6888757560163092e+18,78.34630924479167,-0.2398081620534261,-9.790366490681969,0.3028617165982723,1.6888757560163092e+18,78.34630924479167,1.493870973587036,-2.15487802028656,3.186476707458496,1.6888757560163092e+18,78.34630924479167,1.4931583007176716,-2.1502965688705444,3.188920180002848,,,,,,,,,,,,1.6888757560159956e+18,78.34599580078125,-3.01583991125226,45.82563858032226,-21.447599792480467,1.6888757560159956e+18,78.34599580078125,-258.41063232421874,141.058837890625,-154.80579833984376,1.6888757560163092e+18,78.34630924479167,-0.5560426115989685,0.5562015573183695,-0.4496274391810099,0.4223058422406514,-1.6692599107821782,1.5144565105438232,-0.7076683839162191
3.4,1.6888757560682056e+18,78.39820548502604,-3.5564691027005515,-9.089970588684082,9.80426343282064,1.6888757560682056e+18,78.39820548502604,-1.9112671613693235,-18.758931477864586,10.245468139648438,1.6888757560682056e+18,78.39820548502604,1.622400442759196,-9.653215726216636,0.3764912262558937,1.6888757560682056e+18,78.39820548502604,-0.766126831372579,-2.1254547437032065,3.663053512573242,1.6888757560682056e+18,78.39820548502604,-0.7667376895745596,-2.1207714478174844,3.6654459635416665,,,,,,,,,,,,1.6888757560659937e+18,78.39599379882813,-9.820999717712402,45.27907867431641,-21.652559280395508,1.6888757560659937e+18,78.39599379882813,-265.2157897949219,140.51227722167968,-155.01075439453126,1.6888757560682056e+18,78.39820548502604,-0.5825220346450806,0.4758700629075368,-0.4356867869695027,0.4934369921684265,-0.2088369677464167,1.3988308509190877,1.9094688495000205
3.45,1.688875756120109e+18,78.45010896809896,-1.0716320276260376,-0.4631543159484863,-0.2770098050435384,1.688875756120109e+18,78.45010896809896,1.7798611919085183,-9.838688373565674,0.508075992266337,1.688875756120109e+18,78.45010896809896,2.8286917209625244,-9.35978889465332,0.7203723192214966,1.688875756120109e+18,78.45010896809896,0.903164287408193,-3.0185396671295166,2.4804183642069497,1.688875756120109e+18,78.45010896809896,0.9024515946706136,-3.013907273610433,2.4828618367513022,,,,,,,,,,,,1.688875756115994e+18,78.44599404296875,-12.526959991455078,43.70283889770508,-23.392279815673827,1.688875756115994e+18,78.44599404296875,-267.9217529296875,138.93603515625,-156.75047912597657,1.688875756120109e+18,78.45010896809896,-0.5725826819737753,0.3920358816782633,-0.4488465388615926,0.5623720288276672,-0.2539748599131902,1.2674105167388916,1.7775181531906128
3.5,1.6888757561720102e+18,78.50201025390625,-10.127926190694174,10.33968416849772,-0.979293445746104,1.6888757561720102e+18,78.50201025390625,-6.186044851938884,1.3561322689056396,-0.3064807057380677,1.6888757561720102e+18,78.50201025390625,3.919080177942912,-8.967806816101074,0.6080992420514425,1.6888757561720102e+18,78.50201025390625,0.5319618160525957,-2.228538235028585,2.378047545750936,1.6888757561720102e+18,78.50201025390625,0.5312491276611885,-2.2239567836125693,2.380490938822428,,,,,,,,,,,,1.688875756165994e+18,78.49599384765625,-15.850239562988282,43.078199005126955,-22.372359466552737,1.688875756165994e+18,78.49599384765625,-271.2450378417969,138.3113983154297,-155.73055725097657,1.6888757561720102e+18,78.50201025390625,-0.5599031448364258,0.3380103905995686,-0.4305007557074229,0.6215824484825134,-0.1538682083288828,1.1535929441452026,1.5667524735132854
3.55,1.688875756223911e+18,78.55391097005209,-9.467946688334148,11.301015853881836,-1.7191755374272664,1.688875756223911e+18,78.55391097005209,-4.788038015365601,2.7631119092305503,-0.3040878673394521,1.688875756223911e+18,78.55391097005209,4.6571071942647295,-8.5221586227417,1.350374182065328,1.688875756223911e+18,78.55391097005209,-0.308894192179044,-3.232698917388916,1.8015434344609575,1.688875756223911e+18,78.55391097005209,-0.309606874982516,-3.2281174659729004,1.80398690700531,,,,,,,,,,,,1.688875756215996e+18,78.54599584960938,-17.177599716186524,41.55319900512696,-24.4512393951416,1.688875756215996e+18,78.54599584960938,-272.5723876953125,136.7863983154297,-157.80943908691407,1.688875756223911e+18,78.55391097005209,-0.5414828260739645,0.2563920815785726,-0.4428200622399648,0.6665716767311096,-0.2810703665018081,1.0523516337076824,1.5279188950856526
3.6,1.6888757562758103e+18,78.60581030273437,0.0105306307474772,6.7344919840494795,0.4180833101272583,1.6888757562758103e+18,78.60581030273437,4.793820718924205,-1.655833264191945,2.3351955016454062,1.6888757562758103e+18,78.60581030273437,4.760488669077556,-8.374580065409342,1.8523987134297688,1.6888757562758103e+18,78.60581030273437,0.8964447379112244,-1.380860875050227,-0.1411098639170328,1.6888757562758103e+18,78.60581030273437,0.8957320700089136,-1.3761775692303977,-0.1387173185745875,,,,,,,,,,,,1.6888757562659876e+18,78.59598779296876,-15.933200073242189,40.65527877807617,-26.76923942565918,1.6888757562659876e+18,78.59598779296876,-271.32799072265624,135.8884735107422,-160.12743530273437,1.6888757562758103e+18,78.60581030273437,-0.5157267649968466,0.2081810534000396,-0.4623302519321441,0.6905148426691691,-0.3715263307094574,1.0223042567571003,1.4929553667704265
3.65,1.688875756319063e+18,78.64906298828126,7.455603361129761,1.854649782180786,3.5336546897888184,1.688875756319063e+18,78.64906298828126,11.691331386566162,-6.919444799423218,4.90408992767334,1.688875756319063e+18,78.64906298828126,4.212926626205444,-8.758349418640137,1.3057217597961426,1.688875756319063e+18,78.64906298828126,1.8877263069152832,0.4270711690187454,-2.493475556373596,1.688875756319063e+18,78.64906298828126,1.887039065361023,0.4317290261387825,-2.491032123565674,,,,,,,,,,,,1.6888757563159977e+18,78.6459978515625,-12.651399993896485,42.93911972045898,-24.941679382324217,1.6888757563159977e+18,78.6459978515625,-268.04619140625,138.1723205566406,-158.2998779296875,1.688875756319063e+18,78.64906298828126,-0.4826858639717102,0.2364519089460372,-0.4785041660070419,0.6942239105701447,-0.3001789152622222,1.1034615635871887,1.4003331661224363
3.7,1.6888757563623124e+18,78.69231217447917,4.458129167556763,-14.914496421813965,5.563736120859782,1.6888757563623124e+18,78.69231217447917,8.401200294494629,-23.79602305094401,7.078766981760661,1.6888757563623124e+18,78.69231217447917,3.920269886652629,-8.865781784057617,1.4503173828125,1.6888757563623124e+18,78.69231217447917,-0.7334455524881681,-2.3769275546073914,1.1927144130071003,1.6888757563623124e+18,78.69231217447917,-0.7341072956720988,-2.3722952008247375,1.1951578458150227,,,,,,,,,,,,1.6888757563659917e+18,78.69599169921875,-8.71079978942871,44.20547943115234,-24.143799591064457,1.6888757563659917e+18,78.69599169921875,-264.1055969238281,139.4386779785156,-157.5019958496094,1.6888757563623124e+18,78.69231217447917,-0.4672919710477193,0.2281996806462605,-0.4971837401390075,0.693991482257843,-0.3514642715454101,1.128949721654256,1.4082530736923218
3.75,1.6888757564142103e+18,78.74421044921876,6.0025397936503095,5.593443552652995,2.0715197722117105,1.6888757564142103e+18,78.74421044921876,10.41735299428304,-2.9134609699249268,4.335395812988281,1.6888757564142103e+18,78.74421044921876,4.392011324564616,-8.491159439086914,2.199162483215332,1.6888757564142103e+18,78.74421044921876,0.5799147188663482,-1.865887900193532,0.1317941745122273,1.6888757564142103e+18,78.74421044921876,0.5792020757993063,-1.861204554637273,0.1341867546240488,,,,,,,,,,,,1.6888757564159951e+18,78.74599521484376,-8.622959613800049,42.970838928222655,-25.873759841918947,1.6888757564159951e+18,78.74599521484376,-264.01775512695315,138.20403747558595,-159.2319580078125,1.6888757564142103e+18,78.74421044921876,-0.4393312136332194,0.1493631104628244,-0.5035796562830607,0.7286516626675924,-0.4650047421455383,1.0456588665644329,1.3563931783040364
3.8,1.6888757564661133e+18,78.7961131998698,-16.957066535949707,-7.735194524129232,4.80194095770518,1.6888757564661133e+18,78.7961131998698,-12.908480326334637,-16.545571009318035,6.487540245056152,1.6888757564661133e+18,78.7961131998698,4.025784810384114,-8.794631322224935,1.6208858887354534,1.6888757564661133e+18,78.7961131998698,-0.1129591663678486,4.369722843170166,-1.136667509873708,1.6888757564661133e+18,78.7961131998698,-0.1135700345039367,4.37435515721639,-1.1342749694983163,1.6888757564574633e+18,78.78746337890625,0.0,0.0,1.1707119941711426,6.9029998779296875,1.7661020755767822,87.6188735961914,39.10000228881836,-122.7512638,49.190529,1.6888757564659942e+18,78.79599409179687,-8.854759788513183,43.58571853637695,-25.20275955200195,1.6888757564659942e+18,78.79599409179687,-264.249560546875,138.81891479492188,-158.5609588623047,1.6888757564661133e+18,78.7961131998698,-0.4666217565536499,0.214280754327774,-0.4979383746782939,0.6981024742126465,-0.3823424478371938,1.111181338628133,1.4173349539438884
3.85,1.6888757565180106e+18,78.84801049804688,-1.0393386681874592,1.4127211570739746,-1.6471972068150835,1.6888757565180106e+18,78.84801049804688,2.1607189178466797,-7.828318436940511,-0.7760721544424692,1.6888757565180106e+18,78.84801049804688,3.1772562662760415,-9.22529443105062,0.8064115941524506,1.6888757565180106e+18,78.84801049804688,0.920675754547119,2.865619803468386,-3.675525228182474,1.6888757565180106e+18,78.84801049804688,0.9200139741102854,2.8702521324157715,-3.673081795374552,,,,,,,,,,,,1.6888757565159936e+18,78.84599360351562,-8.737639808654786,44.77643814086914,-22.37479934692383,1.6888757565159936e+18,78.84599360351562,-264.1324401855469,140.00963439941407,-155.73299865722657,1.6888757565180106e+18,78.84801049804688,-0.4717604120572408,0.2944738566875458,-0.4998436172803243,0.6627751390139262,-0.2418450663487116,1.2283848921457925,1.4070195357004802
3.9,1.688875756569914e+18,78.89991398111978,-10.586662928263346,0.9790164629618326,-1.604098558425903,1.688875756569914e+18,78.89991398111978,-9.743374506632486,-8.776474793752035,-1.0133604009946189,1.688875756569914e+18,78.89991398111978,0.8204873750607172,-9.73974609375,0.5260246992111206,1.688875756569914e+18,78.89991398111978,-1.667509416739146,4.913189093271892,-4.58016578356425,1.688875756569914e+18,78.89991398111978,-1.6681711475054424,4.917770703633626,-4.577773332595825,,,,,,,,,,,,1.688875756565998e+18,78.89599809570312,-2.3765599966049193,45.967159271240234,-21.464679718017575,1.688875756565998e+18,78.89599809570312,-257.77135314941404,141.20035705566406,-154.8228759765625,1.688875756569914e+18,78.89991398111978,-0.4950169324874878,0.4285074472427368,-0.5228987336158752,0.5437045097351074,-0.7106852382421494,1.4565504789352417,2.1378673315048218
3.95,1.6888757566218158e+18,78.95181599934897,-2.0533355077107753,-1.98659086227417,-3.183276414871216,1.6888757566218158e+18,78.95181599934897,-2.566302220026652,-11.7172532081604,-1.902493437131246,1.6888757566218158e+18,78.95181599934897,-0.5357679277658463,-9.714917182922363,1.216069499651591,1.6888757566218158e+18,78.95181599934897,-0.3993022193511326,0.1807652314503987,-2.1045325994491577,1.6888757566218158e+18,78.95181599934897,-0.3999640218292673,0.1853976349035898,-2.1021399895350137,,,,,,,,,,,,1.688875756615994e+18,78.94599389648438,1.5396399199962616,43.81263885498047,-25.19787979125977,1.688875756615994e+18,78.94599389648438,-253.8551513671875,139.04583740234375,-158.5560760498047,1.6888757566218158e+18,78.95181599934897,-0.5128332475821177,0.4768448074658711,-0.5471969048182169,0.4582010408242543,-1.9667436679204304,1.4318711360295613,-2.7614057064056396
4.0,1.6888757566737172e+18,79.00371712239583,7.179664293924968,1.833282470703125,0.0370586911837259,1.6888757566737172e+18,79.00371712239583,5.601597944895427,-7.818348566691081,0.9854441285133362,1.6888757566737172e+18,79.00371712239583,-1.6008675495783489,-9.635885874430338,0.8836719592412313,1.6888757566737172e+18,79.00371712239583,0.9181304772694906,1.859524726867676,-1.917811433474223,1.6888757566737172e+18,79.00371712239583,0.9174686868985494,1.8641571352879207,-1.9153680006663003,,,,,,,,,,,,1.6888757566659945e+18,78.99599443359375,7.195559787750244,43.939518737792966,-23.843679428100582,1.6888757566659945e+18,78.99599443359375,-248.1992370605469,139.17271728515624,-157.20187683105468,1.6888757566737172e+18,79.00371712239583,-0.4806587596734364,0.5173337260882059,-0.5596762100855509,0.4331168631712594,-2.6280619303385415,1.383161743481954,-2.07908054192861
4.05,1.6888757567256123e+18,79.05561238606771,2.2514952023824057,2.2424168586730957,-0.2572433153788249,1.6888757567256123e+18,79.05561238606771,0.3198406298955281,-7.349554856618245,0.6484549442927042,1.6888757567256123e+18,79.05561238606771,-1.954456090927124,-9.576226552327476,0.8409848014513651,1.6888757567256123e+18,79.05561238606771,0.4448626165588696,2.9832112789154053,-0.7641924222310384,1.6888757567256123e+18,79.05561238606771,0.444200853506724,2.987894614537557,-0.7617489695549011,,,,,,,,,,,,1.6888757567159918e+18,79.04599194335938,7.122359752655029,44.425078582763675,-23.065319442749026,1.6888757567159918e+18,79.04599194335938,-248.2724365234375,139.6582794189453,-156.42351989746095,1.6888757567256123e+18,79.05561238606771,-0.5045444468657175,0.573792020479838,-0.5194035569826762,0.3821227351824443,-2.7335870265960693,1.3528615236282349,-1.8006517092386882
4.1,1.6888757567775078e+18,79.1075077311198,1.360909740130107,-0.9806480407714844,-1.1642895936965942,1.6888757567775078e+18,79.1075077311198,-0.8522436618804932,-10.48136075337728,0.0153539478778839,1.6888757567775078e+18,79.1075077311198,-2.235954920450846,-9.484967549641928,1.1149300734202068,1.6888757567775078e+18,79.1075077311198,-0.5423974295457205,0.7536040941874186,-0.9779952764511108,1.6888757567775078e+18,79.1075077311198,-0.5430591901143392,0.7582874298095703,-0.9755517840385436,,,,,,,,,,,,1.6888757567659884e+18,79.09598842773437,5.724239921569824,44.41287841796875,-23.370318984985353,1.6888757567659884e+18,79.09598842773437,-249.6705535888672,139.64607849121094,-156.7285186767578,1.6888757567775078e+18,79.1075077311198,-0.5191226204236349,0.5994715094566345,-0.5041753649711609,0.341836929321289,-2.6782604853312173,1.3139058748881025,-1.758391499519348
4.15,1.6888757568207585e+18,79.15075842285157,6.807471752166748,-4.5102314949035645,-5.0984625816345215,1.6888757568207585e+18,79.15075842285157,4.158426761627197,-13.869996547698976,-3.6987056732177734,1.6888757568207585e+18,79.15075842285157,-2.671846389770508,-9.344019889831545,1.3350434303283691,1.6888757568207585e+18,79.15075842285157,-0.7909941375255585,-0.283670574426651,-0.6432410832494497,1.6888757568207585e+18,79.15075842285157,-0.7916813492774963,-0.2789363265037536,-0.6408739890903236,,,,,,,,,,,,1.6888757568159898e+18,79.14598974609376,7.632319831848145,42.987918853759766,-25.13687973022461,1.6888757568159898e+18,79.14598974609376,-247.7624755859375,138.2211181640625,-158.49507751464844,1.6888757568207585e+18,79.15075842285157,-0.5056441128253937,0.5998430848121643,-0.5253526866436005,0.3294021040201187,-2.677319288253784,1.2620593309402466,-1.780633568763733
4.2,1.6888757568640064e+18,79.19400659179688,2.5780370235443115,-5.451856295267741,-7.939704895019531,1.6888757568640064e+18,79.19400659179688,0.1593221426010131,-14.860824267069498,-6.451648076375325,1.6888757568640064e+18,79.19400659179688,-2.441516319910685,-9.39322280883789,1.4233433802922566,1.6888757568640064e+18,79.19400659179688,0.260992169380188,0.1587231482068697,0.6254751086235046,1.6888757568640064e+18,79.19400659179688,0.2603813012440999,0.1633555342753727,0.6279185712337494,,,,,,,,,,,,1.688875756865987e+18,79.19598740234376,7.10527982711792,42.58531951904297,-25.43455924987793,1.688875756865987e+18,79.19598740234376,-248.28951721191407,137.81851806640626,-158.79275207519532,1.6888757568640064e+18,79.19400659179688,-0.517793337504069,0.5962451100349426,-0.5182125767072042,0.3283189137776692,-2.6127323309580484,1.2791699568430583,-1.8284438848495483
4.25,1.6888757569159137e+18,79.24591357421876,4.1518856684366865,-1.595470110575358,0.3723012606302897,1.6888757569159137e+18,79.24591357421876,2.406182646751404,-11.192029317220053,1.508076508839925,1.6888757569159137e+18,79.24591357421876,-1.7685045003890991,-9.580814043680826,1.0710617701212566,1.6888757569159137e+18,79.24591357421876,0.669355591138204,0.4002185662587483,2.2768474419911704,1.6888757569159137e+18,79.24591357421876,0.6686938206354777,0.4048509299755096,2.2792909741401672,,,,,,,,,,,,1.6888757569159905e+18,79.24599042968751,5.441199898719788,43.575959014892575,-23.95103988647461,1.6888757569159905e+18,79.24599042968751,-249.9535949707031,138.8091583251953,-157.30923767089843,1.6888757569159137e+18,79.24591357421876,-0.5309100349744161,0.5849454800287882,-0.4973988036314646,0.3579378028710683,-2.5804475943247476,1.3582711219787598,-1.869151751200358
4.3,1.688875756967814e+18,79.29781412760417,-8.082107543945312,-8.299417813618978,0.2444718281428019,1.688875756967814e+18,79.29781412760417,-8.32044251759847,-18.09731610616048,0.8255238303293785,1.688875756967814e+18,79.29781412760417,-0.2611362685759862,-9.782153129577637,0.5163385619719824,1.688875756967814e+18,79.29781412760417,1.6335554520289104,-1.4206180274486542,3.003624359766642,1.688875756967814e+18,79.29781412760417,1.6328428188959758,-1.4159856239954631,3.006067911783854,1.6888757569764698e+18,79.3064697265625,0.0,0.0,1.1802725791931152,6.927000045776367,1.7704776525497437,86.63877868652344,39.10000228881836,-122.7512545,49.1905312,1.6888757569659958e+18,79.29599584960938,-2.8377199292182924,45.45963897705078,-22.45531997680664,1.6888757569659958e+18,79.29599584960938,-258.2325103759766,140.69284057617188,-155.81351318359376,1.688875756967814e+18,79.29781412760417,-0.5627682606379191,0.5548790494600931,-0.4526065587997436,0.4120342036088307,-1.6880353291829426,1.5033859411875408,-0.6760489145914713
4.35,1.68887575701972e+18,79.34971988932291,-0.9980143308639526,-8.170121192932129,7.854302088419597,1.68887575701972e+18,79.34971988932291,0.4675974100828171,-17.868801752726238,8.177870273590088,1.68887575701972e+18,79.34971988932291,1.4428102572758992,-9.68293539683024,0.2588547927637895,1.68887575701972e+18,79.34971988932291,-0.6117815375328064,-2.7300585905710855,3.773772716522217,1.68887575701972e+18,79.34971988932291,-0.6124942302703857,-2.725426197052002,3.7762162685394287,,,,,,,,,,,,1.688875757015996e+18,79.34599589843751,-7.649399852752685,45.8963981628418,-20.45207977294922,1.688875757015996e+18,79.34599589843751,-263.04420166015626,141.1295959472656,-153.81027526855468,1.68887575701972e+18,79.34971988932291,-0.5696672399838766,0.4792142808437347,-0.4423329333464305,0.4990329345067342,-0.1396275013685226,1.4191138744354248,1.818288842837016
4.4,1.6888757570716204e+18,79.40162052408853,-2.1790919303894043,-1.965370814005534,3.970185418923696,1.6888757570716204e+18,79.40162052408853,0.7547361453374227,-11.299506505330404,4.946961522102356,1.6888757570716204e+18,79.40162052408853,2.9110267162323,-9.318390528361002,0.912062684694926,1.6888757570716204e+18,79.40162052408853,0.3715078830718994,-3.301624854405721,2.7425305048624673,1.6888757570716204e+18,79.40162052408853,0.3707952201366424,-3.2969415187835693,2.744922955830892,,,,,,,,,,,,1.6888757570659896e+18,79.39598984375,-12.602599716186525,43.63695831298829,-23.916879653930664,1.6888757570659896e+18,79.39598984375,-267.9973937988281,138.87015686035156,-157.27507629394532,1.6888757570716204e+18,79.40162052408853,-0.5783700346946716,0.3835950593153636,-0.451271931330363,0.5601021846135458,-0.3045246501763661,1.2536853551864624,1.8251206080118816
4.45,1.6888757571235182e+18,79.45351814778645,-9.809515158335367,7.364658196767171,-1.5988520781199138,1.6888757571235182e+18,79.45351814778645,-5.800002634525299,-1.5736796458562214,-0.727418065071106,1.6888757571235182e+18,79.45351814778645,3.986711184183757,-8.922592480977377,0.806720495223999,1.6888757571235182e+18,79.45351814778645,0.9804896314938863,-1.784846405188243,2.4406611919403076,1.6888757571235182e+18,79.45351814778645,0.9797769784927368,-1.7802140712738037,2.4431045850118003,,,,,,,,,,,,1.688875757115996e+18,79.44599594726563,-15.274399948120116,42.702439880371095,-23.882719421386717,1.688875757115996e+18,79.44599594726563,-270.6691955566406,137.93563842773438,-157.24091796875,1.6888757571235182e+18,79.45351814778645,-0.5625579555829366,0.3273897369702657,-0.4348475535710652,0.6219011942545573,-0.2010243783394495,1.1422990560531616,1.6007736921310425
4.5,1.688875757175421e+18,79.50542089843749,-9.83629576365153,10.467602729797363,-2.9770389397939048,1.688875757175421e+18,79.50542089843749,-4.96052082379659,2.0546370347340903,-1.4863416353861492,1.688875757175421e+18,79.50542089843749,4.852973461151123,-8.397220611572266,1.4259839455286665,1.688875757175421e+18,79.50542089843749,-0.3591887628038723,-3.2282700538635254,2.3928609689076743,1.688875757175421e+18,79.50542089843749,-0.3597996234893799,-3.2235867977142334,2.395253578821818,,,,,,,,,,,,1.6888757571659932e+18,79.49599321289062,-17.733919525146483,41.67763977050781,-24.397558975219727,1.6888757571659932e+18,79.49599321289062,-273.1287109375,136.91083984375,-157.7557586669922,1.688875757175421e+18,79.50542089843749,-0.5415612459182739,0.2444186160961786,-0.4382437368233998,0.6739359100659689,-0.2841808448235194,1.0276402235031128,1.51440433661143
4.55,1.688875757227322e+18,79.55732210286459,-2.202806075414022,7.517452239990234,0.1392244497934978,1.688875757227322e+18,79.55732210286459,3.029911677042643,-0.5433701475461324,2.292722920576731,1.688875757227322e+18,79.55732210286459,5.209916273752849,-8.045077006022135,2.0887849728266397,1.688875757227322e+18,79.55732210286459,0.4817690352598826,-1.6721417903900146,0.389019360144933,1.688875757227322e+18,79.55732210286459,0.4810563772916793,-1.667560299237569,0.3914628227551778,,,,,,,,,,,,1.6888757572159985e+18,79.5459984375,-17.86811981201172,39.38403854370117,-27.340199279785157,1.6888757572159985e+18,79.5459984375,-273.26292114257814,134.617236328125,-160.69839782714843,1.688875757227322e+18,79.55732210286459,-0.5243797500928243,0.1830643266439438,-0.4479369024435679,0.7005141377449036,-0.3815910518169403,0.9608930349349974,1.4857862790425618
4.6,1.6888757572705715e+18,79.60057165527344,7.047272443771362,4.2179155349731445,2.436487913131714,1.6888757572705715e+18,79.60057165527344,11.7191481590271,-4.260420799255371,4.199702858924866,1.6888757572705715e+18,79.60057165527344,4.64907431602478,-8.462591171264648,1.698501467704773,1.6888757572705715e+18,79.60057165527344,2.3105978965759277,0.130496084690094,-3.016910672187805,1.6888757572705715e+18,79.60057165527344,2.309910535812378,0.1350775696337223,-3.014467239379883,,,,,,,,,,,,1.688875757265995e+18,79.59599487304688,-14.535079383850098,41.59955978393555,-26.19095993041992,1.688875757265995e+18,79.59599487304688,-269.9298828125,136.83275756835937,-159.54915466308594,1.6888757572705715e+18,79.60057165527344,-0.4896465092897415,0.2034364193677901,-0.4703280478715896,0.7052180469036102,-0.349571943283081,1.0408120155334473,1.4150237441062927
4.65,1.6888757573138235e+18,79.64382324218751,5.162362416585286,-10.643728415171305,4.994941790898641,1.6888757573138235e+18,79.64382324218751,8.987043062845865,-19.610178470611572,6.331209182739258,1.6888757573138235e+18,79.64382324218751,3.801879326502482,-8.950704574584961,1.2715537945429485,1.6888757573138235e+18,79.64382324218751,0.0190895497798919,-1.048448344071706,-0.9316203594207764,1.6888757573138235e+18,79.64382324218751,0.0184786717096964,-1.0438668827215831,-0.929176926612854,,,,,,,,,,,,1.688875757315993e+18,79.64599345703125,-8.293559741973876,44.70079879760742,-23.506959915161133,1.688875757315993e+18,79.64599345703125,-263.6883544921875,139.93399963378906,-156.8651580810547,1.6888757573138235e+18,79.64382324218751,-0.4619813064734141,0.2386268973350525,-0.4988305370012919,0.6932278672854105,-0.3231948514779408,1.1486798922220869,1.3858803510665894
4.7,1.688875757365724e+18,79.69572379557292,6.548326810201009,-5.245795567830404,7.284248987833659,1.688875757365724e+18,79.69572379557292,10.840483665466309,-13.821741104125977,9.505687395731607,1.688875757365724e+18,79.69572379557292,4.269355456034343,-8.560200373331705,2.1567248503367105,1.688875757365724e+18,79.69572379557292,-0.3625485276182492,-2.6015732884407043,2.043853362401326,1.688875757365724e+18,79.69572379557292,-0.3632102807362874,-2.596940795580546,2.046296715736389,,,,,,,,,,,,1.6888757573659983e+18,79.69599848632814,-7.583519840240479,43.45151901245117,-26.093359756469727,1.6888757573659983e+18,79.69599848632814,-262.9783142089844,138.68471984863282,-159.4515594482422,1.688875757365724e+18,79.69572379557292,-0.4429845114549001,0.1585283229748407,-0.5066153605779012,0.7221088806788126,-0.4674347341060638,1.0605454047520957,1.3777926762898762
4.75,1.6888757574176228e+18,79.74762288411459,-11.972057819366457,-2.065723419189453,-1.4493590990702312,1.6888757574176228e+18,79.74762288411459,-7.406783262888591,-10.439087629318236,1.0125627120335896,1.6888757574176228e+18,79.74762288411459,4.5424729983011884,-8.357618967692057,2.397208452224731,1.6888757574176228e+18,79.74762288411459,-0.6696610202391943,1.500844995180766,-0.384386936823527,1.6888757574176228e+18,79.74762288411459,-0.6703737278779348,1.5054774284362793,-0.3819943914810816,,,,,,,,,,,,1.688875757415998e+18,79.74599775390625,-9.752679824829102,42.16075897216797,-27.171839904785156,1.688875757415998e+18,79.74599775390625,-265.14747314453126,137.39395446777343,-160.53003845214843,1.6888757574176228e+18,79.74762288411459,-0.4593229591846466,0.1466180185476938,-0.4966973960399627,0.7215744853019714,-0.4858836730321248,1.019085129102071,1.4089630444844563
4.8,1.688875757469525e+18,79.79952490234375,-4.183775583902994,5.114999930063884,-1.7102099061012268,1.688875757469525e+18,79.79952490234375,-0.3625125487645467,-3.792424519856771,-0.0979063113530476,1.688875757469525e+18,79.79952490234375,3.798461596171061,-8.891679128011068,1.5475901166598005,1.688875757469525e+18,79.79952490234375,1.6541212399800618,3.434895277023315,-3.02846622467041,1.688875757469525e+18,79.79952490234375,1.653510371843974,3.439578572909037,-3.026073773701986,,,,,,,,,,,,1.6888757574659958e+18,79.79599584960938,-9.203679656982422,43.305118560791016,-24.70011978149414,1.6888757574659958e+18,79.79599584960938,-264.5984741210938,138.53831787109374,-158.05831604003907,1.688875757469525e+18,79.79952490234375,-0.4595384200414021,0.2213900883992512,-0.5057538747787476,0.6946484049161276,-0.3788926601409912,1.1369318167368572,1.4105713367462158
4.85,1.688875757521424e+18,79.85142415364584,-8.538125356038412,-0.5095965067545573,0.5422642827033995,1.688875757521424e+18,79.85142415364584,-6.93459939956665,-10.150952021280924,1.1657034158706665,1.688875757521424e+18,79.85142415364584,1.580724835395813,-9.6256103515625,0.5587256550788879,1.688875757521424e+18,79.85142415364584,-1.1365147829055786,6.448649883270264,-6.1179680824279785,1.688875757521424e+18,79.85142415364584,-1.1371765236059823,6.453282197316487,-6.115575631459554,1.6888757574954765e+18,79.8254765625,0.0,0.0,1.1802725791931152,6.948999881744385,1.7741599082946775,86.2173843383789,39.10000228881836,-122.7512405,49.1905328,1.6888757575159936e+18,79.84599375,-5.231359887123108,45.89639892578125,-21.332919692993165,1.6888757575159936e+18,79.84599375,-260.62615356445315,141.1295959472656,-154.6911163330078,1.688875757521424e+18,79.85142415364584,-0.4877438843250274,0.3868495424588521,-0.5171708663304647,0.583705484867096,-0.4651756038268407,1.3916853268941245,1.8075415293375652
4.9,1.6888757575733207e+18,79.90332063802083,-7.120914260546367,-5.873728116353352,-2.879130204518636,1.6888757575733207e+18,79.90332063802083,-7.561518828074138,-15.603796005249023,-1.5537394682566326,1.6888757575733207e+18,79.90332063802083,-0.4634058872858683,-9.714322725931805,1.2606772184371948,1.6888757575733207e+18,79.90332063802083,-0.9659306903680166,2.089515407880147,-2.4346543550491333,1.6888757575733207e+18,79.90332063802083,-0.9666433731714884,2.0941988229751587,-2.4322617451349893,,,,,,,,,,,,1.6888757575659958e+18,79.89599580078125,0.4147999793291091,44.15667877197266,-24.670840072631837,1.6888757575659958e+18,79.89599580078125,-254.97999572753903,139.38987731933594,-158.02903747558594,1.6888757575733207e+18,79.90332063802083,-0.5225567022959391,0.482240488131841,-0.5390669504801432,0.4510898292064667,-1.9028568267822263,1.4319556951522827,-2.794846693674723
4.95,1.6888757576252209e+18,79.95522086588541,7.501926263173421,2.6109164555867515,-1.5517719984054563,1.6888757576252209e+18,79.95522086588541,6.082156419754028,-7.038687070210774,-0.3579263687133789,1.6888757576252209e+18,79.95522086588541,-1.4425710837046306,-9.633858362833658,1.1291321118672688,1.6888757576252209e+18,79.95522086588541,0.3497712636987368,-0.582969069480896,-1.963524580001831,1.6888757576252209e+18,79.95522086588541,0.3491603881120682,-0.5783366759618123,-1.9611828724543257,,,,,,,,,,,,1.688875757615993e+18,79.94599335937501,4.789719867706299,43.7565200805664,-25.10515937805176,1.688875757615993e+18,79.94599335937501,-250.60507507324215,138.98971862792968,-158.4633544921875,1.6888757576252209e+18,79.95522086588541,-0.4870210190614064,0.5017460683981577,-0.5668535431226095,0.4353594978650411,-2.464585224787394,1.3822370370229085,-2.26131264368693
5.0,1.6888757576771297e+18,80.00712955729166,3.350604216257731,3.949936230977377,-0.3366277416547139,1.6888757576771297e+18,80.00712955729166,1.442473292350769,-5.617549896240234,0.8540382782618204,1.6888757576771297e+18,80.00712955729166,-1.9309323628743489,-9.551740964253744,1.1259525616963704,1.6888757576771297e+18,80.00712955729166,0.3171917796134948,3.0856330394744873,-0.8303185900052389,1.6888757576771297e+18,80.00712955729166,0.3164791017770766,3.090316375096639,-0.8278751373291016,,,,,,,,,,,,1.6888757576659948e+18,79.99599487304688,7.910479927062989,43.58083953857422,-24.748919677734374,1.6888757576659948e+18,79.99599487304688,-247.48431701660155,138.8140380859375,-158.10711975097655,1.6888757576771297e+18,80.00712955729166,-0.4962272346019745,0.5449744264284769,-0.5484601656595866,0.3942240377267201,-2.612372080485026,1.3415192365646362,-2.000766078631083
5.05,1.6888757577203722e+18,80.05037231445311,-0.2253719568252563,1.82423734664917,-1.9909934997558592,1.6888757577203722e+18,80.05037231445311,-2.245365023612976,-7.70249605178833,-0.6607181429862975,1.6888757577203722e+18,80.05037231445311,-2.0427944660186768,-9.510988235473633,1.265561819076538,1.6888757577203722e+18,80.05037231445311,-0.0458148904144764,1.7795268297195437,-0.5891795307397842,1.6888757577203722e+18,80.05037231445311,-0.0464257597923278,1.784108281135559,-0.586812436580658,,,,,,,,,,,,1.688875757715996e+18,80.04599580078124,5.699839973449707,43.83703842163086,-25.085639572143556,1.688875757715996e+18,80.04599580078124,-249.69495239257813,139.0702362060547,-158.44383850097657,1.6888757577203722e+18,80.05037231445311,-0.516081303358078,0.5728883147239685,-0.5249277353286743,0.3603478074073791,-2.585676908493042,1.3239426016807556,-1.921084225177765
5.1,1.6888757577636288e+18,80.09362882486978,3.146318872769674,-2.5009635289510093,-1.0913180311520894,1.6888757577636288e+18,80.09362882486978,0.6400800546010336,-11.896316846211752,0.3210370739301045,1.6888757577636288e+18,80.09362882486978,-2.5290404160817466,-9.379608154296877,1.3476416269938152,1.6888757577636288e+18,80.09362882486978,-0.2513201485077539,-0.4783074756463368,-1.4039210478464763,1.6888757577636288e+18,80.09362882486978,-0.2520328164100646,-0.4737259944279989,-1.401477575302124,,,,,,,,,,,,1.6888757577659914e+18,80.09599150390625,6.919839859008789,43.305119323730466,-25.556559753417968,1.6888757577659914e+18,80.09599150390625,-248.47495727539064,138.53831481933594,-158.91475830078124,1.6888757577636288e+18,80.09362882486978,-0.5046646197636923,0.5866512060165405,-0.533237079779307,0.3415638208389282,-2.648702303568522,1.2747385104497273,-1.8443408807118733
5.15,1.6888757578155244e+18,80.14552441406249,2.8157023588816323,-6.102113723754883,-6.981990019480388,1.6888757578155244e+18,80.14552441406249,0.149950236082077,-15.438492139180502,-5.458826065063477,1.6888757578155244e+18,80.14552441406249,-2.68855357170105,-9.320633252461752,1.4584505160649617,1.6888757578155244e+18,80.14552441406249,0.0146098484595616,0.5377650310595831,0.2364557525143026,1.6888757578155244e+18,80.14552441406249,0.0138462781906127,0.5424992442131042,0.2388483093430598,,,,,,,,,,,,1.6888757578159954e+18,80.14599541015625,8.625399971008301,42.516999053955075,-25.839599609375,1.6888757578159954e+18,80.14599541015625,-246.76939697265624,137.7501983642578,-159.1977966308594,1.6888757578155244e+18,80.14552441406249,-0.502237061659495,0.5886943538983663,-0.5386262933413187,0.3332354327042897,-2.6434346040089927,1.254302978515625,-1.846656600634257
5.2,1.6888757578674289e+18,80.19742887369792,5.207382837931315,-2.12483278910319,-2.986160437266032,1.6888757578674289e+18,80.19742887369792,2.9052855173746743,-11.6053892771403,-1.8448663155237832,1.6888757578674289e+18,80.19742887369792,-2.324898838996887,-9.464811325073242,1.0765806436538696,1.6888757578674289e+18,80.19742887369792,0.8615745306015015,-0.3895284136136372,1.4825699826081593,1.6888757578674289e+18,80.19742887369792,0.8609127402305603,-0.384845107793808,1.4850133856137593,,,,,,,,,,,,1.6888757578659917e+18,80.1959916015625,7.276079845428467,43.60279998779297,-24.53907928466797,1.6888757578659917e+18,80.1959916015625,-248.11871643066405,138.83599853515625,-157.89727783203125,1.6888757578674289e+18,80.19742887369792,-0.5059379935264587,0.5887683828671774,-0.5209950606028239,0.3545407752195994,-2.706984440485636,1.3070464134216309,-1.7838217814763386
5.25,1.68887575791933e+18,80.24932999674479,-5.5737888018290205,-7.079672495524089,-0.8243171374003094,1.68887575791933e+18,80.24932999674479,-6.565706094106038,-16.83330790201823,-0.3381855885187785,1.68887575791933e+18,80.24932999674479,-1.0147188107172649,-9.737890243530272,0.4214180608590444,1.68887575791933e+18,80.24932999674479,1.5089898506800334,-1.0293079304198425,2.89422869682312,1.68887575791933e+18,80.24932999674479,1.508277177810669,-1.0245737172663212,2.8965702851613364,,,,,,,,,,,,1.6888757579159905e+18,80.24599052734375,1.686039972305298,45.696318817138675,-21.908759307861327,1.6888757579159905e+18,80.24599052734375,-253.70875244140623,140.9295166015625,-155.26695556640624,1.68887575791933e+18,80.24932999674479,-0.5262477993965149,0.5633615454037985,-0.4835570156574249,0.4138214786847432,-2.7821276982625327,1.4586999416351318,-1.7373512983322144
5.3,1.6888757579712276e+18,80.30122753906251,-1.5591254631678264,-10.07505130767822,8.91628662745158,1.6888757579712276e+18,80.30122753906251,-0.8151548778017362,-19.85644022623698,9.062217712402344,1.6888757579712276e+18,80.30122753906251,0.7211690992116928,-9.765643755594889,0.08121778195103,1.6888757579712276e+18,80.30122753906251,-0.351552923520406,-2.1862358252207437,3.965635458628336,1.6888757579712276e+18,80.30122753906251,-0.3522656361262004,-2.18160343170166,3.9680787722269697,,,,,,,,,,,,1.6888757579659924e+18,80.29599233398437,-4.179719877243042,46.68939971923828,-19.907959747314457,1.6888757579659924e+18,80.29599233398437,-259.57451782226565,141.92259826660157,-153.2661560058594,1.6888757579712276e+18,80.30122753906251,-0.5410088698069254,0.4985969662666321,-0.4622124036153157,0.4939396480719248,0.2553232839951913,1.4944454431533811,1.3990231156349182
5.35,1.6888757580231311e+18,80.35313118489584,-3.0908141136169434,-3.152228037516276,5.854721923669179,1.6888757580231311e+18,80.35313118489584,-0.7052844564119973,-12.664014180501304,6.538188556830089,1.6888757580231311e+18,80.35313118489584,2.362728198369344,-9.496040980021158,0.6187531550725301,1.6888757580231311e+18,80.35313118489584,0.0150171034038066,-3.3893348375956216,2.70598038037618,1.6888757580231311e+18,80.35313118489584,0.0143044255673884,-3.384753386179606,2.7084237734476724,1.6888757580144814e+18,80.3444814453125,0.0,0.0,1.190803289413452,6.945000171661377,1.7787550687789917,85.68663787841797,39.10000228881836,-122.7512325,49.1905345,1.6888757580159951e+18,80.34599516601563,-10.640839958190918,44.80571975708008,-22.61879997253418,1.6888757580159951e+18,80.34599516601563,-266.03563232421874,140.0389190673828,-155.97699279785155,1.6888757580231311e+18,80.35313118489584,-0.5579422116279602,0.4070587952931722,-0.4614556531111399,0.5559070507685343,-0.2536783168713251,1.3183400630950928,1.771547754605611
5.4,1.6888757580750308e+18,80.40503084309896,-6.454511086146037,5.161869525909424,-1.6994396448135376,1.6888757580750308e+18,80.40503084309896,-3.0051857630411782,-4.024727702140808,-1.089531938234965,1.6888757580750308e+18,80.40503084309896,3.4265238444010415,-9.170852025349935,0.5451942185560862,1.6888757580750308e+18,80.40503084309896,1.1202759345372515,-1.1261809666951497,2.317011833190918,1.6888757580750308e+18,80.40503084309896,1.119512379169464,-1.121548593044281,2.31945538520813,,,,,,,,,,,,1.688875758065996e+18,80.39599599609376,-12.95151958465576,43.82483978271485,-22.840839385986328,1.688875758065996e+18,80.39599599609376,-268.3463134765625,139.05803833007812,-156.19903564453125,1.6888757580750308e+18,80.40503084309896,-0.5429453253746033,0.3507393300533294,-0.4493359227975209,0.6164063413937887,-0.1614714711904525,1.2080508470535278,1.5570602019627888
5.45,1.6888757581269292e+18,80.45692919921875,-10.874005635579428,12.00567626953125,-2.1032564640045166,1.6888757581269292e+18,80.45692919921875,-6.580661058425903,3.2000014781951904,-1.254437267780304,1.6888757581269292e+18,80.45692919921875,4.270543257395427,-8.789929707845053,0.7841057181358337,1.6888757581269292e+18,80.45692919921875,-0.0293724338213602,-3.273270527521769,2.1826724211374917,1.6888757581269292e+18,80.45692919921875,-0.0300851116577784,-3.2686890761057534,2.185115893681844,,,,,,,,,,,,1.6888757581159951e+18,80.44599541015626,-15.679439735412595,43.575959014892575,-21.55495948791504,1.6888757581159951e+18,80.44599541015626,-271.07423706054686,138.8091583251953,-154.91315612792968,1.6888757581269292e+18,80.45692919921875,-0.5219974319140116,0.2885887225468953,-0.4451494912306468,0.6672645807266235,-0.1794428477684656,1.1109718084335327,1.4386909405390422
5.5,1.688875758170183e+18,80.50018273925781,-4.660885810852051,9.634777069091797,-1.1454724073410034,1.688875758170183e+18,80.50018273925781,0.2605185508728027,1.2236297205090525,0.2395814061164856,1.688875758170183e+18,80.50018273925781,4.898602724075317,-8.395401954650879,1.3203403949737549,1.688875758170183e+18,80.50018273925781,0.0235946625471114,-1.562822341918945,1.4659239053726196,1.688875758170183e+18,80.50018273925781,0.022907443344593,-1.5581645369529724,1.468367338180542,,,,,,,,,,,,1.6888757581659935e+18,80.49599370117187,-16.823799896240235,41.972879028320314,-24.112079620361328,1.6888757581659935e+18,80.49599370117187,-272.2185974121094,137.2060760498047,-157.47027893066405,1.688875758170183e+18,80.50018273925781,-0.5112684965133667,0.2287509143352508,-0.4446404129266738,0.6989299058914185,-0.2636002153158188,1.026546597480774,1.412266492843628
5.55,1.68887575821343e+18,80.54342985026041,0.506506601969401,6.331385453542073,1.0011289517084756,1.68887575821343e+18,80.54342985026041,5.359124978383382,-2.1326032280921936,2.2813570499420166,1.68887575821343e+18,80.54342985026041,4.829816977183024,-8.448243459065756,1.215514620145162,1.68887575821343e+18,80.54342985026041,1.1482739448547363,-0.2658281872669856,-1.1351912679771583,1.68887575821343e+18,80.54342985026041,1.1475103894869487,-0.2612467060486476,-1.1327986878653369,,,,,,,,,,,,1.688875758215994e+18,80.54599379882812,-15.891719818115234,42.56823959350586,-23.62163963317871,1.688875758215994e+18,80.54599379882812,-271.28651123046876,137.8014404296875,-156.97984008789064,1.68887575821343e+18,80.54342985026041,-0.493594745794932,0.2256503800551096,-0.4500900904337565,0.7090126077334086,-0.2462673981984456,1.0374010801315308,1.3570212920506797
5.6,1.6888757582653338e+18,80.59533374023438,9.641656875610352,-9.470916271209717,3.897435983022054,1.6888757582653338e+18,80.59533374023438,13.692129929860434,-18.380865891774494,4.88993239402771,1.6888757582653338e+18,80.59533374023438,4.027671416600545,-8.894204457600912,0.9277828931808472,1.6888757582653338e+18,80.59533374023438,-0.0668897206584613,-1.1795808027187984,-1.001717209815979,1.6888757582653338e+18,80.59533374023438,-0.0675515060623486,-1.174948421617349,-0.9992737372716268,,,,,,,,,,,,1.6888757582659958e+18,80.59599580078125,-11.177639961242676,44.87159881591797,-21.859959411621094,1.6888757582659958e+18,80.59599580078125,-266.5724365234375,140.10479431152345,-155.21815490722656,1.6888757582653338e+18,80.59533374023438,-0.465326448281606,0.2518539478381474,-0.4805040260155995,0.6992676059405009,-0.2268707205851872,1.134910225868225,1.3192766507466631
5.65,1.6888757583172342e+18,80.64723404947917,4.862188418706258,-1.9582414627075195,4.671406586964925,1.6888757583172342e+18,80.64723404947917,9.189834833145142,-10.553743839263916,6.741578578948975,1.6888757583172342e+18,80.64723404947917,4.3048451741536455,-8.57975705464681,2.0054584741592407,1.6888757583172342e+18,80.64723404947917,-0.146251305937767,-3.972711086273194,1.6512705485026042,1.6888757583172342e+18,80.64723404947917,-0.1469131087263425,-3.968027909596761,1.6537140607833862,,,,,,,,,,,,1.6888757583159898e+18,80.64598984375,-8.500959777832032,43.77359848022461,-24.985599517822266,1.6888757583159898e+18,80.64598984375,-263.895751953125,139.00679626464844,-158.3437957763672,1.6888757583172342e+18,80.64723404947917,-0.4379244943459828,0.1627448052167892,-0.503328283627828,0.7263579169909159,-0.4351634681224823,1.0644285281499226,1.343779444694519
5.7,1.6888757583691338e+18,80.69913411458333,-10.418508052825928,1.4257500966389969,5.72041122118632,1.6888757583691338e+18,80.69913411458333,-6.266005039215088,-7.215756177902222,7.958528200785319,1.6888757583691338e+18,80.69913411458333,4.129701455434163,-8.625761032104492,2.1734034220377603,1.6888757583691338e+18,80.69913411458333,-0.3014620045820872,2.2613213459650674,-1.5828027923901875,1.6888757583691338e+18,80.69913411458333,-0.3022255698839823,2.2659536798795066,-1.5803593198458354,,,,,,,,,,,,1.6888757583659958e+18,80.69599575195312,-7.061359977722168,43.77603912353515,-25.473598861694335,1.6888757583659958e+18,80.69599575195312,-262.45615844726564,139.00923767089844,-158.83179626464843,1.6888757583691338e+18,80.69913411458333,-0.4296189546585083,0.1526998976866403,-0.5153134266535441,0.7250779072443644,-0.4847942491372426,1.074225902557373,1.3624879121780396
5.75,1.6888757584210348e+18,80.75103466796875,-5.742913643519084,-6.536824544270833,-2.182195544242859,1.6888757584210348e+18,80.75103466796875,-2.113061805566152,-15.548362096150717,-0.6949156125386556,1.6888757584210348e+18,80.75103466796875,3.6070501804351807,-8.995792388916016,1.4225664536158245,1.6888757584210348e+18,80.75103466796875,0.8892670720815659,3.223484992980957,-2.692948450644811,1.6888757584210348e+18,80.75103466796875,0.8886053115129471,3.228168249130249,-2.6905559996763864,,,,,,,,,,,,1.688875758415988e+18,80.74598793945313,-8.569279861450195,44.02248001098633,-24.76355972290039,1.688875758415988e+18,80.74598793945313,-263.9640686035156,139.25567626953125,-158.12175903320312,1.6888757584210348e+18,80.75103466796875,-0.4634654025236766,0.238319158554077,-0.5081270337104797,0.6849286953608195,-0.371516356865565,1.1629507541656494,1.4347363313039143
5.8,1.6888757584729367e+18,80.80293693033853,-8.810909271240234,1.5503597259521484,-3.114450772603353,1.6888757584729367e+18,80.80293693033853,-7.557331562042236,-8.158727645874023,-2.5966113408406577,1.6888757584729367e+18,80.80293693033853,1.230776220560074,-9.693342208862305,0.4531259934107463,1.6888757584729367e+18,80.80293693033853,-0.1548034747441609,5.735922813415527,-5.483482678731282,1.6888757584729367e+18,80.80293693033853,-0.1555161227782567,5.740504423777263,-5.481039365132649,,,,,,,,,,,,1.6888757584659953e+18,80.79599516601563,-1.847080005705357,46.22091827392578,-20.80099983215332,1.6888757584659953e+18,80.79599516601563,-257.24187622070315,141.45411682128906,-154.15919494628906,1.6888757584729367e+18,80.80293693033853,-0.4672658642133077,0.3885693550109863,-0.5331118504206339,0.5857231616973877,-0.4807135611772537,1.4319195747375488,1.7864787975947063
5.85,1.688875758524831e+18,80.8548310546875,-6.929834167162576,-2.065258026123047,-2.412048816680908,1.688875758524831e+18,80.8548310546875,-7.54257595539093,-11.826924641927084,-1.4959129691123962,1.688875758524831e+18,80.8548310546875,-0.6355432420969009,-9.74592145284017,0.8514223694801331,1.688875758524831e+18,80.8548310546875,-0.7389942109584808,0.7253006845712662,-2.6515115102132163,1.688875758524831e+18,80.8548310546875,-0.7397069190628827,0.7298821508884431,-2.649169921875,1.6888757585334866e+18,80.86348657226563,0.0,0.0,1.190803289413452,6.935999870300293,1.780516266822815,85.49142456054688,39.10000228881836,-122.7512179,49.1905359,1.688875758515996e+18,80.84599589843751,2.815759873390198,44.83255844116211,-23.15559959411621,1.688875758515996e+18,80.84599589843751,-252.57903442382812,140.0657531738281,-156.5137939453125,1.688875758524831e+18,80.8548310546875,-0.4866386254628499,0.4722788433233897,-0.5557214816411337,0.4805838664372762,-2.1506867011388144,1.4593870242436726,-2.6392393906911216
5.9,1.6888757585767334e+18,80.9067334798177,9.485898653666178,3.3064538637797036,2.101557115713755,1.6888757585767334e+18,80.9067334798177,7.745367368062337,-6.331408659617106,2.866202791531881,1.6888757585767334e+18,80.9067334798177,-1.7633328437805176,-9.622117360432943,0.6999321977297465,1.6888757585767334e+18,80.9067334798177,0.759050985177358,0.9817622502644856,-1.9503909349441528,1.6888757585767334e+18,80.9067334798177,0.7583382825056711,0.986343761285146,-1.9479474226633708,,,,,,,,,,,,1.688875758565996e+18,80.89599614257813,9.332999801635742,44.24695892333985,-23.16780014038086,1.688875758565996e+18,80.89599614257813,-246.06179504394532,139.48015441894532,-156.5260009765625,1.6888757585767334e+18,80.9067334798177,-0.4506193200747172,0.4991090099016825,-0.5832662582397461,0.4553011159102122,-2.754731814066569,1.376126766204834,-2.046940644582113
5.95,1.6888757586199877e+18,80.94998754882812,3.0705159306526184,2.743525743484497,1.0384195148944857,1.6888757586199877e+18,80.94998754882812,0.9541380405426024,-6.815057992935181,1.869691789150238,1.6888757586199877e+18,80.94998754882812,-2.1391793489456177,-9.54283857345581,0.766558825969696,1.6888757586199877e+18,80.94998754882812,0.3489567786455154,4.52765679359436,-0.9945649802684784,1.6888757586199877e+18,80.94998754882812,0.3482695519924164,4.5323145389556885,-0.9922742247581482,,,,,,,,,,,,1.688875758615996e+18,80.94599614257812,9.454999923706056,44.183518981933595,-22.85791931152344,1.688875758615996e+18,80.94599614257812,-245.939794921875,139.41671752929688,-156.21611328125,1.6888757586199877e+18,80.94998754882812,-0.4756293445825577,0.5509344339370728,-0.5522604882717133,0.4060152024030685,-2.7973053455352783,1.3376364707946775,-1.8462852835655212
6.0,1.688875758663241e+18,80.99324096679688,-0.5452828407287598,2.039999008178711,-3.3642292817433677,1.688875758663241e+18,80.99324096679688,-2.8183462619781494,-7.459823926289876,-2.2937198479970298,1.688875758663241e+18,80.99324096679688,-2.2958648204803467,-9.48407777150472,1.005795995394389,1.688875758663241e+18,80.99324096679688,0.0403680106004079,2.7374908129374185,-0.517708291610082,1.688875758663241e+18,80.99324096679688,0.0396553377310434,2.7421741088231406,-0.5152648190657297,,,,,,,,,,,,1.6888757586659927e+18,80.99599272460937,6.749039840698242,44.31772003173828,-23.69727897644043,1.6888757586659927e+18,80.99599272460937,-248.64575805664063,139.55091857910156,-157.05548095703125,1.688875758663241e+18,80.99324096679688,-0.5051261981328329,0.589470644791921,-0.5187347730000814,0.357720951239268,-2.728565057118734,1.3130213816960652,-1.763364275296529
6.05,1.6888757587151388e+18,81.04513899739584,4.592385609944661,-3.308356285095215,-1.6692305604616802,1.6888757587151388e+18,81.04513899739584,1.910469541947047,-12.667603174845375,-0.3529413342475891,1.6888757587151388e+18,81.04513899739584,-2.704717477162679,-9.343501726786297,1.2515757083892822,1.6888757587151388e+18,81.04513899739584,-0.418595403432846,0.1081740458806356,-1.4552336931228638,1.6888757587151388e+18,81.04513899739584,-0.4192571739355723,0.1128064518173536,-1.4528920650482178,,,,,,,,,,,,1.6888757587159962e+18,81.04599609375,7.781159782409668,43.75407791137695,-24.768439102172852,1.6888757587159962e+18,81.04599609375,-247.65999450683591,138.91163635253906,-158.0802764892578,1.6888757587151388e+18,81.04513899739584,-0.5064218441645304,0.6085205872853597,-0.5169091622034708,0.3254315157731374,-2.7063661416371665,1.2626293897628784,-1.7292565902074175
6.1,1.6888757587670336e+18,81.09703377278646,2.0904115438461304,-5.078619321187337,-5.918477853139241,1.6888757587670336e+18,81.09703377278646,-0.7403792142868041,-14.348959922790527,-4.2947178681691485,1.6888757587670336e+18,81.09703377278646,-2.8535922368367515,-9.254595438639322,1.5590464274088542,1.6888757587670336e+18,81.09703377278646,-0.3241658210754394,1.1015427708625791,0.3157664289077123,1.6888757587670336e+18,81.09703377278646,-0.3248275915781657,1.1062260468800862,0.3182098809629679,,,,,,,,,,,,1.6888757587659914e+18,81.0959916015625,8.478999710083007,43.03915939331055,-26.081159591674805,1.6888757587659914e+18,81.0959916015625,-247.14759826660156,137.89415588378907,-159.20755615234376,1.6888757587670336e+18,81.09703377278646,-0.5129243731498718,0.6142549912134806,-0.5175087451934814,0.3028320968151092,-2.6405518849690757,1.2333600521087644,-1.7593059539794922
6.15,1.688875758818938e+18,81.14893823242187,4.428189595540364,-5.0406802495320635,-4.17851859331131,1.688875758818938e+18,81.14893823242187,1.968096559246381,-14.450255711873371,-2.797209680080414,1.688875758818938e+18,81.14893823242187,-2.482894341150919,-9.39383029937744,1.316595435142517,1.688875758818938e+18,81.14893823242187,0.9414451519648234,0.3952807088692983,1.4030047977964084,1.688875758818938e+18,81.14893823242187,0.940732498963674,0.3999131321907043,1.4054482008020084,,,,,,,,,,,,1.6888757588159972e+18,81.14599716796874,6.912519836425782,43.6101188659668,-25.710279083251955,1.6888757588159972e+18,81.14599716796874,-248.71407470703124,138.46511840820312,-158.83667602539063,1.688875758818938e+18,81.14893823242187,-0.5242074330647787,0.615564743677775,-0.497193952401479,0.3143645127614339,-2.6521952152252197,1.280679742495219,-1.726932207743327
6.2,1.688875758870834e+18,81.20083374023437,-5.5260114669799805,-6.5801699956258135,0.0093854765097299,1.688875758870834e+18,81.20083374023437,-6.59382168451945,-16.310476303100586,0.7461618582407633,1.688875758870834e+18,81.20083374023437,-1.0906116167704265,-9.714561144510904,0.672062893708547,1.688875758870834e+18,81.20083374023437,1.6357444127400715,-1.1530590454737346,3.0452141761779785,1.688875758870834e+18,81.20083374023437,1.6351335446039836,-1.148426632086436,3.0476067860921225,,,,,,,,,,,,1.6888757588659937e+18,81.19599379882813,-0.0292800068855285,45.35227890014649,-23.014079284667968,1.6888757588659937e+18,81.19599379882813,-255.65587158203124,140.2072784423828,-156.14047546386718,1.688875758870834e+18,81.20083374023437,-0.5571581323941549,0.5934292872746786,-0.4504872957865396,0.3657033443450928,-2.594991445541382,1.4402472178141277,-1.7805378834406536
6.25,1.6888757589227407e+18,81.25274064127605,0.1065609852472941,-9.771762530008951,6.377737919489543,1.6888757589227407e+18,81.25274064127605,0.7266204754511515,-19.562122344970703,6.607580343882243,1.6888757589227407e+18,81.25274064127605,0.5972580214341482,-9.774614651997885,0.1651289338866869,1.6888757589227407e+18,81.25274064127605,-0.1670207381248474,-2.3133467038472495,3.809253851572672,1.6888757589227407e+18,81.25274064127605,-0.1676825235287348,-2.3086633880933127,3.811697324117025,,,,,,,,,,,,1.688875758915993e+18,81.24599311523437,-4.609159994125366,46.71623840332031,-20.347159576416015,1.688875758915993e+18,81.24599311523437,-260.2357604980469,141.57123718261718,-153.4735565185547,1.6888757589227407e+18,81.25274064127605,-0.567274292310079,0.5262930492560068,-0.4378073910872141,0.4566537539164225,-0.8491609320044518,1.5022208293279011,0.5251687367757161
6.3,1.6888757589746437e+18,81.30464363606772,-4.634899218877156,-4.782951990763347,5.950864752133687,1.6888757589746437e+18,81.30464363606772,-2.3866412242253623,-14.329418182373049,6.6313090324401855,1.6888757589746437e+18,81.30464363606772,2.2254563570022583,-9.530721028645834,0.615730881690979,1.6888757589746437e+18,81.30464363606772,0.2625702619552612,-2.9148453871409097,2.6563475131988525,1.6888757589746437e+18,81.30464363606772,0.2619084517161051,-2.910212993621826,2.658790906270345,,,,,,,,,,,,1.688875758965997e+18,81.29599716796875,-11.809599876403809,44.837439727783206,-22.347959899902342,1.688875758965997e+18,81.29599716796875,-267.4361999511719,139.69243774414062,-155.47435913085937,1.6888757589746437e+18,81.30464363606772,-0.5937920212745667,0.4441998700300852,-0.4341631134351094,0.5105693638324738,-0.2703072627385457,1.3324893315633135,1.935020645459493
6.35,1.6888757590265382e+18,81.35653833007812,-7.232950687408447,6.797844250996907,-0.880041241645813,1.6888757590265382e+18,81.35653833007812,-3.838885166294252,-2.40957244237264,-0.3230310504635175,1.6888757590265382e+18,81.35653833007812,3.3712641398111978,-9.1916716893514,0.4922966957092285,1.6888757590265382e+18,81.35653833007812,1.020297686258952,-1.3643166422843933,2.8730010191599527,1.6888757590265382e+18,81.35653833007812,1.0196358958880107,-1.3596841891606648,2.8753936290740967,,,,,,,,,,,,1.6888757590159916e+18,81.3459916015625,-14.48871955871582,44.0346794128418,-22.574879455566407,1.6888757590159916e+18,81.3459916015625,-270.1153137207031,138.88967895507812,-155.7012725830078,1.6888757590265382e+18,81.35653833007812,-0.5799678365389506,0.3829286396503448,-0.4254447718461354,0.5792419115702311,-0.1489167809486389,1.214930574099223,1.6771815220514934
6.4,1.6888757590697928e+18,81.39979260253907,-11.579261779785156,12.687298774719238,-0.2631933242082595,1.6888757590697928e+18,81.39979260253907,-7.243373155593872,3.8865422010421753,0.4351946264505386,1.6888757590697928e+18,81.39979260253907,4.313087463378906,-8.785011291503906,0.6336744725704193,1.6888757590697928e+18,81.39979260253907,0.1675297990441322,-3.3604460954666138,2.5906031131744385,1.6888757590697928e+18,81.39979260253907,0.1667662104591727,-3.355788230895996,2.5929702520370483,1.6888757590521564e+18,81.38215649414063,0.0,0.0,1.200265645980835,6.894999980926514,1.7856677770614624,85.27676391601562,39.10000228881836,-122.7512088,49.1905365,1.6888757590659958e+18,81.3959958984375,-18.96611976623535,42.62923812866211,-22.39919967651367,1.6888757590659958e+18,81.3959958984375,-274.59271850585935,137.48424072265624,-155.52559509277344,1.6888757590697928e+18,81.39979260253907,-0.5715738236904144,0.327219694852829,-0.415392905473709,0.6271480619907379,-0.1448794975876807,1.10939621925354,1.5677738785743711
6.45,1.6888757591130427e+18,81.44304256184896,-6.32556676864624,10.823368708292644,-1.982879678408305,1.6888757591130427e+18,81.44304256184896,-1.2963116963704426,2.475574493408203,-0.6265207529067993,1.6888757591130427e+18,81.44304256184896,5.006453673044841,-8.332049051920572,1.2916454474131267,1.6888757591130427e+18,81.44304256184896,-0.1302161067724227,-2.6953919728597007,1.773749013741811,1.6888757591130427e+18,81.44304256184896,-0.130877877275149,-2.6907087167104087,1.776192486286163,,,,,,,,,,,,1.6888757591159913e+18,81.44599125976563,-19.37115936279297,40.66259918212891,-25.21251983642578,1.6888757591159913e+18,81.44599125976563,-274.99775390625,135.51759643554686,-158.338916015625,1.6888757591130427e+18,81.44304256184896,-0.5590278108914694,0.2561621417601903,-0.4225784440835317,0.665449837843577,-0.2514334718386332,1.0145466923713684,1.5373326539993286
6.5,1.6888757591649434e+18,81.494943359375,0.8905806541442871,4.508315563201904,1.4457165400187175,1.6888757591649434e+18,81.494943359375,5.8532430330912275,-3.8257245222727456,3.1208389600118003,1.6888757591649434e+18,81.494943359375,4.939860979715983,-8.318294843037924,1.610408941904704,1.6888757591649434e+18,81.494943359375,0.9362018903096516,-0.8315403262774149,-1.0707449366648991,1.6888757591649434e+18,81.494943359375,0.9355910321076712,-0.8269078979889551,-1.0683014939228694,,,,,,,,,,,,1.6888757591659935e+18,81.49599379882812,-17.402079772949218,40.89439926147461,-26.183639144897462,1.6888757591659935e+18,81.49599379882812,-273.02867431640624,135.74940185546876,-159.3100372314453,1.6888757591649434e+18,81.494943359375,-0.534944752852122,0.226869449019432,-0.4432020286719004,0.6824824810028076,-0.3150596121946971,1.0118218262990315,1.504999319712321
6.55,1.6888757592168328e+18,81.54683284505208,6.648071765899658,-7.579273541768392,4.928033431371053,1.6888757592168328e+18,81.54683284505208,10.783853530883787,-16.412769317626953,6.21914529800415,1.6888757592168328e+18,81.54683284505208,4.112980365753174,-8.817750295003256,1.2263983885447185,1.6888757592168328e+18,81.54683284505208,0.3715587854385376,-1.0660107533137004,-1.3571389118830364,1.6888757592168328e+18,81.54683284505208,0.3708461125691731,-1.0613274772961934,-1.354695479075114,,,,,,,,,,,,1.688875759215989e+18,81.54598896484376,-12.382999610900878,43.55887908935547,-24.282879638671876,1.688875759215989e+18,81.54598896484376,-268.0095947265625,138.41387939453125,-157.40927734375,1.6888757592168328e+18,81.54683284505208,-0.5033551553885142,0.2589386204878489,-0.4721060295899708,0.6756176948547363,-0.2905775010585785,1.116983413696289,1.4631576538085938
6.6,1.6888757592687352e+18,81.5987352701823,8.276308218638102,-3.741087913513184,2.5290094216664634,1.6888757592687352e+18,81.5987352701823,12.718051751454672,-12.24766250451406,4.726024150848389,1.6888757592687352e+18,81.5987352701823,4.418941656748454,-8.490829467773438,2.1323012510935464,1.6888757592687352e+18,81.5987352701823,-0.0460185209910074,-3.557119290033976,1.976759930451711,1.6888757592687352e+18,81.5987352701823,-0.0467820912599563,-3.5525378386179605,1.9791015982627869,,,,,,,,,,,,1.68887575926599e+18,81.59599013671875,-9.911279678344728,42.9073989868164,-26.754599380493165,1.68887575926599e+18,81.59599013671875,-265.5378784179687,137.76239624023438,-159.88099365234376,1.6888757592687352e+18,81.5987352701823,-0.4739134609699249,0.1766116221745808,-0.4928167760372162,0.7075449029604594,-0.4488768378893533,1.0461109479268391,1.4419879118601482
