seconds_elapsed_rounded,accelerometer_time,accelerometer_seconds_elapsed,accelerometer_z,accelerometer_y,accelerometer_x,accelerometeruncalibrated_time,accelerometeruncalibrated_seconds_elapsed,accelerometeruncalibrated_z,accelerometeruncalibrated_y,accelerometeruncalibrated_x,gravity_time,gravity_seconds_elapsed,gravity_z,gravity_y,gravity_x,gyroscope_time,gyroscope_seconds_elapsed,gyroscope_z,gyroscope_y,gyroscope_x,gyroscopeuncalibrated_time,gyroscopeuncalibrated_seconds_elapsed,gyroscopeuncalibrated_z,gyroscopeuncalibrated_y,gyroscopeuncalibrated_x,location_time,location_seconds_elapsed,location_bearingAccuracy,location_speedAccuracy,location_verticalAccuracy,location_horizontalAccuracy,location_speed,location_bearing,location_altitude,location_longitude,location_latitude,magnetometer_time,magnetometer_seconds_elapsed,magnetometer_z,magnetometer_y,magnetometer_x,magnetometeruncalibrated_time,magnetometeruncalibrated_seconds_elapsed,magnetometeruncalibrated_z,magnetometeruncalibrated_y,magnetometeruncalibrated_x,orientation_time,orientation_seconds_elapsed,orientation_qz,orientation_qy,orientation_qx,orientation_qw,orientation_roll,orientation_pitch,orientation_yaw
0.0,1.6887020023515482e+18,59.99954821777344,-4.340164661407471,-11.00541353225708,1.9502108097076416,1.6887020023515482e+18,59.99954821777344,-10.07677412033081,-15.262320518493652,8.707780838012695,1.6887020023515482e+18,59.99954821777344,-5.74245548248291,-4.2394022941589355,6.694882392883301,1.688702002351549e+18,59.999548746744786,1.236442193388939,9.626472473144531,-2.914947191874186,1.688702002351549e+18,59.999548746744786,1.2354240516821544,9.63095219930013,-2.9125036696592965,,,,,,,,,,,,1.6887020023471916e+18,59.99519135742188,29.948559188842772,38.59347915649414,-13.0564395904541,1.6887020023471916e+18,59.99519135742188,-224.592236328125,134.0584747314453,-146.26824035644532,1.6887020023515482e+18,59.99954821777344,0.08002620190382,-0.8240403831005096,-0.336520180106163,0.4464625418186188,-2.2811049222946167,0.4488429576158523,0.566853404045105
0.05,1.688702002394795e+18,60.04279508463541,-1.3624661763509114,-4.5759477615356445,-8.409048239390055,1.688702002394795e+18,60.04279508463541,-5.600002745787303,-9.35553773244222,-0.8947162429491679,1.688702002394795e+18,60.04279508463541,-4.243382612864177,-4.7620852788289385,7.451644738515218,1.6887020024034537e+18,60.05145353190104,0.1681406696637472,-0.1827505032221477,1.053538938363393,1.6887020024034537e+18,60.05145353190104,0.1671734452247619,-0.1783217589060465,1.0559314886728923,,,,,,,,,,,,1.6887020023971914e+18,60.04519135742188,25.6175594329834,38.813079833984375,-19.805480194091796,1.6887020023971914e+18,60.04519135742188,-228.92323608398436,134.2780792236328,-153.01727600097655,1.688702002394795e+18,60.04279508463541,0.063964204241832,-0.7622153361638387,-0.3682118058204651,0.5284180442492167,-2.089794397354126,0.5083808402220408,0.6007638772328695
0.1,1.688702002446708e+18,60.0947080078125,6.143454392751058,-10.8529052734375,-7.246780872344971,1.688702002446708e+18,60.0947080078125,2.4903300404548645,-16.29731559753418,0.1056829889615377,1.688702002446708e+18,60.0947080078125,-3.658970355987549,-5.426906108856201,7.28977632522583,1.6887020024553605e+18,60.10336010742188,2.204052746295929,0.6409504016240439,2.673858960469564,1.6887020024553605e+18,60.10336010742188,2.2031364838282266,0.6454809506734213,2.676251490910848,,,,,,,,,,,,1.688702002447193e+18,60.09519316406249,21.320720291137697,40.94563980102539,-19.13936004638672,1.688702002447193e+18,60.09519316406249,-233.22007446289064,136.4106414794922,-152.35115661621094,1.688702002446708e+18,60.0947080078125,0.1139443094531694,-0.7509348193804423,-0.3501519461472829,0.5475654204686483,-2.0360160668691,0.5880032579104105,0.5024240016937256
0.15,1.6887020024986156e+18,60.14661547851563,1.7001965443293254,-8.024322509765625,-2.1552109718322754,1.6887020024986156e+18,60.14661547851563,-1.2287144660949707,-15.124233881632486,3.991627057393392,1.6887020024986156e+18,60.14661547851563,-2.9347569942474365,-7.082407156626384,6.084150632222493,1.688702002507266e+18,60.15526611328125,3.425884962081909,-1.919033130009969,3.3694818019866943,1.688702002507266e+18,60.15526611328125,3.4248669147491455,-1.9145534833272295,3.371925195058187,1.6887020025072648e+18,60.1552646484375,0.0,0.0,1.0615788698196411,6.86299991607666,1.573176026344299,269.626220703125,42.10000228881836,-122.7554018,49.190589,1.6887020024971945e+18,60.145194628906246,13.502959823608398,46.572279357910155,-11.065399837493896,1.6887020024971945e+18,60.145194628906246,-241.03783264160157,142.0372802734375,-144.27719421386718,1.6887020024986156e+18,60.14661547851563,0.2273707638184229,-0.7195752263069153,-0.3630261222521464,0.5451694925626119,-2.0209172566731772,0.8098116318384806,0.4088752567768097
0.2,1.6887020025505167e+18,60.19851668294271,4.035177389780681,-10.87294101715088,5.995776017506917,1.6887020025505167e+18,60.19851668294271,1.7964115937550862,-19.190836588541668,10.764711062113443,1.6887020025505167e+18,60.19851668294271,-2.244611899058024,-8.300391832987467,4.706247329711914,1.6887020025591706e+18,60.20717049153646,2.371429761250814,0.8210538029670715,1.2096149921417236,1.6887020025591706e+18,60.20717049153646,2.370513518651326,0.8255335092544556,1.2120075325171151,,,,,,,,,,,,1.6887020025471936e+18,60.1951935546875,8.078839778900146,49.236759185791016,-2.8645599603652956,1.6887020025471936e+18,60.1951935546875,-246.46195373535156,144.70175476074218,-136.07635803222655,1.6887020025505167e+18,60.19851668294271,0.3276034891605376,-0.6878782908121744,-0.3755471110343933,0.5273038744926453,-2.0154869556427,1.0104984641075134,0.3273654878139495
0.25,1.6887020026024343e+18,60.250434163411455,1.9905079205830891,0.3517939249674479,7.123724301656087,1.6887020026024343e+18,60.250434163411455,0.4315057254085937,-8.52004369099935,11.098310152689615,1.6887020026024343e+18,60.250434163411455,-1.564848264058431,-8.85433292388916,3.911898136138916,1.688702002602429e+18,60.25042883300781,2.127490997314453,1.5693127810955048,0.4895321279764175,1.688702002602429e+18,60.25042883300781,2.1265746355056763,1.573817878961563,0.4918992444872856,,,,,,,,,,,,1.6887020025971924e+18,60.245192431640625,5.382639789581299,49.72231903076172,2.1715999610722063,1.6887020025971924e+18,60.245192431640625,-249.1581573486328,145.18731689453125,-131.04019775390626,1.6887020026024343e+18,60.250434163411455,0.353317528963089,-0.6371667385101318,-0.4166056911150614,0.5434324741363525,-1.951288898785909,1.1274479230244954,0.3492142558097839
0.3,1.688702002654336e+18,60.30233585611979,-2.3321959575017295,7.373257319132487,1.3946208159128826,1.688702002654336e+18,60.30233585611979,-3.230509996414185,-1.8590237696965537,4.688536485036214,1.688702002654336e+18,60.30233585611979,-0.9041600624720256,-9.214776674906412,3.2312282721201577,1.6887020026456845e+18,60.29368465169271,1.4625132083892822,0.2408845275640487,1.4821627140045166,1.6887020026456845e+18,60.29368465169271,1.4615968863169353,0.2453133016824721,1.4845552841822307,,,,,,,,,,,,1.688702002647192e+18,60.295192041015625,2.859680008888245,49.4734390258789,6.614839839935303,1.688702002647192e+18,60.295192041015625,-251.68111267089844,144.93843688964844,-126.59695587158204,1.688702002654336e+18,60.30233585611979,0.388908306757609,-0.6016410986582438,-0.4290512104829152,0.5500181118647257,-1.8422449032465615,1.222567598025004,0.2597912053267161
0.35,1.688702002706237e+18,60.35423657226562,-4.72722848256429,9.445607821146648,0.1042031447092692,1.688702002706237e+18,60.35423657226562,-4.91824746131897,0.0125623216542104,2.9040890534718833,1.688702002706237e+18,60.35423657226562,-0.1968650395671526,-9.415541013081867,2.73719851175944,1.6887020026975951e+18,60.34559537760416,1.0354674855868022,-1.4230614602565763,2.050776481628418,1.6887020026975951e+18,60.34559537760416,1.034500281016032,-1.4186327556769054,2.0531689723332724,,,,,,,,,,,,1.6887020026971935e+18,60.345193603515625,-1.7177599310874938,49.19039764404297,9.850279617309573,1.6887020026971935e+18,60.345193603515625,-256.25855407714846,144.6553924560547,-123.36151885986328,1.688702002706237e+18,60.35423657226562,0.4390235642592112,-0.5845466653505961,-0.4101155400276184,0.5448814233144125,-1.6396576563517251,1.2883379062016804,-0.0003941326091687
0.4,1.6887020027581453e+18,60.406145507812504,-1.006181259950002,9.812742869059244,-1.073370059331258,1.6887020027581453e+18,60.406145507812504,-0.5381856858730316,0.3200400273005168,1.483948866526286,1.6887020027581453e+18,60.406145507812504,0.4621495107809703,-9.4751984278361,2.49463152885437,1.6887020027494943e+18,60.39749422200521,0.5371032655239105,-0.7967719212174416,1.55363396803538,1.6887020027494943e+18,60.39749422200521,0.5361360609531403,-0.7922922049959501,1.5560773611068726,,,,,,,,,,,,1.6887020027471898e+18,60.39518989257813,-7.839719772338867,48.1680404663086,11.453359603881836,1.6887020027471898e+18,60.39518989257813,-262.380517578125,143.6330352783203,-121.75843811035156,1.6887020027581453e+18,60.406145507812504,0.4855079054832458,-0.5771254301071167,-0.3784204522768656,0.5366026957829794,-1.384828805923462,1.3111069599787395,-0.3349690635999043
0.45,1.688702002801403e+18,60.44940295410156,-2.117601156234741,9.430480480194092,-1.2300416231155396,1.688702002801403e+18,60.44940295410156,-1.4745769500732422,-0.060119666159153,1.3001999855041504,1.688702002801403e+18,60.44940295410156,0.6371781527996063,-9.473095417022703,2.467554211616516,1.688702002801393e+18,60.44939290364584,0.000356338918209,-0.5740097450713316,-0.1616756515577435,1.688702002801393e+18,60.44939290364584,-0.000610868136088,-0.5694790966808796,-0.1592831149076421,,,,,,,,,,,,1.6887020027971884e+18,60.44518837890625,-10.435879707336426,47.74103927612305,12.478159713745118,1.6887020027971884e+18,60.44518837890625,-264.9766845703125,143.20603942871094,-120.73363800048828,1.688702002801403e+18,60.44940295410156,0.4914855360984802,-0.5717812478542328,-0.3747114837169647,0.5395303070545197,-1.3139461874961853,1.31075781583786,-0.4072856605052947
0.5,1.688702002844661e+18,60.49266113281251,16.099225997924805,-2.776885986328125,-1.1914952596028645,1.688702002844661e+18,60.49266113281251,15.556537628173828,-12.19103236993154,1.5876378615697224,1.688702002844661e+18,60.49266113281251,-0.5485349247852961,-9.396642049153646,2.7164456844329834,1.6887020028533084e+18,60.50130859375,-1.1876238584518433,-8.215628623962402,0.5558873812357584,1.6887020028533084e+18,60.50130859375,-1.1885401407877605,-8.211148738861084,0.5582798719406128,,,,,,,,,,,,1.6887020028471877e+18,60.49518720703124,-9.4623197555542,48.31688003540039,9.23051986694336,1.6887020028471877e+18,60.49518720703124,-264.00311279296875,143.7818817138672,-123.98127746582033,1.688702002844661e+18,60.49266113281251,0.5081980029741923,-0.6505912939707438,-0.3179297645886739,0.4603062669436137,-1.75832196076711,1.282922625541687,-0.2005879903833071
0.55,1.688702002896567e+18,60.54456689453125,11.11970599492391,-13.691058476765951,4.118045727411906,1.688702002896567e+18,60.54456689453125,10.312666893005373,-22.943979263305664,7.3744797706604,1.688702002896567e+18,60.54456689453125,-0.8128852049509684,-9.235417366027832,3.193746566772461,1.6887020029052155e+18,60.553215494791665,-1.0580185850461323,-0.8126543760299683,-1.2496267060438793,1.6887020029052155e+18,60.553215494791665,-1.059036691983541,-0.8081238071123759,-1.2471831838289895,,,,,,,,,,,,1.6887020028971963e+18,60.54519614257813,-14.112959671020509,48.21684036254883,2.5693199396133424,1.6887020028971963e+18,60.54519614257813,-268.653759765625,143.6818359375,-130.6424774169922,1.688702002896567e+18,60.54456689453125,0.5479492346445719,-0.7026645938555399,-0.2161486397186914,0.3987930615743001,-1.8139789899190264,1.230323036511739,-0.4136520425478617
0.6,1.688702002948473e+18,60.59647322591146,4.740610281626384,-4.551559766133626,8.135494232177734,1.688702002948473e+18,60.59647322591146,3.2693932255109153,-13.700105985005695,11.464611371358236,1.688702002948473e+18,60.59647322591146,-1.4770630995432537,-9.131041526794432,3.2664294242858887,1.688702002957128e+18,60.60512801106771,0.815555989742279,3.810119231541952,-1.756899317105611,1.688702002957128e+18,60.60512801106771,0.8145379026730856,3.814548055330912,-1.754506786664327,,,,,,,,,,,,1.6887020029471995e+18,60.59519926757813,-9.32811975479126,49.19771881103516,1.6347999334335328,1.6887020029471995e+18,60.59519926757813,-263.86891479492186,144.6627166748047,-131.57699890136718,1.688702002948473e+18,60.59647322591146,0.508372942606608,-0.7154145836830139,-0.2495597054560978,0.4081858098506927,-1.9946595430374143,1.1993035872777302,-0.1605894739429155
0.65,1.6887020030003786e+18,60.64837882486979,-3.5304064750671387,4.841475963592529,2.079636891682943,1.6887020030003786e+18,60.64837882486979,-4.723232428232829,-4.2947178681691485,5.551149129867554,1.6887020030003786e+18,60.64837882486979,-1.19867205619812,-9.1186892191569,3.4088246822357178,1.6887020030090278e+18,60.65702775065105,0.2157372385263442,4.356996297836304,-0.3911064763863881,1.6887020030090278e+18,60.65702775065105,0.2148209462563196,4.361476023991902,-0.3887648284435272,1.6887020030263334e+18,60.67433349609375,0.0,0.0,1.0615788698196411,6.864999771118164,1.5806519985198977,269.52423095703125,42.10000228881836,-122.7554136,49.190589,1.6887020029971955e+18,60.6451955078125,-4.821439933776856,49.641798400878905,4.657959938049316,1.6887020029971955e+18,60.6451955078125,-259.36224365234375,145.10679626464844,-128.5538360595703,1.6887020030003786e+18,60.64837882486979,0.4575082759062449,-0.6729570428530375,-0.327651172876358,0.4789683322111766,-1.9095642566680908,1.1962446371714277,0.0074677985782424
0.7,1.6887020030522872e+18,60.70028727213542,-2.540113846460978,4.398553530375163,0.6749474207560221,1.6887020030522872e+18,60.70028727213542,-3.482753356297811,-4.668596426645915,4.400400797526042,1.6887020030522872e+18,60.70028727213542,-0.9484854539235432,-9.04964542388916,3.6627659797668457,1.688702003052288e+18,60.7002880859375,-0.5758932158350945,1.7468454837799072,-0.7473172843456268,1.688702003052288e+18,60.7002880859375,-0.5769622027873993,1.751274287700653,-0.7450265288352966,,,,,,,,,,,,1.688702003047189e+18,60.69518896484375,-2.796239972114563,49.539319610595705,6.068279838562011,1.688702003047189e+18,60.69518896484375,-257.3370300292969,145.0043182373047,-127.14351806640624,1.6887020030522872e+18,60.70028727213542,0.4175247251987457,-0.6427473624547323,-0.3674754599730174,0.5266070167223612,-1.825423280398051,1.178243358929952,0.0849975782136122
0.75,1.6887020031041933e+18,60.75219327799479,-2.3200793266296387,-1.788862228393555,2.3578853607177734,1.6887020031041933e+18,60.75219327799479,-3.458625634511312,-10.459825197855633,6.891927560170491,1.6887020031041933e+18,60.75219327799479,-1.1443923711776736,-8.65345827738444,4.471354643503825,1.688702003095542e+18,60.74354207356771,-1.8875226974487305,0.1986839224894841,-0.4678209628909826,1.688702003095542e+18,60.74354207356771,-1.8884899218877156,0.2031636039415995,-0.4654284262408812,,,,,,,,,,,,1.6887020030971932e+18,60.745193359375,-0.683199992775917,49.89311981201172,2.3423999428749083,1.6887020030971932e+18,60.745193359375,-255.22399291992187,145.35811767578124,-130.86939849853516,1.6887020031041933e+18,60.75219327799479,0.3767019510269165,-0.6574458678563436,-0.3548336823781331,0.5475499033927917,-1.822816451390584,1.084402124087016,0.1161321997642516
0.8,1.688702003156097e+18,60.80409700520833,-0.2203452388445536,4.035804271697998,-2.289045731226603,1.688702003156097e+18,60.80409700520833,-1.5142579674720764,-4.323232332865397,2.766103029251098,1.688702003156097e+18,60.80409700520833,-1.299758752187093,-8.341532071431478,4.992461363474528,1.6887020031474388e+18,60.79543880208333,-1.1820751627286274,-0.7530441085497538,0.0130317956209182,1.6887020031474388e+18,60.79543880208333,-1.183042327562968,-0.7486153642336527,0.0154243558645248,,,,,,,,,,,,1.6887020031471877e+18,60.79518759765625,-0.8588799774646759,50.007798767089845,-1.1199599727988243,1.6887020031471877e+18,60.79518759765625,-255.39967651367184,145.47279663085936,-134.33175659179688,1.688702003156097e+18,60.80409700520833,0.3642328182856241,-0.6777025659879049,-0.3266833821932474,0.5488198002179464,-1.8260777393976848,1.020500620206197,0.082086553176244
0.85,1.688702003208007e+18,60.85600651041667,0.3004117608070373,1.448116620381673,-3.527487357457479,1.688702003208007e+18,60.85600651041667,-1.586441417535146,-6.450252215067546,2.0550358295440674,1.688702003208007e+18,60.85600651041667,-1.8926992019017537,-7.880864143371582,5.519835789998372,1.6887020031993556e+18,60.84735563151042,-1.3442089955012004,-0.1525635967652003,-1.5236506462097168,1.6887020031993556e+18,60.84735563151042,-1.3451761802037556,-0.1480839177966117,-1.5212071736653645,,,,,,,,,,,,1.688702003197188e+18,60.84518813476562,2.0154399633407594,50.049279022216794,-4.36759991645813,1.688702003197188e+18,60.84518813476562,-252.52535400390624,145.5142791748047,-137.57939453125,1.688702003208007e+18,60.85600651041667,0.3270870546499888,-0.7043136755625407,-0.3166210651397705,0.5445082585016886,-1.9015218416849773,0.9367084503173828,0.1512817045052845
0.9,1.6887020032512568e+18,60.89925671386719,0.1611608266830444,-3.09904146194458,-3.6218087673187256,1.6887020032512568e+18,60.89925671386719,-2.412563443183899,-10.508379936218262,2.348256349563598,1.6887020032512568e+18,60.89925671386719,-2.5795702934265137,-7.391833782196045,5.90737771987915,1.6887020032512622e+18,60.89926196289063,-1.60041606426239,-1.3644184470176697,-1.460986057917277,1.6887020032512622e+18,60.89926196289063,-1.6013832092285156,-1.3599387407302856,-1.458593527475993,,,,,,,,,,,,1.6887020032471936e+18,60.89519379882813,5.804759883880616,48.82195816040039,-7.898279857635498,1.6887020032471936e+18,60.89519379882813,-248.73603515625,144.28695983886718,-141.11007385253907,1.6887020032512568e+18,60.89925671386719,0.2923039644956589,-0.7326325178146362,-0.3075289875268936,0.5320757627487183,-1.9833707213401792,0.8565998673439026,0.2143920361995696
0.95,1.6887020032945132e+18,60.94251326497396,2.6960368951161704,-6.254914919535319,-3.1400973002115884,1.6887020032945132e+18,60.94251326497396,-1.043470064798991,-13.008381207784018,2.9659036000569663,1.6887020032945132e+18,60.94251326497396,-3.745352983474731,-6.7359615961710615,6.043313503265381,1.6887020033031688e+18,60.95116853841146,-1.7965037822723389,-4.500651439030965,-3.0747901995976767,1.6887020033031688e+18,60.95116853841146,-1.797420064608256,-4.496171792348226,-3.0724485715230307,,,,,,,,,,,,1.6887020032971884e+18,60.9451884765625,11.409439849853516,47.30671920776367,-11.26547966003418,1.6887020032971884e+18,60.9451884765625,-243.13135375976563,142.77171630859374,-144.4772735595703,1.6887020032945132e+18,60.94251326497396,0.2639679412047067,-0.7814072966575623,-0.2822761535644531,0.4889060159524281,-2.124695062637329,0.7601372599601746,0.2539121657609939
1.0,1.688702003346422e+18,60.99442220052083,22.254920323689777,-10.89325714111328,1.5014588038126628,1.688702003346422e+18,60.99442220052083,16.182261149088543,-15.613167762756348,7.569096247355144,1.688702003346422e+18,60.99442220052083,-6.078506310780843,-4.702406167984009,6.004949887593587,1.6887020033550712e+18,61.0030712890625,0.1240056653817495,5.951761881510415,-6.287177801132202,1.6887020033550712e+18,61.0030712890625,0.1229875187079111,5.956241607666016,-6.284785350163777,,,,,,,,,,,,1.6887020033471923e+18,60.99519223632812,26.483759307861327,40.61867904663086,-12.988119506835938,1.6887020033471923e+18,60.99519223632812,-228.0570373535156,136.08367614746095,-146.19991455078124,1.688702003346422e+18,60.99442220052083,0.140263686577479,-0.8495760560035706,-0.2954643865426381,0.407137244939804,-2.3654192288716636,0.5039948423703512,0.4613407254219055
1.05,1.6887020033983304e+18,61.04633048502604,-6.278055191040039,-5.642396450042725,-7.837580839792888,1.6887020033983304e+18,61.04633048502604,-10.476974169413248,-10.063215096791586,-0.0901296536127726,1.6887020033983304e+18,61.04633048502604,-4.2047648429870605,-4.403313954671224,7.684763749440511,1.6887020034069814e+18,61.0549814453125,0.9014334479967752,0.4572835763295493,1.0072149733702342,1.6887020034069814e+18,61.0549814453125,0.9004154205322266,0.4617124001185099,1.0096584558486938,,,,,,,,,,,,1.6887020033971884e+18,61.045188427734374,26.115319442749023,37.51987915039062,-21.16211929321289,1.6887020033971884e+18,61.045188427734374,-228.42547607421875,132.98487548828126,-154.37391662597656,1.6887020033983304e+18,61.04633048502604,0.045462797085444,-0.765902042388916,-0.3576343854268392,0.5320300658543905,-2.0726420084635415,0.4672255416711171,0.5937291781107584
1.1,1.6887020034502277e+18,61.09822729492188,8.019687255223593,-10.044695218404136,-7.0208360354105634,1.6887020034502277e+18,61.09822729492188,3.633102258046468,-14.945171674092611,0.3250250816345215,1.6887020034502277e+18,61.09822729492188,-4.392431100209554,-4.882972399393718,7.283173720041911,1.6887020034588805e+18,61.10688037109375,0.3083851548532645,-1.023657461007436,2.764979680379232,1.6887020034588805e+18,61.10688037109375,0.307468814154466,-1.0192286570866902,2.7673722902933755,,,,,,,,,,,,1.6887020034471872e+18,61.095187207031245,24.192599487304687,39.645118713378906,-19.729840087890626,1.6887020034471872e+18,61.095187207031245,-230.348193359375,135.11011657714843,-152.94163513183594,1.6887020034502277e+18,61.09822729492188,0.1028418764472007,-0.7852019270261129,-0.3274845977624257,0.5147202213605245,-2.114241361618042,0.5223521590232849,0.4907387892405192
1.15,1.6887020035021366e+18,61.15013663736979,2.214118321736654,-8.338455200195312,-4.384507656097412,1.6887020035021366e+18,61.15013663736979,-1.4157533993323643,-14.573486328125,2.3092732628186545,1.6887020035021366e+18,61.15013663736979,-3.635717709859213,-6.217526435852051,6.631093502044678,1.6887020035021327e+18,61.1501328125,3.38297176361084,0.1802815943956375,2.557387351989746,1.6887020035021327e+18,61.1501328125,3.3819791078567505,0.1848630979657173,2.559830904006958,,,,,,,,,,,,1.688702003497186e+18,61.1451861328125,18.512279891967772,43.27095947265625,-16.36019973754883,1.688702003497186e+18,61.1451861328125,-236.02851257324215,138.7359588623047,-149.5719970703125,1.6887020035021366e+18,61.15013663736979,0.1870265553394953,-0.757833460966746,-0.332897424697876,0.5280773440996805,-2.0724483331044516,0.6888971328735352,0.4088844160238902
1.2,1.688702003554041e+18,61.20204134114584,2.7348507245381675,-10.10558795928955,2.4217007954915366,1.688702003554041e+18,61.20204134114584,-0.0620139837265014,-17.9627202351888,7.638887087504069,1.688702003554041e+18,61.20204134114584,-2.802710692087809,-7.839628537495931,5.15449873606364,1.688702003545392e+18,61.19339192708333,3.5728489557902017,-1.205593506495158,2.9355129400889077,1.688702003545392e+18,61.19339192708333,3.571830908457438,-1.2011137803395588,2.93795641263326,1.6887020035453937e+18,61.1933935546875,0.0,0.0,1.0719456672668457,6.866000175476074,1.5942506790161133,269.4947204589844,42.10000228881836,-122.755427,49.1905899,1.6887020035471846e+18,61.195184667968746,12.178039741516113,47.723959350585936,-8.047119903564454,1.6887020035471846e+18,61.195184667968746,-242.36275329589844,143.18895874023437,-141.25892028808593,1.688702003554041e+18,61.20204134114584,0.301186482111613,-0.7179737488428751,-0.3567074735959371,0.5153090953826904,-2.069316784540812,0.9288561542828878,0.343429684638977
1.25,1.6887020036059512e+18,61.25395092773437,2.884767214457194,-6.99741808573405,10.188310623168944,1.6887020036059512e+18,61.25395092773437,0.8410771687825521,-15.705291430155436,14.302898089090982,1.6887020036059512e+18,61.25395092773437,-2.049536108970642,-8.690369288126627,4.051899433135986,1.6887020035972997e+18,61.2452998046875,2.211077610651652,0.4401284058888752,1.3353514273961384,1.6887020035972997e+18,61.2452998046875,2.2101105054219565,0.4446080823739369,1.3376931150754292,,,,,,,,,,,,1.6887020035971863e+18,61.2451861328125,6.126839828491211,49.62227935791016,-0.6392799973487854,1.6887020035971863e+18,61.2451861328125,-248.41395568847656,145.0872772216797,-133.85107421875,1.6887020036059512e+18,61.25395092773437,0.3689505358537037,-0.6791442036628723,-0.3781827390193939,0.5092509984970093,-2.038912773132324,1.089878002802531,0.3024356762568156
1.3,1.6887020036578578e+18,61.30585758463542,0.3195744752883911,5.820202032725017,3.687765598297119,1.6887020036578578e+18,61.30585758463542,-0.9214361111323038,-3.3627134958902993,6.99960454305013,1.6887020036578578e+18,61.30585758463542,-1.2468566099802654,-9.165410995483398,3.2491513888041177,1.6887020036492055e+18,61.297205647786456,1.87973419825236,0.2368629972139994,1.8031214872996013,1.6887020036492055e+18,61.297205647786456,1.8787160714467368,0.2413426730781793,1.8055649201075237,,,,,,,,,,,,1.6887020036471877e+18,61.29518745117188,2.964599978923798,49.51003875732422,4.711639881134033,1.6887020036471877e+18,61.29518745117188,-251.5761932373047,144.97503967285155,-128.50015869140626,1.6887020036578578e+18,61.30585758463542,0.414689948161443,-0.6389212608337402,-0.3939273258050282,0.5141170819600424,-1.933972676595052,1.208508014678955,0.21503713230292
1.35,1.688702003701106e+18,61.349105957031256,-3.915747880935669,8.540023803710938,0.9516848325729368,1.688702003701106e+18,61.349105957031256,-4.408177375793457,-0.863509863615036,3.8195431232452393,1.688702003701106e+18,61.349105957031256,-0.498275488615036,-9.386029243469238,2.8051708936691284,1.6887020037011126e+18,61.34911238606771,1.050179163614909,0.3542509277661641,1.697696328163147,1.6887020037011126e+18,61.34911238606771,1.0492119590441389,0.3587306241194407,1.7000888586044312,,,,,,,,,,,,1.6887020036971853e+18,61.34518520507813,-2.132559931278229,49.114759063720705,9.259799575805664,1.6887020036971853e+18,61.34518520507813,-256.67335510253906,144.5797576904297,-123.95199737548828,1.688702003701106e+18,61.349105957031256,0.447343960404396,-0.6081437170505524,-0.3942977786064148,0.5239448249340057,-1.7458069324493408,1.277409911155701,0.0361614070134237
1.4,1.6887020037443676e+18,61.39236751302084,-4.308924674987793,9.50135072072347,0.3788898785909017,1.6887020037443676e+18,61.39236751302084,-4.195415735244751,-0.0007976094881693,2.93559463818868,1.6887020037443676e+18,61.39236751302084,0.1076630304257074,-9.484643618265787,2.4940173625946045,1.6887020037530163e+18,61.401016357421874,0.7059565981229147,-0.8384125431378683,1.7849482695261638,1.6887020037530163e+18,61.401016357421874,0.7049384911855062,-0.8339837988217672,1.7873917023340862,,,,,,,,,,,,1.6887020037471872e+18,61.3951873046875,-7.273639965057373,48.32419967651367,11.67295970916748,1.6887020037471872e+18,61.3951873046875,-261.81443481445314,143.78919677734376,-121.53883666992188,1.6887020037443676e+18,61.39236751302084,0.480964332818985,-0.5908676783243815,-0.3810508251190185,0.5235726038614908,-1.5239927371342976,1.314543604850769,-0.2155933082103729
1.45,1.688702003796273e+18,61.44427286783855,-1.97550368309021,9.497163772583008,-0.942523717880249,1.688702003796273e+18,61.44427286783855,-1.4097713232040403,-0.0394815728068352,1.4237294991811116,1.688702003796273e+18,61.44427286783855,0.5598863164583842,-9.51914087931315,2.303565820058187,1.6887020038049236e+18,61.45292358398438,0.378634641567866,0.014406236509482,0.1907426714897155,1.6887020038049236e+18,61.45292358398438,0.3776165346304576,0.0188859154780705,0.1931861440340677,,,,,,,,,,,,1.6887020037971863e+18,61.44518642578125,-10.91655979156494,47.282318878173825,12.785599708557127,1.6887020037971863e+18,61.44518642578125,-265.4573547363281,142.747314453125,-120.4261978149414,1.688702003796273e+18,61.44427286783855,0.5078157583872477,-0.5806137919425964,-0.3662488261858621,0.5204477707544962,-1.328121582667033,1.3290276924769084,-0.4462423125902812
1.5,1.6887020038481836e+18,61.49618343098958,-3.0161061684290567,8.711867650349934,-2.4175937175750732,1.6887020038481836e+18,61.49618343098958,-2.944966455300649,-0.8273184100786845,-0.0305084983507791,1.6887020038481836e+18,61.49618343098958,0.0652937144041061,-9.521681785583496,2.324397881825765,1.6887020038568325e+18,61.50483243815105,-1.0353657106558485,-5.068807035684586,-2.3542237281799316,1.6887020038568325e+18,61.50483243815105,-1.0364346628387768,-5.064378201961517,-2.3518820802370706,,,,,,,,,,,,1.6887020038471898e+18,61.495189648437496,-9.67215976715088,47.7385986328125,13.002759742736815,1.6887020038471898e+18,61.495189648437496,-264.21295776367185,143.20359802246094,-120.20903625488282,1.6887020038481836e+18,61.49618343098958,0.5022218624750773,-0.6014464100201925,-0.3662688434123992,0.5010897219181061,-1.5333772500356038,1.330851674079895,-0.2760929614305495
1.55,1.6887020039000942e+18,61.54809415690104,32.95555750528971,-16.963694890340168,2.7836693127950034,1.6887020039000942e+18,61.54809415690104,31.66980520884196,-26.29213587443034,5.638886133829753,1.6887020039000942e+18,61.54809415690104,-1.291598916053772,-9.310937563578287,2.792529265085856,1.6887020039087424e+18,61.55674259440104,-2.34898046652476,-5.304142872492473,1.3732759753863018,1.6887020039087424e+18,61.55674259440104,-2.349947770436605,-5.299714128176371,1.3757194876670835,,,,,,,,,,,,1.6887020038971896e+18,61.54518959960937,-10.855559730529786,48.62187957763672,5.868199872970582,1.6887020038971896e+18,61.54518959960937,-265.3963562011719,144.08687744140624,-127.34359741210938,1.6887020039000942e+18,61.54809415690104,0.5395364165306091,-0.7116224567095438,-0.238441119591395,0.3785156210263569,-2.005447189013163,1.2537349859873457,-0.2199938834334412
1.6,1.6887020039519972e+18,61.59999731445313,2.6382741928100586,-10.85405127207438,8.837263266245523,1.6887020039519972e+18,61.59999731445313,1.0927222669124603,-19.98505401611328,12.180264790852863,1.6887020039519972e+18,61.59999731445313,-1.551397959391276,-9.11349868774414,3.280313571294149,1.688702003952001e+18,61.60000122070313,0.8379544094204904,2.1015291810035706,-1.6637678146362305,1.688702003952001e+18,61.60000122070313,0.8369617313146591,2.1060343086719513,-1.6614007353782654,,,,,,,,,,,,1.6887020039471903e+18,61.59519018554688,-11.34843978881836,48.90003967285156,0.1756800055503845,1.6887020039471903e+18,61.59519018554688,-265.8892333984375,144.3650360107422,-133.03612060546874,1.6887020039519972e+18,61.59999731445313,0.5291390816370646,-0.7316561142603556,-0.2063059608141581,0.3762124975522359,-2.01118799050649,1.1942776838938396,-0.2648057490587234
1.65,1.6887020040039055e+18,61.65190535481771,-2.7494312524795532,3.7513214747111,3.3367505073547363,1.6887020040039055e+18,61.65190535481771,-4.133800586064656,-5.434299548467,6.600202401479085,1.6887020040039055e+18,61.65190535481771,-1.3902153571446736,-9.168116569519045,3.200764417648315,1.6887020039952535e+18,61.64325333658854,0.8491536180178324,4.6530624230702715,-1.0707449714342754,1.6887020039952535e+18,61.64325333658854,0.8481863935788473,4.657541990280151,-1.068352421124776,,,,,,,,,,,,1.688702003997189e+18,61.6451890625,-7.729919815063477,49.36363906860352,4.123600006103516,1.688702003997189e+18,61.6451890625,-262.2707153320313,144.8286376953125,-129.08819885253905,1.6887020040039055e+18,61.65190535481771,0.4877342482407887,-0.6958621342976888,-0.2927041848500569,0.4376169840494792,-1.9805141687393188,1.209975639979045,-0.055380497748653
1.7,1.6887020040558129e+18,61.70381274414063,-0.1254376173019409,7.232708930969238,-0.6531514326731364,1.6887020040558129e+18,61.70381274414063,-1.8221344153086343,-1.8751753568649292,2.6781667868296304,1.6887020040558129e+18,61.70381274414063,-1.702542821566264,-9.09037971496582,3.2686308224995932,1.6887020040471616e+18,61.69516170247396,0.0845539271831512,1.6566156148910522,-1.2504411538441975,1.6887020040471616e+18,61.69516170247396,0.0836376249790191,1.661146243413289,-1.2480485836664836,1.6887020040644613e+18,61.71246142578125,0.0,0.0,1.0719456672668457,6.872000217437744,1.6023027896881104,269.5471496582031,42.10000228881836,-122.7554396,49.1905905,1.688702004047193e+18,61.69519335937501,-3.53799991607666,49.65155868530273,6.746599864959717,1.688702004047193e+18,61.69519335937501,-258.07879028320315,145.116552734375,-126.46519622802734,1.6887020040558129e+18,61.70381274414063,0.4487517376740773,-0.6872313817342123,-0.3376683592796325,0.4605574409166972,-2.0526440938313804,1.1889937321345012,0.1361189807454744
1.75,1.68870200410772e+18,61.755719970703126,-1.203234871228536,-1.332411766052246,2.5770501295725503,1.68870200410772e+18,61.755719970703126,-3.005584637324015,-10.064610799153646,6.751947402954102,1.68870200410772e+18,61.755719970703126,-1.8081957896550496,-8.714694341023764,4.112209876378377,1.6887020040990692e+18,61.747069091796874,-1.942755103111267,1.5161166191101074,-0.6708318491776785,1.6887020040990692e+18,61.747069091796874,-1.943722327550252,1.5205454031626384,-0.6684392889340719,,,,,,,,,,,,1.6887020040971873e+18,61.74518745117187,-0.4928799927234649,49.81991882324219,4.616479921340942,1.6887020040971873e+18,61.74518745117187,-255.0336730957031,145.2849151611328,-128.59532012939454,1.68870200410772e+18,61.755719970703126,0.4010284741719563,-0.6911603212356567,-0.337850938240687,0.4969793558120727,-1.9887038469314575,1.0982656478881836,0.1524405976136525
1.8,1.6887020041596273e+18,61.807627115885424,-0.876482089360555,1.070714791615804,-0.512062152226766,1.6887020041596273e+18,61.807627115885424,-2.5469603538513184,-7.362515926361084,4.303292195002238,1.6887020041596273e+18,61.807627115885424,-1.6763242880503335,-8.415726025899252,4.75266695022583,1.6887020041509768e+18,61.798976969401046,-0.978046158949534,0.112704632182916,0.267660786708196,1.6887020041509768e+18,61.798976969401046,-0.9790133436520896,0.1171843186020851,0.2700533469518025,,,,,,,,,,,,1.6887020041471972e+18,61.79519711914063,0.1634799867868423,49.98339920043945,0.2757199883460998,1.6887020041471972e+18,61.79519711914063,-254.37731323242187,145.44839477539062,-132.9360778808594,1.6887020041596273e+18,61.807627115885424,0.37981116771698,-0.6953996221224467,-0.318697581688563,0.5201413631439209,-1.911131779352824,1.034888784090678,0.0945839509367942
1.85,1.688702004202875e+18,61.85087487792968,1.0599828958511353,3.2135121822357178,-3.108358860015869,1.688702004202875e+18,61.85087487792968,-0.8850452601909639,-4.92592453956604,2.09641170501709,1.688702004202875e+18,61.85087487792968,-1.9508742094039917,-8.121932029724121,5.142083168029785,1.6887020042028828e+18,61.8508828125,-1.1856894493103027,0.1984803080558776,-1.3879876335461934,1.6887020042028828e+18,61.8508828125,-1.186656634012858,0.20301087697347,-1.385544200738271,,,,,,,,,,,,1.6887020041971978e+18,61.845197802734376,0.570960021018982,50.07855987548828,-2.393639945983886,1.6887020041971978e+18,61.845197802734376,-253.96983337402344,145.5435546875,-135.60543518066407,1.688702004202875e+18,61.85087487792968,0.357069119811058,-0.709668755531311,-0.3091427683830261,0.5227048099040985,-1.9343531727790833,0.9791446626186372,0.1173868738114833
1.9,1.688702004246134e+18,61.89413411458333,0.0623060862223307,-0.4995458920796712,-3.3544514973958335,1.688702004246134e+18,61.89413411458333,-2.463610331217448,-8.212566216786703,2.232503573099772,1.688702004246134e+18,61.89413411458333,-2.531762440999349,-7.695515632629395,5.524267673492432,1.6887020042547863e+18,61.902786051432294,-1.2881111701329548,-0.7709628495310122,-1.6633861064910889,1.6887020042547863e+18,61.902786051432294,-1.2891801993052163,-0.7664831733951968,-1.6610443989435832,,,,,,,,,,,,1.6887020042471936e+18,61.89519345703125,4.555479955673218,49.34411849975586,-5.20939998626709,1.6887020042471936e+18,61.89519345703125,-249.98531188964844,144.80911560058593,-138.42119750976562,1.688702004246134e+18,61.89413411458333,0.3170765141646067,-0.7290867765744528,-0.3118548095226287,0.5200095772743225,-2.0010968844095864,0.905528485774994,0.2030466894308725
1.95,1.6887020042980457e+18,61.94604581705729,1.6866722106933594,-4.603998343149821,-3.002373695373535,1.6887020042980457e+18,61.94604581705729,-1.9519450664520264,-11.650254885355633,2.8362924257914224,1.6887020042980457e+18,61.94604581705729,-3.644463300704956,-7.028751850128174,5.775978724161784,1.688702004306695e+18,61.954694824218755,-1.8005253473917644,-2.834974686304728,-1.6575319369633992,1.688702004306695e+18,61.954694824218755,-1.801543394724528,-2.8305459022521973,-1.655139406522115,,,,,,,,,,,,1.6887020042971894e+18,61.94518930664062,9.796599864959717,48.04603958129883,-8.415559864044189,1.6887020042971894e+18,61.94518930664062,-244.74419555664065,143.51103820800782,-141.62735595703126,1.6887020042980457e+18,61.94604581705729,0.2804803550243377,-0.7742822567621866,-0.2928401132424672,0.4852216839790344,-2.1336002349853516,0.8021909991900126,0.2628986239433288
2.0,1.688702004349947e+18,61.99794685872396,24.938023964564007,-8.826391696929932,-0.7471665541330975,1.688702004349947e+18,61.99794685872396,19.01396681865056,-14.42074457804362,4.6660042603810625,1.688702004349947e+18,61.99794685872396,-5.929904460906982,-5.576848189036052,5.350483417510986,1.6887020043586e+18,62.00659977213542,-1.0027352968851724,-0.2315688133239746,-6.4296112060546875,1.6887020043586e+18,62.00659977213542,-1.0037025014559429,-0.227089087168375,-6.427167733510335,,,,,,,,,,,,1.6887020043471903e+18,61.9951904296875,21.12551918029785,44.10055847167969,-10.252879905700684,1.6887020043471903e+18,61.9951904296875,-233.41527709960937,139.56555786132813,-143.4646759033203,1.688702004349947e+18,61.99794685872396,0.2137725303570429,-0.8540020982424418,-0.2684720158576965,0.3862734337647756,-2.4032188256581626,0.60987721880277,0.3612469832102458
2.05,1.6887020044018545e+18,62.049854329427085,-6.140476226806641,-7.834902286529541,-3.5710905392964674,1.6887020044018545e+18,62.049854329427085,-11.032507260640465,-12.329816023508709,3.658625761667888,1.6887020044018545e+18,62.049854329427085,-4.897877057393392,-4.477409521738688,7.167028745015462,1.688702004401853e+18,62.04985266113281,2.090075373649597,9.187413454055786,-0.3793473243713378,1.688702004401853e+18,62.04985266113281,2.0890827775001526,9.191994905471802,-0.3769802451133728,,,,,,,,,,,,1.6887020043971917e+18,62.04519155273438,27.07424011230469,38.66179885864258,-17.560679626464843,1.6887020043971917e+18,62.04519155273438,-227.4665557861328,134.12680053710938,-150.77247619628906,1.6887020044018545e+18,62.049854329427085,0.0824568743507067,-0.7998619476954142,-0.3299078345298767,0.4912324945131938,-2.170560916264852,0.4761290351549784,0.5270636777083079
2.1,1.688702004453766e+18,62.101765706380206,2.906989415486654,-8.294901212056478,-8.428744951883951,1.688702004453766e+18,62.101765706380206,-1.297907034556071,-13.310275077819824,-1.0536395609378817,1.688702004453766e+18,62.101765706380206,-4.210742632548015,-4.997869491577148,7.312417666117351,1.6887020044451136e+18,62.09311368815104,0.0559959908326467,-1.5110770364602406,1.6287194391091664,1.6887020044451136e+18,62.09311368815104,0.0550287812948227,-1.5066482027371724,1.631162961324056,,,,,,,,,,,,1.6887020044471913e+18,62.0951912109375,23.56063919067383,40.447879791259766,-19.61760025024414,1.6887020044471913e+18,62.0951912109375,-230.98015441894532,135.91287841796876,-152.82939453125,1.688702004453766e+18,62.101765706380206,0.102149724960327,-0.7757339278856913,-0.3359096745649974,0.5236410895983378,-2.094536066055298,0.5362311601638794,0.5029576122760773
2.15,1.68870200450567e+18,62.153670084635415,6.280711889266968,-9.970858414967855,-3.8709848721822104,1.68870200450567e+18,62.153670084635415,2.4843479990959167,-16.134404182434082,2.7930221954981485,1.68870200450567e+18,62.153670084635415,-3.802210013071696,-6.14604123433431,6.601319630940755,1.68870200449702e+18,62.14502001953125,2.5013404488563538,-0.1095993916193644,2.399885892868042,1.68870200449702e+18,62.14502001953125,2.5003731648127236,-0.1051197250684103,2.402278502782186,,,,,,,,,,,,1.6887020044971932e+18,62.14519311523437,19.166199111938475,43.424679565429685,-15.869759559631348,1.6887020044971932e+18,62.14519311523437,-235.37459716796872,138.88967895507812,-149.08155822753906,1.68870200450567e+18,62.153670084635415,0.1857913533846537,-0.7643103996912638,-0.3306253751118977,0.5204669833183289,-2.0935349464416504,0.6800720691680908,0.4128082791964213
2.2,1.688702004557574e+18,62.20557421875,1.649251103401184,-9.384376049041748,2.332424322764078,1.688702004557574e+18,62.20557421875,-1.1535399357477825,-17.288742383321125,7.471788088480632,1.688702004557574e+18,62.20557421875,-2.8086370627085366,-7.886862119038899,5.076676209767659,1.6887020045489295e+18,62.19692944335937,3.938299258550008,-0.8331183940172195,2.9537879625956216,1.6887020045489295e+18,62.19692944335937,3.937281052271525,-0.8286386951804161,2.9561296304066977,,,,,,,,,,,,1.688702004547193e+18,62.19519340820312,12.175599670410156,47.99967880249024,-7.402959871292114,1.688702004547193e+18,62.19519340820312,-242.36519775390624,143.4646759033203,-140.61475830078126,1.688702004557574e+18,62.20557421875,0.2997860113779704,-0.7135550181070963,-0.3658603727817535,0.5157909393310547,-2.0773354371388755,0.9375686248143514,0.3679942886034648
2.25,1.6887020046094807e+18,62.25748071289062,4.230694770812988,-7.895306587219238,10.32024828592936,1.6887020046094807e+18,62.25748071289062,2.0783658425013223,-16.635900179545086,14.303097407023111,1.6887020046094807e+18,62.25748071289062,-2.158174991607666,-8.723089536031088,3.920161167780558,1.688702004600833e+18,62.2488330078125,2.0516927242279053,-0.3253366251786549,1.6035212675730388,1.688702004600833e+18,62.2488330078125,2.05072553952535,-0.3208569685618083,1.6059647401173909,1.6887020045835308e+18,62.23153076171875,0.0,0.0,1.0815412998199463,6.859000205993652,1.6110143661499023,270.08746337890625,42.10000228881836,-122.7554515,49.1905929,1.6887020045971937e+18,62.24519375,6.44891996383667,49.46367874145508,0.5636399835348129,1.6887020045971937e+18,62.24519375,-248.0918731689453,144.92867736816407,-132.64815673828124,1.6887020046094807e+18,62.25748071289062,0.3738997777303059,-0.6824507514635721,-0.379568467537562,0.5000768403212229,-2.073302427927653,1.09774649143219,0.3204449514547984
2.3,1.6887020046527386e+18,62.30073840332031,-0.2258604764938354,3.723691463470459,4.798533797264099,1.6887020046527386e+18,62.30073840332031,-1.5203396677970886,-5.406881809234619,8.245965957641602,1.6887020046527386e+18,62.30073840332031,-1.3003252148628237,-9.11306858062744,3.384744644165039,1.6887020046527398e+18,62.300739827473954,1.5081753730773926,0.7369580070177714,1.888337175051371,1.6887020046527398e+18,62.300739827473954,1.5072081883748372,0.7414376884698868,1.8907806475957232,,,,,,,,,,,,1.6887020046471926e+18,62.29519252929688,2.671799874305725,49.65155944824219,5.204519891738892,1.6887020046471926e+18,62.29519252929688,-251.868994140625,145.11655883789064,-128.0072769165039,1.6887020046527386e+18,62.30073840332031,0.4108895510435104,-0.6442629396915436,-0.3886999189853668,0.5146852731704712,-1.9371416568756104,1.1932957768440249,0.2116691917181015
2.35,1.6887020046959962e+18,62.34399601236979,-1.1978834668795268,7.603160699208577,0.874749501546224,1.6887020046959962e+18,62.34399601236979,-1.795613984266917,-1.742971936861674,3.902693827946981,1.6887020046959962e+18,62.34399601236979,-0.6035765409469604,-9.328628222147625,2.965256929397583,1.688702004704643e+18,62.35264298502605,1.0600038766860962,0.7537568211555481,1.331635316212972,1.688702004704643e+18,62.35264298502605,1.0589858293533323,0.7582364877065023,1.334078828493754,,,,,,,,,,,,1.688702004697193e+18,62.345193017578126,-2.0813199400901796,49.297759246826175,8.852319812774658,1.688702004697193e+18,62.345193017578126,-256.622119140625,144.76275329589845,-124.35947875976562,1.6887020046959962e+18,62.34399601236979,0.4401716887950897,-0.6144694487253824,-0.3911669552326202,0.5248873829841614,-1.7692426443099976,1.2583982944488523,0.0580175241436032
2.4,1.6887020047479017e+18,62.39590144856771,-5.773480494817098,9.377244313557943,0.3360217412312825,1.6887020047479017e+18,62.39590144856771,-5.780461390813191,-0.1146560857693354,2.936591625213623,1.6887020047479017e+18,62.39590144856771,-0.0128268422558903,-9.474396069844564,2.5378824869791665,1.6887020047565527e+18,62.40455273437501,0.8471174041430155,-1.3352496027946472,1.5176947116851809,1.6887020047565527e+18,62.40455273437501,0.8460992574691772,-1.330719033877055,1.5200872421264648,,,,,,,,,,,,1.6887020047471918e+18,62.3951916015625,-4.911719799041748,48.48523941040039,11.71443977355957,1.6887020047471918e+18,62.3951916015625,-259.4525085449219,143.9502380371094,-121.49735870361329,1.6887020047479017e+18,62.39590144856771,0.4718048671881358,-0.5916566451390585,-0.387838880221049,0.5259977380434672,-1.572583556175232,1.3108467658360798,-0.1492498442530631
2.45,1.6887020047998088e+18,62.44780875651042,-1.5400134722391765,9.64164924621582,-0.8380452791849772,1.6887020047998088e+18,62.44780875651042,-1.1579267779986064,0.1026919682820638,1.5555341243743896,1.6887020047998088e+18,62.44780875651042,0.3762406607468923,-9.52145290374756,2.330892006556193,1.6887020048084595e+18,62.45645947265624,0.3300199508666992,-0.021278478205204,0.4671591992179553,1.6887020048084595e+18,62.45645947265624,0.3290527462959289,-0.0167987942695618,0.4695517495274543,,,,,,,,,,,,1.6887020047971927e+18,62.44519282226563,-9.20123987197876,47.78983840942383,12.978359603881836,1.6887020047971927e+18,62.44519282226563,-263.7420349121094,143.254833984375,-120.23343658447266,1.6887020047998088e+18,62.44780875651042,0.5041963855425516,-0.5878929098447164,-0.367368737856547,0.5149717330932617,-1.4069199562072754,1.330170313517253,-0.3755474189917246
2.5,1.6887020048517112e+18,62.499711263020835,-2.495589017868042,9.949153582255043,-2.868370016415914,1.6887020048517112e+18,62.499711263020835,-2.199801524480184,0.3902294958631198,-0.5473582148551941,1.6887020048517112e+18,62.499711263020835,0.2899414151906966,-9.54141934712728,2.258324305216471,1.688702004851715e+18,62.49971484375,0.1918116807937621,0.1492801886051893,-0.4090506285429001,1.688702004851715e+18,62.49971484375,0.1908190250396728,0.1537089627236127,-0.4066071808338165,,,,,,,,,,,,1.688702004847192e+18,62.49519213867187,-9.99911994934082,47.27499923706055,13.84943962097168,1.688702004847192e+18,62.49519213867187,-264.5399169921875,142.73999633789063,-119.36235809326172,1.6887020048517112e+18,62.499711263020835,0.5025172730286916,-0.5878860354423523,-0.3732545475165049,0.5123576323191324,-1.4395569562911987,1.33919092019399,-0.3377790947755177
2.55,1.6887020049036178e+18,62.551617919921874,21.543617248535156,-8.673350175221762,-0.0599362850189209,1.6887020049036178e+18,62.551617919921874,20.404197057088215,-18.06999858220418,2.627319097518921,1.6887020049036178e+18,62.551617919921874,-1.1452667315800984,-9.379144350687662,2.624567985534668,1.6887020048949686e+18,62.5429686686198,-1.96494992574056,-9.88018544514974,-0.3318016529083252,1.6887020048949686e+18,62.5429686686198,-1.9659679730733235,-9.87570571899414,-0.329409122467041,,,,,,,,,,,,1.6887020048971914e+18,62.54519125976562,-9.823439979553225,48.21683883666992,9.079239797592162,1.6887020048971914e+18,62.54519125976562,-264.3642333984375,143.68183288574218,-124.13255920410155,1.6887020049036178e+18,62.551617919921874,0.5309940675894419,-0.6935902833938599,-0.2696576714515686,0.3976369003454844,-1.978237231572469,1.276808540026347,-0.1656338746349016
2.6,1.688702004955527e+18,62.60352685546875,8.049920558929443,-19.14821974436442,14.92591031392415,1.688702004955527e+18,62.60352685546875,6.412366086927553,-28.217360814412434,18.39123471577962,1.688702004955527e+18,62.60352685546875,-1.6434005498886108,-9.051637649536133,3.4026374022165933,1.688702004946877e+18,62.594876871744795,-1.283478776613871,1.320181608200073,-1.6787086129188538,1.688702004946877e+18,62.594876871744795,-1.2843950788180034,1.3246612946192424,-1.6763160427411397,,,,,,,,,,,,1.6887020049471944e+18,62.595194189453125,-10.994639778137207,48.90247802734375,0.6587999705225229,1.6887020049471944e+18,62.595194189453125,-265.5354370117187,144.3674774169922,-132.5529998779297,1.688702004955527e+18,62.60352685546875,0.517424056927363,-0.732760508855184,-0.2135320355494816,0.3857321838537852,-2.0187718073527017,1.1779609123865764,-0.2287933578093846
2.65,1.6887020050074358e+18,62.65543562825521,-3.995601177215576,4.275272528330485,3.1799813906351724,1.6887020050074358e+18,62.65543562825521,-5.81595500310262,-4.796014229456584,6.546164512634277,1.6887020050074358e+18,62.65543562825521,-1.8261999289194744,-9.053782145182293,3.3034956455230713,1.6887020049987832e+18,62.64678320312501,1.4872023661931355,4.9854239622751875,-2.182926932970682,1.6887020049987832e+18,62.64678320312501,1.4862351417541504,4.989954551060994,-2.1805343627929688,,,,,,,,,,,,1.6887020049971896e+18,62.645189550781254,-4.8360799789428714,49.65399932861328,4.384679913520813,1.6887020049971896e+18,62.645189550781254,-259.3768737792969,145.1189971923828,-128.82711944580078,1.6887020050074358e+18,62.65543562825521,0.455516904592514,-0.6997125148773193,-0.3201245963573455,0.446782479683558,-2.0768359502156577,1.17851726214091,0.1073585858878989
2.7,1.688702005059336e+18,62.7073359375,-0.6315101782480875,8.993363698323568,-2.063348571459452,1.688702005059336e+18,62.7073359375,-2.696312348047892,-0.0853439966837565,1.1363913814226787,1.688702005059336e+18,62.7073359375,-2.070648193359375,-9.061203320821129,3.137052536010742,1.6887020050506898e+18,62.69868994140625,0.6852890054384867,1.3194689551989238,-0.6013968288898467,1.6887020050506898e+18,62.69868994140625,0.6842199961344401,1.323897699515025,-0.598953366279602,,,,,,,,,,,,1.6887020050471951e+18,62.695195068359375,-0.1220000103116035,49.495399475097656,7.856799793243408,1.6887020050471951e+18,62.695195068359375,-254.6627960205078,144.960400390625,-125.35499572753906,1.688702005059336e+18,62.7073359375,0.4270915985107422,-0.6850983103116354,-0.3684829970200856,0.4608534077803294,-2.157092730204264,1.1806997060775757,0.2969586948553721
2.75,1.688702005102596e+18,62.75059631347656,-1.5045864582061768,4.316647052764893,0.4053623676300049,1.688702005102596e+18,62.75059631347656,-3.6379876136779785,-4.638486742973328,3.894917130470276,1.688702005102596e+18,62.75059631347656,-2.139247179031372,-8.937629222869873,3.426867365837097,1.6887020051025964e+18,62.75059651692708,-1.5227343539396925,1.188183804353078,-0.2330450937151908,1.6887020051025964e+18,62.75059651692708,-1.5237524211406708,1.1926634709040325,-0.2306525334715843,1.6887020051025966e+18,62.7505966796875,0.0,0.0,1.0921701192855835,6.794000148773193,1.615082025527954,270.51678466796875,42.10000228881836,-122.7554624,49.1905947,1.6887020050971932e+18,62.74519326171875,1.3956799626350402,49.13671798706055,7.727479934692383,1.6887020050971932e+18,62.74519326171875,-253.1451171875,144.60171813964843,-125.48431701660157,1.688702005102596e+18,62.75059631347656,0.4066852331161499,-0.6845862865447998,-0.3742648810148239,0.4751494228839874,-2.132711172103882,1.149476706981659,0.3139617890119552
2.8,1.688702005145852e+18,62.793852050781254,-3.066208759943644,-2.119863192240397,2.406890551249186,1.688702005145852e+18,62.793852050781254,-4.877769072850545,-10.67059294382731,6.942974249521892,1.688702005145852e+18,62.793852050781254,-1.8174063364664712,-8.533225059509277,4.473396301269531,1.6887020051544978e+18,62.80249780273437,-1.8064812421798704,0.7388924360275269,0.5150612245003382,1.6887020051544978e+18,62.80249780273437,-1.807448407014211,0.7433211902777354,0.5175046660006046,,,,,,,,,,,,1.688702005147194e+18,62.79519409179687,0.7368799611926079,49.82235870361328,1.917840015888214,1.688702005147194e+18,62.79519409179687,-253.80391845703124,145.28735961914063,-131.29395751953126,1.688702005145852e+18,62.793852050781254,0.3747870723406474,-0.6882185141245524,-0.3444489141305287,0.5166906118392944,-1.960279107093811,1.058903415997823,0.1804402867952982
2.85,1.6887020051977556e+18,62.84575577799479,0.2105874220530192,2.4125401178995767,-1.9705013434092205,1.6887020051977556e+18,62.84575577799479,-1.6117654244105022,-5.86141840616862,3.061217705408732,1.6887020051977556e+18,62.84575577799479,-1.8281988700230916,-8.25645383199056,4.969031651814778,1.6887020052064097e+18,62.85440942382812,-0.8056294421354929,0.4917465150356293,-1.4650075833002727,1.6887020052064097e+18,62.85440942382812,-0.8065966268380483,0.4962262113889058,-1.4626150131225586,,,,,,,,,,,,1.6887020051971927e+18,62.845192578125,1.0199199672788382,49.79551773071289,-0.846679961681366,1.6887020051971927e+18,62.845192578125,-253.5208740234375,145.26051635742186,-134.05847778320313,1.6887020051977556e+18,62.84575577799479,0.350066214799881,-0.6927966674168905,-0.3361923893292745,0.5332101186116537,-1.9242568016052248,1.0039873719215393,0.1725668509801229
2.9,1.688702005249661e+18,62.897660481770835,0.5601696570714315,0.2657489776611328,-3.116857369740804,1.688702005249661e+18,62.897660481770835,-1.9439689715703328,-7.489136060078939,2.418744881947835,1.688702005249661e+18,62.897660481770835,-2.5099846522013345,-7.737380345662435,5.472914854685466,1.6887020052583158e+18,62.90631583658854,-1.8064812421798704,-1.0552697082360585,-1.4809409777323406,1.6887020052583158e+18,62.90631583658854,-1.8074484666188555,-1.050790011882782,-1.4784975449244182,,,,,,,,,,,,1.6887020052471951e+18,62.89519521484375,5.8193999290466305,49.36607818603515,-3.496519947052002,1.6887020052471951e+18,62.89519521484375,-248.72139587402344,144.8310760498047,-136.70831909179688,1.688702005249661e+18,62.897660481770835,0.3043049871921539,-0.7180807590484619,-0.3347373008728027,0.5285817583401998,-2.001376549402873,0.9125805894533792,0.262215589483579
2.95,1.6887020053015675e+18,62.949567871093755,1.7625584999720256,-4.323192596435547,-2.837529420852661,1.6887020053015675e+18,62.949567871093755,-1.851446509361267,-11.350354512532553,3.039682467778524,1.6887020053015675e+18,62.949567871093755,-3.619851032892863,-7.009657224019368,5.814524491628011,1.6887020053015624e+18,62.9495625,-1.7620408535003662,-2.7827203273773193,-1.37986820936203,1.6887020053015624e+18,62.9495625,-1.7630334496498108,-2.7782914638519287,-1.377501130104065,,,,,,,,,,,,1.6887020052971935e+18,62.94519331054687,9.982039833068848,48.22659912109375,-7.444439792633057,1.6887020052971935e+18,62.94519331054687,-244.55875244140623,143.69159851074218,-140.65623474121094,1.6887020053015675e+18,62.949567871093755,0.2706071535746256,-0.7685912648836771,-0.3053364952405293,0.4920593500137329,-2.127535104751587,0.7993366519610087,0.2946751018365224
3.0,1.6887020053534743e+18,63.00147428385417,24.50449784596761,-10.541376113891602,0.3604073524475097,1.6887020053534743e+18,63.00147428385417,18.44148427248001,-16.040685653686523,5.716453393300374,1.6887020053534743e+18,63.00147428385417,-6.068860689798991,-5.481805324554443,5.293358484903972,1.6887020053448266e+18,62.99282682291667,-1.5512923002243042,-4.930598894755046,-5.5009944041570025,1.6887020053448266e+18,62.99282682291667,-1.5523103872934978,-4.926170110702515,-5.498601794242859,,,,,,,,,,,,1.6887020053471892e+18,62.99518911132812,18.917319679260252,45.33031997680664,-9.04751968383789,1.6887020053471892e+18,62.99518911132812,-235.62347412109375,140.79531860351562,-142.25931701660156,1.6887020053534743e+18,63.00147428385417,0.2039876828591028,-0.8544376293818156,-0.2800890207290649,0.3822284142176309,-2.4207496643066406,0.5983920395374298,0.3971403241157532
3.05,1.6887020054053844e+18,63.05338452148438,-6.29433027903239,-7.48086404800415,-3.627281347910563,1.6887020054053844e+18,63.05338452148438,-11.229516665140787,-11.877772013346354,3.638087431589763,1.6887020054053844e+18,63.05338452148438,-4.941032409667969,-4.379403432210286,7.202681382497151,1.6887020053967258e+18,63.04472583007813,1.3451252753535907,9.703238010406494,-2.016262630621592,1.6887020053967258e+18,63.04472583007813,1.3441072069108486,9.707666873931885,-2.0138699412345886,,,,,,,,,,,,1.6887020053971912e+18,63.04519106445313,29.05307960510254,38.60323944091797,-14.913279724121091,1.6887020053971912e+18,63.04519106445313,-225.4877166748047,134.0682403564453,-148.1250793457031,1.6887020054053844e+18,63.05338452148438,0.070439614355564,-0.7970455487569174,-0.3401455481847127,0.4909865955511729,-2.1726218859354653,0.4649956822395324,0.5582009355227152
3.1,1.688702005457291e+18,63.105291015625,4.823874473571777,-7.670904000600179,-7.995323340098064,1.688702005457291e+18,63.105291015625,0.3888336817423508,-12.435100555419922,-0.5880361795425415,1.688702005457291e+18,63.105291015625,-4.440886656443278,-4.746692339579265,7.344599723815918,1.6887020054486364e+18,63.096636474609376,-0.3202970226605733,-1.824654524253371,1.260214974482854,1.6887020054486364e+18,63.096636474609376,-0.3212642272313435,-1.8202256908795489,1.2626075545946758,,,,,,,,,,,,1.688702005447196e+18,63.095195800781255,24.931919479370116,39.41087875366211,-19.556599426269532,1.688702005447196e+18,63.095195800781255,-229.6088745117187,134.8758758544922,-152.76839904785157,1.688702005457291e+18,63.105291015625,0.0838449945052464,-0.7801304260889689,-0.3430764476458232,0.5157464742660522,-2.1158849398295083,0.5066869159539541,0.539302279551824
3.15,1.688702005509193e+18,63.15719319661458,5.253853877385457,-10.76379426320394,-5.7567680676778155,1.688702005509193e+18,63.15719319661458,1.480359656115373,-16.443078358968098,1.347757359345754,1.688702005509193e+18,63.15719319661458,-3.779340426127116,-5.661779880523682,7.041838010152181,1.6887020055005463e+18,63.14854646809895,1.75099435976396,1.160643999775251,2.1970276832580566,1.6887020055005463e+18,63.14854646809895,1.7500271170089643,1.1651745239893596,2.1994203329086304,,,,,,,,,,,,1.6887020054971932e+18,63.14519331054688,20.84735984802246,41.76548080444336,-17.648519706726074,1.6887020054971932e+18,63.14519331054688,-233.6934356689453,137.23047790527343,-150.86031494140624,1.688702005509193e+18,63.15719319661458,0.1471708888808885,-0.7632772922515869,-0.3313563962777455,0.533981998761495,-2.0631820360819497,0.6174437801043192,0.4413576920827229
3.2,1.688702005552454e+18,63.20045397949219,0.7762547731399536,-6.825668096542358,-2.164464235305786,1.688702005552454e+18,63.20045397949219,-2.163709878921509,-13.944772243499756,3.97717022895813,1.688702005552454e+18,63.20045397949219,-2.9458106756210327,-7.101599454879761,6.078947067260742,1.6887020055524529e+18,63.20045296223958,3.738342603047689,-0.5936083098252615,2.9273171424865723,1.6887020055524529e+18,63.20045296223958,3.7373244762420654,-0.5891286333401998,2.9297097524007163,,,,,,,,,,,,1.6887020055471928e+18,63.19519296875001,14.254479598999025,46.28435897827149,-10.877519798278808,1.6887020055471928e+18,63.19519296875001,-240.28631286621095,141.74935913085938,-144.0893127441406,1.688702005552454e+18,63.20045397949219,0.2306768000125884,-0.7213680446147919,-0.3601756542921066,0.5442460477352142,-2.0223677158355713,0.811308890581131,0.4003729522228241
3.25,1.6887020055957084e+18,63.24370857747396,2.592992146809896,-9.266938845316568,3.992139657338461,1.6887020055957084e+18,63.24370857747396,0.2352942079305648,-17.435701370239258,8.956534703572592,1.6887020055957084e+18,63.24370857747396,-2.36354390780131,-8.151258945465088,4.9017073313395185,1.6887020056043594e+18,63.252359375,2.363844911257426,-0.666301280260086,1.7612262964248655,1.6887020056043594e+18,63.252359375,2.3628776470820108,-0.6617706616719564,1.7636698087056475,1.6887020056216614e+18,63.26966137695312,0.0,0.0,1.0921701192855835,6.716000080108643,1.618274211883545,270.2646789550781,42.10000228881836,-122.7554725,49.190595,1.6887020055971912e+18,63.245191210937506,7.817759895324707,49.1562385559082,-2.803559973835945,1.6887020055971912e+18,63.245191210937506,-246.72303466796876,144.6212371826172,-136.01535339355468,1.6887020055957084e+18,63.24370857747396,0.3164716164271037,-0.6947547992070516,-0.3710666398207347,0.5281423727671305,-2.020518938700358,0.9829507271448772,0.3326961795488993
3.3,1.688702005647613e+18,63.29561295572916,2.9474167029062905,-2.1781299908955893,7.533775329589844,1.688702005647613e+18,63.29561295572916,1.2546366602182388,-10.95773204167684,11.655638694763184,1.688702005647613e+18,63.29561295572916,-1.698626160621643,-8.762097358703613,4.059175411860148,1.688702005656268e+18,63.30426806640625,1.8345301548639936,0.7398087282975515,1.3087787628173828,1.688702005656268e+18,63.30426806640625,1.8336138327916465,0.74423748254776,1.311222235361735,,,,,,,,,,,,1.6887020056471923e+18,63.29519218750001,4.57743992805481,49.507598114013675,2.1569599360227585,1.6887020056471923e+18,63.29519218750001,-249.9633544921875,144.97259826660155,-131.05483703613282,1.688702005647613e+18,63.29561295572916,0.3652256429195404,-0.6592499613761902,-0.3895605405171712,0.5291169484456381,-1.966093142827352,1.1061972379684448,0.2864717344443003
3.35,1.6887020056995182e+18,63.34751798502604,-0.2411924600601196,6.440206527709961,1.307735602060954,1.6887020056995182e+18,63.34751798502604,-1.1740783229470253,-2.7393831809361777,4.738785902659099,1.6887020056995182e+18,63.34751798502604,-0.9387319087982176,-9.16208521525065,3.3683629035949707,1.6887020057081684e+18,63.35616845703125,1.421381592750549,0.6392195820808411,1.1969904502232869,1.6887020057081684e+18,63.35616845703125,1.420414408047994,0.6436483363310496,1.199382980664571,,,,,,,,,,,,1.6887020056971935e+18,63.34519331054687,1.1150799810886385,49.4978385925293,6.934479904174805,1.6887020056971935e+18,63.34519331054687,-253.42571716308595,144.96283874511718,-126.2773178100586,1.6887020056995182e+18,63.34751798502604,0.4041336476802826,-0.6210368673006693,-0.402508129676183,0.5374029676119486,-1.8411375284194944,1.2073479493459065,0.1836081643899281
3.4,1.6887020057514217e+18,63.39942163085937,-5.5613038539886475,8.559871514638266,0.3298356533050536,1.6887020057514217e+18,63.39942163085937,-5.935994784037272,-0.8390831450621287,3.22831662495931,1.6887020057514217e+18,63.39942163085937,-0.3805370032787323,-9.381450017293297,2.8357935746510825,1.688702005751429e+18,63.39942895507812,1.1269699931144714,-0.4090506285429001,1.3190871477127075,1.688702005751429e+18,63.39942895507812,1.126053750514984,-0.4045455157756805,1.3214542269706726,,,,,,,,,,,,1.6887020057471892e+18,63.39518920898438,-1.7421599626541138,48.72923965454102,10.384639739990234,1.6887020057471892e+18,63.39518920898438,-256.2829559326172,144.19423828125,-122.82715606689452,1.6887020057514217e+18,63.39942163085937,0.4337983230749766,-0.5935521125793457,-0.4086614449818929,0.5406877795855204,-1.702440619468689,1.2763251463572185,0.0527806666990121
3.45,1.6887020058033344e+18,63.45133439127604,-1.5639164447784424,9.283946990966797,-0.1280844211578369,1.6887020058033344e+18,63.45133439127604,-1.561715563138326,-0.2227319131294886,2.421735922495524,1.6887020058033344e+18,63.45133439127604,-0.0036451549579699,-9.489174524943031,2.487132946650187,1.6887020057946796e+18,63.44267960611979,0.6886996428171793,-1.2865839997927349,1.128675361474355,1.6887020057946796e+18,63.44267960611979,0.6877324382464091,-1.2820534507433574,1.131067931652069,,,,,,,,,,,,1.6887020057971912e+18,63.44519111328125,-5.753519916534424,48.05091934204101,12.297599792480469,1.6887020057971912e+18,63.44519111328125,-260.2943176269531,143.51592102050782,-120.91419830322266,1.6887020058033344e+18,63.45133439127604,0.4738521377245585,-0.5905895034472147,-0.3888626794020335,0.524760107199351,-1.5705643097559612,1.3166316350301106,-0.1524240970611572
3.5,1.6887020058552404e+18,63.50324064127605,-0.8232560356458029,8.81710402170817,-0.5897130966186523,1.6887020058552404e+18,63.50324064127605,-0.973679393529892,-0.7024928331375122,1.9016958077748616,1.6887020058552404e+18,63.50324064127605,-0.1562693755646857,-9.502092361450195,2.4287215073903403,1.688702005846581e+18,63.494580891927086,0.1593849211931228,-1.08662748336792,-0.2905682275692622,1.688702005846581e+18,63.494580891927086,0.1584686239560444,-1.0820968548456829,-0.2881756871938705,,,,,,,,,,,,1.688702005847191e+18,63.49519096679687,-7.51763973236084,47.83863906860351,13.00031967163086,1.688702005847191e+18,63.49519096679687,-262.0584350585938,143.3036376953125,-120.21147766113282,1.6887020058552404e+18,63.50324064127605,0.4856511652469635,-0.6041223009427389,-0.377715398867925,0.5063455402851105,-1.6326073010762532,1.3225303093592329,-0.145884297788143
3.55,1.688702005907142e+18,63.55514208984375,22.67994435628255,-8.43648370107015,-0.2588958342870076,1.688702005907142e+18,63.55514208984375,21.57747809092204,-17.784255027770996,2.6121646960576377,1.688702005907142e+18,63.55514208984375,-1.1083128849665325,-9.330266952514648,2.808373133341471,1.6887020058984965e+18,63.54649641927083,-1.877036213874817,-7.810472091039021,0.4076508283615112,1.6887020058984965e+18,63.54649641927083,-1.8781052629152937,-7.806043306986491,0.4100942214330037,,,,,,,,,,,,1.688702005897188e+18,63.545188183593744,-7.244359970092773,48.59015884399414,10.16259994506836,1.688702005897188e+18,63.545188183593744,-261.78515625,144.05515747070314,-123.04919738769532,1.688702005907142e+18,63.55514208984375,0.5129167636235555,-0.6845948298772176,-0.2894116143385569,0.4234163959821065,-1.9447689056396484,1.2602543433507285,-0.1231395965442061
3.6,1.688702005959048e+18,63.60704768880208,11.709170977274576,-11.515487353006998,3.534199317296346,1.688702005959048e+18,63.60704768880208,10.488340059916178,-20.66760730743409,6.951748053232829,1.688702005959048e+18,63.60704768880208,-1.2266769011815388,-9.134615898132324,3.354861338933309,1.6887020059504018e+18,63.598402018229166,-1.1767809689044952,-2.386039643548429,0.1067996223767598,1.6887020059504018e+18,63.598402018229166,-1.1777991155783336,-2.3815599841376147,0.1092430253823598,,,,,,,,,,,,1.688702005947193e+18,63.59519321289063,-13.390719985961914,48.30711898803711,1.6933599695563315,1.688702005947193e+18,63.59519321289063,-267.9315185546875,143.7721160888672,-131.5184356689453,1.688702005959048e+18,63.60704768880208,0.5472838083902994,-0.7265091141064962,-0.1837745855251947,0.3725144465764363,-1.9178571303685503,1.2001819213231404,-0.4002336164315541
3.65,1.688702006002297e+18,63.650297485351565,6.6319544315338135,-5.715729713439941,9.739965915679932,1.688702006002297e+18,63.650297485351565,5.008476972579956,-14.845370769500732,13.050754070281982,1.688702006002297e+18,63.650297485351565,-1.6293234825134275,-9.112136363983154,3.248100161552429,1.6887020060022996e+18,63.65029972330729,1.0432051420211792,4.321922540664673,-1.9753855069478352,1.6887020060022996e+18,63.65029972330729,1.0421869953473408,4.326351245244344,-1.9729419549306233,,,,,,,,,,,,1.6887020059971848e+18,63.64518486328125,-10.54323959350586,48.82195892333984,1.1345999747514726,1.6887020059971848e+18,63.64518486328125,-265.08404541015625,144.28695678710938,-132.0771942138672,1.688702006002297e+18,63.650297485351565,0.5149956941604614,-0.7269499599933624,-0.2314666286110877,0.3901499062776565,-2.0348886251449585,1.1939824223518372,-0.1785803437232971
3.7,1.688702006045565e+18,63.69356486002605,-3.7563472588857016,5.555609226226807,2.1610679626464844,1.688702006045565e+18,63.69356486002605,-5.084548632303874,-3.6117663780848184,5.497310558954875,1.688702006045565e+18,63.69356486002605,-1.3340473969777424,-9.149871190388998,3.273555040359497,1.688702006054218e+18,63.702218017578126,0.6356052954991659,4.3862669467926025,-0.4304054677486419,1.688702006054218e+18,63.702218017578126,0.6345871786276499,4.39079753557841,-0.4280129174391429,,,,,,,,,,,,1.6887020060471928e+18,63.69519287109375,-5.392399883270263,49.278238677978514,5.6827599048614506,1.6887020060471928e+18,63.69519287109375,-259.9331970214844,144.7432373046875,-127.52903747558594,1.688702006045565e+18,63.69356486002605,0.4730195502440135,-0.6855746308962504,-0.3113562564055125,0.4562902450561523,-1.957945664723714,1.2049266497294109,-0.0133616846675674
3.75,1.6887020060974707e+18,63.74547102864583,-3.234856605529785,5.982168197631836,-0.5010155836741129,1.6887020060974707e+18,63.74547102864583,-4.285545349121094,-3.158924619356791,3.005584716796875,1.6887020060974707e+18,63.74547102864583,-1.0565348068873088,-9.12358824412028,3.443912903467814,1.6887020061061233e+18,63.75412337239584,-0.9401725058754286,1.1914417147636414,-0.5937101145585378,1.6887020061061233e+18,63.75412337239584,-0.9411906351645788,1.195921411116918,-0.5913175543149313,,,,,,,,,,,,1.6887020060971935e+18,63.74519326171875,-3.801520013809204,49.38560028076172,7.06379976272583,1.6887020060971935e+18,63.74519326171875,-258.3423217773437,144.85059509277343,-126.147998046875,1.6887020060974707e+18,63.74547102864583,0.4384884039560954,-0.6539111137390137,-0.3549362421035766,0.5039496322472891,-1.8699233134587605,1.1981916824976604,0.0609430037438869
3.8,1.688702006149374e+18,63.7973740234375,-2.5141681830088296,-2.052321434020996,2.5583460330963135,1.688702006149374e+18,63.7973740234375,-3.9433716932932534,-10.82353432973226,6.8023959795633955,1.688702006149374e+18,63.7973740234375,-1.4350494543711343,-8.753708203633627,4.181362549463908,1.688702006158028e+18,63.80602807617188,-1.6465363303820293,-1.839875260988871,0.0774271587530771,1.688702006158028e+18,63.80602807617188,-1.6475544770558674,-1.8353445927302043,0.0798197388648986,1.688702006140725e+18,63.78872509765625,0.0,0.0,1.1015064716339111,6.693999767303467,1.620640754699707,269.7098693847656,42.10000228881836,-122.7554831,49.1905938,1.68870200614719e+18,63.79518999023437,-1.710439968109131,49.73939971923828,3.152479887008667,1.68870200614719e+18,63.79518999023437,-256.25123291015626,145.20439758300782,-130.05932006835937,1.688702006149374e+18,63.7973740234375,0.4094888667265574,-0.6808424989382426,-0.3301545282204945,0.5093426704406738,-1.902013937632243,1.1067299842834473,0.072631833453973
3.85,1.6887020062012826e+18,63.84928263346354,0.6222219268480936,2.347360452016195,-1.1931607723236084,1.6887020062012826e+18,63.84928263346354,-1.051645576953888,-6.208178361256917,3.3980074723561606,1.6887020062012826e+18,63.84928263346354,-1.679713527361552,-8.538034121195475,4.528480847676595,1.688702006201284e+18,63.84928393554688,-0.8561276495456696,-1.964847981929779,0.6608798503875732,1.688702006201284e+18,63.84928393554688,-0.8571203052997589,-1.9603429436683657,0.6633232980966568,,,,,,,,,,,,1.6887020061971937e+18,63.84519345703124,-3.025599956512451,49.75403900146485,-0.1903199911117553,1.6887020061971937e+18,63.84519345703124,-257.56639404296874,145.2190368652344,-133.40211486816406,1.6887020062012826e+18,63.84928263346354,0.4194308519363403,-0.7109993696212769,-0.2818507552146911,0.4887574315071106,-1.92628808816274,1.0596038897832234,-0.0186720325921972
3.9,1.688702006253191e+18,63.901190755208326,1.659872015317281,1.591660499572754,-2.527917464574178,1.688702006253191e+18,63.901190755208326,-0.4540380785862604,-6.694519678751628,2.3641088008880615,1.688702006253191e+18,63.901190755208326,-2.1197561025619507,-8.268675486246744,4.8293388684590655,1.6887020062445343e+18,63.892534667968754,-0.9497427344322203,-0.9674578309059144,-0.7958556041121483,1.6887020062445343e+18,63.892534667968754,-0.950811763604482,-0.9630290667215984,-0.7934630438685417,,,,,,,,,,,,1.688702006247191e+18,63.89519091796875,-2.5961599826812742,49.77355880737305,-2.6351999282836913,1.688702006247191e+18,63.89519091796875,-257.136962890625,145.23855285644532,-135.84699401855468,1.688702006253191e+18,63.901190755208326,0.4101024270057678,-0.736882229646047,-0.2539109090963999,0.4735193351904551,-1.9839561382929485,1.0063255826632185,-0.0272593835834414
3.95,1.688702006305096e+18,63.953096110026046,2.1492499510447183,-1.9838980038960776,-2.3729448318481445,1.688702006305096e+18,63.953096110026046,-0.9984052379926046,-9.871988614400228,2.6081767082214355,1.688702006305096e+18,63.953096110026046,-3.1535011927286782,-7.870585918426514,4.918434143066406,1.688702006296442e+18,63.94444173177084,-0.6341290473937988,-1.430697321891785,-2.030872384707133,1.688702006296442e+18,63.94444173177084,-0.6351471543312073,-1.4262176156044006,-2.0284798542658486,,,,,,,,,,,,1.6887020062971932e+18,63.94519321289063,1.8373199582099915,49.612519073486325,-4.306599950790405,1.6887020062971932e+18,63.94519321289063,-252.70347290039064,145.07752075195313,-137.51839904785157,1.688702006305096e+18,63.953096110026046,0.3756471375624339,-0.7725717624028524,-0.2514565189679463,0.445392906665802,-2.1400279998779297,0.9347026546796164,0.0893112979829311
4.0,1.688702006357e+18,64.00499991861979,4.649571259816487,-6.060190836588542,-0.5346741676330566,1.688702006357e+18,64.00499991861979,-0.2209372719128926,-13.15394401550293,4.196412722269694,1.688702006357e+18,64.00499991861979,-4.876354535420735,-7.076248327891032,4.668399492899577,1.6887020063483533e+18,63.99635310872396,-0.9408851861953736,-3.0908764203389487,-3.1636202335357666,1.6887020063483533e+18,63.99635310872396,-0.941903293132782,-3.086345831553141,-3.161227544148763,,,,,,,,,,,,1.6887020063471903e+18,63.99519038085937,8.940159702301026,48.782918548583986,-5.904799842834473,1.6887020063471903e+18,63.99519038085937,-245.6006378173828,144.24791564941407,-139.11659545898436,1.688702006357e+18,64.00499991861979,0.3255726993083954,-0.8305368820826212,-0.2405316481987635,0.3804112176100413,-2.3747212886810303,0.8096737662951151,0.2184475958347319
4.05,1.6887020064089116e+18,64.05691137695312,26.290751457214355,-9.302794138590494,3.1221304734547934,1.6887020064089116e+18,64.05691137695312,19.941384474436443,-14.77428404490153,8.163712819417318,1.6887020064089116e+18,64.05691137695312,-6.3552139600118,-5.453985214233398,4.978894790013631,1.6887020064002583e+18,64.04825838216146,0.1511382405490925,3.8764491081237793,-5.0021209716796875,1.6887020064002583e+18,64.04825838216146,0.1501710374141111,3.8809796969095864,-4.999779383341472,,,,,,,,,,,,1.6887020063971953e+18,64.0451953125,22.435799407958985,44.38115921020508,-5.997519874572754,1.6887020063971953e+18,64.0451953125,-232.10499572753903,139.84615478515624,-139.20932006835938,1.6887020064089116e+18,64.05691137695312,0.2060686002175012,-0.8644432226816813,-0.2743653953075409,0.3586660424868265,-2.480821132659912,0.5921269257863363,0.408505231142044
4.1,1.68870200645216e+18,64.10016015625,-4.860547304153442,-5.398977756500244,-5.440096139907837,1.68870200645216e+18,64.10016015625,-9.512068271636965,-10.83769178390503,1.3405788838863373,1.68870200645216e+18,64.10016015625,-4.657366991043091,-5.421209335327148,6.717987537384033,1.6887020064521623e+18,64.10016210937499,1.0588839848836262,4.473671555519104,-0.1244637767473856,1.6887020064521623e+18,64.10016210937499,1.0578658779462178,4.4781003793080645,-0.1220712463061014,,,,,,,,,,,,1.688702006447189e+18,64.09518901367187,23.39960021972656,42.17295837402344,-14.120279693603516,1.688702006447189e+18,64.09518901367187,-231.14119567871097,137.63795471191406,-147.332080078125,1.68870200645216e+18,64.10016015625,0.1429584324359893,-0.7914825975894928,-0.3332400918006897,0.4918607473373413,-2.1783727407455444,0.5874519646167755,0.4834096282720566
4.15,1.6887020064954212e+18,64.1434208984375,0.5052773157755536,-6.086108843485515,-7.214398701985677,1.6887020064954212e+18,64.1434208984375,-3.819742613549655,-11.93639628092448,-0.562512713096415,1.6887020064954212e+18,64.1434208984375,-4.330866018931071,-5.832782586415608,6.589198589324951,1.6887020065040724e+18,64.15207275390624,-0.2104430695374806,-2.2662591536839805,2.3136521180470786,1.6887020065040724e+18,64.15207275390624,-0.2114102741082509,-2.2618303894996643,2.3160446087519326,,,,,,,,,,,,1.6887020064971924e+18,64.145192578125,20.02995948791504,43.461279296875,-14.300839805603028,1.6887020064971924e+18,64.145192578125,-234.5108337402344,138.92627868652343,-147.51263732910155,1.6887020064954212e+18,64.1434208984375,0.1740939418474833,-0.7849820256233215,-0.3231960038344065,0.4984288215637207,-2.153469244639078,0.6384678284327189,0.4288199543952942
4.2,1.688702006547326e+18,64.19532584635417,9.00693686803182,-10.205931663513184,-4.700367609659831,1.688702006547326e+18,64.19532584635417,5.023930470148723,-16.80519167582194,1.419741451740265,1.688702006547326e+18,64.19532584635417,-3.988852183024088,-6.581755956013997,6.057421684265137,1.6887020065559785e+18,64.20397835286458,2.6125688552856445,1.0438668827215831,2.75444225470225,1.6887020065559785e+18,64.20397835286458,2.611550728480021,1.0482956767082214,2.756834864616394,,,,,,,,,,,,1.6887020065471916e+18,64.1951916015625,16.423639678955077,45.71583938598633,-12.00479965209961,1.6887020065471916e+18,64.1951916015625,-238.11715698242188,141.18084106445312,-145.2165985107422,1.688702006547326e+18,64.19532584635417,0.2420033067464827,-0.7824978232383728,-0.301185260216395,0.4874446789423625,-2.152315616607666,0.7379232048988342,0.3226300676663716
4.25,1.6887020065992264e+18,64.24722639973959,1.1778606573740642,-7.803959210713704,0.6338969866434733,1.6887020065992264e+18,64.24722639973959,-1.4985051949818928,-15.882161140441896,5.57148806254069,1.6887020065992264e+18,64.24722639973959,-2.6822118759155273,-8.060697555541992,4.874903678894043,1.6887020066078812e+18,64.25588126627603,3.0022499561309814,-0.1111265619595845,1.9721784194310503,1.6887020066078812e+18,64.25588126627603,3.001231829325358,-0.106697787841161,1.9745709896087649,,,,,,,,,,,,1.6887020065971912e+18,64.24519116210938,8.50827989578247,48.978118896484375,-5.116680049896241,1.6887020065971912e+18,64.24519116210938,-246.0325134277344,144.4431182861328,-138.32847595214844,1.6887020065992264e+18,64.24722639973959,0.3369187116622925,-0.7236795425415039,-0.3357457915941874,0.4992574751377105,-2.0740322271982827,0.9676089882850648,0.2663631836573283
4.3,1.6887020066511355e+18,64.2991357421875,6.748392105102539,-6.368384997049968,8.605670928955078,1.6887020066511355e+18,64.2991357421875,4.656432867050171,-15.110475858052572,12.623933792114258,1.6887020066511355e+18,64.2991357421875,-2.0978053410847983,-8.724586804707846,3.955574989318848,1.6887020066511316e+18,64.29913159179688,1.650710642337799,0.9876927435398102,0.638965055346489,1.6887020066511316e+18,64.29913159179688,1.6497942805290222,0.9921215027570724,0.6414085030555725,1.6887020066597844e+18,64.30778442382812,0.0,0.0,1.1015064716339111,6.683000087738037,1.6223528385162354,268.6278381347656,42.10000228881836,-122.7554936,49.190593,1.6887020066471867e+18,64.2951865234375,4.572559881210327,49.84919891357422,0.9857600212097168,1.6887020066471867e+18,64.2951865234375,-249.96823425292968,145.31419677734374,-132.22603759765624,1.6887020066511355e+18,64.2991357421875,0.3850388129552205,-0.6891642212867737,-0.3629330297311147,0.4947826862335205,-2.05825940767924,1.0975483655929563,0.2642172276973724
4.35,1.688702006703047e+18,64.35104663085937,0.0740368763605753,4.322390874226888,3.3183708985646567,1.688702006703047e+18,64.35104663085937,-1.2161521116892495,-4.826522747675578,6.71266523996989,1.688702006703047e+18,64.35104663085937,-1.2960350116093953,-9.13140900929769,3.33160670598348,1.688702006694387e+18,64.34238688151042,1.7766506671905518,1.4645494023958845,1.1325950622558594,1.688702006694387e+18,64.34238688151042,1.7755816380182905,1.4690290689468384,1.1350385546684263,,,,,,,,,,,,1.688702006697191e+18,64.34519111328125,1.8348799467086792,49.54663925170898,5.616879844665528,1.688702006697191e+18,64.34519111328125,-252.70591735839844,145.01163635253906,-127.59491882324218,1.688702006703047e+18,64.35104663085937,0.4098476469516754,-0.6410383979479471,-0.3936225473880768,0.5156878431638082,-1.941268801689148,1.198835015296936,0.2262419660886128
4.4,1.688702006754957e+18,64.40295686848958,-4.3966701825459795,8.017906506856283,0.4205020268758138,1.688702006754957e+18,64.40295686848958,-5.277569770812988,-1.3970096111297607,3.1473594506581626,1.688702006754957e+18,64.40295686848958,-0.8867454926172892,-9.397411664326986,2.664170026779175,1.6887020067463032e+18,64.39430314127604,1.4816536903381348,0.5248350501060486,0.6752606232961019,1.6887020067463032e+18,64.39430314127604,1.4806355237960815,0.5293147265911102,0.677653173605601,,,,,,,,,,,,1.6887020067471898e+18,64.39518969726564,-0.1000399962067603,48.93663940429688,10.518839836120604,1.6887020067471898e+18,64.39518969726564,-254.64083557128907,144.4016357421875,-122.69295806884766,1.688702006754957e+18,64.40295686848958,0.4333480795224507,-0.6100431084632874,-0.4158813655376434,0.5167106787363688,-1.892754832903544,1.2820428212483723,0.2099269529183705
4.45,1.6887020068068598e+18,64.45485970052084,-2.7663760979970298,9.493624687194824,-0.602454940478007,1.6887020068068598e+18,64.45485970052084,-3.148954610029856,-0.0793619602918624,1.6398810942967732,1.6887020068068598e+18,64.45485970052084,-0.3884245157241821,-9.555482228597006,2.1796486377716064,1.688702006798205e+18,64.44620499674478,0.8631017009417216,-1.3003793756167097,1.6094262997309368,1.688702006798205e+18,64.44620499674478,0.8621344963709513,-1.2958997289339702,1.6118697325388591,,,,,,,,,,,,1.688702006797189e+18,64.44518901367186,-3.498960018157959,48.19731979370117,13.42975959777832,1.688702006797189e+18,64.44518901367186,-258.0397521972656,143.66231689453124,-119.78203735351562,1.6887020068068598e+18,64.45485970052084,0.4746718506018321,-0.5973549087842306,-0.4034880797068278,0.5048039257526398,-1.745046575864156,1.344777226448059,0.0092785310310621
4.5,1.6887020068587643e+18,64.50676424153646,-0.2329840262730916,9.421311060587565,-0.7159858544667562,1.6887020068587643e+18,64.50676424153646,-0.4265206356843312,-0.1744766508539517,1.456231991449992,1.6887020068587643e+18,64.50676424153646,-0.1993826578060785,-9.578282992045084,2.109530448913574,1.6887020068501084e+18,64.49810856119791,0.1010982021689414,-1.1547389030456543,0.3911064714193344,1.6887020068501084e+18,64.49810856119791,0.1001309975981712,-1.1502083539962769,0.3935499240954717,,,,,,,,,,,,1.6887020068471916e+18,64.49519130859376,-7.027199745178223,47.70443878173828,14.266679763793944,1.6887020068471916e+18,64.49519130859376,-261.5679992675781,143.1694366455078,-118.9451187133789,1.6887020068587643e+18,64.50676424153646,0.4996128280957539,-0.6043248772621155,-0.3803849220275879,0.4903391301631927,-1.663762092590332,1.3556376695632937,-0.1421539535125096
4.55,1.6887020069020206e+18,64.5500205078125,-1.9916976243257525,8.027146339416504,-0.8689733147621155,1.6887020069020206e+18,64.5500205078125,-2.5737798511981964,-1.4925231337547302,1.5511472821235657,1.6887020069020206e+18,64.5500205078125,-0.5879282206296921,-9.502164840698242,2.3574331998825073,1.6887020069020116e+18,64.55001147460938,-1.102306346098582,-2.5723026196161904,-1.5120442112286885,1.6887020069020116e+18,64.55001147460938,-1.1033244331677754,-2.567873775959015,-1.5096516410509746,,,,,,,,,,,,1.6887020068971912e+18,64.54519106445312,-6.736839771270752,48.09239883422852,13.205279922485351,1.6887020068971912e+18,64.54519106445312,-261.27763671875,143.55740051269532,-120.0065185546875,1.6887020069020206e+18,64.5500205078125,0.4919321537017822,-0.6276806592941284,-0.3681750446557998,0.4778044372797012,-1.8121540546417236,1.3230074048042295,-0.0353030138649046
4.6,1.68870200694527e+18,64.59327018229168,23.637057940165203,-15.554410616556805,1.8655922412872312,1.68870200694527e+18,64.59327018229168,22.19402837753296,-24.84986178080241,4.756931324799856,1.68870200694527e+18,64.59327018229168,-1.4488767385482788,-9.277947743733725,2.828651428222656,1.688702006953923e+18,64.60192333984375,-2.5091799100240073,-7.104922612508138,1.9245818704366684,1.688702006953923e+18,64.60192333984375,-2.5102489789326987,-7.100493987401326,1.9270253131786983,,,,,,,,,,,,1.688702006947184e+18,64.59518432617188,-8.949919891357421,48.724359130859376,6.160999965667725,1.688702006947184e+18,64.59518432617188,-263.49071044921874,144.18935546875,-127.05079650878906,1.68870200694527e+18,64.59327018229168,0.52340500553449,-0.7101313869158427,-0.2570126901070277,0.3895998199780782,-2.045955220858256,1.243142565091451,-0.1300921440124511
4.65,1.688702006997173e+18,64.64517309570313,5.98924179871877,-7.472642580668132,5.007305224736531,1.688702006997173e+18,64.64517309570313,4.267798503239949,-16.573885917663574,8.343971888224283,1.688702006997173e+18,64.64517309570313,-1.7272891998291016,-9.083738962809244,3.2739789485931396,1.688702007005825e+18,64.65382478841146,0.5166901846726736,2.059990351398786,-1.5378532807032268,1.688702007005825e+18,64.65382478841146,0.515722985068957,2.064469968279203,-1.535511573155721,,,,,,,,,,,,1.688702006997186e+18,64.64518588867188,-10.809199905395507,48.79023818969726,0.7759199917316437,1.688702006997186e+18,64.64518588867188,-265.34999389648436,144.25523986816407,-132.43587951660157,1.688702006997173e+18,64.64517309570313,0.52961399157842,-0.7408108909924825,-0.1955192436774571,0.3635134001572926,-2.054501930872599,1.186307430267334,-0.2580050230026245
4.7,1.688702007049082e+18,64.69708178710937,-2.0847467184066772,0.4932614962259928,4.17446756362915,1.688702007049082e+18,64.69708178710937,-3.690530220667521,-8.593622922897339,7.607979615529377,1.688702007049082e+18,64.69708178710937,-1.6116295258204143,-9.069379806518551,3.3708244959513345,1.6887020070577334e+18,64.7057333984375,0.2670499185721079,4.156632502873738,-0.7912232081095377,1.6887020070577334e+18,64.7057333984375,0.2660318116346994,4.161061366399129,-0.7887797554334005,,,,,,,,,,,,1.688702007047186e+18,64.6951859375,-6.9881597518920895,49.56371994018555,3.447719955444336,1.688702007047186e+18,64.6951859375,-261.528955078125,145.02871704101562,-129.7640808105469,1.688702007049082e+18,64.69708178710937,0.4898663163185119,-0.7141625086466471,-0.26649904747804,0.4217383166154225,-2.0169095198313394,1.1825892130533855,-0.0861032865941524
4.75,1.688702007100986e+18,64.74898616536458,-0.4458932081858317,6.5524797439575195,-0.9350472291310628,1.688702007100986e+18,64.74898616536458,-2.017149488131205,-2.4699912071228027,2.6849464575449624,1.688702007100986e+18,64.74898616536458,-1.5771023035049438,-9.004966417948404,3.5573062896728516,1.688702007109637e+18,64.75763712565104,-0.1164716370403767,1.3541354934374492,-0.9634363253911336,1.688702007109637e+18,64.75763712565104,-0.1174388453364372,1.358615239461263,-0.9609928329785664,,,,,,,,,,,,1.6887020070971889e+18,64.74518896484376,-4.48715991973877,49.68083953857422,5.287479877471924,1.6887020070971889e+18,64.74518896484376,-259.0279541015625,145.14584350585938,-127.92431945800782,1.688702007100986e+18,64.74898616536458,0.4526519974072774,-0.6939683159192404,-0.3135478595892588,0.4637245635191599,-1.988875190416972,1.1659910281499226,0.0387504034442827
4.8,1.6887020071528937e+18,64.80089363606771,-0.3493204911549886,-0.9789350827534994,2.3692020575205484,1.6887020071528937e+18,64.80089363606771,-2.2552353143692017,-9.746564706166586,6.426124572753906,1.6887020071528937e+18,64.80089363606771,-1.9117608467737832,-8.75012493133545,3.994235118230184,1.6887020071528937e+18,64.80089367675782,-1.4650076031684875,0.26190847158432,-1.0261772274971008,1.6887020071528937e+18,64.80089367675782,-1.466000199317932,0.2663372457027435,-1.0238101482391355,,,,,,,,,,,,1.6887020071471857e+18,64.79518579101561,-1.339559966698289,49.6881591796875,4.399319887161255,1.6887020071471857e+18,64.79518579101561,-255.88035583496097,145.15315856933594,-128.8124786376953,1.6887020071528937e+18,64.80089363606771,0.4177797834078471,-0.7032170295715332,-0.3202174305915832,0.4777443408966064,-2.018421490987142,1.105505069096883,0.1140860865513483
4.85,1.6887020072047992e+18,64.85279939778646,0.4010080496470133,-0.0260365804036458,-0.1322026252746582,1.6887020072047992e+18,64.85279939778646,-1.7734804153442385,-8.518448829650879,4.363511562347412,1.6887020072047992e+18,64.85279939778646,-2.180334488550822,-8.474907557169596,4.4330267906188965,1.688702007196149e+18,64.84414925130208,-0.8231409390767416,-0.5898922185103098,-0.1837177127599716,1.688702007196149e+18,64.84414925130208,-0.8241081237792969,-0.5854634443918864,-0.1813251674175262,1.6887020071788475e+18,64.82684741210937,0.0,0.0,1.111901879310608,6.664000034332275,1.6236196756362915,267.9324035644531,42.10000228881836,-122.7555035,49.1905921,1.6887020071971855e+18,64.84518535156249,0.4099199801683426,49.69547882080078,1.2614799618721009,1.6887020071971855e+18,64.84518535156249,-254.13087463378903,145.1604766845703,-131.9503173828125,1.6887020072047992e+18,64.85279939778646,0.398998349905014,-0.7203624645868937,-0.3029950459798177,0.4795883297920226,-2.029029210408529,1.0462210178375244,0.1077101429303486
4.9,1.688702007256716e+18,64.90471614583333,1.9323436816533408,3.7934667269388833,-2.7333568731943765,1.688702007256716e+18,64.90471614583333,-0.4753740926583608,-4.516851504643758,1.979263146718343,1.688702007256716e+18,64.90471614583333,-2.4135638078053794,-8.292813618977865,4.6499325434366865,1.6887020072480653e+18,64.89606534830729,-0.925053616364797,-1.298801342646281,0.0645480901002884,1.6887020072480653e+18,64.89606534830729,-0.9260208010673524,-1.29437255859375,0.0668897479772567,,,,,,,,,,,,1.688702007247189e+18,64.89518901367187,0.3269599925726652,49.84919967651367,-0.6734399795532227,1.688702007247189e+18,64.89518901367187,-254.21383361816407,145.31419677734374,-133.88523559570314,1.688702007256716e+18,64.90471614583333,0.3999739487965901,-0.7401155233383179,-0.2733540137608846,0.4662653505802154,-2.0502012570699057,1.0104705095291138,0.0595491292575994
4.95,1.6887020073086203e+18,64.95662036132812,2.4458252588907876,-0.4235939979553222,-2.4593191941579184,1.6887020073086203e+18,64.95662036132812,-0.535194668918848,-8.404191335042318,2.4857439200083413,1.6887020073086203e+18,64.95662036132812,-2.9868659178415933,-7.963092645009358,4.882375717163086,1.688702007299971e+18,64.94797135416667,-0.8502735296885172,-0.8469646573066711,-1.1977031230926514,1.688702007299971e+18,64.94797135416667,-0.8512407342592875,-0.8424849907557169,-1.1953105529149373,,,,,,,,,,,,1.688702007297192e+18,64.94519189453125,1.3810399413108825,49.84675979614258,-3.1817599058151247,1.688702007297192e+18,64.94519189453125,-253.15975341796872,145.31175842285157,-136.3935577392578,1.6887020073086203e+18,64.95662036132812,0.380337397257487,-0.7655191024144491,-0.2563916742801666,0.4510140419006347,-2.119866053263346,0.9503479401270548,0.0844220183789729
5.0,1.688702007351877e+18,64.99987719726562,3.0160430669784546,-3.0468225479125977,-2.413732409477234,1.688702007351877e+18,64.99987719726562,-0.8440681993961334,-10.587940692901611,2.6114667654037476,1.688702007351877e+18,64.99987719726562,-3.865957260131836,-7.523613452911377,4.962511777877808,1.6887020073518769e+18,64.99987703450522,-0.901382565498352,-1.5304210583368938,-2.228792746861776,1.6887020073518769e+18,64.99987703450522,-0.9024006923039756,-1.5258904695510864,-2.2263493140538535,,,,,,,,,,,,1.6887020073471954e+18,64.99519526367187,6.480639934539795,49.17087936401367,-5.475359916687012,1.6887020073471954e+18,64.99519526367187,-248.0601593017578,144.63587646484376,-138.6871551513672,1.688702007351877e+18,64.99987719726562,0.3479240536689758,-0.7956933677196503,-0.251964583992958,0.4268215745687485,-2.233115553855896,0.8769609034061432,0.1628060713410377
5.05,1.688702007395129e+18,65.04312923177083,5.134508689244588,-6.047770341237386,-0.8674054940541586,1.688702007395129e+18,65.04312923177083,-0.0071784655253092,-12.87378438313802,3.9904305934906006,1.688702007395129e+18,65.04312923177083,-5.147533098856608,-6.808509349822998,4.795148690541585,1.688702007403778e+18,65.05177799479166,-0.5687664349873861,-3.6153042316436768,-4.15408722559611,1.688702007403778e+18,65.05177799479166,-0.5697845642765363,-3.6108243465423584,-4.151643753051758,,,,,,,,,,,,1.6887020073971904e+18,65.04519052734375,13.98363971710205,47.5043586730957,-6.9979198455810545,1.6887020073971904e+18,65.04519052734375,-240.55715637207032,142.9693572998047,-140.209716796875,1.688702007395129e+18,65.04312923177083,0.3047947883605957,-0.8379553159077963,-0.244104524453481,0.3798588812351226,-2.3901613553365073,0.7703542113304138,0.2478432605663935
5.1,1.6887020074470316e+18,65.09503133138021,19.64523410797119,-8.768013795216879,2.068451404571533,1.6887020074470316e+18,65.09503133138021,13.164910952250162,-14.02612813313802,7.196414152781169,1.6887020074470316e+18,65.09503133138021,-6.486169815063477,-5.240609645843506,5.065275192260742,1.6887020074556908e+18,65.10369075520833,0.9007717072963716,8.51841402053833,-3.0761137902736664,1.6887020074556908e+18,65.10369075520833,0.89980448782444,8.522842566172281,-3.073670268058777,,,,,,,,,,,,1.688702007447191e+18,65.09519096679688,26.183639526367188,42.26567916870117,-8.413119888305664,1.688702007447191e+18,65.09519096679688,-228.3571563720703,137.73067321777344,-141.6249206542969,1.6887020074470316e+18,65.09503133138021,0.1896843016147613,-0.8656789859135946,-0.2829620540142059,0.3594934542973836,-2.482341051101685,0.5660781462987264,0.4358292420705159
5.15,1.6887020074989466e+18,65.14694677734376,-3.8047451972961426,-6.810310045878093,-6.2177267869313555,1.6887020074989466e+18,65.14694677734376,-8.22871764500936,-12.177672704060871,0.765503873427709,1.6887020074989466e+18,65.14694677734376,-4.429818471272786,-5.3498579661051435,6.920543352762858,1.6887020075075953e+18,65.15559537760417,0.6713409076134363,2.024611115455627,0.7257079010208448,1.6887020075075953e+18,65.15559537760417,0.6703736782073975,2.0290397802988687,0.7280495800077915,,,,,,,,,,,,1.68870200749719e+18,65.14519023437501,23.68263969421387,41.680078125,-15.77947998046875,1.68870200749719e+18,65.14519023437501,-230.8581512451172,137.14507446289062,-148.99127807617188,1.6887020074989466e+18,65.14694677734376,0.1256910065809885,-0.7788528800010681,-0.3453342219193776,0.5078711410363516,-2.141397555669149,0.5785814722379049,0.5120864709218343
5.2,1.688702007550851e+18,65.19885139973958,9.41872501373291,-10.47020181020101,-7.129007021586101,1.688702007550851e+18,65.19885139973958,5.4293144543965655,-16.45464324951172,-0.3932205239931741,1.688702007550851e+18,65.19885139973958,-3.9952565828959146,-5.966937224070231,6.673099199930827,1.6887020075595028e+18,65.20750284830729,1.8017470439275105,-0.0508036216100057,2.3060163656870523,1.6887020075595028e+18,65.20750284830729,1.8006780246893566,-0.0463748375574747,2.308408816655477,,,,,,,,,,,,1.6887020075471908e+18,65.19519091796874,20.09095993041992,43.35147933959961,-14.788839721679688,1.6887020075471908e+18,65.19519091796874,-234.44983520507813,138.81647644042968,-148.00063781738282,1.688702007550851e+18,65.19885139973958,0.1692268202702204,-0.7675969004631042,-0.3384199937184651,0.5169288913408915,-2.111036936442057,0.65586256980896,0.4494316081206004
5.25,1.6887020076027528e+18,65.2507528483073,1.451064904530843,-6.56414000193278,-1.7716128826141355,1.6887020076027528e+18,65.2507528483073,-1.5210375984509783,-14.021541595458984,3.913660764694214,1.6887020076027528e+18,65.2507528483073,-2.9779485066731772,-7.439896901448567,5.622586250305176,1.688702007602758e+18,65.25075817871092,3.638466119766236,-0.3795763775706291,2.995224952697754,1.688702007602758e+18,65.25075817871092,3.6375497579574585,-0.3751476258039474,2.997668504714966,,,,,,,,,,,,1.6887020075971858e+18,65.2451859375,14.029999732971191,47.08711853027344,-8.754719924926757,1.6887020075971858e+18,65.2451859375,-240.51079711914065,142.55211791992187,-141.96651916503907,1.6887020076027528e+18,65.2507528483073,0.2627816299597422,-0.7221866448720297,-0.3607059518496195,0.5274321834246317,-2.058305899302165,0.8646154999732971,0.3843568762143453
5.3,1.6887020076546614e+18,65.30266170247396,4.532017230987549,-8.661369641621908,5.909740924835205,1.6887020076546614e+18,65.30266170247396,2.3228326737880707,-17.099709192911785,10.481959184010824,1.6887020076546614e+18,65.30266170247396,-2.215030590693156,-8.420835812886557,4.509530385335286,1.6887020076460134e+18,65.29401334635416,1.9799160957336424,-0.7263696789741516,1.863189935684204,1.6887020076460134e+18,65.29401334635416,1.978847066561381,-0.7219409048557281,1.8655824263890584,,,,,,,,,,,,1.688702007647193e+18,65.29519321289062,7.69819974899292,49.30019912719727,-1.6225999891757965,1.688702007647193e+18,65.29519321289062,-246.84259338378905,144.76519470214845,-134.8343994140625,1.6887020076546614e+18,65.30266170247396,0.345199038585027,-0.6898655494054159,-0.3700625896453857,0.5174353917439779,-2.027985095977783,1.0341504613558452,0.3040060798327128
5.35,1.688702007706567e+18,65.35456673177083,2.2861880461374917,0.8358995119730631,5.451738993326823,1.688702007706567e+18,65.35456673177083,0.8765706866979599,-8.049255847930908,9.451250394185385,1.688702007706567e+18,65.35456673177083,-1.4154634475708008,-8.867650667826334,3.936823527018229,1.68870200769792e+18,65.34592008463541,1.6244943141937256,1.8708256880442304,1.0394890308380127,1.68870200769792e+18,65.34592008463541,1.6234761873881025,1.8753562370936077,1.0418816010157268,1.6887020076979177e+18,65.34591772460938,0.0,0.0,1.111901879310608,6.64900016784668,1.6277694702148438,267.80706787109375,42.10000228881836,-122.7555167,49.1905939,1.6887020076971884e+18,65.3451884765625,4.426159954071045,49.90775985717774,2.3936399936676027,1.6887020076971884e+18,65.3451884765625,-250.11463317871093,145.3727569580078,-130.8181610107422,1.688702007706567e+18,65.35456673177083,0.3734375735123952,-0.6460667252540588,-0.3930633167425791,0.5369072556495667,-1.914871017138163,1.131101171175639,0.2522093206644057
5.4,1.688702007758478e+18,65.40647810872396,-1.668279051780701,6.932420412699382,0.9702824751536052,1.688702007758478e+18,65.40647810872396,-2.4578276872634888,-2.2600209712982178,4.4081776936848955,1.688702007758478e+18,65.40647810872396,-0.7953946391741434,-9.17493693033854,3.3752078215281167,1.6887020077498258e+18,65.39782609049479,1.3338751395543416,0.8107200066248575,0.8009970585505167,1.6887020077498258e+18,65.39782609049479,1.3329079548517864,0.81525057554245,0.8032877842585245,,,,,,,,,,,,1.6887020077471895e+18,65.39518959960938,2.061799931526184,49.65399932861328,6.314719867706299,1.6887020077471895e+18,65.39518959960938,-252.47899475097657,145.118994140625,-126.89707641601562,1.688702007758478e+18,65.40647810872396,0.3954153458277384,-0.607968827088674,-0.4133991201718648,0.5504715442657471,-1.8026789426803589,1.2111049890518188,0.1917014817396799
5.45,1.6887020078017326e+18,65.44973254394532,-5.629179358482361,9.053724765777588,0.4862740039825439,1.6887020078017326e+18,65.44973254394532,-6.028417587280273,-0.2901297435164451,3.5617164373397827,1.6887020078017326e+18,65.44973254394532,-0.4050842970609664,-9.32634973526001,3.012755036354065,1.688702007801731e+18,65.44973103841146,0.967406928539276,-0.1544470985730489,1.3043499986330669,1.688702007801731e+18,65.44973103841146,0.9663888017336528,-0.1499674121538798,1.3067425688107808,,,,,,,,,,,,1.688702007797187e+18,65.44518686523438,0.0731999993324279,49.23187942504883,9.259799766540528,1.688702007797187e+18,65.44518686523438,-254.46759643554688,144.6968780517578,-123.9519989013672,1.6887020078017326e+18,65.44973254394532,0.4148712903261184,-0.5882091224193573,-0.417980745434761,0.55418860912323,-1.704931139945984,1.257592797279358,0.1028444245457649
5.5,1.6887020078449882e+18,65.49298828125,-1.8226320346196492,9.430203119913736,-0.744299054145813,1.6887020078449882e+18,65.49298828125,-1.853041688601176,-0.0197407901287079,2.0107686122258506,1.6887020078449882e+18,65.49298828125,-0.0362556627951562,-9.432439486185707,2.6923802693684897,1.6887020078536397e+18,65.5016398111979,0.8836674690246582,-0.6143268148104349,0.6420702834924061,1.6887020078536397e+18,65.5016398111979,0.8827002843221029,-0.6098471383253733,0.6445137237509091,,,,,,,,,,,,1.6887020078471928e+18,65.4951927734375,-3.60143985748291,48.67799911499024,11.55827980041504,1.6887020078471928e+18,65.4951927734375,-258.14222412109376,144.14299621582032,-121.6535186767578,1.6887020078449882e+18,65.49298828125,0.4435690840085347,-0.5784389774004618,-0.4089795947074889,0.5489284793535868,-1.583644111951192,1.2949502070744832,-0.0518727811674276
5.55,1.6887020078968945e+18,65.54489444986979,-1.0157246788342793,9.22670873006185,-1.15540877978007,1.6887020078968945e+18,65.54489444986979,-1.2183455228805542,-0.2837488800287246,1.367697556813558,1.6887020078968945e+18,65.54489444986979,-0.2084668837487696,-9.492953300476074,2.460418939590454,1.6887020079055457e+18,65.55354557291666,-0.0322740500171979,-1.298241396745046,-0.8346964418888092,1.6887020079055457e+18,65.55354557291666,-0.0332921581963698,-1.2938125928243,-0.8322529991467794,,,,,,,,,,,,1.6887020078971896e+18,65.54518950195312,-4.682359886169434,48.27783889770508,13.310199737548828,1.6887020078971896e+18,65.54518950195312,-259.22315673828126,143.74283752441406,-119.90159759521484,1.6887020078968945e+18,65.54489444986979,0.4566199779510498,-0.5862414836883545,-0.4084746738274891,0.5299793481826782,-1.6554667949676514,1.3185007174809773,-0.0206253255407015
5.6,1.688702007948801e+18,65.59680102539063,18.98041582107544,-3.958675384521485,-3.83151650428772,1.688702007948801e+18,65.59680102539063,17.68295971552531,-13.301302433013916,-1.0398808419704435,1.688702007948801e+18,65.59680102539063,-1.3033029238382976,-9.325122833251951,2.7289483547210693,1.688702007957452e+18,65.60545190429687,-2.3053545554478965,-6.940651098887126,0.4720460971196493,1.688702007957452e+18,65.60545190429687,-2.306321700414022,-6.936120510101318,0.4743877649307251,,,,,,,,,,,,1.6887020079471954e+18,65.59519531250001,-4.089439868927002,48.658478546142575,10.411479663848876,1.6887020079471954e+18,65.59519531250001,-258.63023681640624,144.12347717285155,-122.8003173828125,1.688702007948801e+18,65.59680102539063,0.4698669413725535,-0.661935826142629,-0.3540224333604176,0.4601540565490722,-2.011155486106873,1.258636474609375,0.116542821129163
5.65,1.6887020080007032e+18,65.6487029622396,9.759611447652182,-15.699501991271973,1.4569018681844077,1.6887020080007032e+18,65.6487029622396,8.133204301198324,-24.75474739074707,4.959922552108765,1.6887020080007032e+18,65.6487029622396,-1.6322530508041382,-9.037741343180338,3.440333286921183,1.688702008009355e+18,65.65735498046875,-1.1221085339784622,-1.3478233168522518,-0.6877833604812622,1.688702008009355e+18,65.65735498046875,-1.1231775656342506,-1.3433435410261154,-0.6853908002376556,,,,,,,,,,,,1.688702007997191e+18,65.64519067382813,-7.886079883575439,49.5173583984375,3.2183599710464477,1.688702007997191e+18,65.64519067382813,-262.4268737792969,144.98235778808595,-129.99343872070312,1.6887020080007032e+18,65.6487029622396,0.4963338772455851,-0.7212610840797424,-0.2493799726168314,0.4134899079799651,-2.012154459953308,1.174369215965271,-0.1324092050393422
5.7,1.6887020080526144e+18,65.70061458333333,2.445162614186605,-5.42845090230306,8.003028392791748,1.6887020080526144e+18,65.70061458333333,0.6506484349568685,-14.39362621307373,11.66042423248291,1.6887020080526144e+18,65.70061458333333,-1.800360123316447,-8.947671254475912,3.5947081247965493,1.6887020080526136e+18,65.70061376953124,0.6705773323774338,4.229936361312866,-0.9005680978298187,1.6887020080526136e+18,65.70061376953124,0.6696610301733017,4.234365105628967,-0.898124635219574,,,,,,,,,,,,1.6887020080471913e+18,65.69519116210937,-5.4411999702453615,49.79063949584961,1.908079957962036,1.6887020080471913e+18,65.69519116210937,-259.98199462890625,145.2556396484375,-131.30371704101563,1.6887020080526144e+18,65.70061458333333,0.4712433020273844,-0.7189570665359497,-0.2716574321190516,0.4314685662587483,-2.035125494003296,1.1507987181345622,-0.0392900966107844
5.75,1.688702008104521e+18,65.75252107747396,-1.600307027498881,6.011824607849121,0.0814738273620605,1.688702008104521e+18,65.75252107747396,-3.3684960206349692,-3.0259236494700112,3.5676986376444497,1.688702008104521e+18,65.75252107747396,-1.7740349769592283,-9.020243644714355,3.4235374132792153,1.6887020080958692e+18,65.74386922200522,0.985122005144755,1.8166114489237468,-0.8261443475882212,1.6887020080958692e+18,65.74386922200522,0.9840529958407084,1.821040153503418,-0.8237008849779764,,,,,,,,,,,,1.6887020080971884e+18,65.7451884765625,-2.6791199684143066,49.83211898803711,5.038599920272827,1.6887020080971884e+18,65.7451884765625,-257.21991577148435,145.297119140625,-128.1731964111328,1.688702008104521e+18,65.75252107747396,0.4432454705238342,-0.6930216948191324,-0.3312298655509949,0.4619561334451039,-2.0502243836720786,1.169360915819804,0.1274681439002354
5.8,1.6887020081564244e+18,65.80442456054688,-2.4901787439982095,1.2450318336486816,2.9750376542409263,1.6887020081564244e+18,65.80442456054688,-4.0709889729817705,-7.7064839998881025,6.75792916615804,1.6887020081564244e+18,65.80442456054688,-1.5866562922795613,-8.934011141459147,3.720203955968221,1.6887020081477755e+18,65.79577530924479,-0.7960083484649658,1.774665355682373,-0.1328122889002163,1.6887020081477755e+18,65.79577530924479,-0.7970264305671056,1.7791450421015422,-0.1303688262899716,,,,,,,,,,,,1.688702008147189e+18,65.79518896484375,-1.4322799682617189,49.89311904907227,6.08779993057251,1.688702008147189e+18,65.79518896484375,-255.97307739257812,145.35811767578124,-127.12399597167968,1.6887020081564244e+18,65.80442456054688,0.4199007352193196,-0.6782952944437662,-0.347209374109904,0.4927167097727458,-1.9769174655278523,1.148134748140971,0.1412199139595031
5.85,1.6887020082083338e+18,65.856333984375,-0.6342434088389078,1.3301254908243816,0.9623428185780843,1.6887020082083338e+18,65.856333984375,-1.985643943150838,-7.377072334289551,5.368895928064982,1.6887020082083338e+18,65.856333984375,-1.3572465578715007,-8.689693133036295,4.343865712483724,1.688702008199682e+18,65.84768196614583,-0.801200677951177,1.5344935258229573,-0.1902336130539575,1.688702008199682e+18,65.84768196614583,-0.8021678527196249,1.5389222701390584,-0.1878919750452041,1.688702008216984e+18,65.86498413085937,0.0,0.0,1.1214947700500488,6.64900016784668,1.6323095560073853,268.3543701171875,42.10000228881836,-122.7555282,49.1905959,1.688702008197193e+18,65.84519301757811,-0.6319599866867065,49.871159362792966,3.008519983291626,1.688702008197193e+18,65.84519301757811,-255.17275695800785,145.33615417480468,-130.20328063964843,1.6887020082083338e+18,65.856333984375,0.386942704518636,-0.6692620118459066,-0.3480299015839894,0.5301992694536845,-1.875041961669922,1.091019829114278,0.1207741126418113
5.9,1.6887020082515886e+18,65.89958837890626,0.1967894434928894,5.978815317153931,-1.89152193069458,1.6887020082515886e+18,65.89958837890626,-1.1745768189430237,-2.524427890777588,2.894717216491699,1.6887020082515886e+18,65.89958837890626,-1.3772122859954834,-8.485738754272461,4.7235517501831055,1.6887020082515822e+18,65.89958203125,-0.9956594308217368,1.3497576713562012,-1.3743958671887715,1.6887020082515822e+18,65.89958203125,-0.9965757727622986,1.3542373577753704,-1.3720032970110576,,,,,,,,,,,,1.688702008247193e+18,65.89519311523438,0.6832000076770782,50.05903854370117,1.5347599864006043,1.688702008247193e+18,65.89519311523438,-253.85759582519532,145.52403564453124,-131.67703857421876,1.6887020082515886e+18,65.89958837890626,0.3561052680015563,-0.6656925082206726,-0.3563890606164932,0.5503774881362915,-1.8556342124938965,1.048129141330719,0.1657147333025932
5.95,1.688702008294838e+18,65.942837890625,0.2196050882339477,2.9415586789449057,-2.612126350402832,1.688702008294838e+18,65.942837890625,-1.6789638996124268,-5.158127943674724,2.6660032272338867,1.688702008294838e+18,65.942837890625,-1.9044150114059448,-8.082181930541992,5.215442180633545,1.688702008303495e+18,65.95149471028645,-1.179835319519043,0.5617924133936564,-2.2393810749053955,1.688702008303495e+18,65.95149471028645,-1.180802543958028,0.5662211875120798,-2.236937681833903,,,,,,,,,,,,1.688702008297191e+18,65.94519096679687,5.816960000991822,49.56371917724609,-1.3737199321389195,1.688702008297191e+18,65.94519096679687,-248.72383728027344,145.02872009277343,-134.58551635742188,1.688702008294838e+18,65.942837890625,0.3015646040439605,-0.6760591665903727,-0.3742406964302063,0.5582018891970316,-1.92169189453125,0.9713671803474426,0.303667997320493
6.0,1.68870200834675e+18,65.99475,0.124510367711385,-2.2501352628072104,-2.392099698384603,1.68870200834675e+18,65.99475,-2.675574541091919,-9.72742239634196,3.3784661293029785,1.68870200834675e+18,65.99475,-2.8059309323628745,-7.459782441457112,5.707878430684407,1.6887020083553969e+18,66.00339680989583,-1.9671388069788616,-1.8114700118700664,-1.3399838209152222,1.6887020083553969e+18,66.00339680989583,-1.968156894048055,-1.8069903254508972,-1.337591290473938,,,,,,,,,,,,1.6887020083471918e+18,65.99519174804688,11.4631196975708,48.494999694824216,-4.943439912796021,1.6887020083471918e+18,65.99519174804688,-243.07767639160156,143.95999450683593,-138.15523681640624,1.68870200834675e+18,65.99475,0.2519189715385436,-0.7094160517056783,-0.3737038473288218,0.5414897998174032,-2.0284528334935508,0.8669945398966471,0.4083659251530965
6.05,1.6887020083986522e+18,66.04665185546875,0.7239402929941813,-6.778435230255127,-2.1193959712982178,1.6887020083986522e+18,66.04665185546875,-3.381656567255656,-13.407184600830078,3.8869410355885825,1.6887020083986522e+18,66.04665185546875,-4.111442883809407,-6.6112446784973145,5.943649609883626,1.6887020084073083e+18,66.05530818684896,-2.474207878112793,-6.039828300476074,-1.891798754533132,1.6887020084073083e+18,66.05530818684896,-2.4752260049184165,-6.035399436950684,-1.8894062439600627,,,,,,,,,,,,1.6887020083971917e+18,66.04519184570313,15.615999603271485,47.04563903808594,-8.720559787750243,1.6887020083971917e+18,66.04519184570313,-238.9247924804687,142.51063537597656,-141.93235778808594,1.6887020083986522e+18,66.04665185546875,0.230250671505928,-0.7760933438936869,-0.3261922101179758,0.4866522351900736,-2.1756174564361572,0.7423687179883321,0.392342209815979
6.1,1.6887020084505592e+18,66.09855932617188,20.78801377614339,-13.868343353271484,1.28765869140625,1.6887020084505592e+18,66.09855932617188,14.491332372029625,-18.847267150878903,6.935795783996582,1.6887020084505592e+18,66.09855932617188,-6.302528063456218,-4.961420218149821,5.5854495366414385,1.6887020084592087e+18,66.10720874023437,-0.076409046848615,4.915836334228515,-3.3528356850147247,1.6887020084592087e+18,66.10720874023437,-0.0774271960059801,4.920316060384114,-3.35044322659572,,,,,,,,,,,,1.688702008447193e+18,66.09519306640625,25.04903984069824,42.51211929321289,-9.210999965667725,1.688702008447193e+18,66.09519306640625,-229.49175720214845,137.97711791992188,-142.42279663085938,1.6887020084505592e+18,66.09855932617188,0.1602699384093284,-0.8553150296211243,-0.298791358868281,0.3879254957040151,-2.419161081314087,0.5331110755602518,0.4678428570429484
6.15,1.6887020085024694e+18,66.15046940104168,-3.5092201232910156,-5.809121290842692,-7.060465017954509,1.6887020085024694e+18,66.15046940104168,-7.769694646199544,-10.838290214538574,0.2650051166613897,1.6887020085024694e+18,66.15046940104168,-4.266320625940959,-5.011664231618245,7.262782732645671,1.6887020085024704e+18,66.15047033691405,0.7078400924801828,4.135939419269562,0.7345654517412186,1.6887020085024704e+18,66.15047033691405,0.706847470253706,4.140368223190308,0.7369325384497643,,,,,,,,,,,,1.6887020084971863e+18,66.14518618164063,24.351199340820315,40.51131896972656,-16.792079544067384,1.6887020084971863e+18,66.14518618164063,-230.1895965576172,135.9763214111328,-150.00387878417968,1.6887020085024694e+18,66.15046940104168,0.1021082550287246,-0.7760765353838602,-0.339463472366333,0.5210601389408112,-2.102961222330729,0.5380427638689677,0.5116941531499227
6.2,1.6887020085543703e+18,66.20237044270833,8.643369674682617,-8.821994304656982,-6.620551427205403,1.6887020085543703e+18,66.20237044270833,4.425725037852923,-14.24108346303304,0.4508476654688517,1.6887020085543703e+18,66.20237044270833,-4.223490397135417,-5.401584466298421,7.008711655934651,1.6887020085457244e+18,66.193724609375,0.0647008170684178,-2.5651758511861167,1.772221922874451,1.6887020085457244e+18,66.193724609375,0.0636827076474825,-2.5606961647669473,1.7746653159459431,,,,,,,,,,,,1.6887020085471913e+18,66.19519116210938,21.049879837036137,42.187599182128906,-17.704639434814453,1.6887020085471913e+18,66.19519116210938,-233.49091796875,137.65259704589843,-150.91643676757812,1.6887020085543703e+18,66.20237044270833,0.1423144911726315,-0.782905638217926,-0.3199753065903981,0.5136321981747946,-2.1145948568979898,0.5848521192868551,0.4400038023789723
6.25,1.6887020086062838e+18,66.25428385416667,2.29809300104777,-7.599187850952148,-2.842098315556844,1.6887020086062838e+18,66.25428385416667,-0.981057325998942,-14.194024403889976,3.6729827721913657,1.6887020086062838e+18,66.25428385416667,-3.284996509552002,-6.57733170191447,6.452393690745036,1.688702008597631e+18,66.245630859375,3.233513355255127,2.929404298464457,1.701921463012695,1.688702008597631e+18,66.245630859375,3.23259703318278,2.933833122253418,1.7043140331904094,,,,,,,,,,,,1.688702008597193e+18,66.24519296874999,17.533839416503906,44.87159881591797,-13.354119873046876,1.688702008597193e+18,66.24519296874999,-237.0069549560547,140.3365966796875,-146.56591796875,1.6887020086062838e+18,66.25428385416667,0.1973494638999303,-0.7365402380625407,-0.352317601442337,0.5411210258801779,-2.039860645929972,0.7383099595705668,0.4241637190183003
6.3,1.6887020086581883e+18,66.30618815104167,1.3190985123316448,-7.2780687014261884,1.5264890988667803,1.6887020086581883e+18,66.30618815104167,-1.0388838450113933,-15.28594938913981,6.748358090718587,1.6887020086581883e+18,66.30618815104167,-2.363828420639038,-7.990376313527425,5.159181435902913,1.6887020086495334e+18,66.2975332845052,3.345047156016032,-0.6278167764345804,1.6136005719502766,1.6887020086495334e+18,66.2975332845052,3.344130833943685,-0.6233879526456197,1.6159931023915608,,,,,,,,,,,,1.688702008647194e+18,66.29519375,11.385039710998536,48.30467910766602,-5.626639938354492,1.688702008647194e+18,66.29519375,-243.15575256347657,143.7696746826172,-138.83843688964845,1.6887020086581883e+18,66.30618815104167,0.280531346797943,-0.6813036402066549,-0.3954000473022461,0.5479236841201782,-2.0025210777918496,0.9545047879219056,0.4124357203642527
6.35,1.6887020087014395e+18,66.3494395751953,5.652405500411987,-6.984079837799072,7.557281017303467,1.6887020087014395e+18,66.3494395751953,3.6738799810409546,-15.49861192703247,12.099905967712402,1.6887020087014395e+18,66.3494395751953,-1.9843714237213137,-8.49702787399292,4.4799370765686035,1.6887020087014438e+18,66.34944376627604,1.293456236521403,0.170431412756443,1.4610369602839153,1.6887020087014438e+18,66.34944376627604,1.2925399939219158,0.1748601670066515,1.463378628094991,1.6887020087217316e+18,66.36973168945312,0.0,0.0,1.1214947700500488,6.679999828338623,1.6361899375915527,268.41693115234375,42.10000228881836,-122.7555416,49.1905989,1.688702008697194e+18,66.34519414062501,7.434679794311523,49.37827758789062,-0.0927199870347976,1.688702008697194e+18,66.34519414062501,-247.10611877441409,144.84327697753906,-133.3045166015625,1.6887020087014395e+18,66.3494395751953,0.3297212868928909,-0.6659015715122223,-0.3971381783485412,0.5385764837265015,-1.9884663224220276,1.04899662733078,0.3556457608938216
6.4,1.6887020087446958e+18,66.39269563802084,1.094539721806844,2.5225753784179688,3.063056548436483,1.6887020087446958e+18,66.39269563802084,-0.1982055107752482,-6.358926296234131,7.112266381581624,1.6887020087446958e+18,66.39269563802084,-1.2985912561416626,-8.863997141520182,3.986522277196249,1.68870200875335e+18,66.40134993489583,1.86135729153951,1.0066040953000386,0.835969090461731,1.68870200875335e+18,66.40134993489583,1.8603392044703169,1.0110328992207844,0.8384125232696533,,,,,,,,,,,,1.6887020087471895e+18,66.39518955078124,4.599399900436401,49.766239166259766,3.8259199142456057,1.6887020087471895e+18,66.39518955078124,-249.9413940429687,145.23123779296876,-129.38587799072266,1.6887020087446958e+18,66.39269563802084,0.3537981311480204,-0.6282979647318522,-0.413880854845047,0.5554362535476685,-1.885665496190389,1.130367596944173,0.3017272651195526
6.45,1.6887020087966052e+18,66.44460530598958,-3.9313809871673584,7.84608523050944,0.2461791038513183,1.6887020087966052e+18,66.44460530598958,-4.760520577430725,-1.3742777705192566,3.5948172410329184,1.6887020087966052e+18,66.44460530598958,-0.8349855542182922,-9.202858606974283,3.2859507401784263,1.6887020088052564e+18,66.45325659179687,1.391143759091695,0.0680605769157409,1.1282172203063965,1.6887020088052564e+18,66.45325659179687,1.3900748093922932,0.0725402335325876,1.1306606531143188,,,,,,,,,,,,1.6887020087971914e+18,66.44519130859375,3.030479907989502,49.23187942504883,8.122759819030762,1.6887020087971914e+18,66.44519130859375,-251.51031494140625,144.6968780517578,-125.0890396118164,1.6887020087966052e+18,66.44460530598958,0.3802454074223836,-0.5941201249758402,-0.4354146222273509,0.5592112938563029,-1.8199401299158733,1.219411055246989,0.2697148670752843
6.5,1.6887020088485097e+18,66.49650952148437,-3.3066701889038086,9.296057065327965,-0.0005932648976643,1.6887020088485097e+18,66.49650952148437,-3.5894333521525064,-0.1196411289274692,2.854238589604696,1.6887020088485097e+18,66.49650952148437,-0.2886092190941174,-9.39819367726644,2.792144457499186,1.6887020088571594e+18,66.50515950520833,0.6419684588909149,-1.168788810571035,1.5256868600845337,1.6887020088571594e+18,66.50515950520833,0.6409503519535065,-1.1643091638882954,1.528130332628886,,,,,,,,,,,,1.688702008847188e+18,66.49518784179688,-1.337119960784912,48.98055801391602,11.006839752197266,1.688702008847188e+18,66.49518784179688,-255.8779174804687,144.445556640625,-122.2049575805664,1.6887020088485097e+18,66.49650952148437,0.4252157906691233,-0.5807562073071798,-0.4211754898230235,0.5516360004742941,-1.6728922526041667,1.2821146249771118,0.0685983294000227
6.55,1.6887020089004173e+18,66.54841723632812,-1.2123506466547649,9.3362611134847,-0.5049668947855631,1.6887020089004173e+18,66.54841723632812,-1.2528420289357505,-0.1184447233875592,2.2356940110524497,1.6887020089004173e+18,66.54841723632812,-0.046337431607147,-9.437201499938965,2.677973508834839,1.688702008909067e+18,66.55706673177083,0.0907643983761469,-1.00558598836263,-0.0262162958582242,1.688702008909067e+18,66.55706673177083,0.0896953841050466,-1.0010045170783997,-0.0238237461696068,,,,,,,,,,,,1.6887020088971953e+18,66.54519511718749,-4.513999891281128,48.57795944213867,12.180479812622073,1.6887020088971953e+18,66.54519511718749,-259.05479125976564,144.04295959472657,-121.03131713867188,1.6887020089004173e+18,66.54841723632812,0.4492806792259216,-0.5824814041455587,-0.403748611609141,0.543884793917338,-1.587887446085612,1.2964998086293538,-0.0678623082737127
6.6,1.6887020089523282e+18,66.60032812499999,12.680460453033447,0.18695068359375,-2.3732537825902305,1.6887020089523282e+18,66.60032812499999,11.58405375480652,-9.124630550543468,0.5535396585861841,1.6887020089523282e+18,66.60032812499999,-1.1022534271081288,-9.294076919555664,2.864106019337972,1.688702008952326e+18,66.60032604980469,-1.750357985496521,-7.883368730545044,-2.5000423192977905,1.688702008952326e+18,66.60032604980469,-1.7513506412506104,-7.878939867019653,-2.497598946094513,,,,,,,,,,,,1.6887020089471926e+18,66.59519252929688,-3.960119915008545,48.74631958007812,11.082479858398438,1.6887020089471926e+18,66.59519252929688,-258.50091552734375,144.21131896972656,-122.1293167114258,1.6887020089523282e+18,66.60032812499999,0.4578145941098531,-0.6487311124801636,-0.3638485173384349,0.48240527510643,-1.9202789465586343,1.2491307258605957,0.0840786521633466
6.65,1.6887020090042258e+18,66.65222574869792,17.93748664855957,-16.236842155456543,2.2570305665334067,1.6887020090042258e+18,66.65222574869792,16.09233045578003,-25.290141423543293,5.6548380851745605,1.6887020090042258e+18,66.65222574869792,-1.8510030110677085,-9.035795211791992,3.3351200421651206,1.68870200899558e+18,66.64357999674479,-1.6081536809603374,-2.323833147684733,0.3976224064826965,1.68870200899558e+18,66.64357999674479,-1.6091718077659607,-2.3193025986353555,0.4000149170557658,,,,,,,,,,,,1.688702008997197e+18,66.64519711914063,-5.819399833679199,49.56859893798829,5.158159828186035,1.688702008997197e+18,66.64519711914063,-260.3601989746094,145.03359680175782,-128.0536376953125,1.6887020090042258e+18,66.65222574869792,0.4796874721844991,-0.7192861040433248,-0.2765157322088877,0.4194278419017792,-2.0777448813120523,1.1735310951868694,-0.0119893855104843
