seconds_elapsed_rounded,accelerometer_time,accelerometer_seconds_elapsed,accelerometer_z,accelerometer_y,accelerometer_x,accelerometeruncalibrated_time,accelerometeruncalibrated_seconds_elapsed,accelerometeruncalibrated_z,accelerometeruncalibrated_y,accelerometeruncalibrated_x,gravity_time,gravity_seconds_elapsed,gravity_z,gravity_y,gravity_x,gyroscope_time,gyroscope_seconds_elapsed,gyroscope_z,gyroscope_y,gyroscope_x,gyroscopeuncalibrated_time,gyroscopeuncalibrated_seconds_elapsed,gyroscopeuncalibrated_z,gyroscopeuncalibrated_y,gyroscopeuncalibrated_x,location_time,location_seconds_elapsed,location_bearingAccuracy,location_speedAccuracy,location_verticalAccuracy,location_horizontalAccuracy,location_speed,location_bearing,location_altitude,location_longitude,location_latitude,magnetometer_time,magnetometer_seconds_elapsed,magnetometer_z,magnetometer_y,magnetometer_x,magnetometeruncalibrated_time,magnetometeruncalibrated_seconds_elapsed,magnetometeruncalibrated_z,magnetometeruncalibrated_y,magnetometeruncalibrated_x,orientation_time,orientation_seconds_elapsed,orientation_qz,orientation_qy,orientation_qx,orientation_qw,orientation_roll,orientation_pitch,orientation_yaw
0.0,1.6887549933424486e+18,194.9994487304687,3.058973550796509,-4.804450511932373,-5.2380290031433105,1.6887549933424507e+18,194.99945068359375,0.6610172192255656,-14.033904711405436,-2.864408160249392,1.6887549933424486e+18,194.9994487304687,-3.0471725463867188,-9.11683464050293,1.9563969373703003,1.6887549933424486e+18,194.9994487304687,-0.3132975101470946,1.382540762424469,0.3236822187900543,1.6887549933381253e+18,194.99512532552083,-0.3168863529960314,0.9888890335957208,0.0891354183355966,,,,,,,,,,,,1.688754993338068e+18,194.9950679199219,1.76899995803833,40.306359100341794,-25.61023941040039,1.688754993338068e+18,194.9950679199219,-252.75959167480468,133.62416076660156,-157.6142364501953,1.6887549933424486e+18,194.9994487304687,-0.5460233986377716,0.6734627783298492,-0.4490465223789214,0.2159074991941452,-2.5701478719711304,1.1927539110183716,-1.569863259792328
0.05,1.6887549933856986e+18,195.04269889322916,1.6717307170232136,-5.950356165568034,-6.007285118103027,1.6887549933943542e+18,195.05135408528645,-0.7515457284947237,-14.988242149353027,-3.2267213662465415,1.6887549933856986e+18,195.04269889322916,-2.959730863571167,-9.169933001200356,1.8357224464416504,1.6887549933856986e+18,195.04269889322916,0.7079928119977316,0.1564833049972852,0.2302962094545364,1.688754993390023e+18,195.04702294921876,0.747495432694753,0.0722348069151243,0.4322380820910136,1.6887549934159828e+18,195.07298291015624,0.0,0.0,2.6536459922790527,6.375,1.4244053363800049,111.74691009521484,332.79998779296875,-122.9164254,49.2784875,1.688754993388064e+18,195.04506381835935,0.6465999841690063,40.611359405517575,-25.29547996520996,1.688754993388064e+18,195.04506381835935,-253.88199462890623,133.92915954589844,-157.29947814941406,1.6887549933856986e+18,195.04269889322916,-0.5510258078575134,0.6802586714426676,-0.4335506757100423,0.2135482331116993,-2.58634352684021,1.2078444560368855,-1.5230019092559814
0.1,1.6887549934376087e+18,195.09460880533857,-0.0453989108403523,-5.353428840637207,0.835629940032959,1.6887549934462554e+18,195.10325528971353,-1.928415636221568,-14.175280888875326,2.7836503187815347,1.6887549934376087e+18,195.09460880533857,-1.7867690324783323,-9.520200729370115,1.44724702835083,1.6887549934376087e+18,195.09460880533857,0.831845760345459,0.1960368355115254,3.67119828859965,1.6887549934419336e+18,195.09893359375,0.8309294581413269,0.1196277936299641,3.776623487472534,,,,,,,,,,,,1.6887549934380657e+18,195.09506572265624,-3.7990799725055697,41.43363952636719,-23.582599639892575,1.6887549934380657e+18,195.09506572265624,-258.3276702880859,134.7514404296875,-155.5865936279297,1.6887549934376087e+18,195.09460880533857,-0.5889263351758321,0.655140221118927,-0.4017647206783294,0.2484329789876938,-2.4349822203318277,1.332417607307434,-1.6698021094004314
0.15,1.6887549934895153e+18,195.14651513671876,-1.988057255744934,-4.029597918192546,2.6331923802693686,1.688754993498164e+18,195.1551638997396,-2.1527427434921265,-14.854443550109863,4.493322134017944,1.6887549934895153e+18,195.14651513671876,0.0334565949936707,-9.743532180786133,1.0435037811597188,1.6887549934895153e+18,195.14651513671876,0.7018332680066427,-0.6814201871554056,3.4516940911610923,1.6887549934938406e+18,195.15084057617187,0.6444119115670522,-0.6472117106119791,3.4389167626698813,,,,,,,,,,,,1.688754993488067e+18,195.14506723632812,-11.167879676818847,40.96759872436523,-22.691999435424805,1.688754993488067e+18,195.14506723632812,-265.69647216796875,134.2853973388672,-154.6959991455078,1.6887549934895153e+18,195.14651513671876,-0.6389905015627543,0.6007689237594604,-0.3701287011305491,0.3052556018034617,-1.5116233428319297,1.4546937942504885,-2.6276060740152993
0.2,1.688754993541414e+18,195.19841430664064,-4.660936196645101,-6.245587666829427,7.158338864644368,1.6887549935500657e+18,195.2070655924479,-3.2967113653818765,-14.966906229654947,7.992825190226237,1.688754993541414e+18,195.19841430664064,1.797661026318868,-9.565629641215006,1.1111804842948914,1.688754993541414e+18,195.19841430664064,-0.4501058707634608,-1.3744467894236247,3.8109846909840903,1.688754993545744e+18,195.2027440592448,-0.5043201744556427,-1.5758796135584514,3.7846665382385254,,,,,,,,,,,,1.688754993538063e+18,195.19506308593748,-17.70707950592041,38.72767868041992,-22.750559616088868,1.688754993538063e+18,195.19506308593748,-272.2356750488281,132.04547729492188,-154.75455322265626,1.688754993541414e+18,195.19841430664064,-0.684654176235199,0.5312750538190206,-0.354182223478953,0.3502631485462188,-0.5706659456094106,1.3525656859079995,2.6620004971822104
0.25,1.6887549935933235e+18,195.25032340494792,-0.7959283192952474,-2.9956480662027993,-1.1296680768330891,1.688754993593318e+18,195.2503179931641,4.445565283298492,-12.622438430786133,0.2554338574409485,1.6887549935933235e+18,195.25032340494792,3.259874105453491,-9.10190773010254,1.6075592438379924,1.6887549935933235e+18,195.25032340494792,0.2230676164229711,-2.203238199154536,3.3446399370829263,1.6887549935976497e+18,195.2546495768229,0.373900443315506,-1.869909425576528,3.3546173572540283,,,,,,,,,,,,1.6887549935880658e+18,195.24506567382812,-21.66719970703125,34.84319915771484,-25.40039978027344,1.6887549935880658e+18,195.24506567382812,-276.19580078125,128.16099853515624,-157.40439147949218,1.6887549935933235e+18,195.25032340494792,-0.7060271898905436,0.4417415459950765,-0.3716672559579213,0.409191350142161,-0.4622328579425812,1.1903019348780317,2.4088992277781167
0.3,1.6887549936452247e+18,195.302224609375,-9.228046417236328,4.408276875813802,-2.3963465690612793,1.6887549936365773e+18,195.29357747395832,-3.1565318504969277,-6.202196359634399,-1.4957135319709778,1.6887549936452247e+18,195.302224609375,4.631570180257161,-8.546506881713867,1.282611886660258,1.6887549936452247e+18,195.302224609375,1.010574738184611,-1.1395181616147358,2.8124236265818277,1.6887549936495547e+18,195.3065546875,0.9280570149421692,-1.5203926662604017,2.7164159615834556,,,,,,,,,,,,1.688754993638068e+18,195.2950680175781,-25.48091926574707,32.3104793548584,-25.00023956298828,1.688754993638068e+18,195.2950680175781,-280.0095153808594,125.62827606201172,-157.00423583984374,1.6887549936452247e+18,195.302224609375,-0.7220057646433512,0.3862815101941426,-0.3381923139095306,0.4632584452629089,-0.2713637451330821,1.0582244793574016,2.160658597946167
0.35,1.6887549936971328e+18,195.3541328938802,-7.767412662506104,10.978890101114908,-0.6367759307225546,1.6887549936884826e+18,195.3454823404948,-3.304886817932129,2.4596222639083862,0.8005986015001932,1.6887549936971328e+18,195.3541328938802,5.3496012687683105,-8.001264572143555,1.8719953298568728,1.6887549936971328e+18,195.3541328938802,0.016238834708929,-2.871575673421224,1.9356283744176228,1.6887549936928087e+18,195.34980883789063,-0.0327576482668519,-2.9530752897262573,2.122145891189575,,,,,,,,,,,,1.688754993688066e+18,195.34506611328123,-26.32515983581543,30.23647956848145,-26.608199691772462,1.688754993688066e+18,195.34506611328123,-280.853759765625,123.55427856445311,-158.61220092773436,1.6887549936971328e+18,195.3541328938802,-0.7129283547401428,0.3127060929934184,-0.3592363893985748,0.5141413807868958,-0.3358303904533386,0.954078714052836,2.066468556722006
0.4,1.6887549937490383e+18,195.4060382486979,-4.0135306517283125,8.720707416534424,-0.0048484802246093,1.6887549937403932e+18,195.39739298502604,0.9339984307686487,1.507877031962077,2.455833673477173,1.6887549937490383e+18,195.4060382486979,5.406289418538411,-7.825435797373454,2.397197167078654,1.6887549937490383e+18,195.4060382486979,0.629038468003273,-1.3030773798624675,-0.5495750804742178,1.688754993736063e+18,195.39306306966145,0.3552181447545687,-1.7596482435862224,0.2100358456373214,,,,,,,,,,,,1.6887549937380644e+18,195.39506440429687,-25.45651969909668,28.369879150390624,-29.83875961303711,1.6887549937380644e+18,195.39506440429687,-279.9851135253906,121.68767700195312,-161.84275817871094,1.6887549937490383e+18,195.4060382486979,-0.6971557140350342,0.2736159364382426,-0.3866208493709564,0.5380608240763346,-0.4177313645680745,0.9234172701835632,2.037186861038208
0.45,1.688754993792296e+18,195.4492957763672,-0.775628924369812,6.967177629470825,-0.3124954104423522,1.6887549937922916e+18,195.44929166666668,4.717051108678182,-1.6789638996124268,1.9168504079182944,1.688754993792296e+18,195.4492957763672,4.70537805557251,-8.319264888763428,2.193976402282715,1.688754993792296e+18,195.4492957763672,1.365971028804779,-0.4508949071168899,-2.7841711044311523,1.6887549937879675e+18,195.4449679361979,1.287856658299764,-0.4985169470310211,-2.548275272051493,,,,,,,,,,,,1.6887549937880673e+18,195.4450674804687,-21.18407974243164,31.146599197387697,-29.90951957702637,1.6887549937880673e+18,195.4450674804687,-275.7126708984375,124.46439666748049,-161.91351623535155,1.688754993792296e+18,195.4492957763672,-0.6682365238666534,0.3010975718498229,-0.411505714058876,0.5415481328964233,-0.436601847410202,1.0127082765102386,2.024349093437195
0.5,1.6887549938355397e+18,195.49253955078123,10.297404925028482,-13.83992608388265,2.0413540601730347,1.688754993844194e+18,195.5011940917969,13.622140248616535,-27.336204210917156,5.788237969080607,1.6887549938355397e+18,195.49253955078123,3.940025568008423,-8.718252182006836,2.1609655221303306,1.6887549938355397e+18,195.49253955078123,-0.2238312065601349,-1.4896967609723408,-0.5234096745649973,1.6887549938398697e+18,195.49686954752607,-0.3727296094099679,-1.894293134411176,-0.0234673619270324,,,,,,,,,,,,1.6887549938380634e+18,195.49506333007812,-16.50659942626953,34.00871887207031,-29.687479400634764,1.6887549938380634e+18,195.49506333007812,-271.0351989746094,127.3265167236328,-161.69147644042968,1.6887549938355397e+18,195.49253955078123,-0.6420450011889139,0.3225634892781575,-0.4415324330329895,0.5372426311175028,-0.5013767977555593,1.0945541858673096,2.057567834854126
0.55,1.688754993887452e+18,195.54445166015623,6.0405557950337725,-0.8301871617635092,5.297053813934326,1.6887549938960978e+18,195.55309790039064,8.65703280766805,-5.791428208351135,8.982457002003988,1.688754993887452e+18,195.54445166015623,4.0860053698221845,-8.437457720438639,2.8889164129892984,1.688754993887452e+18,195.54445166015623,0.7478517622997364,-3.651905218760173,1.2626075247923534,1.6887549938917788e+18,195.54877897135415,0.7861326734224955,-3.1956397692362466,1.0002918615937233,,,,,,,,,,,,1.6887549938880678e+18,195.5450678222656,-13.14915943145752,33.09615859985352,-32.3202392578125,1.6887549938880678e+18,195.5450678222656,-267.6777587890625,126.41395721435546,-164.32423706054686,1.688754993887452e+18,195.54445166015623,-0.6108848253885905,0.2505167673031488,-0.4782373706499735,0.578580637772878,-0.6155287623405457,1.03531281153361,1.9832463661829631
0.6,1.6887549939393523e+18,195.59635213216143,-7.090462525685628,-5.088813781738281,2.84207534790039,1.6887549939480087e+18,195.6050087076823,-4.252245267232259,-12.158928871154783,2.3060826857884726,1.6887549939393523e+18,195.59635213216143,4.0044552485148115,-8.4745454788208,2.892248551050822,1.6887549939393523e+18,195.59635213216143,-0.1510873387257258,1.4947363535563152,-0.1280780831972758,1.688754993943679e+18,195.6006787923177,-0.148694783449173,1.6852244933446248,-0.1517999867598215,1.6887549939350303e+18,195.59203051757817,0.0,0.0,2.664024829864502,6.38700008392334,1.4270979166030884,111.13932800292967,332.79998779296875,-122.9164183,49.2784872,1.688754993938058e+18,195.59505805664065,-12.944200134277343,33.410919952392575,-32.786279296875,1.688754993938058e+18,195.59505805664065,-267.47279663085936,126.72871704101564,-164.79027709960937,1.6887549939393523e+18,195.59635213216143,-0.6035391489664713,0.2480522443850835,-0.4839758475621541,0.5829374194145203,-0.6257897615432739,1.042781154314677,1.9730647802352903
0.65,1.688754993991262e+18,195.6482618815104,-3.411635398864746,3.6751298904418945,-3.0257457892100015,1.688754993999915e+18,195.6569151204427,0.0063808759053548,-6.483751694361369,1.0464611053466797,1.688754993991262e+18,195.6482618815104,3.700106620788574,-8.76370938618978,2.358671267827352,1.688754993991262e+18,195.6482618815104,0.4952589869499206,2.481843670209249,-2.761823614438375,1.6887549939955845e+18,195.65258455403645,0.5264131228129069,2.778469681739807,-3.035949389139811,,,,,,,,,,,,1.6887549939880704e+18,195.64507036132812,-13.961679840087893,34.01115951538086,-30.80011978149414,1.6887549939880704e+18,195.64507036132812,-268.4902770996094,127.3289566040039,-162.80411682128906,1.688754993991262e+18,195.6482618815104,-0.6126958926518759,0.3000520964463551,-0.4697383940219879,0.5595046877861023,-0.5675802230834961,1.1064346234003704,2.018341819445292
0.7,1.6887549940431596e+18,195.70015966796873,-9.33439842859904,0.3657948176066081,0.0436081488927205,1.6887549940431667e+18,195.70016650390625,-8.312964916229248,-8.768199443817139,1.5358930826187134,1.6887549940431596e+18,195.70015966796873,2.1393167972564697,-9.430049260457356,1.548540711402893,1.6887549940431596e+18,195.70015966796873,-0.251116506755352,4.916905244191487,-4.576449712117513,1.6887549940474934e+18,195.7044934895833,-0.453669269879659,4.735427459081014,-4.568711916605632,,,,,,,,,,,,1.6887549940380603e+18,195.69506069335935,-13.951919746398923,36.80983963012695,-27.72571907043457,1.6887549940380603e+18,195.69506069335935,-268.4805114746094,130.1276397705078,-159.7297149658203,1.6887549940431596e+18,195.70015966796873,-0.6205117702484131,0.4298157095909118,-0.4525630076726277,0.4722706576188405,-0.6449917753537496,1.296201507250468,2.3424148559570312
0.75,1.6887549940950671e+18,195.75206722005208,-3.905844529469808,-3.962002754211426,-2.959543069203695,1.6887549940864212e+18,195.74342097981773,-6.253043671449025,-13.157334009806316,-0.4444668193658193,1.6887549940950671e+18,195.75206722005208,0.6385810772577921,-9.587398211161297,1.9614615043004353,1.6887549940950671e+18,195.75206722005208,-1.4172582626342771,1.2378675440947216,-1.9361373980840049,1.6887549940993905e+18,195.75639070638024,-1.2646437784036,1.0010554591814678,-1.7203492919603984,,,,,,,,,,,,1.6887549940880655e+18,195.74506547851564,-11.324039840698244,37.38079986572266,-27.613479614257812,1.6887549940880655e+18,195.74506547851564,-265.8526306152344,130.69859619140624,-159.6174774169922,1.6887549940950671e+18,195.75206722005208,-0.6243464748064677,0.5021455983320872,-0.4638652006785075,0.377672662337621,-1.250027020772298,1.357438564300537,-1.0803748766581218
0.8,1.688754994146977e+18,195.80397721354169,4.3416117032368975,0.2752941449483236,-3.675386587778727,1.6887549941383283e+18,195.79532845052088,5.154937664667766,-10.220144271850586,-1.867398699124654,1.688754994146977e+18,195.80397721354169,-0.2230291763941446,-9.600565592447916,1.9710234800974529,1.688754994146977e+18,195.80397721354169,0.6373360653718313,0.4283183515071869,-2.4471770922342935,1.6887549941426524e+18,195.79965234375,0.6084217876195908,0.2800817191600799,-2.584112763404846,,,,,,,,,,,,1.6887549941380636e+18,195.79506362304687,-8.905999851226806,37.280758666992185,-28.357679748535155,1.6887549941380636e+18,195.79506362304687,-263.4345947265625,130.5985595703125,-160.36167602539064,1.688754994146977e+18,195.80397721354169,-0.6054723461469015,0.5348103443781534,-0.4743637343247731,0.3492411375045776,-1.6886906623840332,1.3638064463933308,-2.703954060872396
0.85,1.6887549941988782e+18,195.85587825520835,1.3246976137161257,3.8891989390055337,-0.0648736953735351,1.6887549941902277e+18,195.84722737630207,0.1960120797157287,-5.917849222819011,0.8434699972470602,1.6887549941988782e+18,195.85587825520835,-1.181191603342692,-9.612075805664062,1.5505419572194417,1.6887549941988782e+18,195.85587825520835,0.9655234217643738,1.8160005807876587,-1.8249090512593584,1.688754994185907e+18,195.84290665690105,1.0006990631421406,1.6352353890736897,-2.010306636492411,,,,,,,,,,,,1.688754994188064e+18,195.84506401367187,-6.029239845275879,39.12052001953125,-27.083999633789062,1.688754994188064e+18,195.84506401367187,-260.5578247070313,132.43831787109374,-159.08799743652344,1.6887549941988782e+18,195.85587825520835,-0.5819711486498514,0.5911852121353149,-0.4586203893025716,0.317959984143575,-2.2185608545939126,1.3696364561716716,-2.092498222986857
0.9,1.688754994242131e+18,195.8991309814453,3.023568272590637,2.827430486679077,0.6499878168106079,1.688754994242136e+18,195.8991359049479,1.0279167294502258,-6.6602223714192705,2.014756739139557,1.688754994242131e+18,195.8991309814453,-1.7618164420127869,-9.545422554016112,1.4157405495643616,1.688754994242131e+18,195.8991309814453,0.08620835095644,0.6501133441925049,-1.528079390525818,1.6887549942378107e+18,195.8948106282552,0.1913535396258036,0.9162469506263732,-1.5189673503239949,,,,,,,,,,,,1.6887549942380657e+18,195.89506567382813,-3.652679920196533,40.63331985473633,-25.451639556884764,1.6887549942380657e+18,195.89506567382813,-258.1812744140625,133.95111694335938,-157.4556396484375,1.688754994242131e+18,195.8991309814453,-0.5701608657836914,0.6247931122779846,-0.4464544504880904,0.2918689996004104,-2.4627844095230103,1.3383145332336426,-1.7857138514518738
0.95,1.6887549942853878e+18,195.94238785807292,0.7101255257924398,0.5191148122151693,-1.231639544169108,1.6887549942940378e+18,195.95103767903643,-1.8863418300946553,-9.68375333150228,0.3916253101391097,1.6887549942853878e+18,195.94238785807292,-2.1227518717447915,-9.420058886210125,1.7212953567504885,1.6887549942853878e+18,195.94238785807292,-0.7296785314877828,0.8562294642130533,-1.0121018886566162,1.68875499428972e+18,195.94672013346351,-0.7314093112945557,0.771726464231809,-1.060258428255717,,,,,,,,,,,,1.6887549942880658e+18,195.94506572265624,-2.7596399784088135,40.05747985839844,-26.051879501342775,1.6887549942880658e+18,195.94506572265624,-257.288232421875,133.37527465820312,-158.05587768554688,1.6887549942853878e+18,195.94238785807292,-0.5677109559377035,0.6367016832033793,-0.4502195417881012,0.2636265456676482,-2.460157553354899,1.2885011037190754,-1.7514775196711223
1.0,1.6887549943372964e+18,195.99429646809895,3.4779768784840903,-3.070563316345215,-4.566833019256592,1.6887549943459425e+18,196.00294230143228,1.3653047482172649,-12.820145606994627,-3.5124642848968506,1.6887549943372964e+18,195.99429646809895,-2.792895396550497,-9.190900802612305,1.9811135133107505,1.6887549943372964e+18,195.99429646809895,-0.6670648455619812,-0.7985536158084869,-1.2599604924519856,1.6887549943416207e+18,195.99862084960935,-0.6623306473096212,-0.7447974532842636,-1.1182906329631803,,,,,,,,,,,,1.6887549943380657e+18,195.99506567382812,-0.1610399842262269,39.24007949829102,-27.323119735717775,1.6887549943380657e+18,195.99506567382812,-254.68963623046875,132.5578826904297,-159.32711791992188,1.6887549943372964e+18,195.99429646809895,-0.5465865532557169,0.6472954948743185,-0.4724270105361938,0.2427457521359125,-2.522929588953654,1.2141744295756025,-1.698099931081136
1.05,1.6887549943891968e+18,196.04619669596352,1.0381744702657063,-9.394161224365234,-6.589593728383382,1.6887549943978514e+18,196.0548513997396,-2.451446771621704,-19.030916213989254,-3.713262001673381,1.6887549943891968e+18,196.04619669596352,-2.925975481669108,-9.132311503092447,2.066286047299703,1.6887549943891968e+18,196.04619669596352,0.3233004411061604,0.4004730631907781,0.0791579559445381,1.6887549943935263e+18,196.0505266113281,0.4998914102713267,0.351094800978899,0.1257364324604472,,,,,,,,,,,,1.688754994388064e+18,196.0450640625,1.2565999746322631,38.60811920166016,-28.01119918823242,1.688754994388064e+18,196.0450640625,-253.2719970703125,131.92591857910156,-160.01519775390625,1.6887549943891968e+18,196.04619669596352,-0.5429917772610983,0.6490227580070496,-0.477256695429484,0.2369095583756764,-2.526313622792562,1.1970713138580322,-1.6948346296946208
1.1,1.6887549944411046e+18,196.09810457356772,2.770596186319987,-3.115555763244629,0.9533257484436036,1.6887549944497518e+18,196.10675162760415,0.6572286188602446,-11.030114809672035,3.5030924479166665,1.6887549944411046e+18,196.09810457356772,-2.363281528155009,-9.387184778849283,1.5377267599105835,1.6887549944411046e+18,196.09810457356772,0.9655234416325889,-0.4435899754365285,2.389348487059275,1.688754994445428e+18,196.10242822265624,0.8555167814095815,-0.4670064846674601,2.712547024091085,1.6887549944540838e+18,196.11108374023436,0.0,0.0,2.664024829864502,6.413000106811523,1.4290595054626465,110.9818344116211,332.79998779296875,-122.9164054,49.2784847,1.6887549944380646e+18,196.09506459960937,-1.0028399646282196,39.98183975219727,-26.395919036865234,1.6887549944380646e+18,196.09506459960937,-255.5314392089844,133.2996398925781,-158.39991760253906,1.6887549944411046e+18,196.09810457356772,-0.5543732841809591,0.644077718257904,-0.4531688690185547,0.26835564772288,-2.558547576268514,1.2788670460383098,-1.6668694814046223
1.15,1.6887549944930068e+18,196.1500069173177,-0.8837258418401083,-2.763972600301107,2.0199085076649985,1.6887549944930035e+18,196.15000354003905,-1.2326027154922483,-12.556635856628418,3.0457640886306763,1.6887549944930068e+18,196.1500069173177,-0.5099573135375977,-9.697890281677246,1.2813139359156291,1.6887549944930068e+18,196.1500069173177,0.5419392933448156,0.1266018201907476,3.938146432240804,1.6887549944973332e+18,196.15433317057293,0.6065382808446884,0.2187406619389852,3.8956402937571206,,,,,,,,,,,,1.6887549944880655e+18,196.1450653320313,-7.524959850311279,40.02819976806641,-25.495559692382812,1.6887549944880655e+18,196.1450653320313,-262.0535583496094,133.34599609375,-157.4995574951172,1.6887549944930068e+18,196.1500069173177,-0.6083266139030457,0.5907819668451945,-0.4201448659102122,0.3219472666581471,-1.8885271946589153,1.4217572609583538,-2.3614261150360107
1.2,1.6887549945449162e+18,196.2019162597656,-5.606003443400065,-6.690481503804524,6.2923264503479,1.688754994536265e+18,196.1932648925781,-3.718247016270955,-16.313865661621094,6.42991320292155,1.6887549945449162e+18,196.2019162597656,1.303844332695007,-9.65234120686849,1.0900542338689168,1.6887549945449162e+18,196.2019162597656,-0.0366009970506032,-0.6677775134642919,3.3237178325653076,1.6887549945492426e+18,196.20624259440103,-0.1205440660317738,-1.0208067099253335,3.2456796964009604,,,,,,,,,,,,1.6887549945380644e+18,196.19506455078127,-15.61355972290039,38.810639190673825,-24.441479873657222,1.6887549945380644e+18,196.19506455078127,-270.14215698242185,132.12843627929686,-156.44547424316406,1.6887549945449162e+18,196.2019162597656,-0.6586005687713623,0.5366575916608175,-0.3809440433979034,0.3641267617543538,-0.7237716714541117,1.3947835365931194,2.75050942103068
1.25,1.688754994596817e+18,196.25381689453124,0.6533854802449545,-1.0973498026529949,2.063469092051188,1.6887549945881723e+18,196.24517236328128,1.3880363404750824,-11.46800136566162,5.271388212839763,1.688754994596817e+18,196.25381689453124,2.6604111194610596,-9.29651641845703,1.583715597788493,1.688754994596817e+18,196.25381689453124,-0.2497420782844225,-3.149977465470632,3.5232671101888022,1.688754994592495e+18,196.24949499511715,-0.2408336140215397,-4.3507349491119385,3.5115588903427124,,,,,,,,,,,,1.6887549945880676e+18,196.24506752929688,-18.30487976074219,35.91435928344727,-26.67895927429199,1.6887549945880676e+18,196.24506752929688,-272.8334716796875,129.23216094970704,-158.68295593261718,1.688754994596817e+18,196.25381689453124,-0.6717433532079061,0.4467993179957072,-0.4047958254814148,0.428994357585907,-0.5405931274096171,1.248992681503296,2.400876760482788
1.3,1.6887549946487258e+18,196.3057257486979,-6.428027629852295,1.7284870147705078,-2.123613516489665,1.6887549946400714e+18,196.2970711263021,-0.4009971618652344,-8.298508167266846,-0.4406781593958537,1.6887549946487258e+18,196.3057257486979,4.147404829661052,-8.763827006022135,1.4565389553705852,1.6887549946487258e+18,196.3057257486979,0.758745531241099,0.4164573748906453,2.6497806708017984,1.68875499463575e+18,196.29275,0.4213443001111348,0.7980445524056753,3.0666962464650473,,,,,,,,,,,,1.6887549946380677e+18,196.2950677734375,-22.81399917602539,32.77895927429199,-27.447559356689453,1.6887549946380677e+18,196.2950677734375,-277.34259033203125,126.09675903320311,-159.45155639648436,1.6887549946487258e+18,196.3057257486979,-0.700918177763621,0.3912437160809834,-0.3678047756354014,0.4690980712572734,-0.340433398882548,1.105214794476827,2.1743386586507163
1.35,1.6887549947006282e+18,196.35762833658853,-10.027312914530436,8.226757685343424,-3.0489021937052407,1.6887549946919795e+18,196.3489795735677,-4.921238501866658,-0.9182457327842712,-1.5958133141199748,1.6887549947006282e+18,196.35762833658853,4.962042808532715,-8.311147689819336,1.5620865027109785,1.6887549947006282e+18,196.35762833658853,0.1877392530441284,-2.669888416926066,2.2904392083485923,1.6887549946876536e+18,196.34465364583332,0.5272785151998202,-2.222327709197998,2.2616776625315347,,,,,,,,,,,,1.6887549946880658e+18,196.34506572265624,-26.078719711303712,31.188079833984375,-27.159639358520508,1.6887549946880658e+18,196.34506572265624,-280.60731811523436,124.50587768554688,-159.16363525390625,1.6887549947006282e+18,196.35762833658853,-0.6975980798403422,0.3379245897134145,-0.3638107478618621,0.515900601943334,-0.3041211366653442,1.0111950437227886,2.037084420522054
1.4,1.6887549947438843e+18,196.40088464355463,-5.354743003845215,7.501132011413574,1.430815815925598,1.688754994743881e+18,196.4008811035156,-0.0325024873018264,-0.2245265146096547,3.195215940475464,1.6887549947438843e+18,196.40088464355463,5.354579925537109,-7.902670621871948,2.258143663406372,1.6887549947438843e+18,196.40088464355463,0.0045051276683807,-2.3176227807998657,1.1633164882659912,1.6887549947395592e+18,196.39655932617188,-0.0437786777814228,-2.44783886273702,1.324610362450282,,,,,,,,,,,,1.688754994738063e+18,196.39506318359375,-24.714759826660156,28.696839141845704,-30.070559692382812,1.688754994738063e+18,196.39506318359375,-279.24335327148435,122.01463775634764,-162.07455749511718,1.6887549947438843e+18,196.40088464355463,-0.689606785774231,0.2780340313911437,-0.3868525624275207,0.5453217327594757,-0.3991471529006957,0.9364973604679108,2.0072522163391113
1.45,1.6887549947871352e+18,196.44413517252607,-0.911257266998291,7.1280891100565595,0.8705779711405436,1.6887549947957896e+18,196.45278971354165,4.7828536828358965,-1.390628735224406,2.998605569203695,1.6887549947871352e+18,196.44413517252607,5.063339392344157,-8.07529099782308,2.305220683415731,1.6887549947871352e+18,196.44413517252607,1.132798671722412,-0.4681772887706756,-1.447954287131627,1.6887549947914668e+18,196.44846671549476,1.2048298716545105,-0.3052289982636769,-1.6699528694152832,,,,,,,,,,,,1.6887549947880678e+18,196.4450677734375,-22.32111930847168,29.306839370727538,-31.1246395111084,1.6887549947880678e+18,196.4450677734375,-276.84971923828124,122.62463684082032,-163.1286376953125,1.6887549947871352e+18,196.44413517252607,-0.6685408552487692,0.276484082142512,-0.406584898630778,0.5577597816785177,-0.427179346481959,0.9673699736595154,1.9777576526006064
1.5,1.688754994839043e+18,196.4960431315104,7.179378986358643,1.4782915115356443,-0.671944260597229,1.688754994847693e+18,196.50469311523435,12.400404612223308,-11.349556922912598,1.3734801808993022,1.688754994839043e+18,196.4960431315104,4.04508908589681,-8.747928937276205,1.7970938682556152,1.688754994839043e+18,196.4960431315104,0.9224065157274404,-0.4513785193363825,-2.391690174738566,1.688754994843367e+18,196.50036661783852,0.7480553885300955,-0.6101525794559469,-2.09847484032313,,,,,,,,,,,,1.6887549948380677e+18,196.49506743164065,-18.243879318237305,33.33283958435059,-29.5776798248291,1.6887549948380677e+18,196.49506743164065,-272.77247924804686,126.65063781738282,-161.58167724609376,1.688754994839043e+18,196.4960431315104,-0.6314576665560404,0.3267867664496104,-0.4321871697902679,0.5544091860453287,-0.4190765420595805,1.102174997329712,1.9607506195704143
1.55,1.6887549948909455e+18,196.54794547526043,8.384735425313314,-13.219780127207438,2.529353221257528,1.688754994899596e+18,196.556596110026,10.916854540506998,-17.462221364180248,5.251248677571614,1.6887549948909455e+18,196.54794547526043,3.808826128641764,-8.766913731892904,2.199187914530436,1.6887549948909455e+18,196.54794547526043,-0.0451022287209828,-2.8792115847269693,1.1314242283503215,1.68875499489527e+18,196.55226977539064,0.0826704228917757,-2.9220739205678306,1.1482230226198833,,,,,,,,,,,,1.688754994888067e+18,196.54506694335936,-13.800639533996582,34.17219924926758,-30.856239318847656,1.688754994888067e+18,196.54506694335936,-268.32923583984376,127.48999633789064,-162.86023559570313,1.6887549948909455e+18,196.54794547526043,-0.6064121921857198,0.2980208098888397,-0.4654450714588165,0.5711830655733744,-0.5230701069037119,1.1055268049240112,1.9577879508336384
1.6,1.6887549949428485e+18,196.59984822591147,-7.648900985717773,-0.8033850987752279,8.93944533665975,1.6887549949428536e+18,196.5998536376953,-2.432004928588867,-9.87039351463318,12.651152610778809,1.6887549949428485e+18,196.59984822591147,3.660600423812866,-8.780511220296225,2.3837149143218994,1.6887549949428485e+18,196.59984822591147,0.5710063104828199,-1.1063278317451477,-0.8731809556484222,1.6887549949471767e+18,196.6041766764323,0.4524475236733754,-0.795142928759257,-0.96160372843345,,,,,,,,,,,,1.6887549949380662e+18,196.5950661621094,-10.716479873657226,34.760240173339845,-31.475999450683595,1.6887549949380662e+18,196.5950661621094,-265.245068359375,128.07803649902343,-163.47999877929686,1.6887549949428485e+18,196.59984822591147,-0.573189894358317,0.2676619589328766,-0.4915529191493988,0.5983191728591919,-0.5785690943400065,1.1088189681371052,1.892851909001668
1.65,1.688754994994759e+18,196.65175903320312,-1.365146557490031,2.0042359034220376,-5.181174993515014,1.6887549949861082e+18,196.64310807291665,0.0508473714192708,-9.858429114023844,-0.9760721524556478,1.688754994994759e+18,196.65175903320312,3.398982365926107,-8.931898752848307,2.2078182697296143,1.688754994994759e+18,196.65175903320312,0.1020654042561848,1.7728327910105388,-0.6803511927525202,1.6887549949990853e+18,196.65608520507817,0.1839213420947393,1.8936313390731812,-0.9175196290016174,1.688754994973134e+18,196.63013403320312,0.0,0.0,2.6736323833465576,6.445000171661377,1.4331560134887695,110.78243255615234,332.79998779296875,-122.9163986,49.2784836,1.6887549949880658e+18,196.6450657714844,-10.082079887390137,34.818799591064455,-31.13683967590332,1.6887549949880658e+18,196.6450657714844,-264.6106689453125,128.1365951538086,-163.14083557128907,1.688754994994759e+18,196.65175903320312,-0.5779629548390707,0.2933686176935831,-0.490355521440506,0.5824101368586222,-0.5756372412045797,1.144500970840454,1.939912478129069
1.7,1.688754995046664e+18,196.70366365559897,-6.207151532173157,-0.2781931559244792,0.6791004339853922,1.6887549950380132e+18,196.69501302083336,-1.221934713423252,-9.06401220957438,1.7551354467868805,1.688754995046664e+18,196.70366365559897,2.3101770877838135,-9.405801773071287,1.4548232952753704,1.688754995046664e+18,196.70366365559897,0.3802127055823803,5.044728755950928,-4.190535704294841,1.6887549950423393e+18,196.6993393554687,0.522595226764679,5.06972336769104,-4.1930553913116455,,,,,,,,,,,,1.6887549950380662e+18,196.69506630859377,-10.328519821166992,36.56583938598633,-28.838359451293947,1.6887549950380662e+18,196.69506630859377,-264.85711059570315,129.88363952636718,-160.8423583984375,1.688754995046664e+18,196.70366365559897,-0.5879175662994385,0.3947921991348266,-0.4739416340986888,0.5208016037940979,-0.56773442029953,1.288025418917338,2.1260239680608115
1.75,1.6887549950985687e+18,196.75556876627604,-9.622962951660156,0.258231480916341,-0.8262535333633423,1.6887549950899192e+18,196.74691927083333,-9.899306615193684,-9.095916430155436,1.245663623015086,1.6887549950985687e+18,196.75556876627604,0.5708518276611964,-9.676822980244957,1.4439253409703572,1.6887549950985687e+18,196.75556876627604,-1.4447980920473735,2.030872424443563,-3.085683902104696,1.6887549950855905e+18,196.7425901692708,-1.0112364888191223,3.471750775973002,-3.675321737925211,,,,,,,,,,,,1.688754995088065e+18,196.74506513671875,-9.208559799194337,37.7614387512207,-27.38899917602539,1.688754995088065e+18,196.74506513671875,-263.7371520996094,131.07923583984376,-159.39299926757812,1.6887549950985687e+18,196.75556876627604,-0.5959336757659912,0.4983185033003489,-0.4714923103650411,0.4165786405404408,-1.184463361899058,1.405963659286499,0.8681429227193197
1.8,1.6887549951504712e+18,196.80747111002609,4.036957979202271,-0.997478167215983,-3.5841049353281655,1.6887549951418202e+18,196.79881990559895,0.8396815011898676,-11.045667966206867,-1.5579269131024678,1.6887549951504712e+18,196.80747111002609,-0.5769997586806616,-9.601372718811035,1.901875416437785,1.6887549951504712e+18,196.80747111002609,-0.1488475004831949,-0.0686714549859364,-2.3369668324788413,1.688754995137499e+18,196.79449877929687,-0.7371616462866465,-0.3951789190371831,-2.0642664035161338,,,,,,,,,,,,1.6887549951380685e+18,196.79506840820312,-5.614439868927002,36.88791961669922,-29.392239379882813,1.6887549951380685e+18,196.79506840820312,-260.1430297851563,130.20571594238282,-161.39623413085937,1.6887549951504712e+18,196.80747111002609,-0.5763944586118063,0.522983968257904,-0.5056430300076803,0.371887465318044,-1.859403689702352,1.364235560099284,-2.6294801235198975
1.85,1.688754995193723e+18,196.85072265625,3.137706458568573,-0.1539802551269531,-2.0368515253067017,1.6887549951937285e+18,196.85072827148437,2.3543381492296853,-9.22134017944336,-0.2444667058686415,1.688754995193723e+18,196.85072265625,-1.5535219311714172,-9.532009124755858,1.7148418426513672,1.688754995193723e+18,196.85072265625,1.0076985955238342,2.807689428329468,-2.563114285469055,1.6887549951894036e+18,196.8464034830729,0.8976155718167623,2.4557291666666665,-2.64667546749115,,,,,,,,,,,,1.688754995188066e+18,196.8450660644531,-2.154519963264465,37.524759674072264,-28.923759078979497,1.688754995188066e+18,196.8450660644531,-256.68311767578126,130.84255981445312,-160.9277557373047,1.688754995193723e+18,196.85072265625,-0.5580379068851471,0.5755348801612854,-0.4976508468389511,0.330767348408699,-2.3045971393585205,1.3322590589523315,-2.099189281463623
1.9,1.688754995236982e+18,196.8939822591146,2.1734084288279214,3.224097569783529,-0.8762187759081522,1.68875499524564e+18,196.90264005533857,0.1746760606765747,-6.160521348317464,0.6133602013190588,1.688754995236982e+18,196.8939822591146,-1.981846570968628,-9.491939862569174,1.4821258783340454,1.688754995236982e+18,196.8939822591146,0.9131417473157248,2.341955582300822,-1.264491081237793,1.688754995241305e+18,196.8983055826823,0.8367326855659485,2.235563119252523,-1.237511157989502,,,,,,,,,,,,1.6887549952380677e+18,196.89506791992187,-2.4790399074554443,38.99851989746094,-27.096199417114256,1.6887549952380677e+18,196.89506791992187,-257.00763549804685,132.31632080078126,-159.1001953125,1.688754995236982e+18,196.8939822591146,-0.5593010584513346,0.622523824373881,-0.4616584281126658,0.293533056974411,-2.49784509340922,1.3156031370162964,-1.7809504667917888
1.95,1.6887549952888873e+18,196.94588704427085,0.6690763235092163,1.1192687352498372,-1.2493044137954712,1.688754995297539e+18,196.9545393066406,-1.9286150932312012,-9.029515584309896,0.6648058841625849,1.6887549952888873e+18,196.94588704427085,-2.432450612386068,-9.371957143147789,1.56807279586792,1.6887549952888873e+18,196.94588704427085,-0.4258748789628346,0.8403978645801544,-1.1148291031519573,1.6887549952932134e+18,196.95021321614584,-0.4852815320094426,0.718224823474884,-1.1216503977775574,,,,,,,,,,,,1.688754995288069e+18,196.94506914062495,-2.5619999885559084,39.493839263916016,-26.67407951354981,1.688754995288069e+18,196.94506914062495,-257.0906005859375,132.81163635253907,-158.678076171875,1.6887549952888873e+18,196.94588704427085,-0.5561417738596598,0.6515887180964152,-0.4464296201864878,0.2583531936009725,-2.5686142444610596,1.2713974714279177,-1.6294535001118975
2.0,1.6887549953407898e+18,196.99778995768233,4.175498763720195,-1.4981152216593423,-1.1485062837600708,1.6887549953494395e+18,197.00643994140623,1.828914125760396,-10.968898137410482,-0.0217348188161849,1.6887549953407898e+18,196.99778995768233,-3.0577152570088706,-9.149788538614908,1.7691691716512044,1.6887549953407898e+18,196.99778995768233,-0.5265149374802908,-0.6607016523679098,-1.2584333221117656,1.688754995345122e+18,197.00212198893223,-0.5564982493718466,-0.5978334496418635,-1.1220576564470928,,,,,,,,,,,,1.6887549953380677e+18,196.99506767578129,0.2293599724769593,38.705719757080075,-27.81599960327149,1.6887549953380677e+18,196.99506767578129,-254.29923400878903,132.0235137939453,-159.8199951171875,1.6887549953407898e+18,196.99778995768233,-0.5355225205421448,0.6628472805023193,-0.4651067753632863,0.2395695249239603,-2.615593989690145,1.202377716700236,-1.5891622304916382
2.05,1.6887549953926935e+18,197.04969335937503,2.0582279761632285,-5.707186381022136,-5.526974678039551,1.688754995392697e+18,197.0496975097656,-1.8678972125053408,-15.285650253295898,-3.679263949394226,1.6887549953926935e+18,197.04969335937503,-3.105749527613322,-9.08588409423828,2.008453289667765,1.6887549953926935e+18,197.04969335937503,-0.0331394473711649,0.9101892312367758,0.0368046363194783,1.6887549953970227e+18,197.0540227050781,0.1122464810808499,0.8677849968274435,-0.029270626604557,,,,,,,,,,,,1.6887549953880673e+18,197.04506713867187,1.329799972474575,38.03471908569336,-28.818839645385744,1.6887549953880673e+18,197.04506713867187,-253.19879760742188,131.3525146484375,-160.82283630371094,1.6887549953926935e+18,197.04969335937503,-0.5391397078831991,0.6627726753552755,-0.4678748150666554,0.226062774658203,-2.5670244693756104,1.184290925661723,-1.621785561243693
2.1,1.6887549954445944e+18,197.10159423828125,3.254357616106669,-5.507127443949382,-1.4516561428705852,1.6887549954359514e+18,197.09295149739583,0.4279164373874664,-14.545968691507976,-0.8151549498240153,1.6887549954445944e+18,197.10159423828125,-2.7650887966156006,-9.245863278706867,1.722767432530721,1.6887549954445944e+18,197.10159423828125,0.8650360902150472,0.5346598128477732,1.7938566704591117,1.688754995448925e+18,197.1059246419271,0.8564330736796061,0.5884159406026205,2.181959718465805,,,,,,,,,,,,1.688754995438062e+18,197.09506215820312,0.024399983882904,38.51296005249024,-28.225919342041017,1.688754995438062e+18,197.09506215820312,-254.5041961669922,131.83075561523438,-160.22991943359375,1.6887549954445944e+18,197.10159423828125,-0.5513836344083151,0.666736920674642,-0.4428816934426625,0.2343723227580388,-2.5803035895029702,1.23195485273997,-1.5761613448460896
2.15,1.6887549954964984e+18,197.153498453776,-2.176795562108358,-4.897189458211263,-0.1368881066640218,1.6887549954878456e+18,197.1448456217448,-2.988236665725708,-15.349159558614096,1.371087372303009,1.6887549954964984e+18,197.153498453776,-1.035632203022639,-9.654405275980633,1.303313930829366,1.6887549954964984e+18,197.153498453776,1.0868310928344729,-0.1050688127676646,3.663664340972901,1.6887549954921697e+18,197.14916979980467,1.0968085527420044,-0.0368046313524246,3.7510944604873657,1.6887549954921743e+18,197.14917431640623,0.0,0.0,2.6736323833465576,6.3420000076293945,1.4331881999969482,110.380859375,332.79998779296875,-122.9163849,49.2784814,1.688754995488059e+18,197.14505883789064,-6.363519906997681,39.37671966552735,-26.920519638061524,1.688754995488059e+18,197.14505883789064,-260.8921142578125,132.69451599121095,-158.9245178222656,1.6887549954964984e+18,197.153498453776,-0.606857697168986,0.6269901792208353,-0.3991169730822245,0.2803930342197417,-2.197730461756388,1.3976874351501465,-1.950648109118144
2.2,1.688754995548407e+18,197.2054071451823,-2.8987817764282227,-6.384067217508952,3.966944376627604,1.688754995539751e+18,197.19675105794272,-2.371885379155477,-15.477973620096842,3.788835287094116,1.688754995548407e+18,197.2054071451823,0.6694052567084631,-9.735425313313804,0.8820356726646423,1.688754995548407e+18,197.2054071451823,0.3055344323317209,-0.5163338383038839,3.4955745538075766,1.6887549955354284e+18,197.19242805989583,0.7635815540949503,-0.5448408921559652,3.458769957224528,,,,,,,,,,,,1.6887549955380603e+18,197.19506020507816,-12.963719940185548,39.19371871948242,-25.073439407348634,1.6887549955380603e+18,197.19506020507816,-267.4923095703125,132.5115173339844,-157.0774383544922,1.688754995548407e+18,197.2054071451823,-0.649042546749115,0.5753072698911031,-0.3666998545328776,0.3356538315614064,-0.99624635775884,1.4502967993418376,1.0017914772033691
2.25,1.688754995600313e+18,197.25731306966145,-4.621657093365987,-3.725000063578288,6.113660415013631,1.6887549955916623e+18,197.24866235351564,-3.78684131304423,-14.52961794535319,8.404390811920166,1.688754995600313e+18,197.25731306966145,2.277225693066915,-9.450323104858398,1.24997611840566,1.688754995600313e+18,197.25731306966145,-0.1765909555057684,-3.63805894056956,3.4854443868001304,1.688754995587343e+18,197.24434277343752,-0.3622939934333165,-2.3456207116444907,3.5038721561431885,,,,,,,,,,,,1.6887549955880627e+18,197.24506254882812,-18.831919860839843,36.41455993652344,-26.0616397857666,1.6887549955880627e+18,197.24506254882812,-273.3605163574219,129.73235778808595,-158.06564025878907,1.688754995600313e+18,197.25731306966145,-0.6822800437609354,0.4938231805960337,-0.3728358844916026,0.38738880554835,-0.5051541129748026,1.3022677898406982,2.498884598414103
2.3,1.6887549956435712e+18,197.3005712890625,1.5622835159301758,-0.1892170906066894,-3.0103600025177,1.6887549956435717e+18,197.3005714518229,4.202195366223653,-8.852845668792725,-0.7182456254959106,1.6887549956435712e+18,197.3005712890625,3.4741461277008057,-9.03406047821045,1.571799635887146,1.6887549956435712e+18,197.3005712890625,0.2155590672045946,-0.7441866099834443,3.3757941722869873,1.6887549956392468e+18,197.29624698893232,0.2206241637468338,-1.839569866657257,3.3603697617848716,,,,,,,,,,,,1.6887549956380636e+18,197.29506372070313,-20.67899971008301,33.13031997680664,-29.06039962768555,1.6887549956380636e+18,197.29506372070313,-275.2075988769531,126.4481185913086,-161.06439819335938,1.6887549956435712e+18,197.3005712890625,-0.6904494166374207,0.4166158139705657,-0.3861923068761825,0.4476051032543182,-0.4273102283477783,1.1709263324737549,2.2778594493865967
2.35,1.688754995686822e+18,197.3438220214844,-10.984713872273764,5.724737326304118,-3.1947525342305503,1.6887549956954693e+18,197.3524694010417,-7.553742408752441,-1.5016955931981404,-1.628315846125285,1.688754995686822e+18,197.3438220214844,4.481157938639323,-8.607333819071451,1.4092328548431396,1.688754995686822e+18,197.3438220214844,0.7417431275049845,-1.8990782499313352,2.649322509765625,1.6887549956911514e+18,197.3481512858073,0.6708318392435709,-2.2863667408625283,2.6128233273824057,,,,,,,,,,,,1.6887549956880678e+18,197.34506787109376,-23.81683921813965,31.217358779907222,-28.308879470825197,1.6887549956880678e+18,197.34506787109376,-278.3454345703125,124.5351577758789,-160.31287841796876,1.688754995686822e+18,197.3438220214844,-0.7003636161486307,0.3738580445448556,-0.3624883790810903,0.4875166912873586,-0.3049780925114949,1.0709877411524455,2.1076194445292153
2.4,1.6887549957387264e+18,197.39572623697916,-8.61678139368693,9.088719367980955,-2.0361804167429605,1.6887549957473815e+18,197.4043817545573,-2.364308178424835,0.8197411696116129,1.3537394205729167,1.6887549957387264e+18,197.39572623697916,5.131771087646484,-8.058053811391195,2.2055967648824057,1.6887549957387264e+18,197.39572623697916,-0.113824558754762,-3.4151439666748047,2.027258117993673,1.6887549957430546e+18,197.40005444335935,-0.0793106704950332,-3.2736778259277344,1.8994855086008708,,,,,,,,,,,,1.688754995738065e+18,197.39506484375,-21.991719436645507,29.07991943359375,-31.72975959777832,1.688754995738065e+18,197.39506484375,-276.5203125,122.39771728515623,-163.73375854492187,1.6887549957387264e+18,197.39572623697916,-0.684524416923523,0.289141317208608,-0.3926828404267629,0.5411891341209412,-0.4048339525858561,0.9641456405321756,2.017152945200602
2.45,1.6887549957906363e+18,197.44763647460937,-0.2709776560465495,6.96661917368571,2.4319417476654053,1.6887549957992855e+18,197.45628548177083,5.399205048878987,-1.282154122988383,4.975077152252197,1.6887549957906363e+18,197.44763647460937,5.119171778361003,-7.959284623463948,2.576160987218221,1.6887549957906363e+18,197.44763647460937,1.2799663146336873,-0.9709703233093024,-0.6636542081832885,1.6887549957949637e+18,197.4519634602865,1.392518202463786,-0.7516187826792399,-0.9421069025993348,,,,,,,,,,,,1.6887549957880689e+18,197.44506899414063,-19.607839584350582,29.04575958251953,-33.57439956665039,1.6887549957880689e+18,197.44506899414063,-274.1364379882813,122.36355590820312,-165.57839660644532,1.6887549957906363e+18,197.44763647460937,-0.6595278779665629,0.2530141025781631,-0.4182973106702168,0.5708457032839457,-0.4662442604700724,0.9465895295143129,1.9565629561742144
2.5,1.6887549958425403e+18,197.49954060872395,3.928332805633545,3.321756362915039,1.642429272333781,1.6887549958425367e+18,197.49953674316407,7.542475938796998,-4.055535316467285,3.461217880249023,1.6887549958425403e+18,197.49954060872395,4.245087146759033,-8.614722887674967,1.9674673477808635,1.6887549958425403e+18,197.49954060872395,1.2375620901584623,0.0269798810283343,-2.3784037828445435,1.688754995846867e+18,197.5038670247396,1.0696250324447951,0.004225150682032,-2.165568153063456,,,,,,,,,,,,1.6887549958380654e+18,197.4950654785156,-15.781919860839844,33.10347938537598,-31.644359588623047,1.6887549958380654e+18,197.4950654785156,-270.3105102539063,126.42127838134766,-163.64835510253906,1.6887549958425403e+18,197.49954060872395,-0.6219943761825562,0.3009297649065653,-0.4390810827414195,0.5739613970120748,-0.4342163403828938,1.0730891227722168,1.9119816223780317
2.55,1.6887549958944433e+18,197.551443359375,10.8115873336792,-16.77046807607015,1.737473964691162,1.688754995885795e+18,197.5427950032552,14.276178359985352,-26.208786010742188,4.192225217819214,1.6887549958944433e+18,197.551443359375,4.294038772583008,-8.53447182973226,2.201236367225647,1.6887549958944433e+18,197.551443359375,-0.1616756717363993,-2.6278913219769797,2.1324287255605063,1.6887549958987717e+18,197.5557716471354,-0.079616109530131,-2.854725956916809,2.143067995707194,,,,,,,,,,,,1.6887549958880635e+18,197.54506376953125,-12.82707996368408,34.411318969726565,-31.615079498291017,1.6887549958880635e+18,197.54506376953125,-267.3556823730469,127.72911682128908,-163.61907653808595,1.6887549958944433e+18,197.551443359375,-0.6076854268709818,0.2755407392978667,-0.4522170225779215,0.5910881559054056,-0.4724745750427246,1.0559329986572266,1.877245823542277
2.6,1.6887549959463506e+18,197.60335074869792,0.4636950492858886,2.9618117014567056,8.988064924875895,1.6887549959376955e+18,197.59469539388024,8.889734903971354,-3.1308090686798096,10.52802069981893,1.6887549959463506e+18,197.60335074869792,4.361966609954834,-8.387580553690592,2.617448012034098,1.6887549959463506e+18,197.60335074869792,0.5647958305974802,-1.136362075805664,-0.1250746622681617,1.6887549959506737e+18,197.60767358398436,0.4900157451629638,-0.7961609959602356,-0.0969748497009277,,,,,,,,,,,,1.6887549959380608e+18,197.5950607421875,-10.05767993927002,34.059959411621094,-32.47883987426758,1.6887549959380608e+18,197.5950607421875,-264.586279296875,127.3777572631836,-164.4828369140625,1.6887549959463506e+18,197.60335074869792,-0.5765702525774637,0.2257914096117019,-0.4760549068450928,0.6243928472201029,-0.5407172044118246,1.0254512230555215,1.8007391691207886
2.65,1.6887549959982554e+18,197.65525545247397,-10.13245677947998,-0.7364533742268886,-5.802130103111267,1.6887549959896046e+18,197.6466046549479,-5.588437438011169,-12.658231019973757,-2.352344036102295,1.6887549959982554e+18,197.65525545247397,4.373467127482097,-8.45501963297526,2.3639674186706543,1.6887549959982554e+18,197.65525545247397,0.0907643983761469,1.3852896690368652,-0.6841181914011637,1.6887549959939282e+18,197.65092834472657,-0.0826195273548364,1.431104600429535,-0.2433534562587738,1.688754996011234e+18,197.6682341308594,0.0,0.0,2.6840007305145264,6.048999786376953,1.434935212135315,109.74185180664062,332.79998779296875,-122.9163729,49.2784791,1.6887549959880653e+18,197.6450653320313,-10.521279907226562,34.13315887451172,-31.700479888916018,1.6887549959880653e+18,197.6450653320313,-265.0498779296875,127.45095825195312,-163.70447692871093,1.6887549959982554e+18,197.65525545247397,-0.5843804279963175,0.2453767110904057,-0.4655142029126485,0.6175800164540609,-0.4954946140448252,1.0390770435333252,1.802901824315389
2.7,1.6887549960501532e+18,197.7071529947917,-4.392941912015279,1.1951314608256025,1.5944392283757527,1.688754996041503e+18,197.6985030924479,-1.2837493817011516,-6.981658140818278,3.0416763623555503,1.6887549960501532e+18,197.7071529947917,3.4078330198923745,-9.053203582763672,1.5390863021214802,1.6887549960501532e+18,197.7071529947917,0.6886487305164337,3.982281446456909,-3.638211647669474,1.6887549960371814e+18,197.69418139648437,0.8556695183118185,3.087261994679769,-3.023935635884603,,,,,,,,,,,,1.688754996038063e+18,197.6950630859375,-11.180079650878906,35.40440063476562,-29.950999069213868,1.688754996038063e+18,197.6950630859375,-265.70867309570315,128.72219848632812,-161.9549987792969,1.6887549960501532e+18,197.7071529947917,-0.5846848487854004,0.3340778946876526,-0.4618795812129974,0.5756805737813314,-0.4215703209241231,1.178861935933431,1.870714108149211
2.75,1.688754996093415e+18,197.75041479492188,-5.941116809844971,1.4510831832885742,0.8263559937477112,1.6887549960934144e+18,197.75041446940105,-4.418945233027141,-8.483353932698568,2.3030917644500732,1.688754996093415e+18,197.75041479492188,1.74813050031662,-9.5787467956543,1.1331908106803894,1.688754996093415e+18,197.75041479492188,-1.0361037850379944,4.5371253490448,-4.880889654159546,1.6887549960890908e+18,197.7460906575521,-0.859385572373867,4.61661418279012,-4.801349957784017,,,,,,,,,,,,1.6887549960880689e+18,197.74506884765623,-10.191879653930664,37.48571853637695,-28.235679626464844,1.6887549960880689e+18,197.74506884765623,-264.72047729492186,130.803515625,-160.23967590332032,1.688754996093415e+18,197.75041479492188,-0.5933544933795929,0.4446638673543929,-0.4612269401550293,0.4864345490932464,-0.5909493416547775,1.355139672756195,2.2526241540908813
2.8,1.688754996136666e+18,197.7936658528646,-7.083240985870361,-3.921209335327149,-1.969804048538208,1.6887549961453192e+18,197.80231909179687,-5.743970572948456,-14.203795115152994,-1.4155539671579995,1.688754996136666e+18,197.7936658528646,0.4267440438270569,-9.643745104471842,1.7115034262339277,1.688754996136666e+18,197.7936658528646,-1.743816614151001,2.767830471197764,-2.6908614238103232,1.688754996140995e+18,197.7979952799479,-1.621643582979838,2.42528772354126,-2.512692411740621,,,,,,,,,,,,1.688754996138064e+18,197.79506411132812,-8.110559844970703,36.97331848144531,-29.38491897583008,1.688754996138064e+18,197.79506411132812,-262.63914794921874,130.29111938476564,-161.3889190673828,1.688754996136666e+18,197.7936658528646,-0.6092575192451477,0.5098940034707388,-0.4669493238131204,0.3873519202073415,-1.3118797938028972,1.3868304093678792,-1.0392738183339436
2.85,1.6887549961885755e+18,197.8455754394531,2.7741737365722656,-1.0497722625732422,-4.844671408335368,1.6887549961972247e+18,197.8542246907552,2.3300110697746277,-9.647462050120035,-1.9529420733451843,1.6887549961885755e+18,197.8455754394531,-0.6502082745234171,-9.587364196777342,1.9452926715215049,1.6887549961885755e+18,197.8455754394531,0.1917098859945933,0.2784527329107125,-2.456085522969564,1.688754996192897e+18,197.84989697265624,0.3124575763940811,0.3782273990412553,-2.472375233968099,,,,,,,,,,,,1.6887549961880658e+18,197.84506577148437,-5.5729598045349125,36.56339874267578,-30.182799530029296,1.6887549961880658e+18,197.84506577148437,-260.1015563964844,129.88119506835938,-162.18679809570312,1.6887549961885755e+18,197.8455754394531,-0.5921850204467773,0.5477342406908671,-0.4825714925924937,0.3407459159692128,-1.888334075609843,1.3573741515477498,-2.5042755603790283
2.9,1.6887549962404754e+18,197.89747534179688,3.844621022542318,3.245047410329183,-0.406561017036438,1.688754996249122e+18,197.9061223144531,1.779063642024994,-6.0390855471293134,1.406580924987793,1.6887549962404754e+18,197.89747534179688,-1.5228487253189087,-9.560347239176432,1.5763767162958782,1.6887549962404754e+18,197.89747534179688,1.2029463450113933,2.358601609865824,-1.7010561227798462,1.6887549962448044e+18,197.90180428059895,1.186249415079753,2.450129508972168,-1.6300429900487263,,,,,,,,,,,,1.6887549962380662e+18,197.89506606445312,-2.832839918136597,38.15915985107422,-28.550439834594727,1.6887549962380662e+18,197.89506606445312,-257.36143188476564,131.47695617675782,-160.55443420410157,1.6887549962404754e+18,197.89747534179688,-0.5726777712504069,0.6021946867307028,-0.4631182253360748,0.3072243928909301,-2.337568442026774,1.34477961063385,-1.9647395213445027
2.95,1.6887549962923807e+18,197.94938053385417,1.34484867254893,2.165644327799479,-0.4914620916048686,1.688754996292385e+18,197.9493850097656,-0.6855436936020851,-7.247560739517212,0.9780662655830384,1.6887549962923807e+18,197.94938053385417,-2.055181543032328,-9.477355321248371,1.4708489576975503,1.6887549962923807e+18,197.94938053385417,0.0606283803159992,1.7179057995478313,-1.4105896552403767,1.6887549962967089e+18,197.95370874023436,-0.045865794022878,1.594154675801595,-1.3865114053090413,,,,,,,,,,,,1.688754996288068e+18,197.9450682128906,-3.1402799129486083,39.657318878173825,-27.1620792388916,1.688754996288068e+18,197.9450682128906,-257.66887817382815,132.9751190185547,-159.16607360839845,1.6887549962923807e+18,197.94938053385417,-0.5704290469487509,0.6471542318662008,-0.4310158789157867,0.2641977618137995,-2.518876870473226,1.310269872347514,-1.6603034734725952
3.0,1.6887549963442885e+18,198.0012888183594,2.4051854610443115,-1.200360616048177,-1.2775872151056926,1.6887549963356347e+18,197.99263460286457,-1.0771690209706624,-10.13499959309896,0.7274180849393209,1.6887549963442885e+18,198.0012888183594,-2.649117390314738,-9.287822723388672,1.7074224551518755,1.6887549963442885e+18,198.0012888183594,-0.6311765114466349,-0.5883141458034515,-1.249066670735677,1.6887549963486129e+18,198.00561287434897,-0.6768386960029602,-0.6794348706801733,-1.2036590774854024,,,,,,,,,,,,1.6887549963380618e+18,197.99506162109373,-1.4688799917697906,38.99851913452149,-27.833079147338868,1.6887549963380618e+18,197.99506162109373,-255.9974792480469,132.31631469726562,-159.8370788574219,1.6887549963442885e+18,198.0012888183594,-0.555693785349528,0.6641943653424581,-0.4401231606801351,0.2370733718077341,-2.567583163579305,1.2437169949213664,-1.5875768661499023
3.05,1.6887549963961828e+18,198.0531828613281,3.105717976888021,-4.897088368733724,-7.171148935953776,1.6887549963875336e+18,198.04453352864584,1.1535399357477825,-12.986247380574545,-4.140580137570699,1.6887549963961828e+18,198.0531828613281,-2.892820040384928,-9.153011322021484,2.0199246406555176,1.6887549963961828e+18,198.0531828613281,-0.6221153686443964,0.5220861534277598,-0.0314595575133959,1.6887549964005102e+18,198.05751041666667,-0.5054400824010372,0.5939137438933054,0.0118100667993228,,,,,,,,,,,,1.6887549963880602e+18,198.04506010742188,1.0247999787330628,37.86879959106445,-28.913999557495117,1.6887549963880602e+18,198.04506010742188,-253.50379333496093,131.1865966796875,-160.9179931640625,1.6887549963961828e+18,198.0531828613281,-0.5499023795127869,0.6621329585711161,-0.4570969045162201,0.2240780293941497,-2.531748612721761,1.2028543551762898,-1.633875886599223
3.1,1.68875499644809e+18,198.10509025065105,3.263083060582479,-5.780645688374837,-4.090001384417216,1.6887549964394386e+18,198.0964387207031,-0.4131607214609782,-15.610974311828612,-3.568496291836103,1.68875499644809e+18,198.10509025065105,-2.92236852645874,-9.18231519063314,1.8311015367507937,1.68875499644809e+18,198.10509025065105,1.0323113600413003,0.128027173380057,-0.0749327739079793,1.6887549964437658e+18,198.100765625,1.0509173274040222,0.1282817050814628,-0.5794056802988052,,,,,,,,,,,,1.688754996438058e+18,198.0950580078125,0.1390800088644027,37.80535888671875,-28.955479049682616,1.688754996438058e+18,198.0950580078125,-254.38951416015624,131.12315979003907,-160.9594757080078,1.68875499644809e+18,198.10509025065105,-0.5486760338147482,0.6719322601954142,-0.4441957076390584,0.2237596611181894,-2.5822417736053467,1.2113827466964722,-1.5607840220133464
3.15,1.6887549964999946e+18,198.15699479166665,-0.5704235633214315,-3.880897521972656,0.1638402541478475,1.688754996491343e+18,198.14834334309896,-1.4518451293309529,-13.782060305277506,1.9567306637763977,1.6887549964999946e+18,198.15699479166665,-1.8408074776331584,-9.515362421671549,1.4169426759084065,1.6887549964999946e+18,198.15699479166665,0.6828964352607727,-0.1945096676548322,3.6168313026428223,1.6887549964870188e+18,198.1440187988281,0.7711155811945597,0.0257581522067388,2.935767491658529,,,,,,,,,,,,1.6887549964880614e+18,198.14506142578125,-1.544519990682602,39.21079940795899,-27.44267921447754,1.6887549964880614e+18,198.14506142578125,-256.0731170654297,132.52859802246093,-159.4466766357422,1.6887549964999946e+18,198.15699479166665,-0.5815070072809855,0.649341881275177,-0.4144731859366099,0.2600311289230982,-2.4622886975606284,1.3301115830739338,-1.6818962097167969
3.2,1.688754996543245e+18,198.20024511718748,-1.9926098585128784,-2.714277744293213,0.6953166723251343,1.6887549965432484e+18,198.20024845377603,-2.561915397644043,-12.509876251220703,1.8574285904566448,1.688754996543245e+18,198.20024511718748,-0.3022700799629092,-9.74708652496338,1.026742458343506,1.688754996543245e+18,198.20024511718748,0.9896017014980316,-1.1886674165725708,3.555235743522644,1.6887549965389258e+18,198.1959256998698,0.9505572120348612,-1.062141974767049,3.6762888431549072,1.6887549965302715e+18,198.1872717285156,0.0,0.0,2.6840007305145264,5.874000072479248,1.4394006729125977,109.32941436767578,332.79998779296875,-122.9163644,49.2784781,1.68875499653806e+18,198.19505986328124,-8.369199848175048,39.46943893432617,-26.1128791809082,1.68875499653806e+18,198.19505986328124,-262.8977905273438,132.7872344970703,-158.11687622070312,1.688754996543245e+18,198.20024511718748,-0.6202182173728943,0.6019565761089325,-0.3909825831651687,0.3159819096326828,-1.8218823671340945,1.458649754524231,-2.3685479164123535
3.25,1.688754996586502e+18,198.24350187174477,-3.581509749094645,-6.975569089253743,6.609455903371175,1.6887549965951537e+18,198.2521534016927,-3.11944317817688,-17.42433516184489,9.350752035776772,1.688754996586502e+18,198.24350187174477,1.102681616942088,-9.698060989379885,0.8602626125017802,1.688754996586502e+18,198.24350187174477,-0.1132136782010396,-0.8451829751332601,3.494760036468506,1.6887549965908288e+18,198.24782869466148,-0.2562579711278279,-0.9258171916007996,3.5197037855784097,,,,,,,,,,,,1.6887549965880596e+18,198.24505971679687,-13.581039810180664,38.827718353271486,-25.11735954284668,1.6887549965880596e+18,198.24505971679687,-268.10963745117186,132.14551696777343,-157.1213592529297,1.688754996586502e+18,198.24350187174477,-0.6526360114415487,0.5521183013916016,-0.3721477488676707,0.36068195104599,-0.7130762338638306,1.4252233505249023,2.761675039927165
3.3,1.6887549966384077e+18,198.29540771484372,-3.212924321492513,-3.488650321960449,4.987255811691283,1.6887549966470592e+18,198.30405900065105,1.3770694732666016,-10.819745699564615,3.9878384669621783,1.6887549966384077e+18,198.29540771484372,2.6417740980784097,-9.33831787109375,1.3670085271199544,1.6887549966384077e+18,198.29540771484372,-0.1140281800180673,-3.5418984095255532,3.536909739176432,1.6887549966427343e+18,198.299734375,-0.044796785339713,-3.430466572443644,3.603035847345988,,,,,,,,,,,,1.68875499663806e+18,198.29506025390623,-17.51187973022461,35.84115905761719,-27.12547950744629,1.68875499663806e+18,198.29506025390623,-272.040478515625,129.1589599609375,-159.12947692871094,1.6887549966384077e+18,198.29540771484372,-0.6772234042485555,0.4623577098051707,-0.3880583147207896,0.4190115332603454,-0.4790756205717723,1.262235204378764,2.388024171193441
3.35,1.6887549966903222e+18,198.34732210286455,-5.047486861546834,2.736565430959066,-3.1023082733154297,1.688754996698973e+18,198.3559728190104,-2.93559459845225,-5.042275587717692,-1.7874385118484497,1.6887549966903222e+18,198.34732210286455,4.245628436406453,-8.72045930226644,1.406120538711548,1.6887549966903222e+18,198.34732210286455,0.828893224398295,-0.4831943909327189,3.441105763117472,1.6887549966946496e+18,198.35164957682295,0.9233228464921316,-0.6410521864891052,3.3059517542521157,,,,,,,,,,,,1.688754996688066e+18,198.34506611328123,-20.859560012817383,33.047359466552734,-28.521159744262697,1.688754996688066e+18,198.34506611328123,-275.3881591796875,126.3651565551758,-160.52515563964843,1.6887549966903222e+18,198.34732210286455,-0.6965718070665995,0.3844247261683145,-0.368000437815984,0.4806319077809651,-0.3237628142038981,1.0962095260620115,2.134188493092855
3.4,1.6887549967422226e+18,198.39922257486975,-9.002745946248373,9.483469645182293,-3.3096863428751626,1.688754996742227e+18,198.39922692871096,-4.127918243408203,1.858026832342148,-2.04975163936615,1.6887549967422226e+18,198.39922257486975,5.178752263387044,-8.173043409983316,1.5863800048828127,1.6887549967422226e+18,198.39922257486975,0.4077016363541286,-3.2451706727345786,2.2849923769632974,1.68875499674655e+18,198.40355021158857,0.2983567764361699,-3.265838305155436,2.2224804957707724,,,,,,,,,,,,1.688754996738072e+18,198.3950720703125,-23.167799758911137,31.70779914855957,-28.323519134521483,1.688754996738072e+18,198.3950720703125,-277.69639282226564,125.02559814453124,-160.3275177001953,1.6887549967422226e+18,198.39922257486975,-0.686971108118693,0.3174093465010325,-0.3669981559117635,0.5402186910311381,-0.2963064908981323,0.985194722811381,1.9684539635976157
3.45,1.6887549967941332e+18,198.45113305664063,-3.76838477452596,8.882790247599283,1.2126610279083252,1.6887549967854712e+18,198.44247119140627,0.9597212870915732,1.3595220645268755,3.1643085877100625,1.6887549967941332e+18,198.45113305664063,5.463037967681885,-7.807259400685628,2.329239447911581,1.6887549967941332e+18,198.45113305664063,0.4993823558712999,-1.9753854672114055,0.3114903668562571,1.688754996798461e+18,198.45546053059897,0.6090326507886251,-1.7394387523333232,0.0523816980421543,,,,,,,,,,,,1.6887549967880668e+18,198.44506665039063,-21.08403968811035,30.30479927062988,-31.15391960144043,1.6887549967880668e+18,198.44506665039063,-275.6126403808594,123.62259674072266,-163.1579162597656,1.6887549967941332e+18,198.45113305664063,-0.6681403716405233,0.2535119553407033,-0.3964229226112366,0.576179583867391,-0.4031972090403239,0.9202736218770344,1.9202146927515664
3.5,1.688754996846035e+18,198.50303491210937,0.2748257319132487,5.8873162269592285,1.3969760338465371,1.6887549968373873e+18,198.49438728841145,4.503890593846639,-1.364706536134084,3.5367912451426187,1.688754996846035e+18,198.50303491210937,4.846349557240804,-8.273202578226725,2.031464775403341,1.688754996846035e+18,198.50303491210937,1.436704158782959,0.5285511513551077,-2.479451139767965,1.68875499685036e+18,198.5073599446615,1.466280221939087,0.6146831711133321,-2.634305477142334,,,,,,,,,,,,1.6887549968380626e+18,198.49506240234376,-17.919359970092774,32.739918899536136,-30.804998779296874,1.6887549968380626e+18,198.49506240234376,-272.44794921875,126.05771942138672,-162.80899658203126,1.688754996846035e+18,198.50303491210937,-0.6394372979799906,0.2804655134677886,-0.4170220494270324,0.5814487338066101,-0.395920068025589,1.0047177076339722,1.8847957849502563
3.55,1.6887549968979418e+18,198.55494189453125,5.883225679397583,-13.095121383666992,3.071654717127482,1.6887549968892928e+18,198.5462926432292,10.905488650004068,-15.441084067026772,4.158127546310425,1.6887549968979418e+18,198.55494189453125,3.952209234237671,-8.838530858357748,1.5709443092346191,1.6887549968979418e+18,198.55494189453125,-0.0424551566441854,-0.5531894167264301,-0.5993097225824991,1.6887549968936212e+18,198.55062133789065,0.2193769812583923,0.3222314119338989,-1.3912456198595464,,,,,,,,,,,,1.6887549968880676e+18,198.54506748046873,-13.861639785766602,36.165679168701175,-28.748079681396483,1.6887549968880676e+18,198.54506748046873,-268.3902282714844,129.4834777832031,-160.7520782470703,1.6887549968979418e+18,198.55494189453125,-0.6142816344896952,0.3294774492581685,-0.4357624650001526,0.569319486618042,-0.3782127300898234,1.1221198240915935,1.8860832452774048
3.6,1.688754996949847e+18,198.60684700520832,11.571531613667808,-2.454883416493734,3.639217456181844,1.688754996941192e+18,198.59819181315103,14.37847137451172,-17.594824075698856,5.432704448699951,1.688754996949847e+18,198.60684700520832,4.422231038411458,-8.438085873921713,2.334986925125122,1.688754996949847e+18,198.60684700520832,0.1181006083885828,-2.9685505628585815,1.51637115329504,1.688754996936871e+18,198.59387052408852,-0.2193006376425424,-3.559664487838745,2.190410057703654,,,,,,,,,,,,1.6887549969380716e+18,198.59507158203124,-12.3951997756958,34.91883926391601,-30.478039932250976,1.6887549969380716e+18,198.59507158203124,-266.9237915039063,128.23663635253905,-162.48203735351564,1.688754996949847e+18,198.60684700520832,-0.5984805226325989,0.2553903510173161,-0.4572927355766296,0.6058887839317322,-0.4856716791788737,1.035647948582967,1.8388875325520833
3.65,1.6887549969931062e+18,198.65010620117187,-13.655027389526367,-3.0683469772338867,4.631842136383057,1.688754996993102e+18,198.65010205078124,-4.3150566418965655,-10.523235003153482,6.029913087685903,1.6887549969931062e+18,198.65010620117187,4.312985897064209,-8.478361129760742,2.397796750068665,1.6887549969931062e+18,198.65010620117187,-0.2663372457027435,1.1606439650058746,-0.8232173025608063,1.6887549969887762e+18,198.6457761230469,-0.1476257654527823,0.5959499875704447,-0.5964589963356653,,,,,,,,,,,,1.688754996988066e+18,198.64506591796876,-10.9873197555542,34.9261589050293,-30.67079963684082,1.688754996988066e+18,198.64506591796876,-265.51591796875,128.24395751953125,-162.67479553222657,1.6887549969931062e+18,198.65010620117187,-0.5956766307353973,0.254955917596817,-0.4638118594884872,0.6041629314422607,-0.5075089037418365,1.043570041656494,1.8526977896690369
3.7,1.6887549970363558e+18,198.69335587565104,-6.5170524915059405,2.4292472203572593,-4.580193996429443,1.6887549970449992e+18,198.7019991048177,-0.7824529806772867,-6.090531190236409,-2.202593257029851,1.6887549970363558e+18,198.69335587565104,4.056369860967,-8.698485374450684,1.998661955197652,1.6887549970363558e+18,198.69335587565104,0.7237734794616699,1.9134844938913984,-1.5767959554990132,1.688754997040679e+18,198.6976785481771,0.8084292511145273,2.128305435180664,-1.816102385520935,1.6887549970493338e+18,198.7063337402344,0.0,0.0,2.6936004161834717,5.752999782562256,1.446317195892334,108.71829223632812,332.79998779296875,-122.9163495,49.2784763,1.6887549970380652e+18,198.69506533203125,-11.63879985809326,35.406838989257814,-29.07015953063965,1.6887549970380652e+18,198.69506533203125,-266.1673889160156,128.72463684082032,-161.07415466308595,1.6887549970363558e+18,198.69335587565104,-0.5977944334348043,0.2898922661940257,-0.4568766454855601,0.5910767515500387,-0.4561281005541484,1.0910992622375488,1.861586372057597
3.75,1.68875499708826e+18,198.7452601725261,-4.6664369106292725,-0.592884381612142,-0.1119986375172933,1.688754997096911e+18,198.7539111328125,-3.0484560330708823,-10.031908671061196,1.409173150236408,1.68875499708826e+18,198.7452601725261,2.862584034601847,-9.304271697998049,1.09776637951533,1.68875499708826e+18,198.7452601725261,0.106697787841161,3.918140649795532,-3.6083810329437256,1.6887549970925842e+18,198.7495842285156,-0.0661261572192112,3.951432704925537,-3.675627072652181,,,,,,,,,,,,1.6887549970880658e+18,198.74506577148435,-11.82423973083496,37.98591918945313,-26.94979934692383,1.6887549970880658e+18,198.74506577148435,-266.35283813476565,131.3037139892578,-158.95379638671875,1.68875499708826e+18,198.7452601725261,-0.5978842377662659,0.3932950397332509,-0.4453899164994557,0.5365774234135946,-0.3681640525658925,1.2522980372111003,1.9480511744817095
3.8,1.6887549971401605e+18,198.79716040039065,-3.833122809727987,0.8212223052978516,0.956513524055481,1.688754997148816e+18,198.80581616210935,-2.7475586334864297,-8.85942554473877,1.826720714569092,1.6887549971401605e+18,198.79716040039065,1.3566873868306475,-9.636024792989096,1.1847881476084392,1.6887549971401605e+18,198.79716040039065,-1.4835371176401777,3.4171802202860513,-2.9686014652252197,1.688754997144486e+18,198.8014861653646,-1.5237524509429932,3.2599841753641763,-2.9478320280710855,,,,,,,,,,,,1.6887549971380667e+18,198.7950666015625,-9.994239616394044,38.48367919921875,-26.73507957458496,1.6887549971380667e+18,198.7950666015625,-264.52283935546876,131.80148010253907,-158.73907775878905,1.6887549971401605e+18,198.79716040039065,-0.6140792369842529,0.484328955411911,-0.4425946374734242,0.4374139308929443,-0.732921302318573,1.382679104804993,2.5235700607299805
3.85,1.688754997192071e+18,198.84907071940103,-2.981165806452433,-1.8992268244425456,-2.735227187474569,1.688754997192065e+18,198.8490651855469,-3.5114673376083374,-12.275179862976074,-0.7103692293167115,1.688754997192071e+18,198.84907071940103,-0.0717404633760452,-9.649575233459473,1.7233867645263672,1.688754997192071e+18,198.84907071940103,-0.8353582223256429,1.0289515852928162,-2.928946097691854,1.6887549971963932e+18,198.85339314778648,-0.7084000557661057,0.9615018963813782,-2.821892023086548,,,,,,,,,,,,1.688754997188067e+18,198.84506708984375,-7.595719909667968,37.64187927246094,-28.045359420776368,1.688754997188067e+18,198.84506708984375,-262.12431640625,130.95968017578124,-160.04935607910156,1.688754997192071e+18,198.84907071940103,-0.6077603896458944,0.5397208134333292,-0.4605343441168466,0.3560428818066914,-1.5999662081400554,1.3898709615071614,-2.778592268625895
3.9,1.6887549972439698e+18,198.90096997070313,3.236951986948649,1.622528870900472,-3.4782207012176514,1.688754997235322e+18,198.8923223470052,1.7351952195167542,-8.486145655314127,-2.1202402114868164,1.6887549972439698e+18,198.90096997070313,-1.1606435378392537,-9.584290186564129,1.717426856358846,1.6887549972439698e+18,198.90096997070313,0.4572326292594273,1.0840821663538616,-2.259641488393148,1.6887549972483018e+18,198.9053017578125,0.517351970076561,1.1319841941197712,-2.2608631451924643,,,,,,,,,,,,1.6887549972380657e+18,198.89506557617187,-4.111399936676025,37.76875991821289,-28.655359268188477,1.6887549972380657e+18,198.89506557617187,-258.63999633789064,131.08655700683593,-160.65935668945312,1.6887549972439698e+18,198.90096997070313,-0.5843648314476013,0.5851966937383016,-0.4652118285497029,0.31513046224912,-2.158217748006185,1.3561108112335205,-2.1601210832595825
3.95,1.6887549972958802e+18,198.95288012695312,4.0952887535095215,2.3543246587117515,-0.9710759917895,1.6887549972872294e+18,198.9442294108073,2.2660030126571655,-6.866603374481201,0.4031906227270762,1.6887549972958802e+18,198.95288012695312,-1.9438057740529375,-9.490362803141275,1.5406919717788696,1.6887549972958802e+18,198.95288012695312,0.3659082911908626,1.4723888635635376,-1.4604260921478271,1.6887549973002033e+18,198.95720304361976,0.296931417658925,1.4696908791859944,-1.3760757843653362,,,,,,,,,,,,1.6887549972880684e+18,198.945068359375,-1.3859199643135072,39.1839599609375,-27.381679916381835,1.6887549972880684e+18,198.945068359375,-255.91451721191407,132.5017578125,-159.38567504882812,1.6887549972958802e+18,198.95288012695312,-0.5675314863522848,0.629723052183787,-0.4498168130715688,0.280763288338979,-2.469431002934774,1.3151101271311445,-1.7679363091786702
4.0,1.6887549973477857e+18,199.00478523763024,1.350563605626424,-0.2554140090942383,-1.3562946319580078,1.6887549973391368e+18,198.9961365559896,-0.5258227984110514,-9.372885386149088,0.4113661050796509,1.6887549973477857e+18,199.00478523763024,-2.389909585316976,-9.366567611694336,1.665092905362447,1.6887549973477857e+18,199.00478523763024,-0.1571450854341188,0.6371324360370636,-1.103171706199646,1.6887549973434609e+18,199.00046081542968,-0.1888337209820746,0.7966446280479431,-1.0997101664543152,,,,,,,,,,,,1.688754997338065e+18,198.9950648925781,-1.278559970855713,39.24496002197266,-27.152319717407227,1.688754997338065e+18,198.9950648925781,-255.80715637207032,132.56275634765626,-159.15632019042968,1.6887549973477857e+18,199.00478523763024,-0.5621874729792277,0.6536948482195536,-0.440895527601242,0.2493359049161274,-2.5318918228149414,1.2693625291188555,-1.6423234542210896
4.05,1.6887549973996864e+18,199.0566864420573,2.913987477620443,-2.16449769337972,-3.3212589820226035,1.6887549973910395e+18,199.0480397949219,0.196610261996587,-10.87139097849528,-0.5996014624834061,1.6887549973996864e+18,199.0566864420573,-2.872774680455526,-9.202249844868978,1.8119107087453208,1.6887549973996864e+18,199.0566864420573,-0.6434447268644968,-0.1499674220879872,-0.7727954139312109,1.6887549973867151e+18,199.0437149251302,-0.4596251944700877,-0.2632320250074069,-1.0521135727564497,,,,,,,,,,,,1.6887549973880724e+18,199.0450724609375,0.8222799897193909,38.77160034179688,-27.68423957824707,1.6887549973880724e+18,199.0450724609375,-253.7063140869141,132.0893981933594,-159.68823852539063,1.6887549973996864e+18,199.0566864420573,-0.5465086897214254,0.6636378566424052,-0.453761359055837,0.2344386577606201,-2.5786739190419516,1.217296123504639,-1.597083608309428
4.1,1.6887549974429445e+18,199.0999443359375,0.6091964244842529,-7.840625762939453,-6.370959758758545,1.6887549974429402e+18,199.09994034830729,-2.078565239906311,-16.446667353312176,-4.227120478947957,1.6887549974429445e+18,199.0999443359375,-2.903478264808655,-9.155437469482422,1.9958078861236572,1.6887549974429445e+18,199.0999443359375,-0.0829249620437622,-0.0650571510195732,-0.0028252452611923,1.6887549974386145e+18,199.09561401367185,-0.2029599845409393,0.0700967833399773,-0.0423533320426941,,,,,,,,,,,,1.688754997438066e+18,199.0950658203125,1.5420799732208252,37.94199905395508,-28.533359146118165,1.688754997438066e+18,199.0950658203125,-252.98651428222655,131.25979614257812,-160.537353515625,1.6887549974429445e+18,199.0999443359375,-0.5479664504528046,0.6604474186897278,-0.4601184278726578,0.22766375541687,-2.538909912109375,1.203523874282837,-1.6375528573989868
4.15,1.6887549974861988e+18,199.1431985677083,2.5050065517425537,-6.385531743367513,-3.166154563426971,1.6887549974948485e+18,199.1518483072917,-0.4340978885690371,-15.200804710388184,-0.3657031059265136,1.6887549974861988e+18,199.1431985677083,-2.8883203665415444,-9.232664426167808,1.612539331118266,1.6887549974861988e+18,199.1431985677083,1.063872714837392,-0.1351539368430773,0.6519459187984465,1.688754997490526e+18,199.14752587890624,1.058476746082306,-0.1175406517771382,0.9434304535388948,,,,,,,,,,,,1.6887549974880658e+18,199.14506582031248,1.7543599605560305,38.9277587890625,-27.615919494628905,1.6887549974880658e+18,199.14506582031248,-252.77423706054688,132.245556640625,-159.6199157714844,1.6887549974861988e+18,199.1431985677083,-0.5426909526189169,0.6677176753679911,-0.4485840598742167,0.241408626238505,-2.6331557432810464,1.226756493250529,-1.5446467796961467
4.2,1.6887549975381033e+18,199.19510335286455,-0.1590109864870707,-1.1574710210164387,2.3103833198547363,1.688754997546755e+18,199.20375520833332,-1.551546076933543,-10.85982577006022,3.695515155792236,1.6887549975381033e+18,199.19510335286455,-1.5704649488131206,-9.594122250874838,1.1988152265548706,1.6887549975381033e+18,199.19510335286455,0.4562654296557109,-1.13946732878685,3.778354326883952,1.6887549975424284e+18,199.19942822265625,0.4227696557839711,-1.241379976272583,3.8534907499949136,,,,,,,,,,,,1.688754997538068e+18,199.1950680175781,-2.991439950466156,40.14531936645508,-26.58867988586426,1.688754997538068e+18,199.1950680175781,-257.52003784179686,133.46311645507814,-158.5926727294922,1.6887549975381033e+18,199.19510335286455,-0.5780128836631775,0.631871223449707,-0.4246634344259898,0.2921983400980631,-2.456815004348755,1.3659718036651611,-1.7545010646184285
4.25,1.6887549975900047e+18,199.24700480143233,-2.4536251227060952,-6.291220029195149,4.506344159444173,1.6887549975986565e+18,199.25565657552087,-2.2484557231267295,-16.490536371866863,6.290930112202962,1.6887549975900047e+18,199.24700480143233,0.278685321410497,-9.745919863382976,0.9536030491193136,1.6887549975900047e+18,199.24700480143233,0.4676173428694407,-0.3426954057067632,3.7317758401234946,1.6887549975943314e+18,199.25133154296876,0.4214461172620455,-0.2607885437707105,3.7606900533040366,1.6887549975683804e+18,199.22538037109376,0.0,0.0,2.6936004161834717,5.783999919891357,1.453039526939392,108.49784088134766,332.79998779296875,-122.9163412,49.2784754,1.6887549975880658e+18,199.24506572265625,-9.091439914703368,39.669518280029294,-25.37111930847168,1.6887549975880658e+18,199.24506572265625,-263.6200317382812,132.98731994628906,-157.3751190185547,1.6887549975900047e+18,199.24700480143233,-0.6233971118927002,0.56948322057724,-0.4013155400753021,0.3539844950040181,-1.3159604668617249,1.4569648504257202,-0.860149065653483
4.3,1.688754997641912e+18,199.2989119466146,-5.604758580525716,-3.591252326965332,4.9926362832387285,1.6887549976505644e+18,199.30756429036455,-1.1493525505065918,-12.48056411743164,5.168696403503418,1.688754997641912e+18,199.2989119466146,2.066508094469706,-9.507699966430664,1.1731934746106465,1.688754997641912e+18,199.2989119466146,-0.5315036674340566,-2.7038932045300803,3.4646240870157876,1.6887549976462395e+18,199.3032395833333,-0.5532911817232767,-3.034574826558431,3.3488651116689048,,,,,,,,,,,,1.6887549976380677e+18,199.29506791992185,-16.125959587097167,37.69799957275391,-26.13971939086914,1.6887549976380677e+18,199.29506791992185,-270.65455322265626,131.0157958984375,-158.14371643066406,1.688754997641912e+18,199.2989119466146,-0.6658767859141032,0.4937491118907928,-0.3873054285844167,0.4020929932594299,-0.5184362232685089,1.3256557782491047,2.46453595161438
4.35,1.6887549976938135e+18,199.3508134765625,-0.9352700710296632,-0.8738349278767904,-1.501705527305603,1.6887549976938138e+18,199.35081372070312,2.3757737278938293,-10.08395290374756,-0.2183450609445572,1.6887549976938135e+18,199.3508134765625,3.4161651929219565,-9.04445775349935,1.5965455770492554,1.6887549976938135e+18,199.3508134765625,0.0441859203080336,-0.4255185127258301,3.245985190073649,1.6887549976981435e+18,199.35514355468752,0.1434515242775281,-0.1479821267227332,3.26293675104777,,,,,,,,,,,,1.6887549976880666e+18,199.34506669921876,-17.453319549560547,34.84319915771484,-28.421119689941406,1.6887549976880666e+18,199.34506669921876,-271.98191528320314,128.16100158691407,-160.42511291503905,1.6887549976938135e+18,199.3508134765625,-0.6825398405392965,0.4119374255339305,-0.3946572840213775,0.4562143286069234,-0.4432565768559773,1.1749829451243083,2.2632110913594565
4.4,1.6887549977457236e+18,199.4027237141927,-9.448771794637045,5.721753279368083,-2.674729108810425,1.6887549977370683e+18,199.3940682779948,-4.6735812822977705,-4.4841494957606,-0.8125627040863037,1.6887549977457236e+18,199.4027237141927,4.620191733042399,-8.51063092549642,1.5420511563618975,1.6887549977457236e+18,199.4027237141927,0.6242533624172211,-2.1189388036727905,2.638225237528483,1.6887549977500465e+18,199.40704630533855,0.5660175631443659,-2.309172431627909,2.61715030670166,,,,,,,,,,,,1.688754997738068e+18,199.39506796874997,-22.274760055541993,32.5227596282959,-28.191759490966795,1.688754997738068e+18,199.39506796874997,-276.8033508300781,125.84055633544922,-160.1957580566406,1.6887549977457236e+18,199.4027237141927,-0.6944524645805359,0.3559430440266927,-0.3706956704457601,0.5030156970024109,-0.3223016957441966,1.0508110920588176,2.076084613800049
4.45,1.6887549977976238e+18,199.45462369791665,-6.064951101938884,10.18131192525228,-0.7603722413380941,1.6887549977889774e+18,199.4459774576823,-1.688535253206889,2.311466614405314,0.6227320929368337,1.6887549977976238e+18,199.45462369791665,5.334678014119466,-7.95104455947876,2.1210155487060547,1.6887549977976238e+18,199.45462369791665,0.1553633964310089,-2.3903666337331138,1.7375043829282124,1.6887549977933038e+18,199.4503038330078,0.0582612724974751,-2.4690409898757935,2.072054922580719,,,,,,,,,,,,1.6887549977880632e+18,199.44506323242183,-22.892079544067386,30.71715927124023,-29.55571937561035,1.6887549977880632e+18,199.44506323242183,-277.42067260742186,124.03495941162107,-161.559716796875,1.6887549977976238e+18,199.45462369791665,-0.6847070256868998,0.2823246220747629,-0.3847664097944895,0.5504695375760397,-0.3780195415019989,0.9451882441838584,1.982118844985962
4.5,1.6887549978495334e+18,199.50653336588545,-2.070570151011149,7.219283103942871,0.540983517964681,1.6887549978408824e+18,199.49788224283853,2.8528428077697754,-0.375074952840805,2.87477699915568,1.6887549978495334e+18,199.50653336588545,5.157846291859944,-8.024311383565268,2.27469531695048,1.6887549978495334e+18,199.50653336588545,1.045190453529358,-0.3572034686803818,-1.401324898004532,1.688754997836557e+18,199.49355680338545,0.8356127440929413,-0.9725993021080892,-0.689361443122228,,,,,,,,,,,,1.6887549978380677e+18,199.49506772460936,-21.0523193359375,30.316999435424805,-31.36131935119629,1.6887549978380677e+18,199.49506772460936,-275.58091430664064,123.63479766845704,-163.36531677246094,1.6887549978495334e+18,199.50653336588545,-0.6629606882731119,0.2689638137817383,-0.4057193001111348,0.5686384240786234,-0.4152889947096507,0.9582461913426716,1.941580891609192
4.55,1.6887549978927872e+18,199.54978735351563,3.31152081489563,4.210608959197998,-0.5139681696891785,1.6887549978927844e+18,199.54978442382813,8.157331705093384,-5.123432159423828,1.9134604930877688,1.6887549978927872e+18,199.54978735351563,4.316634893417358,-8.60875940322876,1.8486891984939575,1.6887549978927872e+18,199.54978735351563,1.1136837303638458,-0.1191187240183353,-3.0075186491012573,1.6887549978884628e+18,199.5454628092448,1.0788389245669048,0.0182750541716814,-2.8003081480662027,,,,,,,,,,,,1.6887549978880676e+18,199.545067578125,-17.73147964477539,33.386519241333005,-30.221839904785156,1.6887549978880676e+18,199.545067578125,-272.26006469726565,126.70431671142578,-162.22583618164063,1.6887549978927872e+18,199.54978735351563,-0.6347053349018097,0.3130866140127182,-0.4263686239719391,0.5631538033485413,-0.4050769060850143,1.0713018774986267,1.9328052997589111
4.6,1.6887549979360407e+18,199.59304060872395,8.358654657999674,-17.105796813964844,5.607357104619344,1.6887549979446925e+18,199.6016923828125,12.62074375152588,-26.048067728678387,8.100701649983725,1.6887549979360407e+18,199.59304060872395,3.8394931157430015,-8.782393137613932,2.0681445598602295,1.6887549979360407e+18,199.59304060872395,-0.5422447125116984,-2.3652192975083985,0.5374087492624918,1.6887549979403643e+18,199.5973645019531,-0.5579744925101597,-2.6529877396921315,0.9289733370145162,,,,,,,,,,,,1.6887549979380705e+18,199.59507055664065,-12.990559768676755,35.331199645996094,-29.887559509277345,1.6887549979380705e+18,199.59507055664065,-267.51915283203124,128.64899749755858,-161.8915588378906,1.6887549979360407e+18,199.59304060872395,-0.6180010835329691,0.3126778900623321,-0.4538300236066182,0.5601016084353129,-0.4922295610109965,1.1093648274739585,1.9773335059483843
4.65,1.6887549979879437e+18,199.64494376627604,4.17732302347819,4.95356543858846,4.002305348714192,1.68875499799659e+18,199.6535899251302,4.454239288965861,-4.454239328702291,8.000402530034384,1.6887549979879437e+18,199.64494376627604,4.064491589864095,-8.530080477396647,2.636505683263143,1.6887549979879437e+18,199.64494376627604,0.6354016760985056,-1.7481435934702556,0.4097378452618916,1.6887549979922698e+18,199.64926993815104,0.633620003859202,-1.3551536748806636,0.0503454705079396,,,,,,,,,,,,1.6887549979880668e+18,199.6450668457031,-9.957639694213867,34.40399856567383,-31.246639251708984,1.6887549979880668e+18,199.6450668457031,-264.48623046875,127.72179565429688,-163.250634765625,1.6887549979879437e+18,199.64494376627604,-0.5917333761850992,0.2501817097266515,-0.4797773857911427,0.5974498987197876,-0.5756069421768188,1.054149905840556,1.902398983637492
4.7,1.6887549980398513e+18,199.6968513997396,-8.592825651168823,-2.4269027709960938,-0.896946907043457,1.6887549980485015e+18,199.7055013834635,-3.5868411858876548,-9.66520881652832,-0.5814559459686279,1.6887549980398513e+18,199.6968513997396,3.706418991088867,-8.746026674906412,2.447420597076416,1.6887549980398513e+18,199.6968513997396,-0.0323758584757646,1.8722001314163208,-1.0364856123924255,1.6887549980441787e+18,199.7011787923177,-0.0300342105329037,2.0749056339263916,-0.9900598426659902,,,,,,,,,,,,1.688754998038068e+18,199.6950681152344,-9.769759941101077,35.10915908813477,-31.058759689331055,1.688754998038068e+18,199.6950681152344,-264.29835815429686,128.4269592285156,-163.06275634765626,1.6887549980398513e+18,199.6968513997396,-0.5885190367698669,0.2747359375158945,-0.4851836860179901,0.5852506359418234,-0.5833685398101807,1.100690444310506,1.9406642119089763
4.75,1.6887549980917535e+18,199.74875349934896,-3.9963269233703618,-0.29620361328125,-0.1740672985712686,1.688754998100407e+18,199.75740681966147,-1.5824533303578694,-10.328818321228027,2.044068773587545,1.6887549980917535e+18,199.74875349934896,3.146811564763387,-9.104840596516928,1.8025072813034055,1.6887549980917535e+18,199.74875349934896,0.1636100783944129,4.2976915041605634,-3.106809695561727,1.6887549980960768e+18,199.75307682291668,0.160861184199651,4.493372122446696,-3.3623550732930503,,,,,,,,,,,,1.6887549980880678e+18,199.74506796875,-11.526559638977051,35.79479904174805,-29.84363899230957,1.6887549980880678e+18,199.74506796875,-266.0551513671875,129.1125946044922,-161.8476348876953,1.6887549980917535e+18,199.74875349934896,-0.6099591453870138,0.3543973465760549,-0.4613388478755951,0.5365482370058695,-0.5190590818723043,1.1915970643361409,2.055398861567179
4.8,1.6887549981436628e+18,199.80066276041663,-10.237754503885904,-0.2989012400309244,-0.7573646505673727,1.688754998143661e+18,199.80066113281248,-8.522037982940674,-9.647262573242188,0.9257232546806335,1.6887549981436628e+18,199.80066276041663,1.3433701992034912,-9.603439013163248,1.37962273756663,1.6887549981436628e+18,199.80066276041663,-0.9241882214943568,3.863671779632568,-4.3181045850118,1.6887549981479877e+18,199.80498730468753,-1.095332274834315,3.534262736638387,-4.083125193913777,,,,,,,,,,,,1.6887549981380685e+18,199.79506845703125,-10.18455982208252,37.58575973510742,-27.750119400024413,1.6887549981380685e+18,199.79506845703125,-264.7131591796875,130.90355834960937,-159.75411376953124,1.6887549981436628e+18,199.80066276041663,-0.6174746155738831,0.4796892901261647,-0.4479095637798309,0.4316318829854329,-0.8329718112945557,1.3678146998087566,2.622973680496216
4.85,1.6887549981955633e+18,199.8525632324219,0.6933220227559408,-2.718015352884928,-4.257157325744629,1.688754998186912e+18,199.8439119466146,-2.1746771335601807,-12.301301638285318,-2.1700907150904336,1.6887549981955633e+18,199.8525632324219,0.1758074611425399,-9.6142365137736,1.9276692072550456,1.6887549981955633e+18,199.8525632324219,-0.8191703061262766,0.2264782985051473,-1.7599536577860515,1.6887549981998886e+18,199.856888671875,-0.5955936113993326,0.1590285897254943,-1.8362609545389812,,,,,,,,,,,,1.6887549981880655e+18,199.84506547851564,-7.978799724578858,36.948919677734374,-29.09455986022949,1.6887549981880655e+18,199.84506547851564,-262.5074035644531,130.26671752929687,-161.0985595703125,1.6887549981955633e+18,199.8525632324219,-0.6144545475641886,0.5216711759567261,-0.4677124619483948,0.3624916474024455,-1.4769890308380127,1.3706721464792888,-2.9267144203186035
4.9,1.688754998247471e+18,199.90447111002604,1.9784400463104248,1.0305609703063965,-2.8055638472239175,1.6887549982388206e+18,199.89582063802084,1.7116657892862956,-9.03011385599772,-1.6430715521176655,1.688754998247471e+18,199.90447111002604,-0.8686325748761495,-9.61644999186198,1.7121681372324626,1.688754998247471e+18,199.90447111002604,0.9287697076797484,1.336725890636444,-2.253940025965373,1.6887549982431468e+18,199.9001468505859,0.8322275578975677,1.2689197957515717,-2.333428859710694,,,,,,,,,,,,1.6887549982380708e+18,199.8950707519531,-4.3797999858856205,37.44423904418945,-28.84323921203613,1.6887549982380708e+18,199.8950707519531,-258.9083984375,130.7620361328125,-160.84723815917968,1.688754998247471e+18,199.90447111002604,-0.5873876611391703,0.5681921044985453,-0.4701832036177317,0.332681139310201,-2.0395886103312173,1.3718023697535198,-2.316422065099081
4.95,1.6887549982993764e+18,199.95637646484377,3.1994779904683432,3.5563435554504395,0.7019772529602051,1.6887549982907218e+18,199.9477218424479,1.66719917456309,-6.240082581837972,1.9124634663263955,1.6887549982993764e+18,199.95637646484377,-1.568633397420247,-9.595870653788248,1.2923652331034343,1.6887549982993764e+18,199.95637646484377,0.852411558230718,1.9481510718663533,-1.4761558373769124,1.6887549982863995e+18,199.9433999023437,1.1172725359598796,1.9363410075505576,-1.6549866596857707,,,,,,,,,,,,1.68875499828807e+18,199.94506992187505,-2.9621599674224854,39.40599899291992,-27.030319595336913,1.68875499828807e+18,199.94506992187505,-257.4907531738281,132.72379455566406,-159.03432006835936,1.6887549982993764e+18,199.95637646484377,-0.5742986996968588,0.6216047604878744,-0.4396261572837829,0.3003443082173665,-2.4492499033610025,1.3617066542307537,-1.8005214134852092
5.0,1.6887549983426304e+18,199.99963037109376,0.4895790815353393,2.19816517829895,-0.1812843680381775,1.6887549983426266e+18,199.99962679036457,-1.149352495248119,-7.303891817728679,1.247059404850006,1.6887549983426304e+18,199.99963037109376,-1.8979182839393616,-9.52393388748169,1.3861947655677795,1.6887549983426304e+18,199.99963037109376,-0.43860125541687,1.1491138637065887,-0.8095491826534271,1.688754998338306e+18,199.99530598958336,-0.3034982085227967,1.287245790163676,-0.8769988616307577,,,,,,,,,,,,1.688754998338068e+18,199.99506791992184,-3.481879949569702,39.96719970703125,-26.076279067993163,1.688754998338068e+18,199.99506791992184,-258.0104736328125,133.28499755859374,-158.0802764892578,1.6887549983426304e+18,199.99963037109376,-0.5751119554042816,0.6450116634368896,-0.4249859601259231,0.2693659216165542,-2.510485529899597,1.3289416432380676,-1.6658560633659365
5.05,1.688754998385881e+18,200.04288126627603,0.1892433961232502,-0.79034423828125,-1.6598716576894124,1.6887549983945352e+18,200.05153523763025,-1.719641884167989,-10.991031646728516,-0.1200399243583282,1.688754998385881e+18,200.04288126627603,-2.285818179448446,-9.38118902842204,1.7194176117579143,1.688754998385881e+18,200.04288126627603,-0.8000807364781698,-0.0508545239766439,-1.272534112135569,1.6887549983902067e+18,200.0472067871094,-0.7941248218218485,-0.2306016435225805,-1.3633494178454082,,,,,,,,,,,,1.688754998388062e+18,200.04506196289063,-1.7421599507331849,39.12783966064453,-27.15475959777832,1.688754998388062e+18,200.04506196289063,-256.270751953125,132.44563903808594,-159.15875549316405,1.688754998385881e+18,200.04288126627603,-0.568657398223877,0.6530470848083496,-0.4357828696568807,0.2452023178339004,-2.495373805363973,1.274916688601176,-1.6632439295450847
5.1,1.688754998437786e+18,200.0947860514323,6.0334116617838545,-4.598897933959961,-5.579428434371948,1.6887549984464384e+18,200.10343839518228,2.9148568312327066,-14.604194323221842,-3.871387640635173,1.688754998437786e+18,200.0947860514323,-2.9156270821889243,-9.16984494527181,1.9085638920466104,1.688754998437786e+18,200.0947860514323,-0.526565839846929,-0.4040364523728688,-0.5998696784178416,1.688754998442116e+18,200.09911604817708,-0.4587088922659556,-0.1708895564079284,-0.4258749062816302,,,,,,,,,,,,1.6887549984380664e+18,200.09506630859377,1.6713999807834623,38.38363876342773,-28.484559631347658,1.6887549984380664e+18,200.09506630859377,-252.8571929931641,131.7014373779297,-160.48855590820312,1.688754998437786e+18,200.0947860514323,-0.5438952644666036,0.6579878926277161,-0.464292307694753,0.2358749459187189,-2.561591625213623,1.2076849540074666,-1.6349963744481404
5.15,1.6887549984896942e+18,200.1466941731771,2.079645037651062,-6.081275304158528,-3.475962519645691,1.688754998498345e+18,200.15534513346356,-0.0628115932146708,-14.591631889343262,-0.6777669986089071,1.6887549984896942e+18,200.1466941731771,-2.840626001358032,-9.21448771158854,1.799116849899292,1.6887549984896942e+18,200.1466941731771,0.8518515626589457,0.1983784909049669,0.2228640019893646,1.6887549984940209e+18,200.15102067057293,0.9006699124972025,0.0991128875563542,0.3965533586839835,,,,,,,,,,,,1.68875499848807e+18,200.1450699707031,1.3297999143600463,38.16159896850586,-28.5406795501709,1.68875499848807e+18,200.1450699707031,-253.19879760742188,131.47939758300782,-160.5446807861328,1.6887549984896942e+18,200.1466941731771,-0.5477670431137085,0.6635008255640665,-0.4521382451057434,0.2349956631660461,-2.577449003855387,1.2208502689997356,-1.5961791276931765
5.2,1.6887549985415956e+18,200.19859570312497,1.05320938428243,-3.2637354532877603,1.2033239603042605,1.6887549985502454e+18,200.20724536132812,-1.568096359570821,-12.7888396581014,2.6584258874257407,1.6887549985415956e+18,200.19859570312497,-1.6907604535420735,-9.54050064086914,1.4267117579778037,1.6887549985415956e+18,200.19859570312497,0.6588690678278605,0.3089959993958472,3.68178661664327,1.6887549985459274e+18,200.2029275716146,0.6712900002797445,0.2975422690312068,3.814293543497721,,,,,,,,,,,,1.6887549985380677e+18,200.1950677734375,-2.1301199913024904,39.51091842651367,-27.445119094848632,1.6887549985380677e+18,200.1950677734375,-256.6587158203125,132.82871704101564,-159.44911499023436,1.6887549985415956e+18,200.19859570312497,-0.5836005608240763,0.6394968032836914,-0.4204685986042022,0.2698600490887959,-2.409861405690511,1.3408437967300415,-1.759419560432434
5.25,1.6887549985935045e+18,200.25050439453125,-3.1596854527791343,-4.731044451395671,1.970057288805644,1.6887549985935045e+18,200.25050427246097,-3.1716864109039307,-14.705988883972168,3.0355945825576782,1.6887549985935045e+18,200.25050439453125,0.1107671285669008,-9.749563535054524,0.988393247127533,1.6887549985935045e+18,200.25050439453125,0.9535606503486632,-0.5630141297976176,3.2794810136159263,1.68875499859783e+18,200.254830078125,0.8851946194966634,-0.5507459143797556,3.2357022762298584,1.6887549986064824e+18,200.263482421875,0.0,0.0,2.7040185928344727,5.756999969482422,1.4649921655654907,107.91883087158205,332.79998779296875,-122.9163175,49.2784726,1.6887549985880663e+18,200.24506640625,-9.896639823913574,39.62071838378906,-25.53703956604004,1.6887549985880663e+18,200.24506640625,-264.42523803710935,132.9385223388672,-157.5410369873047,1.6887549985935045e+18,200.25050439453125,-0.6320202151934305,0.5892937779426575,-0.3831161161263783,0.3255181312561035,-1.428700049718221,1.4601970911026,-0.669996976852417
5.3,1.6887549986454034e+18,200.30240323893227,-3.6374860604604087,-5.706813812255859,6.347692648569743,1.688754998636753e+18,200.2937530110677,-2.046660979588826,-15.226328214009603,6.64626407623291,1.6887549986454034e+18,200.30240323893227,1.773413817087809,-9.57479159037272,1.065196454524994,1.6887549986454034e+18,200.30240323893227,-0.6873761216799418,-1.4959580898284912,3.7235799630482993,1.688754998649731e+18,200.30673095703125,-0.740114152431488,-1.7283414204915364,3.7462329864501953,,,,,,,,,,,,1.688754998638068e+18,200.29506791992185,-16.250399780273437,38.056678771972656,-25.427239608764648,1.688754998638068e+18,200.29506791992185,-270.77900390625,131.37447814941407,-157.43123779296874,1.6887549986454034e+18,200.30240323893227,-0.673366924126943,0.5232431789239248,-0.3675776620705922,0.3698033591111501,-0.5542923808097839,1.3575310707092283,2.5912790298461914
5.35,1.6887549986973074e+18,200.3543073730469,-0.2257630825042724,-3.3779980341593423,-0.3738506635030111,1.6887549986886633e+18,200.34566316731772,3.264807144800822,-13.198410987854004,2.8991039594014487,1.6887549986973074e+18,200.3543073730469,3.2978846232096353,-9.097623507181805,1.5542346239089966,1.6887549986973074e+18,200.3543073730469,0.2301434824864069,-1.5840754111607869,3.2449162006378174,1.68875499869299e+18,200.34998986816407,0.1016327068209648,-2.2041544914245605,3.2685872316360474,,,,,,,,,,,,1.6887549986880648e+18,200.3450646484375,-19.41263961791992,34.28443984985351,-28.072199630737305,1.6887549986880648e+18,200.3450646484375,-273.9412353515625,127.60223846435548,-160.07619934082032,1.6887549986973074e+18,200.3543073730469,-0.6976969043413798,0.4341381192207336,-0.3781451880931854,0.4255993664264679,-0.4451022644837697,1.1890618006388347,2.351646423339844
5.4,1.6887549987492147e+18,200.4062147623698,-9.922548611958822,4.558872699737549,-1.9561506907145183,1.68875499874057e+18,200.39756974283856,-4.582056005795796,-5.854040702184041,-0.7244270443916321,1.6887549987492147e+18,200.4062147623698,4.4658528963724775,-8.63548755645752,1.2892755667368572,1.6887549987492147e+18,200.4062147623698,1.039590835571289,-1.6045393894116085,2.3678154945373535,1.688754998736244e+18,200.3932440592448,1.046157638231913,-0.6389650305112203,2.58345095316569,,,,,,,,,,,,1.688754998738069e+18,200.39506918945312,-23.384959411621093,32.625239562988284,-27.432920074462892,1.688754998738069e+18,200.39506918945312,-277.9135498046875,125.9430374145508,-159.43692016601562,1.6887549987492147e+18,200.4062147623698,-0.7087360620498657,0.3859906295935313,-0.3508635759353637,0.4744325180848439,-0.2817689975102742,1.0767982403437295,2.131288766860962
5.45,1.6887549987924692e+18,200.44946923828127,-9.750864505767822,11.172635555267334,-1.92961323261261,1.688754998792476e+18,200.44947583007811,-3.820939024289449,2.6083761056264243,0.1884347995122274,1.6887549987924692e+18,200.44946923828127,5.087089776992798,-8.216445446014404,1.6746026277542114,1.6887549987924692e+18,200.44946923828127,0.0118355117738247,-2.9294806718826294,2.374127745628357,1.6887549987881418e+18,200.44514184570312,0.1984802931547165,-2.978273550669352,2.3012820879618325,,,,,,,,,,,,1.688754998788067e+18,200.4450670410156,-24.09987945556641,31.009959411621093,-28.718799209594728,1.688754998788067e+18,200.4450670410156,-278.62847290039065,124.3277587890625,-160.72279663085936,1.6887549987924692e+18,200.44946923828127,-0.6985991597175598,0.3267061710357665,-0.3657098263502121,0.5207941234111786,-0.3177650868892669,0.9929256439208984,2.0334360599517822
5.5,1.6887549988357235e+18,200.4927237955729,-3.491431395212809,9.068320592244469,0.5361928939819336,1.688754998844378e+18,200.50137817382813,2.4873390595118203,0.2388834667702516,2.8697919050852456,1.6887549988357235e+18,200.4927237955729,5.374320030212402,-7.894085725148519,2.2410013675689697,1.6887549988357235e+18,200.4927237955729,0.2159917602936426,-1.6892459988594055,0.4294891854127248,1.6887549988400504e+18,200.49705013020832,0.3085378557443619,-1.4864896933237712,0.1495601733525594,,,,,,,,,,,,1.688754998838064e+18,200.49506396484372,-22.28451957702637,29.658199310302734,-31.019719314575195,1.688754998838064e+18,200.49506396484372,-276.81312255859376,122.9759963989258,-163.02371826171876,1.6887549988357235e+18,200.4927237955729,-0.6904608408610026,0.2783763706684112,-0.3853049178918202,0.5451390544573466,-0.3951518237590789,0.9350521365801492,2.0063615242640176
5.55,1.688754998887632e+18,200.54463224283856,-0.484661022822062,5.975225766499837,0.6000659068425497,1.6887549988962796e+18,200.55327970377607,4.955336332321167,-2.8269205888112388,2.436691125233968,1.688754998887632e+18,200.54463224283856,4.759774049123128,-8.328210830688477,2.0138182242711387,1.688754998887632e+18,200.54463224283856,1.3612114191055298,0.1283835085729757,-2.451351284980774,1.688754998891959e+18,200.54895890299477,1.3998485803604126,0.1282817050814628,-2.5849780639012656,,,,,,,,,,,,1.68875499888807e+18,200.54506987304688,-19.361399841308593,31.90055923461914,-30.60003967285156,1.68875499888807e+18,200.54506987304688,-273.88999633789064,125.2183563232422,-162.60404052734376,1.688754998887632e+18,200.54463224283856,-0.6638462344805399,0.3036221166451772,-0.4060267508029938,0.549392580986023,-0.3997481167316437,1.015246033668518,1.9830636580785117
5.6,1.688754998939533e+18,200.59653304036456,7.623440027236939,-9.514215787251793,0.5220938523610433,1.688754998948181e+18,200.6051810709635,12.239487012227375,-23.878177007039387,3.3988051811854043,1.688754998939533e+18,200.59653304036456,3.836322863896688,-8.863701820373535,1.7099356253941853,1.688754998939533e+18,200.59653304036456,-0.0539088447888692,-1.1380419433116913,-0.6041966676712036,1.6887549989438597e+18,200.60085953776044,-0.2551889419555664,-1.564731349547704,-0.1500183095534642,,,,,,,,,,,,1.6887549989380682e+18,200.59506811523437,-14.43015937805176,35.46051940917969,-29.145799255371095,1.6887549989380682e+18,200.59506811523437,-268.95875854492186,128.7783172607422,-161.14979858398436,1.688754998939533e+18,200.59653304036456,-0.6311233639717102,0.3415557940800984,-0.4332236051559448,0.5451907912890116,-0.4192862510681152,1.128054141998291,1.984194278717041
5.65,1.6887549989914337e+18,200.64843383789065,7.474034468332927,-0.7095390955607096,2.4142693678538003,1.6887549990000824e+18,200.65708243815104,11.146366437276203,-3.3385857741038003,5.040480891863505,1.6887549989914337e+18,200.64843383789065,4.129297415415446,-8.556111017862955,2.4426864782969155,1.6887549989914337e+18,200.64843383789065,0.6823873619238535,-3.688251574834188,1.439300298690796,1.6887549989957588e+18,200.6527586263021,0.8958338846762977,-3.3044755458831787,1.239343762397766,,,,,,,,,,,,1.6887549989880612e+18,200.6450609375,-11.448479843139648,34.31615982055664,-31.60287895202637,1.6887549989880612e+18,200.6450609375,-265.97706909179686,127.63395690917967,-163.60687866210938,1.6887549989914337e+18,200.64843383789065,-0.6061112284660339,0.2693991760412852,-0.4654541114966075,0.5854406158129374,-0.5342369278271993,1.059631069501241,1.9233866135279336
5.7,1.6887549990433416e+18,200.70034147135416,-7.734045187632243,-7.20696481068929,5.163537979125977,1.688754999043343e+18,200.70034313964845,-10.269097328186035,-19.03669834136963,10.316056728363035,1.6887549990433416e+18,200.70034147135416,3.8318862120310464,-8.75220807393392,2.209071675936381,1.6887549990433416e+18,200.70034147135416,0.7695883909861246,1.3055208325386047,-1.1439469940960407,1.688754999047672e+18,200.70467228190105,0.7040730913480123,1.7037032047907512,-0.9852238496144612,,,,,,,,,,,,1.6887549990380626e+18,200.6950625,-8.969439697265624,35.731360626220706,-30.917239379882812,1.6887549990380626e+18,200.6950625,-263.49803466796874,129.04916076660157,-162.921240234375,1.6887549990433416e+18,200.70034147135416,-0.5783630013465881,0.2738101581732431,-0.4789468944072723,0.6006380518277487,-0.5224161644776663,1.1026417811711628,1.8587694962819417
5.75,1.688754999095248e+18,200.7522479654948,-4.787198940912883,3.613853295644125,-2.55854860941569,1.6887549990866012e+18,200.7436013183594,1.1182457605997722,-7.424729188283284,-2.6253252029418945,1.688754999095248e+18,200.7522479654948,3.666497071584066,-8.967836697896322,1.5171966950098674,1.688754999095248e+18,200.7522479654948,0.0427096610267956,2.9469667275746665,-1.3805045547584691,1.688754999099571e+18,200.756570719401,0.010282897700866,2.9884037176767984,-1.7017178734143574,,,,,,,,,,,,1.6887549990880668e+18,200.7450666992187,-10.811639976501464,36.49020004272461,-28.58703956604004,1.6887549990880668e+18,200.7450666992187,-265.3402404785156,129.80799560546876,-160.5910400390625,1.688754999095248e+18,200.7522479654948,-0.5986812313397726,0.3339863022168477,-0.4485054314136505,0.572977085908254,-0.3917736113071441,1.1540826956431072,1.8716215292612712
5.8,1.6887549991471585e+18,200.80415804036457,-6.938795566558838,-0.6981862386067709,1.468035340309143,1.688754999138506e+18,200.79550602213544,-3.83569461107254,-9.672786076863607,2.6681965986887612,1.6887549991471585e+18,200.80415804036457,2.2378328243891397,-9.47294775644938,1.054323395093282,1.6887549991471585e+18,200.80415804036457,-0.4278601879874865,4.023107687632243,-4.397618929545085,1.6887549991428326e+18,200.7998326416015,-0.3053562715649605,4.106694221496582,-4.3983060121536255,,,,,,,,,,,,1.6887549991380672e+18,200.79506728515625,-10.728679847717284,37.78827896118164,-27.30115966796875,1.6887549991380672e+18,200.79506728515625,-265.257275390625,131.1060791015625,-159.30515747070314,1.6887549991471585e+18,200.80415804036457,-0.606741706530253,0.4351644118626912,-0.4420440196990967,0.4950492282708486,-0.4606784383455912,1.314299464225769,2.1370663245519004
5.85,1.688754999199061e+18,200.856060953776,-8.984177112579346,-3.108577092488607,-2.654096782207489,1.6887549991904113e+18,200.84741137695315,-9.63270664215088,-12.161919911702476,-0.2626122832298278,1.688754999199061e+18,200.856060953776,0.478626012802124,-9.679706891377768,1.4743599494298298,1.688754999199061e+18,200.856060953776,-1.71515687306722,0.7674504121144613,-2.3485732475916543,1.688754999186087e+18,200.8430869140625,-1.594765543937683,2.15620161468784,-3.29078201452891,,,,,,,,,,,,1.6887549991880696e+18,200.84506948242188,-7.661599826812744,38.45439910888672,-27.286519241333007,1.6887549991880696e+18,200.84506948242188,-262.19019775390626,131.77219848632814,-159.29051818847657,1.688754999199061e+18,200.856060953776,-0.6040916045506796,0.511472761631012,-0.462357223033905,0.3991296490033467,-1.2376314997673037,1.4081446727116902,0.9696582158406576
5.9,1.6887549992423168e+18,200.89931689453124,8.818133354187012,-2.256981372833252,-3.74149751663208,1.688754999242316e+18,200.89931599934897,6.902694861094157,-12.168699582417808,-1.5682958016792934,1.6887549992423168e+18,200.89931689453124,-0.3324498981237411,-9.626815319061278,1.845608830451965,1.6887549992423168e+18,200.89931689453124,-0.0223729461431503,-0.7375434190034866,-2.233857810497284,1.6887549992379884e+18,200.8949881998698,-0.2993748684724171,-0.8272133668263754,-1.9798142115275064,,,,,,,,,,,,1.6887549992380677e+18,200.8950677734375,-2.925559973716736,37.280758666992185,-29.48251953125,1.6887549992380677e+18,200.8950677734375,-257.45415954589845,130.5985565185547,-161.48651733398438,1.6887549992423168e+18,200.89931689453124,-0.5829451382160187,0.5184321999549866,-0.4980494230985641,0.378465324640274,-1.7476800680160522,1.3771613240242004,-2.738305449485779
5.95,1.6887549992855672e+18,200.94256713867188,3.6276466449101767,2.466369311014811,0.1250283320744832,1.6887549992942162e+18,200.95121630859376,1.0462616582711537,-6.001797437667847,1.8943179448445635,1.6887549992855672e+18,200.94256713867188,-1.125017027060191,-9.62314510345459,1.5229530731836955,1.6887549992855672e+18,200.94256713867188,1.287245790163676,3.035287539164225,-1.9923879305521648,1.6887549992898906e+18,200.94689054361984,1.3131057421366374,3.234989643096924,-1.8751017252604167,,,,,,,,,,,,1.6887549992880666e+18,200.94506665039063,-0.7368799716234207,38.45439910888672,-28.22347946166992,1.6887549992880666e+18,200.94506665039063,-255.2654754638672,131.77219848632814,-160.22747802734375,1.6887549992855672e+18,200.94256713867188,-0.5695541501045227,0.5708712736765543,-0.4803389310836791,0.3436734775702159,-2.2065712610880532,1.375311017036438,-2.1864221493403115
6.0,1.688754999337469e+18,200.9944686686198,-0.1814555724461873,5.240302721659343,0.2744605541229248,1.6887549993461266e+18,201.0031265462239,-2.041675885518392,-4.9936215082804365,1.4167504111925762,1.688754999337469e+18,200.9944686686198,-1.590692400932312,-9.588303565979004,1.3246673742930095,1.688754999337469e+18,200.9944686686198,0.2345213492711385,2.349591334660848,-1.0953323046366374,1.6887549993418015e+18,200.99880167643232,0.077630802989006,2.103005349636078,-1.0781262318293254,,,,,,,,,,,,1.688754999338063e+18,200.9950629882813,-2.5717599868774412,39.58899917602539,-26.332479858398436,1.688754999338063e+18,200.9950629882813,-257.1003479003906,132.90679931640625,-158.336474609375,1.688754999337469e+18,200.9944686686198,-0.5774717926979065,0.6266522407531738,-0.4338054955005646,0.2921390732129414,-2.4457571506500244,1.358204960823059,-1.7808879216512044
6.05,1.6887549993893798e+18,201.04638004557293,1.0449659824371338,0.1268723805745442,-2.2479133208592734,1.6887549993980316e+18,201.05503165690104,-0.5375875035921732,-10.229715983072916,-0.8444669892390569,1.6887549993893798e+18,201.04638004557293,-2.121400793393453,-9.431605656941732,1.6528228918711343,1.6887549993893798e+18,201.04638004557293,-0.8891143600145975,-0.5461135245859623,-1.2732977072397869,1.6887549993937047e+18,201.05070483398435,-0.8904888033866882,-0.671289990345637,-1.333722432454427,,,,,,,,,,,,1.6887549993880668e+18,201.04506674804685,-1.202919977903366,39.0326789855957,-27.371919631958008,1.6887549993880668e+18,201.04506674804685,-255.73150939941405,132.35047607421876,-159.37591857910155,1.6887549993893798e+18,201.04638004557293,-0.5685140689214071,0.641069769859314,-0.4438406924406686,0.2620577613512675,-2.478024164835612,1.2930699586868286,-1.72011395295461
6.1,1.6887549994412844e+18,201.09828426106768,6.427462736765544,-2.5768229166666665,-3.221426486968994,1.688754999449933e+18,201.10693318684895,3.2831521034240723,-11.862418174743652,-1.5768701831499736,1.6887549994412844e+18,201.09828426106768,-2.9240349928538003,-9.180752754211426,1.834311803181966,1.6887549994412844e+18,201.09828426106768,-0.4402302205562591,-0.4646139144897461,-1.391398310661316,1.6887549994456082e+18,201.10260799153647,-0.4150320291519165,-0.2715804775555928,-1.2252429475386937,,,,,,,,,,,,1.688754999438066e+18,201.09506591796875,2.859679937362671,37.93955917358399,-28.955479431152344,1.688754999438066e+18,201.09506591796875,-251.66891479492188,131.25735473632812,-160.9594757080078,1.6887549994412844e+18,201.09828426106768,-0.5372805198033651,0.6498632033665975,-0.4760329922040303,0.2496030579010645,-2.5799264113108316,1.2111612558364868,-1.6589688460032146
6.15,1.688754999493191e+18,201.1501907552083,1.9338963429133096,-6.060099283854167,-4.923213164011638,1.68875499949319e+18,201.15019006347657,-1.511366605758667,-15.822539329528809,-2.9494529962539673,1.688754999493191e+18,201.1501907552083,-3.026682138442993,-9.128983497619627,1.9323090712229412,1.688754999493191e+18,201.1501907552083,0.2985094934701919,0.7382815579573313,-0.2141591707865397,1.6887549994975168e+18,201.15451676432292,0.3957897673050563,0.6591745018959045,-0.2459750672181447,,,,,,,,,,,,1.6887549994880666e+18,201.14506650390624,3.5233598709106446,37.44911880493164,-29.15067901611328,1.6887549994880666e+18,201.14506650390624,-251.00523376464844,130.76691589355468,-161.15467834472656,1.688754999493191e+18,201.1501907552083,-0.5387170513470968,0.6577185193697611,-0.4707120458285014,0.2357549120982487,-2.5730197429656982,1.1960687637329102,-1.6353491147359211
6.2,1.6887549995450934e+18,201.2020936686198,1.7516191800435383,-5.600704511006673,-1.478438099225362,1.6887549995364442e+18,201.1934440917969,-0.1433699876070023,-14.378072420756022,-0.354137733578682,1.6887549995450934e+18,201.2020936686198,-2.5776051680246987,-9.312406222025553,1.6416730880737305,1.6887549995450934e+18,201.2020936686198,0.7530441284179688,0.386626789967219,2.288810213406881,1.6887549995494216e+18,201.20642146809897,0.7766133348147074,0.3660100897153218,2.6495261987050376,,,,,,,,,,,,1.688754999538069e+18,201.1950691894531,2.1862399343401195,38.3348388671875,-28.19907913208008,1.688754999538069e+18,201.1950691894531,-252.34235534667968,131.65263977050782,-160.20307312011718,1.6887549995450934e+18,201.2020936686198,-0.5537446737289429,0.6572456161181132,-0.4462748964627583,0.248546615242958,-2.5679595470428467,1.2534369230270386,-1.6154531240463257
6.25,1.688754999597002e+18,201.2540021158854,-1.869801104068756,-2.845005671183268,0.5688437620798746,1.6887549995883456e+18,201.24534537760417,-3.197808106740316,-13.360125859578451,1.356531023979187,1.688754999597002e+18,201.2540021158854,-0.7595755706230799,-9.697614987691244,1.1485295295715332,1.688754999597002e+18,201.2540021158854,1.0572550296783447,-0.8622362911701202,3.961155573527018,1.6887549995926743e+18,201.24967431640624,1.1643092036247251,-0.8984300792217255,4.018653392791748,,,,,,,,,,,,1.688754999588068e+18,201.24506806640625,-3.984519910812378,39.52067947387695,-26.66675987243652,1.688754999588068e+18,201.24506806640625,-258.51311950683595,132.8384765625,-158.670751953125,1.688754999597002e+18,201.2540021158854,-0.6043902635574341,0.6096107562383016,-0.408276359240214,0.3090553879737853,-2.0775051514307656,1.424785812695821,-2.1314364274342856
6.3,1.688754999648901e+18,201.30590120442707,-3.1950249671936035,-6.191010475158691,6.871166070302327,1.6887549996402542e+18,201.29725398763023,-1.6819549302260082,-14.969896952311196,6.582854588826497,1.688754999648901e+18,201.30590120442707,1.0472038090229034,-9.69418462117513,0.96445494890213,1.688754999648901e+18,201.30590120442707,-0.0780380318562189,-0.5110396618644396,3.577939589818319,1.6887549996359258e+18,201.29292569986976,0.1929315974315007,-0.3906483228007952,3.5854735374450684,1.6887549996445842e+18,201.3015842285156,0.0,0.0,2.7135684490203857,5.742000102996826,1.4806251525878906,107.22383880615234,332.79998779296875,-122.9162899,49.2784708,1.6887549996380654e+18,201.29506538085937,-10.487119770050048,39.25471878051758,-25.829839324951173,1.6887549996380654e+18,201.29506538085937,-265.01572265625,132.5725128173828,-157.833837890625,1.688754999648901e+18,201.30590120442707,-0.6492405533790588,0.5480257272720337,-0.381937712430954,0.3628304799397786,-0.8001634478569031,1.421573559443156,2.828782240549723
6.35,1.688754999692159e+18,201.3491591796875,-4.184422731399536,-3.6925902366638184,5.872583866119385,1.688754999692156e+18,201.34915600585936,-1.6737794280052185,-13.684552828470864,7.210172971089681,1.688754999692159e+18,201.3491591796875,2.447070479393006,-9.390309810638428,1.404113471508026,1.688754999692159e+18,201.3491591796875,-0.8746826350688934,-3.498043417930603,3.7314703464508057,1.6887549996878344e+18,201.34483447265623,-0.7590000629425049,-3.0597222248713174,3.707493940989176,,,,,,,,,,,,1.6887549996880684e+18,201.34506826171872,-15.657479667663576,36.424319458007815,-27.013239288330077,1.6887549996880684e+18,201.34506826171872,-270.1860717773437,129.74211730957032,-159.01723937988282,1.688754999692159e+18,201.3491591796875,-0.6775322258472443,0.4725849479436874,-0.3892068117856979,0.4069209545850754,-0.5204234719276428,1.2787880897521973,2.450971841812134
6.4,1.6887549997354094e+18,201.39240942382813,0.8787404696146649,-2.5800244013468423,-2.923929293950399,1.6887549997440635e+18,201.4010637207031,3.4197423458099365,-10.342975934346518,-1.694916029771169,1.6887549997354094e+18,201.39240942382813,3.622893095016479,-8.90496857961019,1.8991278012593584,1.6887549997354094e+18,201.39240942382813,0.0263181092838445,-0.9084074844916662,3.2762739658355713,1.6887549997397358e+18,201.39673592122395,0.2036726375420887,-0.4645120898882548,3.237076759338379,,,,,,,,,,,,1.6887549997380636e+18,201.39506362304687,-18.090159606933593,32.839959716796876,-29.899759674072264,1.6887549997380636e+18,201.39506362304687,-272.6187438964844,126.15775604248049,-161.90375366210938,1.6887549997354094e+18,201.39240942382813,-0.6929577191670736,0.3957889676094055,-0.3978539705276489,0.4520006080468495,-0.4879527886708577,1.139386733373006,2.3039495944976807
6.45,1.688754999787311e+18,201.44431111653648,-10.906861623128256,5.750223954518636,-3.366079807281494,1.6887549997959662e+18,201.45296638997397,-5.999803384145101,-1.5052847862243652,-1.1906286577383678,1.688754999787311e+18,201.44431111653648,4.744681358337402,-8.394136428833008,1.7837505340576172,1.688754999787311e+18,201.44431111653648,0.3741040577491124,-2.154012699921926,2.436588684717814,1.6887549997916408e+18,201.44864086914063,0.2529491086800893,-2.465044915676117,2.4228951930999756,,,,,,,,,,,,1.6887549997880663e+18,201.44506630859377,-21.842879867553712,31.36131896972656,-29.560599517822265,1.6887549997880663e+18,201.44506630859377,-276.37147827148436,124.67911834716796,-161.5645965576172,1.688754999787311e+18,201.44431111653648,-0.7037415305773417,0.3450551629066467,-0.3723504543304443,0.4963833192984263,-0.359222412109375,1.0273280143737793,2.117107391357422
6.5,1.688754999839223e+18,201.49622306315104,-6.823875268300374,9.430481592814129,-0.7191991011301676,1.6887549998478702e+18,201.50487019856772,-0.4771686991055806,1.6265211900075276,2.4243281284968057,1.688754999839223e+18,201.49622306315104,5.337869008382161,-7.801610628763835,2.6082573731740317,1.688754999839223e+18,201.49622306315104,-0.0943277751406033,-2.478127638498942,1.9555832544962568,1.6887549998435492e+18,201.50054931640625,-0.0208203233778476,-2.336814045906067,1.7786869009335835,,,,,,,,,,,,1.6887549998380634e+18,201.49506337890625,-20.33983955383301,28.496759796142577,-32.85459899902344,1.6887549998380634e+18,201.49506337890625,-274.8684387207031,121.81455841064454,-164.8585998535156,1.688754999839223e+18,201.49622306315104,-0.6941676735877991,0.264733001589775,-0.3968320290247599,0.5386214852333069,-0.4540834824244181,0.9197476506233216,2.049480676651001
6.55,1.68875499989112e+18,201.5481201171875,-1.735878864924113,6.643875281016032,-0.3022260665893554,1.6887549998997678e+18,201.55676774088545,4.61276388168335,-1.8396818439165752,2.8939195473988852,1.68875499989112e+18,201.5481201171875,5.21318515141805,-7.777119159698486,2.9185030460357666,1.68875499989112e+18,201.5481201171875,1.0447831749916077,-1.0460049112637837,-1.0591385426620643,1.6887549998954414e+18,201.55244132486985,1.1578442056973774,-0.9008225997289022,-1.329191893339157,,,,,,,,,,,,1.688754999888061e+18,201.54506069335935,-17.731479263305665,28.872519302368165,-33.759839630126955,1.688754999888061e+18,201.54506069335935,-272.2600830078125,122.19031677246092,-165.76383361816406,1.68875499989112e+18,201.5481201171875,-0.6724978486696879,0.2393375982840855,-0.4206058482329051,0.5597869356473287,-0.510664145151774,0.9156694213549296,2.00908641020457
6.6,1.6887549999430226e+18,201.6000225423177,3.044351100921631,3.4119494756062827,1.2229399681091309,1.688754999943021e+18,201.60002111816408,6.390032768249512,-4.395914316177368,3.2321051359176636,1.6887549999430226e+18,201.6000225423177,4.109327634175618,-8.566730499267578,2.3991201718648276,1.6887549999430226e+18,201.6000225423177,1.3391184409459431,-0.2474004197865724,-3.043177922566732,1.6887549999473492e+18,201.6043495279948,1.1797335147857666,-0.284765027463436,-2.9631545543670654,,,,,,,,,,,,1.6887549999380598e+18,201.59505981445312,-13.224799537658692,32.69843940734863,-32.28363876342773,1.6887549999380598e+18,201.59505981445312,-267.7533874511719,126.0162368774414,-164.28763732910156,1.6887549999430226e+18,201.6000225423177,-0.6303805112838745,0.2918941676616668,-0.4527398447195689,0.5584909121195475,-0.5298398733139038,1.0636762777964277,2.008700648943583
