seconds_elapsed_rounded,accelerometer_time,accelerometer_seconds_elapsed,accelerometer_z,accelerometer_y,accelerometer_x,accelerometeruncalibrated_time,accelerometeruncalibrated_seconds_elapsed,accelerometeruncalibrated_z,accelerometeruncalibrated_y,accelerometeruncalibrated_x,gravity_time,gravity_seconds_elapsed,gravity_z,gravity_y,gravity_x,gyroscope_time,gyroscope_seconds_elapsed,gyroscope_z,gyroscope_y,gyroscope_x,gyroscopeuncalibrated_time,gyroscopeuncalibrated_seconds_elapsed,gyroscopeuncalibrated_z,gyroscopeuncalibrated_y,gyroscopeuncalibrated_x,location_time,location_seconds_elapsed,location_bearingAccuracy,location_speedAccuracy,location_verticalAccuracy,location_horizontalAccuracy,location_speed,location_bearing,location_altitude,location_longitude,location_latitude,magnetometer_time,magnetometer_seconds_elapsed,magnetometer_z,magnetometer_y,magnetometer_x,magnetometeruncalibrated_time,magnetometeruncalibrated_seconds_elapsed,magnetometeruncalibrated_z,magnetometeruncalibrated_y,magnetometeruncalibrated_x,orientation_time,orientation_seconds_elapsed,orientation_qz,orientation_qy,orientation_qx,orientation_qw,orientation_roll,orientation_pitch,orientation_yaw
0.0,1.688754903339107e+18,104.99610709635418,4.577776749928792,1.9478872617085776,-1.7887620131174724,1.688754903339107e+18,104.99610709635418,3.44327175617218,-7.664809385935466,-0.0434696140388647,1.688754903339107e+18,104.99610709635418,-1.140351136525472,-9.595191955566406,1.682604988416036,1.6887549033477632e+18,105.00476310221354,0.8738936384518942,2.5283203522364297,-1.8172222773234048,1.6887549033434383e+18,105.0004384765625,0.9249263405799866,2.5988497734069824,-1.819691240787506,,,,,,,,,,,,1.6887549033380626e+18,104.9950627441406,-11.577799606323245,47.62147903442383,-2.971919918060302,1.6887549033380626e+18,104.9950627441406,-266.106396484375,140.93927612304688,-134.97591552734374,1.688754903339107e+18,104.99610709635418,0.644832988580068,-0.7444472710291544,-0.0551346118251482,0.1624905616044998,-2.1620709896087646,1.3619471788406372,-0.6687497496604919
0.05,1.688754903391015e+18,105.04801489257812,1.1680133938789368,2.8535351753234863,-1.517883817354838,1.688754903391015e+18,105.04801489257812,-0.5138586610555649,-6.70129919052124,0.0967099120219548,1.688754903391015e+18,105.04801489257812,-1.6877180735270183,-9.53732967376709,1.5519063472747805,1.6887549033996626e+18,105.05666251627603,0.1190678204099337,1.618080218633016,-1.2876021067301433,1.6887549033866916e+18,105.04369156901042,0.3511966218551,2.1764110724131265,-1.4010703563690186,,,,,,,,,,,,1.6887549033880655e+18,105.045065625,-7.734799671173096,48.360799407958986,-0.4489599913358688,1.6887549033880655e+18,105.045065625,-262.2633972167969,141.67859802246093,-132.4529602050781,1.688754903391015e+18,105.04801489257812,0.612339198589325,-0.7562935551007589,-0.1161995405952135,0.1982817451159159,-2.395203193028768,1.3356244166692095,-0.2946581691503524
0.1,1.688754903442918e+18,105.09991813151042,1.238930861155192,-0.02843443552653,-2.088140845298767,1.688754903442918e+18,105.09991813151042,-0.9684949715932212,-9.445467948913574,-0.307278315226237,1.688754903442918e+18,105.09991813151042,-2.2132718563079834,-9.399528821309408,1.7181750535964966,1.6887549034429164e+18,105.09991625976562,-0.4836525619029999,0.6063601076602936,-1.2760211229324343,1.6887549034385943e+18,105.09559448242187,-0.4058181345462799,0.5938119292259216,-1.2742140293121338,,,,,,,,,,,,1.6887549034380634e+18,105.0950634765625,-3.986959886550903,48.75851898193359,-0.2464399982243776,1.6887549034380634e+18,105.0950634765625,-258.51555786132815,142.076318359375,-132.250439453125,1.688754903442918e+18,105.09991813151042,0.5839972098668417,-0.7708624998728434,-0.1348425398270288,0.2154720723628997,-2.480074723561605,1.2819154659907024,-0.155467336376508
0.15,1.688754903494826e+18,105.1518260091146,5.440109173456828,-2.157501220703125,-2.689299782117208,1.688754903494826e+18,105.1518260091146,2.545763886223237,-11.356735229492188,-0.7561319669087728,1.688754903494826e+18,105.1518260091146,-2.900191307067871,-9.181729316711426,1.8704804182052612,1.6887549034861752e+18,105.14317529296876,-0.5148575901985168,-0.7824165523052214,-1.3525574604670207,1.6887549034905016e+18,105.14750170898436,-0.529263824224472,-0.7340564032395679,-1.2139928936958313,,,,,,,,,,,,1.688754903488069e+18,105.1450689453125,-0.8710799813270569,48.82927932739258,-1.3151599407196044,1.688754903488069e+18,105.1450689453125,-255.39967651367184,142.14707946777344,-133.31915588378905,1.688754903494826e+18,105.1518260091146,0.5557827949523926,-0.7945596774419149,-0.1270523592829703,0.2087049434582391,-2.5681187311808267,1.21196182568868,-0.0860789095362027
0.2,1.6887549035467333e+18,105.20373323567708,2.4525768756866455,-6.393922487894694,-5.23500124613444,1.6887549035467333e+18,105.20373323567708,-0.4243271946907043,-15.575081825256348,-3.1852457523345947,1.6887549035467333e+18,105.20373323567708,-2.8827501138051352,-9.163654963175455,1.9870680967966716,1.6887549035380805e+18,105.19508048502604,0.0190386374791463,0.6224207679430643,0.125634620587031,1.6887549035424018e+18,105.19940177408854,0.1700241615374882,0.6414594252904257,0.0733038286368052,,,,,,,,,,,,1.6887549035380677e+18,105.19506748046874,0.3318399876356125,48.68531951904297,-2.396079969406128,1.6887549035380677e+18,105.19506748046874,-254.1967529296875,142.00311584472655,-134.40007934570312,1.6887549035467333e+18,105.20373323567708,0.5535964568456014,-0.793952206770579,-0.1276436025897661,0.2164077957471211,-2.538028081258138,1.2063569227854412,-0.1036166300376255
0.25,1.68875490359863e+18,105.25563028971357,1.73909858862559,-3.903987884521485,-0.04482368628184,1.68875490359863e+18,105.25563028971357,-0.4253242214520771,-13.334004084269203,1.6494524578253429,1.68875490359863e+18,105.25563028971357,-2.1702688137690225,-9.412511507670084,1.6315887371699016,1.688754903589985e+18,105.24698502604166,1.0728830099105835,0.9798278411229452,2.0918571750322976,1.6887549035943114e+18,105.25131127929689,1.0579167604446411,0.9999864101409912,2.483930865923564,,,,,,,,,,,,1.6887549035880645e+18,105.24506425781252,-0.219599974155426,48.856118774414064,-0.919879961013794,1.6887549035880645e+18,105.24506425781252,-254.7481964111328,142.17391662597657,-132.923876953125,1.68875490359863e+18,105.25563028971357,0.5819424589474996,-0.7659987608591715,-0.1528235773245493,0.2247504790623982,-2.4829468727111816,1.289555033047994,-0.1124639908472696
0.3,1.6887549036505464e+18,105.30754638671874,-2.493101755777994,-2.8574231465657554,0.9210888147354126,1.6887549036505464e+18,105.30754638671874,-2.791626493136088,-12.60499095916748,2.0995024840037027,1.6887549036505464e+18,105.30754638671874,-0.3043707758188247,-9.730063120524088,1.1157262523969014,1.6887549036418906e+18,105.29889046223958,1.10194996992747,-0.7158831357955933,3.761911869049072,1.688754903646217e+18,105.3032168782552,1.0627019206682842,-0.9221519827842712,3.6957856814066568,1.68875490362025e+18,105.27725,0.0,0.0,2.489525556564331,4.619999885559082,1.1315131187438965,177.2098388671875,333.1999816894531,-122.9158662,49.2790471,1.6887549036380616e+18,105.29506137695311,-10.01375961303711,47.802039337158206,2.1374399185180666,1.6887549036380616e+18,105.29506137695311,-264.5423522949219,141.11983642578124,-129.8665557861328,1.6887549036505464e+18,105.30754638671874,0.6597986618677775,-0.7018923163414001,-0.1496002028385798,0.2211007922887801,-1.7687571843465169,1.4457520643870037,-0.8412302931149801
0.35,1.6887549036937928e+18,105.35079260253906,-2.3899974822998047,-7.713562965393066,5.080456018447876,1.6887549036937928e+18,105.35079260253906,-1.3417752981185913,-17.433208465576172,6.110670804977417,1.6887549036937928e+18,105.35079260253906,1.042376160621643,-9.702141761779783,0.9675274193286896,1.6887549036937956e+18,105.35079557291664,-0.0092647870381673,-0.5374087194601694,3.3924400806427,1.688754903698119e+18,105.35511889648436,-0.0862847218910853,-0.4168137212594351,3.439833084742228,,,,,,,,,,,,1.688754903688062e+18,105.34506186523438,-18.307319259643556,45.576758575439456,2.669359874725342,1.688754903688062e+18,105.34506186523438,-272.8359130859375,138.8945556640625,-129.3346405029297,1.6887549036937928e+18,105.35079260253906,0.713773101568222,-0.6566827893257141,-0.1236360408365725,0.2092669084668159,-0.7643360197544098,1.4239588975906372,-1.9006628394126892
0.4,1.68875490373705e+18,105.3940498046875,-3.2961540619532266,-5.5123335520426435,4.811555782953898,1.68875490373705e+18,105.3940498046875,-0.8520442644755045,-14.946368217468262,6.07059121131897,1.68875490373705e+18,105.3940498046875,2.4382638136545816,-9.41653029123942,1.1963479121526082,1.6887549037457006e+18,105.40270068359376,-0.1982257751127083,-2.2890647451082864,3.2673654556274414,1.6887549037500234e+18,105.40702360026042,-0.1626428725818793,-2.393420934677124,3.203326384226481,,,,,,,,,,,,1.688754903738065e+18,105.39506484375,-26.405679321289064,42.0216796875,1.1760799527168273,1.688754903738065e+18,105.39506484375,-280.9342834472656,135.3394744873047,-130.82792053222656,1.68875490373705e+18,105.3940498046875,0.761396070321401,-0.6058390339215597,-0.0885218282540638,0.2110576132933298,-0.4580166141192118,1.2895259857177734,-2.252281427383423
0.45,1.6887549037889546e+18,105.44595467122394,-3.120652119318644,-1.399129867553711,-1.361560583114624,1.6887549037889546e+18,105.44595467122394,0.5716850757598877,-10.401201248168944,0.0426720182100931,1.6887549037889546e+18,105.44595467122394,3.6864911715189614,-8.984566688537598,1.3415451844533284,1.688754903797601e+18,105.45460083007812,1.0606147646903992,-0.6167702749371529,2.457052787144979,1.6887549037932813e+18,105.45028137207032,1.0519099533557892,-0.1376737616956234,2.536159873008728,,,,,,,,,,,,1.6887549037880591e+18,105.44505922851565,-32.700879669189455,38.251879119873045,-0.9784399539232254,1.6887549037880591e+18,105.44505922851565,-287.22947387695314,131.56967468261718,-132.98243713378906,1.6887549037889546e+18,105.44595467122394,0.8089977900187174,-0.5566556652386984,-0.0417616839210191,0.1831646213928858,-0.3515488505363464,1.1579620838165283,-2.463593324025472
0.5,1.6887549038408591e+18,105.49785913085935,-11.202542304992676,8.773297309875488,-3.396923542022705,1.6887549038408591e+18,105.49785913085935,-6.557729731003442,0.2235295176506042,-2.010967969894409,1.6887549038408591e+18,105.49785913085935,4.6389665603637695,-8.5322634379069,1.3232682545979817,1.688754903849511e+18,105.50651090494792,0.1082249601992468,-3.090621789296468,3.049133857091268,1.688754903836535e+18,105.4935352376302,0.5815945913394293,-2.9873855908711753,2.754493157068888,,,,,,,,,,,,1.6887549038380626e+18,105.49506245117188,-37.07579879760742,34.25515861511231,-1.7323999524116516,1.6887549038380626e+18,105.49506245117188,-291.60438842773436,127.57295989990234,-133.73639831542968,1.6887549038408591e+18,105.49785913085935,0.8470232884089152,-0.5122739374637604,-0.004448866394038,0.1379063079754511,-0.2755053391059239,1.0553574562072754,-2.6576760609944663
0.55,1.6887549038927626e+18,105.54976245117189,-5.271612326304118,9.813771883646648,0.2318625450134277,1.6887549038927626e+18,105.54976245117189,0.2342972159385681,1.945564230283101,2.3680967589219413,1.6887549038927626e+18,105.54976245117189,5.500063419342041,-7.850703080495198,2.073546806971232,1.6887549038927652e+18,105.54976513671876,-0.1535562500357628,-2.1680370569229126,1.3822353184223175,1.6887549038884406e+18,105.54544051106772,-0.2153299997250239,-2.070935010910034,1.7216728031635284,,,,,,,,,,,,1.6887549038880635e+18,105.5450634277344,-40.76751937866211,29.443479537963867,-6.612399864196777,1.6887549038880635e+18,105.5450634277344,-295.2961120605469,122.76127777099607,-138.61639404296875,1.6887549038927626e+18,105.54976245117189,0.8768107493718466,-0.4638017515341441,0.0628530631462732,0.1087803492943445,-0.3593743542830149,0.9271673560142516,-2.7138091723124185
0.6,1.68875490394467e+18,105.6016700032552,-0.419906218846639,6.781638304392497,0.7780847152074178,1.68875490394467e+18,105.6016700032552,4.618745883305867,-1.36031969388326,3.019941488901774,1.68875490394467e+18,105.6016700032552,5.0328060785929365,-8.124453703562418,2.1791693766911826,1.6887549039360143e+18,105.59301424153648,1.1004228393236797,-0.747037281592687,-1.7418313423792522,1.6887549039403471e+18,105.59734749348958,1.233693261941274,-0.6003787393371264,-1.993609607219696,,,,,,,,,,,,1.688754903938066e+18,105.5950658203125,-39.94035949707031,30.09739875793457,-9.14512004852295,1.688754903938066e+18,105.5950658203125,-294.4689514160156,123.41519775390626,-141.14911804199218,1.68875490394467e+18,105.6016700032552,0.8659935593605042,-0.4859460989634196,0.0822851831714312,0.0820813799897828,-0.407926470041275,0.9763769706090292,-2.7339362303415933
0.65,1.6887549039965775e+18,105.65357755533854,7.098685582478841,-2.9397994677225743,-0.4732318719228108,1.6887549039965775e+18,105.65357755533854,10.891929308573404,-11.863016287485758,1.1643076340357463,1.6887549039965775e+18,105.65357755533854,3.787397623062134,-8.905712445576986,1.5748521089553833,1.6887549039879242e+18,105.64492439778644,1.414560278256734,-0.2538145159681638,-2.9401453336079917,1.6887549039922473e+18,105.64924731445312,1.2281445761521657,-0.2511165266235669,-2.629316727320353,,,,,,,,,,,,1.6887549039880678e+18,105.64506777343748,-34.830999755859374,35.36047897338867,-7.29315996170044,1.6887549039880678e+18,105.64506777343748,-289.3595886230469,128.67827758789062,-139.29715576171876,1.6887549039965775e+18,105.65357755533854,0.8310259381930033,-0.5500708619753519,0.0630223502715428,0.0508141294121741,-0.393780380487442,1.1386756499608357,-2.7654759883880615
0.7,1.6887549040484805e+18,105.70548046875,9.16300137837728,-11.194905122121176,1.3785871664683025,1.6887549040484805e+18,105.70548046875,13.186446825663248,-19.91566260655721,3.5080774625142417,1.6887549040484805e+18,105.70548046875,4.01759950319926,-8.703253110249838,2.066802899042765,1.6887549040398234e+18,105.6968234049479,-0.2785545488198598,-3.3129767974217734,2.14846400419871,1.688754904044156e+18,105.7011560058594,-0.2099849283695221,-3.504228353500366,2.157066980997721,,,,,,,,,,,,1.6887549040380623e+18,105.69506225585936,-32.634999465942386,36.37063980102539,-8.976759815216065,1.6887549040380623e+18,105.69506225585936,-287.16359252929686,129.68843688964844,-140.9807586669922,1.6887549040484805e+18,105.70548046875,0.2765669425328572,-0.1853246291478475,0.0212437858184178,0.0183608657680451,-0.4734905262788136,1.0913633902867634,-2.8126527468363443
0.75,1.6887549041003858e+18,105.7573856608073,-12.644019603729248,-3.716227849324544,7.989724198977153,1.6887549041003858e+18,105.7573856608073,-8.686145623524984,-12.452448527018229,10.191829204559326,1.6887549041003858e+18,105.7573856608073,3.9520280361175537,-8.718716303507486,2.139417370160421,1.688754904091731e+18,105.74873103841146,0.4796819388866424,0.4831434885660808,-0.4323907891909282,1.6887549040960602e+18,105.75306013997395,0.468584547440211,0.6854416926701864,-0.4850778977076213,,,,,,,,,,,,1.6887549040880627e+18,105.745062890625,-33.3377197265625,35.133558654785155,-13.039359855651856,1.6887549040880627e+18,105.745062890625,-287.86632080078124,128.45135650634765,-145.043359375,1.6887549041003858e+18,105.7573856608073,-0.8376257419586182,0.5297197500864664,-0.1327819501360257,0.004060557616564,-0.4954689045747121,1.0942655007044475,-2.8456414540608725
0.8,1.688754904143634e+18,105.80063403320312,0.8709858655929565,4.730010032653809,-7.046664237976074,1.688754904143634e+18,105.80063403320312,4.389034867286682,-4.252644062042236,-5.122435092926025,1.688754904143634e+18,105.80063403320312,3.5122029781341553,-8.965149402618408,1.8615418672561648,1.6887549041436396e+18,105.8006396484375,0.6081163287162781,0.543873647848765,-2.1825706164042153,1.688754904147966e+18,105.80496606445313,0.6242533723513285,1.0257445573806765,-2.440203070640564,1.6887549041393162e+18,105.79631616210938,0.0,0.0,2.5710158348083496,4.684999942779541,1.1398382186889648,179.88427734375,333.1999816894531,-122.9158715,49.2790385,1.688754904138061e+18,105.79506088867188,-32.944879150390626,36.37063903808594,-11.170319938659668,1.688754904138061e+18,105.79506088867188,-287.4734680175781,129.68843994140624,-143.17431640625,1.688754904143634e+18,105.80063403320312,-0.8240604102611542,0.5526363253593445,-0.1232802122831344,0.0121050858870148,-0.4873735308647156,1.1529062390327454,-2.850288510322571
0.85,1.688754904186894e+18,105.84389404296876,-6.750232537587483,0.8006569544474283,-0.2979775269826253,1.688754904186894e+18,105.84389404296876,-4.392025907834371,-8.648857434590658,0.9655039409796397,1.688754904186894e+18,105.84389404296876,2.3523608446121216,-9.43200969696045,1.2007940610249836,1.688754904195539e+18,105.8525391438802,-0.3017165114482243,5.736737410227458,-4.347782532374064,1.6887549041998674e+18,105.85686735026042,-0.4649193435907364,5.62917423248291,-4.4737733999888105,,,,,,,,,,,,1.6887549041880635e+18,105.84506357421876,-28.15515899658203,40.57963943481445,-6.446479845046997,1.6887549041880635e+18,105.84506357421876,-282.6837524414062,133.8974395751953,-138.45047607421876,1.688754904186894e+18,105.84389404296876,0.7856550415356954,-0.6133538087209066,0.0428507466761705,0.0428654365241527,-0.4753364026546478,1.2970874706904094,-2.666579087575277
0.9,1.688754904238798e+18,105.89579809570311,-9.317671140034994,-1.0227807362874348,-1.3100130160649617,1.688754904238798e+18,105.89579809570311,-8.889136791229248,-10.72562821706136,0.1752742702762285,1.688754904238798e+18,105.89579809570311,0.4226887117450436,-9.685342788696287,1.4225998719533284,1.6887549042474488e+18,105.9044488932292,-1.9932023684183755,1.7658587098121643,-2.6730953057607016,1.68875490424312e+18,105.90012036132812,-2.126803755760193,2.4320072531700134,-3.0582205057144165,,,,,,,,,,,,1.68875490423806e+18,105.8950598144531,-18.458599662780763,45.64995803833008,-3.1573598861694334,1.68875490423806e+18,105.8950598144531,-272.9871887207031,138.96775817871094,-135.1613555908203,1.688754904238798e+18,105.89579809570311,0.7086908022562662,-0.6904837886492411,-0.0324076128502686,0.1375822772582371,-1.25327734152476,1.4119006792704265,-1.646499752998352
0.95,1.6887549042906985e+18,105.94769873046876,5.489733616511027,-1.8476575215657551,-2.877766211827596,1.6887549042906985e+18,105.94769873046876,5.001996537049611,-11.453644434611002,-0.8199405521154404,1.6887549042906985e+18,105.94769873046876,-0.4935829788446426,-9.588482220967611,1.9951382080713909,1.688754904299355e+18,105.95635489908857,0.3416264057159424,-0.7427103519439697,-1.8239417870839436,1.6887549042863798e+18,105.94337972005208,-0.3980296353499095,-1.2533427476882937,-1.4424055616060891,,,,,,,,,,,,1.6887549042880635e+18,105.94506372070312,-14.127599716186523,46.83579864501953,-6.126839828491211,1.6887549042880635e+18,105.94506372070312,-268.656201171875,140.15360107421876,-138.1308349609375,1.6887549042906985e+18,105.94769873046876,0.6720156669616699,-0.7241852879524231,-0.013885946633915,0.1533227612574895,-1.808984438578288,1.358251969019572,-1.094226956367493
1.0,1.6887549043426048e+18,105.99960481770832,3.102660338083903,2.4869739214579263,-0.5368596712748209,1.6887549043426048e+18,105.99960481770832,1.8604195912679036,-7.12423054377238,1.1463614702224731,1.6887549043426048e+18,105.99960481770832,-1.2480867703755696,-9.59369977315267,1.6205337444941204,1.6887549043426038e+18,105.99960388183592,1.127275466918945,3.191312789916992,-1.3017538487911224,1.6887549043382843e+18,105.99528474934895,1.12450110912323,2.7212520043055215,-1.5278248985608418,,,,,,,,,,,,1.6887549043380636e+18,105.99506347656248,-9.711199760437012,47.81179962158203,-4.008920001983642,1.6887549043380636e+18,105.99506347656248,-264.23980102539065,141.12959899902344,-136.0129150390625,1.6887549043426048e+18,105.99960481770832,0.6405972043673197,-0.7477789918581644,-0.0602649996678034,0.1617801189422607,-2.2258854707082114,1.3609999020894368,-0.598539004723231
1.05,1.6887549043945144e+18,106.05151432291666,0.1318501631418864,2.623985290527344,-1.0542205373446147,1.6887549043945144e+18,106.05151432291666,-1.3429717222849529,-6.982256571451823,0.4526422868172328,1.6887549043945144e+18,106.05151432291666,-1.4806679089864094,-9.58873716990153,1.444175402323405,1.6887549043858634e+18,106.04286344401042,0.4238895649711291,1.8463910818099976,-0.8200356761614481,1.6887549043901862e+18,106.04718611653648,0.314341073234876,1.6680693626403809,-0.8683449427286783,,,,,,,,,,,,1.6887549043880617e+18,106.04506176757812,-7.283399868011474,48.53403854370117,-1.2761199831962586,1.6887549043880617e+18,106.04506176757812,-261.81199340820314,141.85183715820312,-133.28011779785157,1.6887549043945144e+18,106.05151432291666,0.6221073865890503,-0.7494224905967712,-0.116048681239287,0.1942951530218124,-2.366098403930664,1.358867923418681,-0.330428272485733
1.1,1.6887549044464177e+18,106.10341739908854,0.1465978622436524,-0.4645833969116209,-0.6443866888682047,1.6887549044464177e+18,106.10341739908854,-1.9238294561704,-9.929017702738443,1.0396814346313477,1.6887549044464177e+18,106.10341739908854,-2.0762733618418374,-9.446929613749186,1.6213807264963789,1.6887549044377684e+18,106.09476863606773,-0.4614068766434987,0.0008144882546427,-1.3555099964141846,1.6887549044420943e+18,106.09909423828124,-0.469195415576299,-0.1973094890515009,-1.4129313230514526,,,,,,,,,,,,1.688754904438064e+18,106.09506411132811,-4.936119890213012,48.91467895507813,-1.4054399847984314,1.688754904438064e+18,106.09506411132811,-259.46470947265624,142.23247680664062,-133.40943908691406,1.6887549044464177e+18,106.10341739908854,0.5942732890446981,-0.7682384848594666,-0.1235763480265934,0.2030492424964904,-2.4751869837443032,1.299309174219767,-0.195851594209671
1.15,1.6887549044983242e+18,106.1553241373698,6.496297359466553,-2.852301915486654,-4.182353059450786,1.6887549044983242e+18,106.1553241373698,3.7415770093599954,-12.121840159098308,-2.387039966881275,1.6887549044983242e+18,106.1553241373698,-2.760566473007202,-9.252033551534018,1.732625683148702,1.68875490448967e+18,106.1466700846354,-0.5458080967267355,-0.7140505909919739,-1.0244718889395397,1.6887549044940004e+18,106.15100040690103,-0.5603670477867126,-0.4716388583183288,-0.7886270682017008,,,,,,,,,,,,1.6887549044880658e+18,106.14506591796876,-0.590479987859726,48.84635848999024,-2.613240003585815,1.6887549044880658e+18,106.14506591796876,-255.11907348632812,142.16415710449218,-134.61723937988282,1.6887549044983242e+18,106.1553241373698,0.5693025390307108,-0.7930633227030436,-0.1071867669622103,0.1881825079520543,-2.580833991368612,1.232532540957133,-0.1337575366099675
1.2,1.6887549045502272e+18,106.20722721354169,0.5190693537394206,-7.030529975891113,-5.5126627286275225,1.6887549045502272e+18,106.20722721354169,-2.015753666559855,-16.357734044392902,-3.692922989527384,1.6887549045502272e+18,106.20722721354169,-2.540669043858846,-9.309700012207031,1.7570523420969646,1.688754904541582e+18,106.1985818684896,0.4204280277093251,0.4809036453564961,0.2949460943539937,1.688754904545905e+18,106.20290502929689,0.5812892019748688,0.3318016280730565,0.2268346187969049,,,,,,,,,,,,1.6887549045380657e+18,106.195065625,-0.7246799886226654,48.68531951904297,-3.686839914321899,1.6887549045380657e+18,106.195065625,-255.2532745361328,142.00311584472655,-135.69083557128906,1.6887549045502272e+18,106.20722721354169,0.575502355893453,-0.7847994168599447,-0.1155042871832847,0.1987027873595555,-2.537358601888021,1.2506449619928997,-0.1502302438020706
1.25,1.688754904593477e+18,106.25047729492186,5.295624732971191,-2.911454200744629,0.498234748840332,1.688754904593477e+18,106.25047729492186,3.220440149307251,-12.42622709274292,1.8352949619293213,1.688754904593477e+18,106.25047729492186,-2.081030547618866,-9.497268199920654,1.2743728160858154,1.6887549045934892e+18,106.25048933919273,0.8832602302233378,-0.1107702453931172,2.4855597813924155,1.688754904597814e+18,106.25481404622396,0.8382598360379537,0.0358374317487081,2.8305458625157676,,,,,,,,,,,,1.688754904588066e+18,106.24506611328124,-2.447319984436035,48.692639923095705,-1.573799967765808,1.688754904588066e+18,106.24506611328124,-256.9759155273438,142.01043395996095,-133.57779846191406,1.688754904593477e+18,106.25047729492186,0.6008513271808624,-0.7683559954166412,-0.1242088750004768,0.1815419569611548,-2.5875996351242065,1.3195236921310425,-0.1145860590040682
1.3,1.6887549046367378e+18,106.29373787434896,-3.1397482554117837,-3.76849619547526,1.1742764910062151,1.6887549046367378e+18,106.29373787434896,-3.5962130626042685,-13.52124277750651,2.2249262730280557,1.6887549046367378e+18,106.29373787434896,-0.4623107314109802,-9.735242207845053,0.9879623452822368,1.6887549046453809e+18,106.30238061523438,0.8448775410652161,0.0558941510195533,3.6798013051350913,1.688754904649715e+18,106.30671508789062,0.8343401153882345,-0.1301143070062001,3.6381097634633384,1.6887549046583642e+18,106.3153642578125,0.0,0.0,2.5710158348083496,4.757999897003174,1.1453886032104492,181.1604156494141,333.1999816894531,-122.9158743,49.2790336,1.6887549046380664e+18,106.29506650390624,-10.999519729614258,47.73371963500976,0.1683600038290023,1.6887549046380664e+18,106.29506650390624,-265.5281127929687,141.051513671875,-131.83563232421875,1.6887549046367378e+18,106.29373787434896,0.6634441812833151,-0.7117971976598104,-0.1280129750569661,0.1899720082680384,-1.906876802444458,1.4514200290044148,-0.7802625596523285
1.35,1.6887549046886408e+18,106.345640625,-3.9242917696634927,-6.613721211751302,3.683523178100586,1.6887549046886408e+18,106.345640625,-2.6155545314153037,-16.313666661580402,4.486542463302612,1.6887549046886408e+18,106.345640625,1.3028912742932637,-9.682441393534342,0.7403318683306376,1.6887549046972936e+18,106.35429361979168,-0.1210022171338399,-1.0784316857655842,3.6347500483194985,1.6887549046929595e+18,106.34995947265624,0.0565813928842544,-1.0336603224277496,3.6786304712295537,,,,,,,,,,,,1.6887549046880635e+18,106.3450634765625,-19.839639282226564,45.31324005126953,1.4444799900054932,1.6887549046880635e+18,106.3450634765625,-274.36823120117185,138.63103942871095,-130.55951538085938,1.6887549046886408e+18,106.345640625,0.7306332588195801,-0.6489413579305013,-0.1088546141982078,0.1802488565444946,-0.5606089532375336,1.414990743001302,-2.167871673901876
1.4,1.6887549047405478e+18,106.39754801432292,-3.114781697591146,-4.701852162679036,5.037916461626689,1.6887549047405478e+18,106.39754801432292,-0.1653041243553161,-13.987444241841636,6.313462575276692,1.6887549047405478e+18,106.39754801432292,2.9436314900716147,-9.26808738708496,1.212858458360036,1.6887549047492014e+18,106.40620141601562,-0.2381865382194519,-2.32892374197642,3.3674965699513755,1.6887549047362235e+18,106.3932235514323,-0.5528839627901713,-2.261474092801412,3.4589227040608725,,,,,,,,,,,,1.6887549047380646e+18,106.39506450195312,-28.20884017944336,41.20183944702149,-1.373719996586442,1.6887549047380646e+18,106.39506450195312,-282.7374328613281,134.51963806152344,-133.37771911621093,1.6887549047405478e+18,106.39754801432292,0.7875791788101196,-0.5885816216468811,-0.0510093960911035,0.1724171489477156,-0.3891296585400899,1.2394880453745525,-2.4307219982147217
1.45,1.6887549047924498e+18,106.44944962565104,-5.030006567637126,-0.3423678080240885,-1.4472443461418152,1.6887549047924498e+18,106.44944962565104,-0.7670988937218984,-9.111469904581703,-0.2083749696612358,1.6887549047924498e+18,106.44944962565104,4.25706164042155,-8.75159740447998,1.176181972026825,1.688754904792453e+18,106.44945300292969,1.401553988456726,0.0965930670499801,2.695901036262512,1.6887549047881285e+18,106.44512849934895,1.1859949032465618,-0.4224642316500346,2.7665069103240967,,,,,,,,,,,,1.6887549047880648e+18,106.44506469726562,-34.65531997680664,36.98795928955078,-3.557519960403442,1.6887549047880648e+18,106.44506469726562,-289.1839172363281,130.30575866699218,-135.56151428222657,1.6887549047924498e+18,106.44944962565104,0.8347800771395365,-0.5312205155690511,-0.0187634428342183,0.1420006056626637,-0.2721794744332631,1.1022264162699382,-2.6351426442464194
1.5,1.6887549048443471e+18,106.50134716796876,-10.815964221954346,10.022298336029053,-3.1643163363138833,1.6887549048443471e+18,106.50134716796876,-5.595216949780782,1.821336845556895,-1.7351952195167542,1.6887549048443471e+18,106.50134716796876,5.214901288350423,-8.183456738789877,1.3664337793986003,1.6887549048356966e+18,106.49269653320312,0.8078183581431707,-3.8130718072255454,2.8461739222208657,1.688754904840024e+18,106.49702400716149,0.6338745057582855,-3.941658973693848,2.9282334645589194,,,,,,,,,,,,1.6887549048380575e+18,106.49505737304688,-39.30595932006836,31.978639984130854,-4.833639860153198,1.6887549048380575e+18,106.49505737304688,-293.8345520019531,125.2964370727539,-136.83763427734374,1.6887549048443471e+18,106.50134716796876,0.8712201118469238,-0.4814070363839467,0.0341077219733657,0.0817418781419594,-0.2536011089881261,0.9873145818710328,-2.817986170450846
1.55,1.6887549048962632e+18,106.55326310221352,-4.187954982121785,8.985992590586344,1.5950477123260498,1.6887549048962632e+18,106.55326310221352,1.6067804098129272,1.3690933585166931,3.882354736328125,1.6887549048962632e+18,106.55326310221352,5.788889408111572,-7.599394957224528,2.224619626998902,1.68875490488761e+18,106.54460986328124,-0.1064941783746083,-2.180941621462504,1.200502907236417,1.6887549048919396e+18,106.548939453125,-0.0489710370699564,-1.976454496383667,0.8751662770907084,,,,,,,,,,,,1.6887549048880645e+18,106.54506420898436,-41.96555938720703,27.823319244384766,-10.826279830932616,1.6887549048880645e+18,106.54506420898436,-296.49415893554686,121.14111785888672,-142.8302734375,1.6887549048962632e+18,106.55326310221352,0.8905349572499593,-0.4401702483495076,0.1040008986989657,0.0472094242771466,-0.3665291666984558,0.8855668505032858,-2.860381762186686
1.6,1.688754904948171e+18,106.60517122395834,-1.9634729226430256,6.5100860595703125,1.465438763300578,1.688754904948171e+18,106.60517122395834,3.2877384026845298,-1.5124632716178894,3.6480576197306314,1.688754904948171e+18,106.60517122395834,5.245365301767985,-8.005044937133789,2.11993145942688,1.6887549049395172e+18,106.5965174153646,0.926224410533905,0.3603595991929372,-1.9499836365381875,1.6887549049438413e+18,106.60084147135416,0.9868018825848898,0.5228497286637624,-2.1594595511754355,,,,,,,,,,,,1.6887549049380623e+18,106.59506240234376,-40.28927841186523,29.22143898010254,-12.253679656982422,1.6887549049380623e+18,106.59506240234376,-294.81787109375,122.53923797607422,-144.25767517089844,1.688754904948171e+18,106.60517122395834,0.8754040996233622,-0.4701847533384959,0.1048343578974405,0.0345682005087534,-0.383201648791631,0.9549594322840372,-2.862809658050537
1.65,1.68875490500007e+18,106.65706966145832,7.720253944396973,-3.7534248034159337,0.4190514286359151,1.68875490500007e+18,106.65706966145832,11.729217529296877,-12.565708637237549,2.141177515188853,1.68875490500007e+18,106.65706966145832,4.003117561340332,-8.794779459635416,1.659438689549764,1.6887549049914222e+18,106.64842203776044,0.5881105264027914,0.2853249808152516,-3.1505884329477944,1.6887549049957476e+18,106.65274763997394,0.3975205421447754,0.179747097781122,-2.897995670636495,,,,,,,,,,,,1.68875490498807e+18,106.64506987304688,-35.28239974975586,34.85051956176758,-9.518439865112304,1.68875490498807e+18,106.64506987304688,-289.8109924316406,128.16831817626954,-141.5224365234375,1.68875490500007e+18,106.65706966145832,0.8386298616727194,-0.5374079545338949,0.0820904995004335,0.0292665523787338,-0.3942898114522298,1.1123697360356648,-2.824059247970581
1.7,1.6887549050433272e+18,106.7003272705078,6.323008060455323,-20.904786109924316,1.8232821226119995,1.6887549050433272e+18,106.7003272705078,10.198508977890016,-29.67369270324707,4.042075753211975,1.6887549050433272e+18,106.7003272705078,3.869655013084411,-8.751402378082275,2.1561062335968018,1.6887549050433257e+18,106.70032560221354,-0.1828014055887858,-2.9262990156809487,1.4996741811434429,1.688754905047651e+18,106.70465112304689,-0.0173587493870096,-2.9901344776153564,1.624596118927002,,,,,,,,,,,,1.688754905038064e+18,106.6950638183594,-32.164078903198245,36.648799896240234,-11.507039833068848,1.688754905038064e+18,106.6950638183594,-286.69267578125,129.9665985107422,-143.51104125976562,1.6887549050433272e+18,106.7003272705078,0.8349201083183289,-0.5361291766166687,0.1219875141978263,0.0148874819278716,-0.5075813680887222,1.1017139554023745,-2.789988875389099
1.75,1.6887549050865836e+18,106.74358333333332,0.6665337880452474,4.2245222727457685,5.486227353413899,1.6887549050865836e+18,106.74358333333332,4.70747979482015,-4.476971149444579,7.671189943949382,1.6887549050865836e+18,106.74358333333332,4.035100221633911,-8.683988889058432,2.122274955113729,1.6887549050952325e+18,106.7522325032552,0.7624616523583728,1.0189232031504314,-0.9155851801236472,1.688754905099559e+18,106.75655883789062,0.6957755188147227,1.3037391006946564,-1.043205122773846,,,,,,,,,,,,1.6887549050880645e+18,106.74506430664064,-32.776519012451175,35.57031936645508,-13.80795955657959,1.6887549050880645e+18,106.74506430664064,-287.30511474609375,128.88811645507812,-145.81195678710938,1.6887549050865836e+18,106.74358333333332,-0.8399276733398438,0.5239269137382507,-0.1398203521966934,0.0176582979038357,-0.4835242430369059,1.086894392967224,-2.88801646232605
1.8,1.688754905138479e+18,106.79547924804687,-5.7288970947265625,-1.0844507217407229,-1.447358767191569,1.688754905138479e+18,106.79547924804687,-2.0175482432047525,-10.026126225789389,0.3054835001627602,1.688754905138479e+18,106.79547924804687,3.7055025895436606,-8.92417081197103,1.6901546319325764,1.6887549051471263e+18,106.80412638346354,0.037110063790654,1.495041807492574,-1.053895244995753,1.6887549051428014e+18,106.79980139160156,-0.0203876271843909,1.07298481464386,-0.4826598986983299,,,,,,,,,,,,1.6887549051380577e+18,106.79505737304687,-32.764319610595706,37.10751800537109,-11.18495979309082,1.6887549051380577e+18,106.79505737304687,-287.29291381835935,130.4253173828125,-143.1889617919922,1.688754905138479e+18,106.79547924804687,-0.2779979308446248,0.1794013381004333,-0.0412073085705439,0.0043899121228605,-0.4275254507859548,1.1421808799107869,-2.867270310719808
1.85,1.6887549051903828e+18,106.84738313802085,-3.9592854181925454,0.0287501017252603,-1.1703025301297505,1.6887549051903828e+18,106.84738313802085,-1.3521441419919331,-9.360522588094076,0.0213360289732614,1.6887549051903828e+18,106.84738313802085,2.6012953917185464,-9.3717679977417,1.1289512117703755,1.688754905199033e+18,106.85603287760416,0.1811724404493967,4.70294984181722,-4.432641824086507,1.6887549051860582e+18,106.84305834960936,0.2770782882968584,3.8486037254333496,-3.953367233276367,,,,,,,,,,,,1.6887549051880586e+18,106.84505849609374,-29.72895927429199,39.869599151611325,-7.512759685516357,1.6887549051880586e+18,106.84505849609374,-284.25755615234374,133.18739624023436,-139.51675720214843,1.6887549051903828e+18,106.84738313802085,0.7941157420476278,-0.6033599376678467,0.0418603935589392,0.0386702716350555,-0.4113678932189941,1.276485840479533,-2.7350908120473227
1.9,1.688754905242287e+18,106.899287109375,-9.549698193868002,1.4469054539998372,0.3691990971565246,1.688754905242287e+18,106.899287109375,-8.803593317667643,-8.297112464904785,1.3866406778494518,1.688754905242287e+18,106.899287109375,0.7402585049470266,-9.726513226826986,0.9547541538874308,1.6887549052422892e+18,106.89928894042968,-1.253800928592682,4.480009317398071,-3.269656181335449,1.6887549052379628e+18,106.8949627278646,-1.074053814013799,4.638707002003987,-3.46594762802124,,,,,,,,,,,,1.6887549052380575e+18,106.89505756835938,-20.986439514160157,44.996038818359374,-2.252119946479797,1.6887549052380575e+18,106.89505756835938,-275.51503295898436,138.31383666992187,-134.25611877441406,1.688754905242287e+18,106.899287109375,0.7216498653093973,-0.6772775252660116,-0.053380537778139,0.127758743862311,-0.9301902850468954,1.440883755683899,-1.953891118367513
1.95,1.6887549052941924e+18,106.95119230143229,-1.7858306566874187,-1.346615473429362,-1.0512775977452595,1.6887549052941924e+18,106.95119230143229,-1.7846468289693205,-11.02014446258545,0.7256234784921011,1.6887549052941924e+18,106.95119230143229,-0.0046621759732564,-9.656024297078451,1.7142136891682942,1.688754905285543e+18,106.94254256184897,-1.5060882369677226,-1.684308131535848,-0.6529640456040701,1.6887549052898693e+18,106.94686946614584,-1.3273592789967854,-2.2840252419312796,-0.6901250034570694,,,,,,,,,,,,1.688754905288061e+18,106.94506088867188,-16.44315986633301,46.72843933105469,-3.5989999055862425,1.688754905288061e+18,106.94506088867188,-270.9717529296875,140.04623718261718,-135.60299682617188,1.6887549052941924e+18,106.95119230143229,0.689224104086558,-0.705805242061615,-0.0344339280078808,0.1576069891452789,-1.5623642206192017,1.3940462668736775,-1.3056573073069255
2.0,1.6887549053460992e+18,107.00309928385416,6.868802785873413,-0.2389485041300455,-2.048288901646932,1.6887549053460992e+18,107.00309928385416,5.726822217305501,-9.858030319213867,-0.344566452006499,1.6887549053460992e+18,107.00309928385416,-1.147826611995697,-9.601577123006184,1.641035079956055,1.6887549053374472e+18,106.99444710286458,0.6291403075059255,0.3456988732020061,-2.4841344356536865,1.688754905341772e+18,106.99877205403646,0.7085018853346506,1.1251627604166667,-2.3616050481796265,,,,,,,,,,,,1.6887549053380572e+18,106.99505737304688,-12.051159858703612,47.68979949951172,-6.646559810638427,1.6887549053380572e+18,106.99505737304688,-266.5797607421875,141.00759887695312,-138.6505554199219,1.6887549053460992e+18,107.00309928385416,0.651553730169932,-0.7465205192565918,-0.0215120995029186,0.1304465283950169,-2.176966349283854,1.3647472461064656,-0.7480838298797607
2.05,1.6887549053980027e+18,107.05500276692707,-0.1231510043144226,3.1350396474202475,-1.6290398041407268,1.6887549053980027e+18,107.05500276692707,-1.5878371993700664,-6.4735822677612305,-0.1288136194149653,1.6887549053980027e+18,107.05500276692707,-1.470532218615214,-9.591117223103842,1.437538782755534,1.6887549053893522e+18,107.04635213216146,0.742455800374349,2.843679507573446,-0.9984083374341328,1.6887549053936783e+18,107.05067846679688,0.6781622270743052,2.5797348817189536,-1.0332785248756409,,,,,,,,,,,,1.6887549053880566e+18,107.04505659179688,-8.288679885864259,48.54135971069336,-3.5965599060058593,1.6887549053880566e+18,107.04505659179688,-262.81727294921876,141.8591552734375,-135.60055847167968,1.6887549053980027e+18,107.05500276692707,0.6285369594891866,-0.7524439493815104,-0.091489332417647,0.1735644290844599,-2.3648234208424888,1.3596961498260498,-0.3975096146265666
2.1,1.6887549054499095e+18,107.10690966796876,0.6217355728149414,0.6023085912068685,-0.730803906917572,1.6887549054499095e+18,107.10690966796876,-1.3950156370798747,-8.896315256754557,0.8225327630837759,1.6887549054499095e+18,107.10690966796876,-2.0225972334543862,-9.481119155883787,1.4906492630640666,1.6887549054412562e+18,107.0982560221354,-0.2283108802512288,0.4540255814790725,-1.241125464439392,1.6887549054455836e+18,107.10258341471354,-0.2812016333142916,0.3637702614068985,-1.250848412513733,,,,,,,,,,,,1.6887549054380575e+18,107.09505771484376,-5.582719898223877,49.05131912231445,-2.357039952278137,1.6887549054380575e+18,107.09505771484376,-260.11131591796874,142.3691162109375,-134.36103515625,1.6887549054499095e+18,107.10690966796876,0.601974348227183,-0.7683551907539368,-0.1116886362433433,0.1862679322560627,-2.504581610361735,1.312144756317139,-0.2088042149941125
2.15,1.6887549054931712e+18,107.15017138671874,3.506087064743042,-1.2947545051574707,-1.1469570100307465,1.6887549054931712e+18,107.15017138671874,0.8222337067127228,-10.609177589416504,0.5093721114099026,1.6887549054931712e+18,107.15017138671874,-2.6896995306015015,-9.296918392181396,1.5936416983604431,1.6887549054931712e+18,107.15017138671875,-0.4767803351084391,-1.0037025014559429,-1.6399186452229817,1.6887549054974922e+18,107.15449202473958,-0.5010622143745422,-0.990772525469462,-1.5464053551355998,,,,,,,,,,,,1.6887549054880602e+18,107.14506025390624,-1.8397599637508393,49.21723937988281,-3.254959964752197,1.6887549054880602e+18,107.14506025390624,-256.36835021972655,142.5350372314453,-135.2589569091797,1.6887549054931712e+18,107.15017138671874,0.5754103660583496,-0.7911459803581238,-0.1046081222593784,0.1787330955266952,-2.6052072048187256,1.2466930150985718,-0.1275144144892692
2.2,1.6887549055364209e+18,107.19342089843752,4.791630109151205,-4.853247006734212,-5.70474116007487,1.6887549055364209e+18,107.19342089843752,1.922832489013672,-14.08435344696045,-3.891726652781169,1.6887549055364209e+18,107.19342089843752,-2.874643643697103,-9.21360206604004,1.7503270308176675,1.6887549055450775e+18,107.20207731119793,-0.1385646065076192,0.7917831738789877,0.4275038639704386,1.688754905549403e+18,107.20640283203124,-0.0010181094209353,0.8224791487058004,0.47163887321949,,,,,,,,,,,,1.6887549055380628e+18,107.19506259765626,0.4294399730861187,49.15379867553711,-4.604279851913452,1.6887549055380628e+18,107.19506259765626,-254.09915466308593,142.47159729003906,-136.6082763671875,1.6887549055364209e+18,107.19342089843752,0.5668525894482931,-0.7982941269874573,-0.0954270958900451,0.1795134196678797,-2.5938727855682373,1.220612565676371,-0.1502438858151435
2.25,1.6887549055883313e+18,107.24533129882812,2.488657077153524,-4.543760617574056,-2.6613078514734902,1.6887549055883313e+18,107.24533129882812,0.0342971086502076,-13.93201033274333,-1.0853444337844849,1.6887549055883313e+18,107.24533129882812,-2.460205952326457,-9.370745023091636,1.5132760206858318,1.688754905596976e+18,107.25397607421876,1.125366508960724,0.1319977939128875,1.9209166765213013,1.6887549055926572e+18,107.24965710449216,1.2117275595664978,0.1091921627521514,1.4831044971942902,,,,,,,,,,,,1.6887549055880655e+18,107.24506557617188,-1.881239938735962,49.01715927124023,-3.5599599361419676,1.6887549055880655e+18,107.24506557617188,-256.4098327636719,142.3349578857422,-135.56395874023437,1.6887549055883313e+18,107.24533129882812,0.5841818054517111,-0.7826885382334391,-0.1123744994401931,0.1824465145667393,-2.590440034866333,1.2719124555587769,-0.1262842069069544
2.3,1.688754905640231e+18,107.29723103841144,-1.3608148097991943,-3.9324042002360025,1.512878139813741,1.688754905640231e+18,107.29723103841144,-2.1954147815704346,-13.654841740926107,2.5872395038604736,1.688754905640231e+18,107.29723103841144,-0.8404459704955419,-9.704932848612469,1.0116739869117737,1.6887549056488863e+18,107.30588647460938,0.9174177646636964,0.0605265672008196,3.873547395070394,1.6887549056359104e+18,107.2929103190104,0.9701558152834574,0.1585704380025466,3.9328013261159263,,,,,,,,,,,,1.688754905638065e+18,107.29506484375,-9.437919998168946,48.538919067382814,-1.2102399833500386,1.688754905638065e+18,107.29506484375,-263.9665161132813,141.85671997070312,-133.2142364501953,1.688754905640231e+18,107.29723103841144,0.6519909699757894,-0.7267623345057169,-0.1192569533983866,0.1779452860355377,-2.170801838239034,1.4311316808064778,-0.5461694002151489
2.35,1.6887549056921408e+18,107.3491407877604,-4.000489632288615,-7.282073656717936,3.6689162254333496,1.6887549056921408e+18,107.3491407877604,-3.02472718556722,-17.02533213297526,4.423930247624715,1.6887549056921408e+18,107.3491407877604,0.9699163834253948,-9.725754737854004,0.6923265258471171,1.6887549056921354e+18,107.34913525390624,0.3617849573493004,-0.3420845419168472,3.478572130203247,1.688754905687817e+18,107.34481705729168,0.4078034486932058,-0.3115921864906946,3.4942001501719155,1.6887549056964657e+18,107.35346557617189,0.0,0.0,2.7344553470611572,4.920000076293945,1.157500982284546,183.1986083984375,333.1999816894531,-122.9158792,49.2790202,1.6887549056880622e+18,107.34506206054688,-18.241439247131343,46.23555908203125,0.5953599825501442,1.6887549056880622e+18,107.34506206054688,-272.77003173828126,139.55335388183593,-131.40863647460938,1.6887549056921408e+18,107.3491407877604,0.7204588055610657,-0.6617216467857361,-0.1107336903611818,0.1737643629312514,-0.6965752442677816,1.4446069399515789,-2.0390321811040244
2.4,1.6887549057440453e+18,107.40104557291666,-2.9835449854532876,-5.419874509175618,6.701971054077148,1.6887549057440453e+18,107.40104557291666,-0.2929213941097259,-14.796617190043133,7.850851217905681,1.6887549057440453e+18,107.40104557291666,2.684777577718099,-9.359238306681316,1.0861925880114238,1.6887549057353912e+18,107.39239103190106,-0.6635523637135824,-1.861306369304657,3.6960910161336265,1.6887549057397207e+18,107.3967207845052,-0.684779942035675,-2.0348430474599204,3.67649253209432,,,,,,,,,,,,1.6887549057380657e+18,107.395065625,-26.9839599609375,42.519439697265625,-1.002839994430542,1.6887549057380657e+18,107.395065625,-281.51256103515624,135.8372375488281,-133.0068359375,1.6887549057440453e+18,107.40104557291666,0.7796730995178223,-0.5988896489143372,-0.0599951880673567,0.1698375642299652,-0.3826292653878529,1.270394762357076,-2.42870815594991
2.45,1.6887549057959473e+18,107.4529471842448,-4.071056604385376,-1.3508014678955078,-1.610425551732381,1.6887549057959473e+18,107.4529471842448,-0.0865404605865478,-10.214960098266602,-0.126420776049296,1.6887549057959473e+18,107.4529471842448,3.9786699612935386,-8.846653938293457,1.4213173786799114,1.6887549057873e+18,107.44430004882813,0.4172209501266479,-1.5061901013056438,2.8256589571634927,1.6887549057916265e+18,107.44862646484376,0.574569672346115,-1.3248648643493652,2.778927803039551,,,,,,,,,,,,1.6887549057880622e+18,107.44506230468748,-33.25963935852051,38.161599731445314,-4.574999904632568,1.6887549057880622e+18,107.44506230468748,-287.788232421875,131.47939758300782,-136.57899780273436,1.6887549057959473e+18,107.4529471842448,0.8262190024058024,-0.5447536905606588,-0.0061010398591558,0.1419168412685394,-0.3454812367757161,1.1244869629542034,-2.5810702641805015
2.5,1.6887549058478543e+18,107.5048544921875,-10.177762349446615,9.408647855122885,-3.6766767501831055,1.6887549058478543e+18,107.5048544921875,-5.073382218678792,1.153739333152771,-2.129013975461324,1.6887549058478543e+18,107.5048544921875,5.098534266153972,-8.237404346466064,1.4849752982457478,1.6887549058392005e+18,107.49620035807293,0.5616905838251114,-2.395100792249044,3.068732420603434,1.6887549058435277e+18,107.50052766927082,0.3916155099868774,-2.620968222618103,3.0774373213450112,,,,,,,,,,,,1.6887549058380626e+18,107.49506254882812,-38.3982795715332,33.62075958251953,-5.233799839019776,1.6887549058380626e+18,107.49506254882812,-292.92686767578124,126.93855590820311,-137.23779296875,1.6887549058478543e+18,107.5048544921875,0.8659450809160868,-0.4880907237529754,0.0304702622815965,0.1001754676302273,-0.2815667986869811,0.9974380731582642,-2.75744636853536
2.55,1.688754905899761e+18,107.55676090494792,-5.97849162419637,9.769102414449057,-0.2267615795135498,1.688754905899761e+18,107.55676090494792,-0.2566302269697189,2.122234304745992,2.1441684563954673,1.688754905899761e+18,107.55676090494792,5.716015338897705,-7.629364013671875,2.3082426389058432,1.68875490589111e+18,107.54811010742186,-0.189622754851977,-2.1612921953201294,1.45004137357076,1.688754905895436e+18,107.55243587239583,-0.1152499094605446,-1.9848030010859172,1.2052370955546696,,,,,,,,,,,,1.6887549058880676e+18,107.545067578125,-41.25063934326172,28.931079483032228,-10.613999557495116,1.6887549058880676e+18,107.545067578125,-295.77922973632815,122.2488784790039,-142.6179992675781,1.688754905899761e+18,107.55676090494792,0.8867713809013367,-0.4460707505544026,0.0965222840507825,0.0718385403354962,-0.3833384613196055,0.8905460834503174,-2.795334577560425
2.6,1.6887549059430172e+18,107.60001721191406,-2.693993091583252,6.552631855010986,0.9121733903884888,1.6887549059430172e+18,107.60001721191406,2.7855446338653564,-1.2397812008857727,3.3822548389434814,1.6887549059430172e+18,107.60001721191406,5.473691701889038,-7.774908542633057,2.407394051551819,1.6887549059430157e+18,107.6000157877604,1.044274131457011,-0.284255971511205,-1.5253305236498516,1.6887549059473416e+18,107.60434147135418,1.155044356981913,-0.1544980040440956,-1.7727309664090474,,,,,,,,,,,,1.688754905938064e+18,107.59506372070314,-40.81875915527344,28.462599563598634,-12.900279426574707,1.688754905938064e+18,107.59506372070314,-295.34735107421875,121.78039855957032,-144.9042755126953,1.6887549059430172e+18,107.60001721191406,0.8809590935707092,-0.4566441774368286,0.110634870827198,0.055389292538166,-0.4141558408737182,0.9146917462348938,-2.80998957157135
2.65,1.6887549059862694e+18,107.6432696126302,3.4174275398254395,2.5157626469930015,0.3054701487223307,1.6887549059862694e+18,107.6432696126302,7.959724585215251,-5.982056538263957,2.245863437652588,1.6887549059862694e+18,107.6432696126302,4.536451021830241,-8.480314572652182,1.8777058919270833,1.6887549059949233e+18,107.65192350260418,1.1860966682434082,0.1618283838033676,-2.776942491531372,1.6887549059992463e+18,107.6562462565104,1.0411180059115093,0.1416189248363176,-2.5065836906433105,,,,,,,,,,,,1.6887549059880617e+18,107.64506162109376,-36.99283981323242,33.40847969055176,-11.104439735412598,1.6887549059880617e+18,107.64506162109376,-291.52142944335935,126.72627716064451,-143.1084411621094,1.6887549059862694e+18,107.6432696126302,0.8543517589569092,-0.5099164942900339,0.0905656019846598,0.0361312888562678,-0.3920585513114929,1.0456177989641826,-2.8293018341064453
2.7,1.6887549060381755e+18,107.69517553710938,7.629174868265788,-17.589812596638996,2.664179960886637,1.6887549060381755e+18,107.69517553710938,11.792428175608316,-26.26641273498535,4.684747854868571,1.6887549060381755e+18,107.69517553710938,4.157407283782959,-8.659095764160156,1.95788049697876,1.6887549060468252e+18,107.7038251953125,-0.1985820929209391,-3.4710381031036377,2.1032090981801352,1.6887549060424873e+18,107.6994873046875,-0.4528802037239074,-4.043927907943726,2.360154151916504,,,,,,,,,,,,1.688754906038065e+18,107.69506489257812,-33.94527893066406,35.516638946533206,-12.197559928894044,1.688754906038065e+18,107.69506489257812,-288.4738708496094,128.83443603515624,-144.2015594482422,1.6887549060381755e+18,107.69517553710938,0.2768349448839823,-0.1868508259455363,0.0134491398930549,0.0175536113480726,-0.4376005828380584,1.0822136402130127,-2.8449302514394126
2.75,1.688754906090075e+18,107.74707495117188,2.704132080078125,7.664465586344401,5.55177919069926,1.688754906090075e+18,107.74707495117188,7.271389296278357,-0.7098706960678101,7.97607551018397,1.688754906090075e+18,107.74707495117188,4.561411380767822,-8.356831550598145,2.3616086641947427,1.68875490609873e+18,107.75572998046874,0.629700260857741,0.5467753012975057,-0.681471069653829,1.688754906085754e+18,107.74275415039062,0.7842491467793783,-0.7932594617207845,0.5135849515597025,,,,,,,,,,,,1.6887549060880645e+18,107.7450640625,-34.70167922973633,33.54755859375,-16.3089599609375,1.6887549060880645e+18,107.7450640625,-289.2302734375,126.8653579711914,-148.31295776367188,1.688754906090075e+18,107.74707495117188,-0.8552651802698771,0.4920382499694824,-0.1591688642899195,0.0319116202493508,-0.4777113596598307,1.0194549163182576,-2.945659875869751
2.8,1.688754906141984e+18,107.79898404947916,-8.493331909179688,-6.361308097839356,-0.958185513814291,1.688754906141984e+18,107.79898404947916,-4.215754389762878,-14.985051472981771,1.0785648028055828,1.688754906141984e+18,107.79898404947916,4.271731694539388,-8.606239318847656,1.9740623633066816,1.6887549061506353e+18,107.80763509114584,0.0488692199190457,1.6857335567474363,-0.471995194753011,1.6887549061376602e+18,107.7946602376302,-0.0363464777668317,1.8826358318328855,-0.7134905854860941,,,,,,,,,,,,1.6887549061380716e+18,107.795071484375,-34.906639099121094,34.7773193359375,-13.788439750671388,1.6887549061380716e+18,107.795071484375,-289.4352294921875,128.0951156616211,-145.7924377441406,1.688754906141984e+18,107.79898404947916,-0.8471153974533081,0.5157114068667094,-0.1268480867147445,0.0130839276437957,-0.4330391089121501,1.0699533621470132,-2.91318941116333
2.85,1.688754906193886e+18,107.85088598632812,-3.643340071042379,0.998262087504069,0.4464635054270426,1.688754906193886e+18,107.85088598632812,-0.0450648268063863,-8.025925954182943,1.902493437131246,1.688754906193886e+18,107.85088598632812,3.5924293200174966,-9.006683349609375,1.3933425347010295,1.6887549061938826e+18,107.85088244628906,0.7011205852031708,2.1114556789398193,-3.4268776178359985,1.6887549061895606e+18,107.8465604654948,0.5021821310122808,2.0688478549321494,-3.076775590578715,,,,,,,,,,,,1.6887549061880596e+18,107.84505966796875,-33.623199462890625,37.041638946533205,-10.391959762573242,1.6887549061880596e+18,107.84505966796875,-288.15179443359375,130.35943908691405,-142.3959533691406,1.688754906193886e+18,107.85088598632812,0.2650178869565328,-0.2029706041018168,0.0139300140241781,0.0079503655045603,-0.3690225183963775,1.1661569277445476,-2.8781216144561768
2.9,1.688754906245795e+18,107.90279516601562,-7.645747502644856,1.6895713806152344,0.9223514596621196,1.688754906245795e+18,107.90279516601562,-5.989234924316406,-7.941578865051269,1.8400806387265525,1.688754906245795e+18,107.90279516601562,1.650666316350301,-9.613645553588867,0.8550417820612589,1.688754906237136e+18,107.89413623046876,-0.2899573693672816,4.864523569742839,-4.595691998799642,1.6887549062414707e+18,107.8984707845052,-0.4218024363120398,4.866050720214844,-4.567999521891276,,,,,,,,,,,,1.6887549062380657e+18,107.895065625,-26.58867988586426,42.58531951904297,-5.30699987411499,1.6887549062380657e+18,107.895065625,-281.1172790527344,135.90311584472656,-137.31099548339844,1.688754906245795e+18,107.90279516601562,0.7599780559539795,-0.6437544027964274,-0.0082730830957491,0.0757785129050413,-0.5185155769189199,1.3772359291712444,-2.5036540826161704
2.95,1.6887549062976993e+18,107.9546991373698,-2.6420793533325195,-1.6625817616780598,-3.0357555548350015,1.6887549062976993e+18,107.9546991373698,-2.5489542484283447,-11.392427762349447,-1.6269199848175049,1.6887549062976993e+18,107.9546991373698,0.0872791508833567,-9.71234130859375,1.3461480935414631,1.6887549062890476e+18,107.94604752604164,-1.5351043542226157,1.871691107749939,-2.550515135129293,1.6887549062933716e+18,107.95037158203128,-1.4776321649551392,1.5815809965133667,-2.3311635653177896,,,,,,,,,,,,1.6887549062880648e+18,107.94506479492188,-18.20727996826172,46.63571853637696,-3.5989999771118164,1.6887549062880648e+18,107.94506479492188,-272.7358703613281,139.953515625,-135.60299682617188,1.6887549062976993e+18,107.9546991373698,0.6957158843676249,-0.7021456956863403,-0.0462164022028445,0.1433104922374089,-1.4796632130940754,1.43051278591156,-1.3923991918563845
3.0,1.6887549063495995e+18,108.0065994466146,1.9304378430048623,-0.5723107655843097,-2.503804326057434,1.6887549063495995e+18,108.0065994466146,1.1475578943888347,-10.25384298960368,-0.9716853946447372,1.6887549063495995e+18,108.0065994466146,-0.7887259821097056,-9.664027531941732,1.4694315195083618,1.688754906340954e+18,107.99795377604168,0.1756746669610341,0.0932078460852305,-1.833359320958455,1.6887549063452774e+18,108.00227742513022,0.2940297971169154,0.2383901663124561,-1.846238414446513,,,,,,,,,,,,1.688754906338065e+18,107.99506469726562,-13.871399879455566,48.02895889282227,-5.055679893493652,1.688754906338065e+18,107.99506469726562,-268.4,141.3467590332031,-137.05967712402344,1.6887549063495995e+18,108.0065994466146,0.6614989042282104,-0.7327960729598999,-0.0528520047664641,0.1497559944788614,-2.0564181009928384,1.3984957536061604,-0.79656849304835
3.05,1.6887549063928576e+18,108.04985754394532,2.21104097366333,3.146692276000977,-0.830617219209671,1.6887549063928576e+18,108.04985754394532,0.7968099415302277,-6.503093719482422,0.4238287061452865,1.6887549063928576e+18,108.04985754394532,-1.4200770854949951,-9.632281303405762,1.1917585134506226,1.6887549063928607e+18,108.04986051432292,0.9844093322753906,2.1916317145029702,-1.772069215774536,1.6887549063971822e+18,108.05418229166666,0.9660324652989706,2.193973422050476,-1.7682003577550252,,,,,,,,,,,,1.6887549063880635e+18,108.04506362304689,-10.125999641418456,48.72679901123047,-3.013399934768677,1.6887549063880635e+18,108.04506362304689,-264.65460205078125,142.04459533691406,-135.01739807128905,1.6887549063928576e+18,108.04985754394532,0.6339916288852692,-0.7503981590270996,-0.0946684181690216,0.160781092941761,-2.4404423236846924,1.3806262612342834,-0.3362082242965698
3.1,1.6887549064361083e+18,108.09310807291666,1.9053372144699097,1.9040371576944988,-1.082773168881734,1.6887549064361083e+18,108.09310807291666,-0.0534396842122077,-7.664210955301921,0.0472582454482714,1.6887549064361083e+18,108.09310807291666,-1.964622934659322,-9.55074342091878,1.0673439900080364,1.6887549064447634e+18,108.10176342773438,0.0599666088819503,1.168941577275594,-1.107905924320221,1.6887549064490865e+18,108.10608642578124,-0.0122173080841699,1.0745628476142883,-1.022384782632192,,,,,,,,,,,,1.688754906438062e+18,108.09506215820312,-5.4582798957824705,49.414879608154294,-0.8905999779701232,1.688754906438062e+18,108.09506215820312,-259.98687744140625,142.73267822265626,-132.89459838867188,1.6887549064361083e+18,108.09310807291666,0.6088261604309082,-0.7644412716229757,-0.1251572147011756,0.1707583566506703,-2.642476956049601,1.340846021970113,-0.0746266692876815
3.15,1.688754906488017e+18,108.14501668294272,1.9197980562845869,-0.3325570424397786,-1.3200658957163494,1.688754906488017e+18,108.14501668294272,-0.4528416792551676,-9.78823979695638,-0.0428714081645011,1.688754906488017e+18,108.14501668294272,-2.3784857590993247,-9.438178062438965,1.2145071029663086,1.6887549064966687e+18,108.15366861979165,-0.3412700494130452,0.3193807154893874,-1.1681779821713765,1.6887549064923443e+18,108.14934436035156,-0.3136793076992035,0.4175263941287994,-1.147815823554993,,,,,,,,,,,,1.6887549064880635e+18,108.14506352539064,-3.3183999061584473,49.56859893798829,-0.9320799708366394,1.6887549064880635e+18,108.14506352539064,-257.84699096679685,142.8863983154297,-132.93607482910156,1.688754906488017e+18,108.14501668294272,0.5872523784637451,-0.7760900259017944,-0.1375790536403655,0.1838937451442082,-2.668947696685791,1.294929107030233,-0.0095033765149613
3.2,1.6887549065399227e+18,108.19692260742188,2.9953221480051675,-2.7268616358439126,-4.74473778406779,1.6887549065399227e+18,108.19692260742188,0.2125624219576518,-12.041680653889976,-3.2622148593266806,1.6887549065399227e+18,108.19692260742188,-2.7886057694753013,-9.297314325968424,1.4198355674743652,1.6887549065485734e+18,108.20557356770831,-0.3230968012164036,0.1138754598796367,-0.1666644091407458,1.6887549065355912e+18,108.19259138997396,-0.4661919871966044,0.1123482994735241,-0.5599598288536072,,,,,,,,,,,,1.6887549065380634e+18,108.1950635253906,-0.6978399708867074,49.88823928833008,-1.9031999588012696,1.6887549065380634e+18,108.1950635253906,-255.22643432617187,143.20603637695314,-133.90719604492188,1.6887549065399227e+18,108.19692260742188,0.5672211845715841,-0.7897574305534363,-0.1362660080194472,0.1896435469388961,-2.6706082026163735,1.245699127515157,0.0004328405484557
3.25,1.6887549065918226e+18,108.24882259114584,2.467038869857788,-7.817537625630696,-3.595381816228231,1.6887549065918226e+18,108.24882259114584,-0.2512463728586833,-17.17249043782552,-2.267199476559957,1.6887549065918226e+18,108.24882259114584,-2.7241312662760415,-9.337449073791504,1.2654950221379595,1.6887549066004795e+18,108.25747924804688,1.1702650785446167,0.2738203505674998,0.5006040508548418,1.6887549065874985e+18,108.24449853515624,0.8342382858196894,0.1967495207985242,0.1541925718386968,,,,,,,,,,,,1.6887549065880653e+18,108.24506533203126,-0.673439984023571,49.59055938720703,-1.9788399934768677,1.6887549065880653e+18,108.24506533203126,-255.20203552246093,142.90835571289062,-133.9828369140625,1.6887549065918226e+18,108.24882259114584,0.5709969401359558,-0.7864155769348145,-0.1436337828636169,0.1865800817807515,-2.707552909851074,1.2586143414179485,0.0432224939577281
3.3,1.6887549066437292e+18,108.30072900390626,1.0135465463002522,-3.2083740234375,2.056030293305715,1.6887549066437292e+18,108.30072900390626,-0.7244270046552023,-12.835299809773764,2.8853453397750854,1.6887549066437292e+18,108.30072900390626,-1.7438195546468098,-9.609421094258629,0.7666276892026266,1.688754906643732e+18,108.30073205566408,0.7967209815979004,0.6638578027486801,3.411071538925171,1.6887549066394112e+18,108.2964112141927,0.9386962453524272,0.5297728776931763,3.0198123455047607,,,,,,,,,,,,1.688754906638067e+18,108.29506694335936,-4.501799821853638,49.566159057617185,0.7612799763679504,1.688754906638067e+18,108.29506694335936,-259.0303955078125,142.8839569091797,-131.24271545410156,1.6887549066437292e+18,108.30072900390626,0.6136698325475057,-0.7504630088806152,-0.1604605317115783,0.1837707410256067,-2.705888350804647,1.373656431833903,0.0586544014513492
3.35,1.688754906695635e+18,108.35263492838544,-2.48600967725118,-4.7483336130778,2.6289658546447754,1.688754906695635e+18,108.35263492838544,-2.3218355973561606,-14.552947680155436,3.0855448246002197,1.688754906695635e+18,108.35263492838544,0.1583280861377715,-9.787109375,0.393891563018163,1.6887549066869834e+18,108.34398347981772,0.8557204008102417,-0.2724968045949936,3.795051256815592,1.6887549066913137e+18,108.34831355794272,0.8480336864789327,-0.2503529414534568,3.774587233861288,,,,,,,,,,,,1.6887549066880658e+18,108.3450657714844,-14.752239799499511,47.877679443359376,2.7352399826049805,1.6887549066880658e+18,108.3450657714844,-269.2808349609375,141.1954803466797,-129.2687561035156,1.688754906695635e+18,108.35263492838544,0.6882051030794779,-0.6843886574109396,-0.1532827168703078,0.1837871720393498,-1.2673344512780509,1.5044690370559692,-1.3926488558451335
3.4,1.6887549067475415e+18,108.40454125976562,-5.199329376220703,-5.959951400756836,7.668980757395427,1.6887549067475415e+18,108.40454125976562,-3.2057840824127197,-15.56192143758138,8.149555206298828,1.6887549067475415e+18,108.40454125976562,1.9876992305119832,-9.584465344746908,0.4178865849971771,1.688754906738892e+18,108.39589208984376,-0.2841541518767674,-0.537306871265173,3.688557068506877,1.6887549067432192e+18,108.40021931966146,-0.3850487289795031,-0.8104654451211294,3.66646409034729,1.6887549067345684e+18,108.391568359375,0.0,0.0,2.244450569152832,5.079999923706055,1.1785105466842651,185.4308319091797,333.29998779296875,-122.9158856,49.2790041,1.6887549067380623e+18,108.39506230468751,-23.067759704589843,44.805718994140626,3.701479911804199,1.6887549067380623e+18,108.39506230468751,-277.5963562011719,138.12351684570314,-128.3025161743164,1.6887549067475415e+18,108.40454125976562,0.7514215707778931,-0.6179259220759074,-0.1283532753586768,0.1905163973569869,-0.2054426670074462,1.362086574236552,-2.478635629018148
3.45,1.6887549067994437e+18,108.45644360351564,-0.6250111262003581,-1.4146076838175456,1.596297820409139,1.6887549067994437e+18,108.45644360351564,3.0362924337387085,-10.447662035624186,2.800998250643412,1.6887549067994437e+18,108.45644360351564,3.6554574966430664,-9.015549659729004,1.142012933890025,1.688754906790796e+18,108.4477958170573,-0.5562946200370789,-3.0570241610209146,3.825899998346965,1.688754906795123e+18,108.45212296549478,-0.5130758881568909,-2.771037479241689,3.8399498462677,,,,,,,,,,,,1.6887549067880658e+18,108.44506557617188,-31.58091926574707,40.352719116210935,-0.497760021686554,1.6887549067880658e+18,108.44506557617188,-286.10950927734376,133.67052001953124,-132.50176086425782,1.6887549067994437e+18,108.45644360351564,0.8108981649080912,-0.5576194326082865,-0.0446277403583128,0.1688231130441029,-0.302689254283905,1.1689756711324055,-2.5296243826548257
3.5,1.6887549068427034e+18,108.4997032470703,-8.092339515686035,2.0546452999114986,-3.203409790992737,1.6887549068427034e+18,108.4997032470703,-3.2001011967658997,-6.397809267044067,-2.0626131296157837,1.6887549068427034e+18,108.4997032470703,4.886392593383789,-8.43494987487793,1.0781092047691343,1.6887549068426977e+18,108.49969783528644,0.8169813454151154,-0.4708752979834874,3.00118096669515,1.6887549068470252e+18,108.50402522786456,0.8652397195498148,-0.6871215800444285,2.9436577955881753,,,,,,,,,,,,1.688754906838065e+18,108.49506494140624,-38.38363952636719,34.58211975097656,-2.420479941368103,1.688754906838065e+18,108.49506494140624,-292.9122253417969,127.89991912841796,-134.42447814941406,1.6887549068427034e+18,108.4997032470703,0.8512254953384399,-0.5000217109918594,-0.0273376600816845,0.1564893722534179,-0.2180927544832229,1.0350248217582705,-2.6530967950820923
3.55,1.6887549068859528e+18,108.54295296223955,-8.834545135498047,9.002025604248047,-2.6404436429341636,1.6887549068859528e+18,108.54295296223955,-3.1026933193206787,1.1539387702941897,-1.179661512374878,1.6887549068859528e+18,108.54295296223955,5.726005872090657,-7.83058230082194,1.3980947732925415,1.688754906894608e+18,108.55160799153646,0.0766126805295547,-2.9208012421925864,2.4973698457082114,1.688754906898933e+18,108.55593302408852,0.0333430630465348,-2.8775316874186196,2.3423627614974976,,,,,,,,,,,,1.6887549068880635e+18,108.54506357421874,-42.77075881958008,29.453239059448244,-4.662839889526367,1.6887549068880635e+18,108.54506357421874,-297.2993469238281,122.77103729248049,-136.66683654785157,1.6887549068859528e+18,108.54295296223955,0.8813288609186808,-0.4549139042695363,0.0170009592548012,0.1230250497659047,-0.2378520965576171,0.9247615734736124,-2.745689074198405
3.6,1.6887549069378614e+18,108.594861328125,-4.411331653594971,7.065221309661865,1.6546930472056072,1.6887549069378614e+18,108.594861328125,1.672583033641179,-0.3511467377344767,3.846462408701578,1.6887549069378614e+18,108.594861328125,6.078068733215332,-7.398863474527995,2.129081964492798,1.6887549069465142e+18,108.60351440429686,0.3575598001480102,-1.2020300726095836,-0.4000658392906189,1.6887549069421875e+18,108.5991877441406,0.3396410793066025,-1.415069341659546,-0.1495856195688247,,,,,,,,,,,,1.6887549069380667e+18,108.59506669921876,-44.50559921264649,26.25683937072754,-9.39155979156494,1.6887549069380667e+18,108.59506669921876,-299.03419799804686,119.57463836669922,-141.39555969238282,1.6887549069378614e+18,108.594861328125,0.8949106534322103,-0.4292361239592234,0.0758124962449073,0.0949905291199683,-0.3370840152104695,0.8540653785069784,-2.775536139806112
3.65,1.6887549069897613e+18,108.64676123046875,-0.9519855976104736,5.392423311869304,1.824203411738078,1.6887549069897613e+18,108.64676123046875,4.462016026178996,-2.520041028658549,4.008576075236003,1.6887549069897613e+18,108.64676123046875,5.408155600229899,-7.894959926605225,2.121685266494751,1.6887549069984177e+18,108.65541772460938,0.4463388721148173,0.4884885648886363,-3.0146708488464355,1.6887549069854372e+18,108.64243709309896,0.4896594087282817,0.2783000270525614,-2.5057692925135293,,,,,,,,,,,,1.6887549069880655e+18,108.64506567382811,-42.2339599609375,29.123839569091796,-9.9283597946167,1.6887549069880655e+18,108.64506567382811,-296.76255493164064,122.44163665771484,-141.93235778808594,1.6887549069897613e+18,108.64676123046875,0.8764692147572836,-0.4668246606985728,0.0775215998291968,0.0861821025609969,-0.374470333258311,0.9361625909805298,-2.7542947133382163
3.7,1.688754907041667e+18,108.69866723632812,4.937665144602458,-5.994702021280925,3.476890524228414,1.688754907041667e+18,108.69866723632812,9.154939651489258,-14.649059931437174,5.497111399968465,1.688754907041667e+18,108.69866723632812,4.21142840385437,-8.636853218078613,1.9575332005818684,1.6887549070503178e+18,108.70731787109374,-0.1639664143634338,-0.7522805432478586,-1.2252429326375325,1.688754907037349e+18,108.69434936523436,0.0121154909332593,0.0743219455083211,-2.484898050626119,,,,,,,,,,,,1.688754907038062e+18,108.69506196289062,-37.37835922241211,34.787079620361325,-8.67908000946045,1.688754907038062e+18,108.69506196289062,-291.9069519042969,128.10487670898436,-140.68307800292968,1.688754907041667e+18,108.69866723632812,0.8402894934018453,-0.5306299130121866,0.0608540376027424,0.0918849284450212,-0.4368904332319895,1.0772826274236045,-2.6594454447428384
3.75,1.688754907093577e+18,108.75057682291668,9.189736048380531,-5.121969540913899,-1.436255613962809,1.688754907093577e+18,108.75057682291668,13.48714510599772,-13.630315462748207,1.0115657647450764,1.688754907093577e+18,108.75057682291668,4.291563034057617,-8.490841547648111,2.385133981704712,1.6887549070935762e+18,108.750576171875,0.159206748008728,-2.0480784475803375,1.734093725681305,1.6887549070892526e+18,108.74625268554688,0.0471384224171439,-2.1163426438967385,1.5907440185546875,,,,,,,,,,,,1.6887549070880612e+18,108.7450611816406,-35.65815963745117,35.42879943847656,-11.363079833984376,1.6887549070880612e+18,108.7450611816406,-290.18675537109374,128.74659576416016,-143.36707458496093,1.688754907093577e+18,108.75057682291668,0.844922145207723,-0.5203827420870463,0.1021915550033251,0.067697284122308,-0.5080967942873637,1.046666423479716,-2.684082349141439
3.8,1.688754907145475e+18,108.80247526041666,-7.493294874827067,-6.485027313232421,4.495020389556885,1.688754907145475e+18,108.80247526041666,-3.255634625752767,-15.03490193684896,6.902096668879191,1.688754907145475e+18,108.80247526041666,4.231814384460449,-8.532370567321777,2.344388723373413,1.6887549071368305e+18,108.79383064778646,0.1957823112607002,0.4434372683366139,-0.8620835642019907,1.6887549071411556e+18,108.79815543619792,0.165188138683637,0.5918775200843811,-0.8864163955052694,,,,,,,,,,,,1.6887549071380672e+18,108.79506723632812,-36.424319458007815,34.48939971923828,-12.83927993774414,1.6887549071380672e+18,108.79506723632812,-290.9529052734375,127.80719604492188,-144.84327697753906,1.688754907145475e+18,108.80247526041666,0.8436022798220316,-0.5231501658757528,0.1034783919652302,0.0616939316193262,-0.5067434012889862,1.0552128950754802,-2.6960090001424155
3.85,1.688754907197383e+18,108.8543827311198,-5.3515035311381025,4.099819183349609,-2.3307141860326133,1.688754907197383e+18,108.8543827311198,-1.2945170750220616,-4.679563442866008,-0.5569294641415278,1.688754907197383e+18,108.8543827311198,4.051140308380127,-8.76187801361084,1.711097240447998,1.6887549071887352e+18,108.84573551432293,0.8317948381106058,1.7981327374776204,-0.692415714263916,1.688754907193063e+18,108.85006290690104,0.915585199991862,1.9281452496846516,-0.9765190084775288,,,,,,,,,,,,1.6887549071880635e+18,108.84506386718748,-35.71671905517578,35.71671981811524,-9.984479904174805,1.6887549071880635e+18,108.84506386718748,-290.2453186035156,129.03451843261718,-141.9884765625,1.688754907197383e+18,108.8543827311198,0.8376401861508688,-0.5380648374557495,0.0593718588352203,0.0696145594120025,-0.3976720670859019,1.105163852373759,-2.7291366259256997
3.9,1.6887549072492913e+18,108.90629134114585,-3.1045279502868652,1.319231669108073,2.749557336171468,1.6887549072492913e+18,108.90629134114585,-0.376470814148585,-8.059425354003906,3.760719537734986,1.6887549072492913e+18,108.90629134114585,2.7222110430399575,-9.361152331034342,0.9484749237696328,1.6887549072406395e+18,108.8976395670573,0.3252857476472854,3.4873278935750327,-3.6911532084147134,1.688754907244963e+18,108.90196329752604,0.1625919640064239,3.635768095652262,-3.821878433227539,,,,,,,,,,,,1.6887549072380682e+18,108.89506821289062,-31.57359962463379,39.89887924194336,-4.035759902000427,1.6887549072380682e+18,108.89506821289062,-286.10219116210936,133.2166778564453,-136.03975830078124,1.6887549072492913e+18,108.90629134114585,0.7924809257189432,-0.5997441609700521,-0.0165488688896099,0.1011387730638185,-0.3385362029075622,1.2715428272883098,-2.634651025136312
3.95,1.6887549072925404e+18,108.94954052734374,-7.00070333480835,2.4348740577697754,0.9889110326766968,1.6887549072925404e+18,108.94954052734374,-5.842973947525024,-7.274180889129639,1.9956140518188477,1.6887549072925404e+18,108.94954052734374,1.1518833935260773,-9.691550254821776,0.9440155923366548,1.6887549072925463e+18,108.94954654947917,-1.267749031384786,3.5346190134684243,-3.7544287045796714,1.6887549072968717e+18,108.95387190755208,-1.3596333463986714,3.3604206244150796,-3.622685511906942,,,,,,,,,,,,1.6887549072880655e+18,108.94506567382814,-22.848159408569337,44.88623962402344,0.4684799790382385,1.6887549072880655e+18,108.94506567382814,-277.3767517089844,138.20403747558595,-131.5355224609375,1.6887549072925404e+18,108.94954052734374,0.7291851937770844,-0.6585739552974701,-0.0832182392477988,0.1647287607192993,-0.7002792954444885,1.4155298471450806,-2.0877299308776855
4.0,1.6887549073357996e+18,108.99279956054689,-1.9033355315526328,-1.7144982020060222,-3.31760573387146,1.6887549073357996e+18,108.99279956054689,-1.7776678403218586,-11.425528526306152,-1.7740785678227742,1.6887549073357996e+18,108.99279956054689,0.1198216353853543,-9.693525632222494,1.480839769045512,1.6887549073444506e+18,109.00145060221354,-1.0084366897741954,1.1353948762019477,-1.7948748270670574,1.688754907348777e+18,109.00577685546877,-0.8730791509151459,0.9003135859966278,-1.7279341220855713,,,,,,,,,,,,1.6887549073380644e+18,108.99506425781252,-15.58183937072754,47.84839935302735,-0.2952400028705597,1.6887549073380644e+18,108.99506425781252,-270.1104370117188,141.16619262695312,-132.2992370605469,1.6887549073357996e+18,108.99279956054689,0.678303857644399,-0.6937921643257141,-0.1092409566044807,0.2151866952578226,-1.4700515667597454,1.4172962109247844,-1.2071664333343506
4.05,1.6887549073877046e+18,109.04470458984376,1.3467601438363392,-0.6324971516927084,-3.8026397228240967,1.6887549073877046e+18,109.04470458984376,0.6297111709912618,-10.299107551574709,-2.142573297023773,1.6887549073877046e+18,109.04470458984376,-0.7228949964046478,-9.64910570780436,1.5973790089289348,1.6887549073963512e+18,109.05335115559896,0.5184209669629732,0.6721554100513458,-1.828268806139628,1.6887549074006828e+18,109.05768269856772,0.6092362652222315,0.7852672984202703,-1.8010852734247844,,,,,,,,,,,,1.688754907388068e+18,109.04506801757812,-12.085319709777831,48.89271850585938,-0.4465199887752533,1.688754907388068e+18,109.04506801757812,-266.61390991210936,142.21051940917968,-132.4505157470703,1.6887549073877046e+18,109.04470458984376,0.6432979305585226,-0.7217369278271993,-0.1239062373836834,0.2229694128036498,-1.9886879523595171,1.3900988101959229,-0.6552084187666575
4.1,1.688754907439607e+18,109.09660725911458,3.688788890838623,2.066037178039551,-1.0445284843444824,1.688754907439607e+18,109.09660725911458,2.26959228515625,-7.572884877522786,0.2869393130143483,1.688754907439607e+18,109.09660725911458,-1.4250425497690835,-9.6214173634847,1.2687803904215496,1.6887549074482616e+18,109.10526155598956,0.6226752897103628,1.318603515625,-1.190423607826233,1.6887549074439296e+18,109.10092956542968,0.6917285323143005,1.197906732559204,-1.2555571794509888,,,,,,,,,,,,1.6887549074380657e+18,109.09506567382812,-7.603039932250977,49.60763854980469,1.4883999943733217,1.6887549074380657e+18,109.09506567382812,-262.1316345214844,142.92544250488282,-130.51559753417968,1.688754907439607e+18,109.09660725911458,0.6143404046694437,-0.7383633454640707,-0.1643406401077906,0.2241223007440567,-2.4103623231252036,1.3750611543655396,-0.1719263419508933
4.15,1.6887549074915144e+18,109.14851440429688,0.6411795616149902,0.322675069173177,-0.4756922324498494,1.6887549074915144e+18,109.14851440429688,-1.1599208017190297,-9.257431666056316,0.8167501389980316,1.6887549074915144e+18,109.14851440429688,-1.8069463968276975,-9.562602043151855,1.2297549645105998,1.688754907500162e+18,109.15716194661458,0.0666861217468976,1.1593713462352753,-1.1152363220850627,1.6887549074871905e+18,109.14419018554686,0.1377501140038172,1.5346462329228718,-0.9751445651054382,,,,,,,,,,,,1.6887549074880658e+18,109.14506567382814,-4.660399961471557,49.72475814819336,2.9694799423217773,1.6887549074880658e+18,109.14506567382814,-259.1889953613281,143.0425598144531,-129.03451843261718,1.6887549074915144e+18,109.14851440429688,0.5905309319496155,-0.7427136699358622,-0.20040858288606,0.2435837388038634,-2.5420352617899575,1.3464972575505574,0.0433863545767963
4.2,1.6887549075434166e+18,109.20041642252605,2.238342801729838,0.4748090108235677,-1.32305912176768,1.6887549075434166e+18,109.20041642252605,-0.1385843157768249,-8.96949545542399,0.0309072732925415,1.6887549075434166e+18,109.20041642252605,-2.382773160934448,-9.426799774169922,1.2912789980570476,1.6887549075434196e+18,109.20041967773436,-0.2518291920423507,-0.3285691440105437,-1.2636511325836182,1.6887549075390935e+18,109.19609366861978,-0.2062688289831081,-0.162999207774798,-1.2489140033721924,,,,,,,,,,,,1.688754907538069e+18,109.19506909179688,-1.6347999691963195,50.051719665527344,3.169559907913208,1.688754907538069e+18,109.19506909179688,-256.16339721679685,143.36951599121093,-128.83443603515624,1.6887549075434166e+18,109.20041642252605,0.564604640007019,-0.7589788238207499,-0.2125261276960372,0.2448122004667917,-2.6433404286702475,1.2911829153696697,0.1671179036299387
4.25,1.6887549075953216e+18,109.25232169596354,1.7646291653315227,-5.36953067779541,-6.339876810709636,1.6887549075953216e+18,109.25232169596354,-0.8057830395797888,-14.747763315836588,-4.872185707092285,1.6887549075953216e+18,109.25232169596354,-2.5762582619984946,-9.36072826385498,1.4050037463506062,1.6887549075866757e+18,109.24367529296876,-0.346971462170283,-0.2209805101156234,-0.069231390953064,1.6887549075910008e+18,109.24800056966149,-0.2461277842521667,-0.2509638021389643,-0.0340048298239707,,,,,,,,,,,,1.6887549075880653e+18,109.24506533203126,0.2244799885898828,49.92727890014648,2.217959976196289,1.6887549075880653e+18,109.24506533203126,-254.30411376953128,143.24507751464844,-129.78603820800782,1.6887549075953216e+18,109.25232169596354,0.5566583077112833,-0.7673885623613993,-0.205760712424914,0.2426834354797999,-2.6416056156158447,1.2670523722966511,0.1531450003385543
4.3,1.68875490764723e+18,109.30422981770836,5.101774454116821,-3.2394386927286782,0.2441019217173257,1.68875490764723e+18,109.30422981770836,2.557129780451457,-12.678570111592611,1.2628121376037598,1.68875490764723e+18,109.30422981770836,-2.550490697224935,-9.421626726786297,0.956022838751475,1.6887549076385738e+18,109.29557373046876,1.2829188108444214,0.4267402589321136,0.1033889353275299,1.6887549076428972e+18,109.29989689127603,1.2992595036824544,0.557618166009585,0.3423899520809452,,,,,,,,,,,,1.6887549076380657e+18,109.295065625,0.7637199878692627,49.77599868774414,3.520919990539551,1.6887549076380657e+18,109.295065625,-253.7648773193359,143.093798828125,-128.4830749511719,1.68875490764723e+18,109.30422981770836,0.562535285949707,-0.7608680327733358,-0.225738763809204,0.2312639256318409,-2.783578316370646,1.2890386581420898,0.3069709291060765
4.35,1.6887549076991311e+18,109.35613118489584,-2.9270294109980264,-3.773484547932943,1.527134637037913,1.6887549076991311e+18,109.35613118489584,-4.162913163503011,-13.492328961690268,2.173879384994507,1.6887549076991311e+18,109.35613118489584,-1.24172975619634,-9.701339721679688,0.5840573410193125,1.6887549076904855e+18,109.3474852701823,0.7245370944341024,0.0417933613061904,3.243847131729126,1.688754907694809e+18,109.35180932617187,0.6776531537373861,-0.1250237599015236,3.33756415049235,,,,,,,,,,,,1.6887549076880666e+18,109.34506645507813,-2.84747998714447,49.27579956054687,6.595319747924805,1.6887549076880666e+18,109.34506645507813,-257.3760711669922,142.59359436035157,-125.40867614746094,1.6887549076991311e+18,109.35613118489584,0.614729126294454,-0.7136048674583435,-0.2319980959097544,0.2416859914859135,-2.6648033459981284,1.4294569889704387,0.208308762560288
4.4,1.6887549077423887e+18,109.399388671875,-2.086230516433716,-6.364114284515381,4.807117223739624,1.6887549077423887e+18,109.399388671875,-1.8275182843208313,-16.172490119934082,5.327320575714111,1.6887549077423887e+18,109.399388671875,0.2528662234544754,-9.790872097015384,0.4575158506631851,1.6887549077423864e+18,109.39938647460936,0.0634281768773993,-0.6445646484692892,3.782681147257487,1.6887549077467164e+18,109.40371622721354,0.0264199189841747,-0.5717189709345499,3.8302269776662192,,,,,,,,,,,,1.6887549077380677e+18,109.39506743164064,-11.936479949951172,48.00455932617187,7.337079811096191,1.6887549077380677e+18,109.39506743164064,-266.46507568359374,141.32236022949218,-124.6669174194336,1.6887549077423887e+18,109.399388671875,0.673090398311615,-0.6663513779640198,-0.2071790397167205,0.2443934455513954,-1.2009821832180023,1.509820282459259,-1.2902797758579254
4.45,1.6887549077856433e+18,109.44264322916668,-2.383900880813598,-5.167799949645996,8.450931866963705,1.6887549077856433e+18,109.44264322916668,-0.4933202564716339,-14.780266125996908,9.106285413106283,1.6887549077856433e+18,109.44264322916668,1.8847345908482869,-9.594961484273275,0.5926655232906342,1.6887549077942897e+18,109.45128971354166,-0.4870632390181224,-0.7788022756576538,3.7114644845326743,1.688754907798617e+18,109.45561743164062,-0.5461135307947794,-0.8456920087337494,3.6442693074544272,1.6887549077726636e+18,109.42966357421876,0.0,0.0,2.254833936691284,5.160999774932861,1.1955671310424805,187.13291931152344,333.29998779296875,-122.915892,49.2789886,1.6887549077880635e+18,109.44506357421874,-21.052319717407222,44.9643196105957,6.86127986907959,1.6887549077880635e+18,109.44506357421874,-275.58091430664064,138.28211975097656,-125.14271697998046,1.6887549077856433e+18,109.44264322916668,0.7272825042406718,-0.6103276213010153,-0.1757046083609263,0.2587640186150868,-0.314513901869456,1.3673338492711384,-2.1989858945210776
4.5,1.6887549078375444e+18,109.49454427083332,-0.8520318667093912,-1.8629687627156577,1.5744155645370483,1.6887549078375444e+18,109.49454427083332,2.6171497106552124,-10.99601682027181,2.63370015223821,1.6887549078375444e+18,109.49454427083332,3.4633355140686035,-9.115543365478516,0.9965972304344176,1.6887549078461993e+18,109.50319946289062,-0.2042835056781768,0.3279837369918823,2.7298549811045327,1.6887549078505254e+18,109.5075253092448,-0.0627664079268773,0.4599306310216586,2.6412795384724936,,,,,,,,,,,,1.688754907838068e+18,109.4950677734375,-30.255998611450195,40.399079132080075,5.0215198516845705,1.688754907838068e+18,109.4950677734375,-284.7845947265625,133.71687927246094,-126.98247985839843,1.6887549078375444e+18,109.49454427083332,0.7750412424405416,-0.5530382394790649,-0.1310086498657862,0.27548348903656,-0.2813928524653117,1.193859338760376,-2.266144355138143
4.55,1.688754907889453e+18,109.546453125,-9.139925956726074,2.922780195871989,-3.7802700201670327,1.688754907889453e+18,109.546453125,-4.612963279088338,-5.755336761474609,-2.87198535601298,1.688754907889453e+18,109.546453125,4.521116733551025,-8.660612424214682,0.8455972870190939,1.6887549078980966e+18,109.5550965169271,0.356948917110761,-1.573079784711202,2.3408865133921304,1.688754907893776e+18,109.55077600097655,0.5042692497372627,-1.3767375349998474,2.2497403621673584,,,,,,,,,,,,1.688754907888063e+18,109.5450627441406,-34.83831939697266,36.46823959350586,5.504639911651611,1.688754907888063e+18,109.5450627441406,-289.3669128417969,129.78603515625,-126.49935913085938,1.688754907889453e+18,109.546453125,0.8093546827634176,-0.5050328274567922,-0.1185143465797106,0.2747793694337209,-0.1845937271912892,1.082020878791809,-2.375593344370524
4.6,1.6887549079413576e+18,109.59835766601562,-6.896516005198161,8.520440419514975,-1.205811580022176,1.6887549079413576e+18,109.59835766601562,-1.5028919577598572,0.4426721930503845,0.3108675281206767,1.6887549079413576e+18,109.59835766601562,5.387777964274089,-8.060263792673746,1.453991691271464,1.6887549079500052e+18,109.60700520833332,-0.3544545558591683,-2.0233384370803833,1.9859737952550252,1.6887549079370337e+18,109.59403352864584,-0.4062763055165608,-2.3382395108540854,2.40467103322347,,,,,,,,,,,,1.6887549079380657e+18,109.59506567382816,-39.930599975585935,32.40808029174805,1.9495599865913391,1.6887549079380657e+18,109.59506567382816,-294.4591857910156,125.72587890625,-130.05443878173827,1.6887549079413576e+18,109.59835766601562,0.8426156242688497,-0.4707282185554504,-0.0547565519809722,0.2547859648863474,-0.2613743593295415,0.9642242590586344,-2.417443513870239
4.65,1.6887549079932582e+18,109.65025821940104,-2.6454054514567056,8.166479110717773,0.8624863227208456,1.6887549079932582e+18,109.65025821940104,2.9423742294311523,0.3050849040349324,2.802593549092611,1.6887549079932582e+18,109.65025821940104,5.581933657328288,-7.843889872233073,1.8774198293685913,1.688754907993263e+18,109.65026293945311,0.3747658133506775,-0.5290856510400772,-0.8403215184807777,1.6887549079889388e+18,109.6459385579427,0.298153152068456,-0.6914994468291601,-0.4805982112884521,,,,,,,,,,,,1.6887549079880594e+18,109.645059375,-41.75571899414062,30.51219978332519,-1.361519980430603,1.6887549079880594e+18,109.645059375,-296.28432006835936,123.82999725341796,-133.36551513671876,1.6887549079932582e+18,109.65025821940104,0.852179487546285,-0.4633715947469075,-0.0194593177487452,0.2421190092960993,-0.3238860170046487,0.926021695137024,-2.4251418113708496
4.7,1.6887549080451612e+18,109.70216113281248,0.8603176275889078,5.0075615247090655,0.3820232947667439,1.6887549080451612e+18,109.70216113281248,5.514060417811076,-3.4957145055135093,2.0063817898432412,1.6887549080451612e+18,109.70216113281248,4.647896766662598,-8.485771497090658,1.5616710980733235,1.688754908036515e+18,109.69351513671874,1.1483757893244426,0.0106392372399568,-2.699820756912231,1.6887549080408417e+18,109.69784155273436,1.2249884406725566,-0.0202094577252865,-2.757547616958618,,,,,,,,,,,,1.6887549080380626e+18,109.6950626953125,-37.817559814453126,34.0111587524414,-0.4684799969196319,1.6887549080380626e+18,109.6950626953125,-292.3461608886719,127.3289581298828,-132.47247619628905,1.6887549080451612e+18,109.70216113281248,0.829531709353129,-0.5107128024101257,-0.0402303685744603,0.2212291856606801,-0.3227427204449971,1.0461711883544922,-2.43350879351298
4.75,1.68875490809707e+18,109.75407014973958,10.058550357818604,-15.188708941141764,0.5871739784876505,1.68875490809707e+18,109.75407014973958,14.125629742940268,-24.030120849609375,2.0005991458892822,1.68875490809707e+18,109.75407014973958,4.061233441034953,-8.823907852172852,1.3507377703984578,1.6887549080884214e+18,109.74542138671876,0.2071342269579569,-0.8538878212372462,-0.259006808201472,1.6887549080927409e+18,109.74974104817709,0.0334448516368866,-1.1353948364655178,0.1398882071177164,,,,,,,,,,,,1.6887549080880627e+18,109.74506284179688,-34.652879333496095,37.378360748291016,1.0247999906539915,1.6887549080880627e+18,109.74506284179688,-289.1814758300781,130.69615783691407,-130.97919921875,1.68875490809707e+18,109.75407014973958,0.8174312512079874,-0.5389182368914286,-0.0460379309952258,0.1974299252033233,-0.3196338315804799,1.1185689369837444,-2.466798941294352
4.8,1.688754908148978e+18,109.80597802734376,3.2974087397257485,5.756691932678223,3.8733825286229457,1.688754908148978e+18,109.80597802734376,7.754938761393229,-2.7940191427866616,5.832903941472371,1.688754908148978e+18,109.80597802734376,4.45168415705363,-8.533206621805826,1.8968338171641033,1.688754908140328e+18,109.79732804361976,0.4442517459392547,-2.6967663764953613,1.1269954641660054,1.6887549081446543e+18,109.80165445963542,0.5442809276282787,-2.428138494491577,0.8971574219564596,,,,,,,,,,,,1.6887549081380654e+18,109.795065234375,-36.60975952148438,35.48491897583008,-2.7669599771499636,1.6887549081380654e+18,109.795065234375,-291.1383544921875,128.80271911621094,-134.77095947265624,1.688754908148978e+18,109.80597802734376,0.8367684682210287,-0.5221934715906779,0.0136254539635653,0.1633384724458058,-0.4028092722098033,1.054618239402771,-2.519354502360026
4.85,1.6887549081922324e+18,109.8492325439453,-19.454936504364017,-5.768726348876953,9.691959142684937,1.6887549081922324e+18,109.8492325439453,-15.271592617034912,-14.506786346435549,11.403295040130615,1.6887549081922324e+18,109.8492325439453,4.17749810218811,-8.720555305480957,1.648648977279663,1.6887549081922273e+18,109.84922753906253,0.3002402683099111,2.0845776200294495,-0.8946630855401357,1.68875490819655e+18,109.85354980468747,0.3136283953984577,2.4401012659072876,-0.600429634253184,,,,,,,,,,,,1.688754908188063e+18,109.84506293945311,-36.31451950073242,35.997318267822266,-3.779559993743896,1.688754908188063e+18,109.84506293945311,-290.843115234375,129.31511840820312,-135.78355712890624,1.6887549081922324e+18,109.8492325439453,0.82883220911026,-0.5354422926902771,-0.0030233268626034,0.1616027131676673,-0.3752875924110412,1.0946411490440369,-2.526158571243286
4.9,1.688754908235479e+18,109.89247908528644,1.4908236662546794,-1.6115004221598308,-4.314030766487122,1.688754908235479e+18,109.89247908528644,5.724628647168477,-10.413962682088217,-3.1952156821886697,1.688754908235479e+18,109.89247908528644,4.227958997090657,-8.784957885742188,1.056127647558848,1.688754908244138e+18,109.90113810221357,0.247094993169109,2.708627462387085,-1.5617788036664326,1.688754908248463e+18,109.9054629720052,0.2064215547094742,2.8676559925079346,-2.002009014288584,,,,,,,,,,,,1.6887549082380652e+18,109.89506508789064,-35.49223937988281,36.37307968139648,1.654319965839386,1.6887549082380652e+18,109.89506508789064,-290.0208435058594,129.6908752441406,-130.34967956542968,1.688754908235479e+18,109.89247908528644,0.8253422379493713,-0.5300426681836446,-0.0542344922820726,0.185711642106374,-0.2432207117478052,1.109480619430542,-2.5480220317840576
4.95,1.6887549082873818e+18,109.94438175455728,-6.008085012435913,-1.0515330632527669,3.584861914316813,1.6887549082873818e+18,109.94438175455728,-3.1314072410265603,-10.426326115926106,3.924827257792155,1.6887549082873818e+18,109.94438175455728,2.870831569035848,-9.357288360595703,0.277278005455931,1.6887549082960384e+18,109.95303833007812,-0.0361937594910463,5.2615860303243,-4.036648432413737,1.688754908300368e+18,109.95736800130209,-0.1349503050247828,5.242190837860107,-4.072231292724609,,,,,,,,,,,,1.6887549082880622e+18,109.94506230468753,-29.02135887145996,40.51375961303711,7.156519794464112,1.6887549082880622e+18,109.94506230468753,-283.5499572753906,133.83155517578126,-124.84747924804688,1.6887549082873818e+18,109.94438175455728,0.7701582709948221,-0.5727418462435404,-0.1540293718377748,0.2296672215064366,-0.0831331942851344,1.2704813480377195,-2.5021890004475913
5.0,1.688754908339288e+18,109.99628824869792,-6.16798734664917,-0.6879145304361979,0.0842480063438415,1.688754908339288e+18,109.99628824869792,-5.237091223398845,-10.45982551574707,0.2817548910776773,1.688754908339288e+18,109.99628824869792,0.9250500698884327,-9.754406293233236,0.1348194523404041,1.6887549083479406e+18,110.00494059244792,-1.0463103652000427,2.3296364148457847,-3.031367858250936,1.6887549083436186e+18,110.00061853027344,-1.2711341977119446,2.667266726493835,-3.116939902305603,,,,,,,,,,,,1.6887549083380585e+18,109.99505830078128,-17.77539939880371,45.2180793762207,11.907199668884278,1.6887549083380585e+18,109.99505830078128,-272.3039916992187,138.53587646484374,-120.09679718017578,1.688754908339288e+18,109.99628824869792,0.6822597781817118,-0.6232797304789225,-0.2520360300938288,0.2856277426083882,-0.2422791483501593,1.4717384576797483,-2.118025779724121
5.05,1.688754908391199e+18,110.0481991373698,1.313560167948405,-0.2955818176269532,-2.958029588063558,1.688754908391199e+18,110.0481991373698,0.999202807744344,-10.106485366821287,-2.498505691687266,1.688754908391199e+18,110.0481991373698,-0.3202034141480301,-9.7933988571167,0.3968366086483001,1.6887549083998528e+18,110.05685278320313,-0.1889100720485051,-0.2265292008717855,-1.8972965478897097,1.688754908386874e+18,110.0438741048177,-0.3396919767061869,-0.1394808888435363,-2.0425806442896524,,,,,,,,,,,,1.6887549083880678e+18,110.04506782226562,-10.157719612121582,47.37503967285157,11.599759674072263,1.6887549083880678e+18,110.04506782226562,-264.6863159179687,140.69283752441407,-120.40423736572264,1.688754908391199e+18,110.0481991373698,0.6313334902127584,-0.6631480654080709,-0.2756275037924448,0.2924061715602875,-2.1202014287312827,1.5160197019577026,-0.1943703728417555
5.1,1.688754908443107e+18,110.10010693359376,2.6941994031270347,1.209817091623942,-0.2120769619941711,1.688754908443107e+18,110.10010693359376,1.5599209422750089,-8.54237699508667,0.2227319032729914,1.688754908443107e+18,110.10010693359376,-1.140124519666036,-9.734689394632976,0.3721214532852173,1.688754908443106e+18,110.10010607910158,0.5356524586677551,2.210263192653656,-1.5252541303634644,1.688754908438782e+18,110.09578181966148,0.4236350456873576,1.8390098214149475,-1.5696691274642944,,,,,,,,,,,,1.6887549084380636e+18,110.09506352539064,-4.821439814567566,48.19487838745117,11.299639701843262,1.6887549084380636e+18,110.09506352539064,-259.35003662109375,141.51268005371094,-120.70435638427736,1.688754908443107e+18,110.10010693359376,0.5968394080797831,-0.681957463423411,-0.3039597670237223,0.2931196888287862,-2.818377097447714,1.4487988154093423,0.5504509508609772
5.15,1.6887549084950075e+18,110.15200748697916,1.8295956055323284,4.030516942342122,-0.2456859648227691,1.6887549084950075e+18,110.15200748697916,0.0644068121910095,-5.628716468811035,0.1162513035039106,1.6887549084950075e+18,110.15200748697916,-1.771034836769104,-9.64172871907552,0.2992498377958933,1.68875490848636e+18,110.14336002604166,0.4505131145318349,2.557081858317057,-1.4226033687591553,1.6887549084906888e+18,110.14768888346354,0.398131417731444,2.465350310007731,-1.492343783378601,,,,,,,,,,,,1.6887549084880666e+18,110.14506674804689,0.4587199926376343,48.00699920654297,13.09303970336914,1.6887549084880666e+18,110.14506674804689,-254.069873046875,141.32479553222657,-118.91095886230468,1.6887549084950075e+18,110.15200748697916,0.5551997025807699,-0.6771508852640787,-0.3622368176778157,0.3187612493832906,-2.976104974746704,1.3873672485351562,0.8442212144533793
5.2,1.6887549085469156e+18,110.2039157714844,4.642469167709351,1.2065987586975098,-1.0688186685244243,1.6887549085469156e+18,110.2039157714844,2.003191421429316,-8.243473211924234,-0.5409773091475168,1.6887549085469156e+18,110.2039157714844,-2.6451239585876465,-9.432567278544107,0.4651539623737335,1.688754908538267e+18,110.19526692708332,-0.3030909821391105,0.6186028569936751,-1.898925503094991,1.688754908542587e+18,110.19958666992189,-0.3697261835138003,0.51831915974617,-1.8036304712295532,,,,,,,,,,,,1.6887549085380657e+18,110.19506567382813,6.112199783325195,47.631238555908205,12.829519653320313,1.6887549085380657e+18,110.19506567382813,-248.41639709472656,140.94903869628905,-119.17447662353516,1.6887549085469156e+18,110.2039157714844,0.5113042990366617,-0.6936700940132141,-0.3915808101495106,0.3223703106244405,-2.970391035079956,1.2940151294072468,0.898581345876058
5.25,1.6887549085988216e+18,110.25582128906252,1.1595479647318525,-4.123923937479655,-4.4762295087178545,1.6887549085988216e+18,110.25582128906252,-1.5611173411210375,-13.526825904846191,-3.57906444867452,1.6887549085988216e+18,110.25582128906252,-2.726511319478353,-9.385397593180338,0.8344775835673014,1.688754908590166e+18,110.24716577148438,-0.7435247997442881,0.4395684500535329,0.3605122963587443,1.6887549085944896e+18,110.25148974609374,-0.676787793636322,0.4095851580301921,0.4926119049390157,,,,,,,,,,,,1.6887549085880612e+18,110.24506127929688,8.535119915008545,47.799598693847656,11.450919723510742,1.6887549085880612e+18,110.24506127929688,-245.99347534179688,141.11739807128907,-120.5530792236328,1.6887549085988216e+18,110.25582128906252,0.4980133970578511,-0.699129045009613,-0.3872538606325785,0.3364229400952657,-2.8443549474080405,1.2761774063110352,0.7902078628540039
5.3,1.688754908642063e+18,110.29906311035155,2.458840250968933,-6.088520050048828,-3.4068543910980225,1.688754908642063e+18,110.29906311035155,-0.1384846111759543,-15.53869104385376,-2.656930446624756,1.688754908642063e+18,110.29906311035155,-2.603170871734619,-9.432666778564451,0.6872365474700928,1.6887549086420685e+18,110.29906844075522,1.0642290810743968,0.547233460471034,-0.17460564772288,1.6887549086463936e+18,110.3033936360677,1.2047789692878723,0.6630942213038603,-0.2344195395708084,,,,,,,,,,,,1.6887549086380603e+18,110.29506035156253,7.768959999084473,47.91427841186523,11.441159629821778,1.6887549086380603e+18,110.29506035156253,-246.75963439941407,141.232080078125,-120.5628387451172,1.688754908642063e+18,110.29906311035155,0.5025920569896698,-0.6897718608379364,-0.3958062082529067,0.3389596194028854,-2.8838948011398315,1.2929728627204895,0.846833735704422
5.35,1.6887549086853225e+18,110.34232250976562,2.956343670686086,-4.814251899719238,2.259305477142334,1.6887549086853225e+18,110.34232250976562,0.6705885529518127,-14.359128952026367,2.5459633668263755,1.6887549086853225e+18,110.34232250976562,-2.2916012605031333,-9.527372360229492,0.2239705671866734,1.688754908693974e+18,110.35097412109376,0.7984008491039276,0.0145589510599772,2.869794030984243,1.6887549086983035e+18,110.35530379231771,0.6503169524172941,-0.1076140950123469,3.2733214298884072,,,,,,,,,,,,1.688754908688058e+18,110.34505771484376,7.0808796882629395,47.18715972900391,14.449679565429689,1.688754908688058e+18,110.34505771484376,-247.44771423339844,140.5049560546875,-117.55431823730468,1.6887549086853225e+18,110.34232250976562,0.5151750644048055,-0.6634092728296915,-0.419896254936854,0.343118002017339,-3.051112413406372,1.3338960806528728,1.0585956970850627
5.4,1.6887549087372257e+18,110.39422542317708,-2.025630791982015,-4.619896570841472,1.995461901028951,1.6887549087372257e+18,110.39422542317708,-2.3272194067637124,-14.427124977111816,2.17766805489858,1.6887549087372257e+18,110.39422542317708,-0.307434638341268,-9.789724032084148,0.1195186997453371,1.6887549087458744e+18,110.40287434895832,-0.2291253730654715,-0.1025235454241434,3.8024325370788574,1.6887549087502e+18,110.4072000325521,-0.250251126786073,-0.0539088646570841,3.678477923075358,,,,,,,,,,,,1.6887549087380588e+18,110.39505883789064,-2.5522399067878725,47.44335861206055,14.864479637145996,1.6887549087380588e+18,110.39505883789064,-257.0808349609375,140.7611572265625,-117.13951568603515,1.6887549087372257e+18,110.39422542317708,0.5769254167874655,-0.5994565884272257,-0.3945207595825195,0.3891004025936126,-2.0885522762934365,1.5156550804773967,0.1222168803215026
5.45,1.68875490878913e+18,110.44612980143228,-3.5777804056803384,-5.642347653706868,7.952919960021973,1.68875490878913e+18,110.44612980143228,-2.134397784868876,-15.349558512369793,8.238687674204508,1.68875490878913e+18,110.44612980143228,1.437536537647247,-9.689706166585289,0.2230800588925678,1.6887549087977807e+18,110.45478059895834,-0.1289434706171353,0.1944587727387746,3.526525100072225,1.6887549087934556e+18,110.45045568847657,0.095676764845848,0.5493205785751343,3.500181555747986,1.6887549088107592e+18,110.46775927734376,0.0,0.0,2.2644407749176025,5.228000164031982,1.2078661918640137,189.5030059814453,333.29998779296875,-122.9158983,49.2789744,1.6887549087880602e+18,110.44506025390626,-11.106879901885986,46.25263900756836,14.503359603881837,1.6887549087880602e+18,110.44506025390626,-265.6354736328125,139.5704376220703,-117.5006378173828,1.68875490878913e+18,110.44612980143228,0.6207889914512634,-0.5428451697031657,-0.3622825940450032,0.433686504761378,-0.1601298799117405,1.4209130207697551,-1.7815871238708496
5.5,1.6887549088410355e+18,110.49803548177084,-2.199967304865519,-2.6593494415283203,5.856930613517761,1.6887549088410355e+18,110.49803548177084,0.9718847703188658,-11.91645622253418,6.658826589584351,1.6887549088410355e+18,110.49803548177084,3.166006088256836,-9.239602088928224,0.7392085492610931,1.6887549088496852e+18,110.50668513997395,-1.1599313020706177,-1.7040595710277555,3.679037809371948,1.68875490883671e+18,110.49371004231772,-1.0238610704739888,-1.890475153923035,3.6578102111816406,,,,,,,,,,,,1.6887549088380603e+18,110.49506049804688,-19.80059967041016,44.18839874267578,12.478159713745118,1.6887549088380603e+18,110.49506049804688,-274.3291870117188,137.50619506835938,-119.52583770751951,1.6887549088410355e+18,110.49803548177084,0.6681564648946127,-0.5008325775464376,-0.293878436088562,0.4641143282254537,-0.2135250717401503,1.2312845786412556,-1.777683138847351
5.55,1.688754908892943e+18,110.54994295247396,-4.644607702891032,1.3498597145080566,-2.914239982763926,1.688754908892943e+18,110.54994295247396,0.0983051061630249,-7.151548544565837,-1.5583257873853047,1.688754908892943e+18,110.54994295247396,4.737066904703776,-8.483903566996256,1.2932268778483074,1.6887549088929413e+18,110.54994116210938,-0.910189226269722,0.5068654492497444,3.0927343368530273,1.688754908888616e+18,110.54561588541668,-0.8632034907738367,0.2890919546286265,3.156951665878296,,,,,,,,,,,,1.6887549088880584e+18,110.54505830078126,-28.36499938964844,40.596720123291014,9.689239501953123,1.6887549088880584e+18,110.54505830078126,-282.8935974121094,133.91452026367188,-122.31475830078124,1.688754908892943e+18,110.54994295247396,0.7012351950009664,-0.4522017339865367,-0.2304148326317469,0.5002953112125397,-0.261216680208842,1.045330802599589,-1.7509678602218628
5.6,1.688754908944846e+18,110.60184619140624,-8.709701220194498,6.627181053161621,-5.671354452768962,1.688754908944846e+18,110.60184619140624,-3.2376883029937744,-1.425125241279602,-4.284348885218303,1.688754908944846e+18,110.60184619140624,5.466166814168294,-8.034801642100016,1.3243180513381958,1.6887549089361974e+18,110.59319734700522,0.5347106953461965,-1.156724234422048,1.6531031529108684,1.6887549089405215e+18,110.5975213216146,0.4713843471060197,-1.2352713147799177,1.669291098912557,,,,,,,,,,,,1.6887549089380595e+18,110.5950595214844,-33.15227928161621,37.68091888427735,9.586759757995605,1.6887549089380595e+18,110.5950595214844,-287.6808715820313,130.99871520996095,-122.4172378540039,1.688754908944846e+18,110.60184619140624,0.7300130327542623,-0.4256198207537333,-0.1985846112171808,0.4962288538614909,-0.2331287215153375,0.9591780106226604,-1.8258824745814008
5.65,1.6887549089967534e+18,110.65375325520834,-4.382718960444133,8.533296902974447,1.115230321884155,1.6887549089967534e+18,110.65375325520834,1.4897314757108688,0.836690346399943,2.8640093406041465,1.6887549089967534e+18,110.65375325520834,5.866604328155518,-7.679102420806885,1.6860916217168171,1.6887549089881014e+18,110.6451013997396,0.1598939721783002,-1.2796099583307905,0.8575020829836527,1.68875490899243e+18,110.64943017578126,0.2349285930395126,-1.1959723631540935,0.6108652551968893,,,,,,,,,,,,1.688754908988057e+18,110.6450572265625,-36.27547988891602,35.09939880371094,7.346839904785156,1.688754908988057e+18,110.6450572265625,-290.8040771484375,128.41719818115234,-124.65715789794922,1.6887549089967534e+18,110.65375325520834,0.7515875895818075,-0.4188866813977558,-0.1572632938623428,0.484601616859436,-0.2756672104199727,0.8981202443440756,-1.8627313375473025
5.7,1.688754909048664e+18,110.7056641438802,-0.8234574794769287,7.932376225789388,0.7287315924962362,1.688754909048664e+18,110.7056641438802,4.369692881902059,-0.2462613085905711,2.386441787083944,1.688754909048664e+18,110.7056641438802,5.187304337819417,-8.1611328125,1.5950227975845337,1.68875490904001e+18,110.697009765625,0.8786278367042542,-0.2295326093832651,-2.4374032020568848,1.6887549090443397e+18,110.70133959960935,0.8729773362477621,-0.1765400518973668,-2.6369016567866006,,,,,,,,,,,,1.6887549090380636e+18,110.69506367187498,-35.78015899658203,35.907039642333984,6.810039806365967,1.6887549090380636e+18,110.69506367187498,-290.3087524414062,129.22483978271484,-125.19395904541015,1.688754909048664e+18,110.7056641438802,0.7439892490704855,-0.452564130226771,-0.1720525125662485,0.4599955379962921,-0.2935812175273895,0.9828487237294516,-1.876065691312154
5.75,1.6887549091005678e+18,110.75756778971356,7.365178108215332,-13.374139149983725,5.25616999467214,1.6887549091005678e+18,110.75756778971356,11.559327284495035,-22.14617156982422,6.747360865275065,1.6887549091005678e+18,110.75756778971356,4.188303152720134,-8.754527727762857,1.4285033543904622,1.6887549090919186e+18,110.74891853841144,0.0402662046253681,0.4643594026565552,-1.7851518889268243,1.688754909096245e+18,110.75324471028644,-0.0698931564887364,0.2490293936183055,-1.3694071571032207,,,,,,,,,,,,1.6887549090880658e+18,110.74506572265624,-29.18239898681641,40.75043869018555,8.132519912719726,1.6887549090880658e+18,110.74506572265624,-283.71099243164065,134.0682342529297,-123.87147674560546,1.6887549091005678e+18,110.75756778971356,0.7179277539253235,-0.4930613537629445,-0.2063550154368082,0.4458951950073242,-0.3229789932568868,1.1018473307291667,-1.830516258875529
5.8,1.68875490914383e+18,110.80083020019528,8.719862461090088,-3.7862277030944824,4.821677207946777,1.68875490914383e+18,110.80083020019528,13.14377498626709,-12.31944704055786,6.926324129104614,1.68875490914383e+18,110.80083020019528,4.4180662631988525,-8.5157151222229,2.0419594049453735,1.6887549091438177e+18,110.80081746419272,-0.2121738667289416,-3.3572645584742227,1.4750359654426577,1.6887549091481485e+18,110.80514851888022,-0.1831577674796183,-3.1227940718332925,1.3501649002234142,,,,,,,,,,,,1.6887549091380636e+18,110.79506357421874,-30.570759201049803,40.04771957397461,5.4411999702453615,1.6887549091380636e+18,110.79506357421874,-285.0993591308594,133.3655212402344,-126.56279602050782,1.68875490914383e+18,110.80083020019528,0.7368372082710266,-0.5008578151464462,-0.1510789021849632,0.4278928637504577,-0.4272143244743347,1.050511598587036,-1.8393536806106567
5.85,1.6887549091870774e+18,110.8440773111979,-3.8041125933329263,-2.9725688298543296,4.425284783045451,1.6887549091870774e+18,110.8440773111979,0.6785647074381504,-11.418350219726562,6.758926649888356,1.6887549091870774e+18,110.8440773111979,4.476831436157227,-8.428276697794596,2.270954211552938,1.68875490919573e+18,110.85272998046874,-0.3045163278778394,0.9864455461502076,-0.2269873470067978,1.6887549092000517e+18,110.85705135091143,-0.2357939779758453,1.1362093687057495,-0.2673044527570407,,,,,,,,,,,,1.6887549091880658e+18,110.84506572265624,-32.04207916259766,39.459679412841794,2.6913199424743652,1.6887549091880658e+18,110.84506572265624,-286.5706726074219,132.77747802734376,-129.31267395019532,1.6887549091870774e+18,110.8440773111979,0.7404968539873759,-0.5028384923934937,-0.1338890294233957,0.4252205888430277,-0.463970810174942,1.032601038614909,-1.832444667816162
5.9,1.6887549092389837e+18,110.89598372395834,-7.137789090474446,2.018739382425944,-3.921036918958028,1.6887549092389837e+18,110.89598372395834,-2.896511768301328,-6.6602223714192705,-2.0957138935724893,1.6887549092389837e+18,110.89598372395834,4.235431273778279,-8.661457061767578,1.762635668118795,1.6887549092476334e+18,110.90463321940103,1.267443577448527,2.639039675394694,-2.0863593022028604,1.6887549092433083e+18,110.90030822753906,1.2238685190677645,2.452089548110962,-2.033570349216461,,,,,,,,,,,,1.688754909238066e+18,110.89506591796876,-30.78059921264649,40.264878845214845,5.4119199275970455,1.688754909238066e+18,110.89506591796876,-285.3091979980469,133.58267822265626,-126.59207763671876,1.6887549092389837e+18,110.89598372395834,0.7265231211980184,-0.5008326470851898,-0.1779691974322,0.4347568849722544,-0.3846723437309264,1.0821884473164876,-1.8310168584187825
5.95,1.6887549092908872e+18,110.94788736979169,-3.333073933919271,0.5501508712768555,1.954349438349406,1.6887549092908872e+18,110.94788736979169,-0.2239282131195068,-8.74317455291748,2.568096955617269,1.6887549092908872e+18,110.94788736979169,3.103299697240194,-9.2758207321167,0.5510601301987966,1.6887549092995407e+18,110.95654060872396,0.2236275871594747,4.570391893386841,-3.324430545171102,1.688754909286563e+18,110.94356298828126,0.7526877671480179,4.516584873199463,-3.13205885887146,,,,,,,,,,,,1.688754909288067e+18,110.94506728515626,-22.662719345092775,42.84151916503906,12.19267978668213,1.688754909288067e+18,110.94506728515626,-277.1913208007812,136.15931396484376,-119.81131896972656,1.6887549092908872e+18,110.94788736979169,0.6783194343249003,-0.5038928786913554,-0.2928805996974309,0.4454375008742015,-0.1568803563714027,1.241386651992798,-1.868481159210205
6.0,1.688754909342793e+18,110.99979321289062,-3.880184809366862,1.4531612396240234,0.2244894405206044,1.688754909342793e+18,110.99979321289062,-2.443271279335022,-8.249654769897461,0.6604190537085136,1.688754909342793e+18,110.99979321289062,1.4310675064722698,-9.685311317443848,0.3732422192891438,1.6887549093427922e+18,110.99979211425782,-1.193783402442932,2.320829749107361,-3.416187524795532,1.688754909338469e+18,110.99546891276044,-1.0361801981925964,2.6172012090682983,-3.4368297259012857,,,,,,,,,,,,1.6887549093380634e+18,110.99506347656248,-11.926719856262206,46.011078643798825,15.03283977508545,1.6887549093380634e+18,110.99506347656248,-266.4553161621094,139.32887573242186,-116.97115783691406,1.688754909342793e+18,110.99979321289062,0.5940982302029928,-0.5256225069363912,-0.3869115511576335,0.4691979785760243,-0.27884953469038,1.4166795015335083,-1.5572715202967329
6.05,1.688754909394691e+18,111.0516913248698,-2.016772230466207,-1.7022695541381836,-1.5392286777496338,1.688754909394691e+18,111.0516913248698,-2.015354832013448,-11.49392318725586,-0.6837490697701772,1.688754909394691e+18,111.0516913248698,-0.0044286400079726,-9.77414894104004,0.7927921613057455,1.688754909386039e+18,111.0430388997396,-0.8213592171669006,2.337221344312032,-2.5848253965377808,1.688754909390366e+18,111.04736612955728,-0.7368562122186025,2.355801820755005,-2.436588724454244,,,,,,,,,,,,1.6887549093880635e+18,111.04506347656248,-2.8011199116706846,47.89719848632812,13.576159858703614,1.6887549093880635e+18,111.04506347656248,-257.3297149658203,141.21499633789062,-118.42783813476562,1.688754909394691e+18,111.0516913248698,0.5165634155273438,-0.5518022576967875,-0.4416641394297282,0.4827860196431477,-1.53793998559316,1.4890902439753215,-0.1770368739962577
6.1,1.6887549094466035e+18,111.10360327148436,2.7017475763956704,0.7189847628275553,-2.421011765797933,1.6887549094466035e+18,111.10360327148436,1.8275182247161863,-9.032706101735434,-1.5479567845662434,1.6887549094466035e+18,111.10360327148436,-0.8800753553708395,-9.734186172485352,0.8103675643603007,1.6887549094379482e+18,111.09494832356772,0.2331978181997935,1.1059714953104656,-1.8054122527440388,1.6887549094422776e+18,111.09927766927083,0.3243185381094615,1.108567714691162,-1.7905478477478027,,,,,,,,,,,,1.68875490943806e+18,111.09505991210938,3.4818799018859865,48.35347900390625,12.7343599319458,1.68875490943806e+18,111.09505991210938,-251.04671325683591,141.67127685546876,-119.26963806152344,1.6887549094466035e+18,111.10360327148436,0.4725241859753926,-0.5567494432131449,-0.4842014809449513,0.4817423423131307,-2.3997720082600913,1.4497708876927693,0.7655218839645386
6.15,1.6887549094985014e+18,111.15550154622396,1.366664787133535,3.0487778981526694,-1.1949484646320343,1.6887549094985014e+18,111.15550154622396,-0.1780658811330795,-6.635696093241374,-0.5379862785339355,1.6887549094985014e+18,111.15550154622396,-1.5505766868591309,-9.666969299316406,0.5942747592926025,1.6887549094898565e+18,111.14685611979166,0.6053674519062042,2.1103357871373496,-1.4182763894399006,1.688754909494183e+18,111.15118286132812,0.5455535799264908,2.1016819079717,-1.3970997333526611,,,,,,,,,,,,1.6887549094880658e+18,111.14506572265626,8.64735975265503,47.27011947631836,13.612759780883788,1.6887549094880658e+18,111.14506572265626,-245.88123779296876,140.5879150390625,-118.3912353515625,1.6887549094985014e+18,111.15550154622396,0.4353250662485758,-0.5421627759933472,-0.5336802005767822,0.481066753466924,-2.7898174126942954,1.4018951654434204,1.2564412355422974
6.2,1.6887549095504097e+18,111.20740942382812,1.78254234790802,0.6724955240885419,-0.1079490780830382,1.6887549095504097e+18,111.20740942382812,-0.4089732766151428,-8.881360054016113,0.6095715661843618,1.6887549095504097e+18,111.20740942382812,-2.197361667950948,-9.536350886027018,0.6548332373301188,1.68875490954176e+18,111.1987599283854,-0.0957022209962209,0.5490660468737284,-1.3931290705998738,1.6887549095460844e+18,111.20308439127604,-0.1276708357036113,0.397215132912,-1.4021902481714883,,,,,,,,,,,,1.6887549095380657e+18,111.19506567382814,13.502959632873536,46.42343978881836,13.568839836120606,1.6887549095380657e+18,111.19506567382814,-241.0256317138672,139.7412353515625,-118.43515625,1.6887549095504097e+18,111.20740942382812,0.4022045036156972,-0.5430019895235697,-0.5631252924601237,0.4755768279234568,-2.864519675572714,1.3357592423756917,1.3879090150197346
6.25,1.6887549095936666e+18,111.25066650390625,4.095351219177246,0.1542749404907226,-2.3419490456581116,1.6887549095936666e+18,111.25066650390625,1.3432708382606506,-9.244969367980955,-1.5035899877548218,1.6887549095936666e+18,111.25066650390625,-2.7579264640808105,-9.381739616394045,0.7756716907024384,1.6887549095936627e+18,111.25066276041666,-0.565050353606542,-0.0572177122036616,-1.1620184183120728,1.6887549095979927e+18,111.25499259440105,-0.6106616159280142,0.0075340022643407,-1.0339403351147969,,,,,,,,,,,,1.6887549095880714e+18,111.24507143554688,16.501719856262206,45.54747848510742,13.21503963470459,1.6887549095880714e+18,111.24507143554688,-238.0268737792969,138.8652801513672,-118.78895568847656,1.6887549095936666e+18,111.25066650390625,0.3842852562665939,-0.560025691986084,-0.5717764496803284,0.4601500034332275,-2.878091335296631,1.275274395942688,1.395905375480652
6.3,1.688754909636917e+18,111.2939169108073,1.885943055152893,-5.911987940470378,-5.1102274258931475,1.688754909636917e+18,111.2939169108073,-0.96510515610377,-15.260226249694824,-4.0424745082855225,1.688754909636917e+18,111.2939169108073,-2.856894254684448,-9.330733935038248,1.005065421263377,1.6887549096455675e+18,111.30256762695312,0.0538070546463132,0.213039254459242,-0.1213076648612817,1.6887549096498954e+18,111.30689542643228,0.2084577580293019,0.1842267758523424,-0.1804597750306129,,,,,,,,,,,,1.6887549096380662e+18,111.2950662109375,18.126759719848632,45.49379959106445,11.431399536132812,1.6887549096380662e+18,111.2950662109375,-236.4018371582031,138.8115966796875,-120.57259826660156,1.688754909636917e+18,111.2939169108073,0.3728214999039967,-0.5657511750857035,-0.5705704689025879,0.4640822211901347,-2.8118655681610107,1.257854461669922,1.3383760452270508
6.35,1.688754909688825e+18,111.34582527669272,5.742285410563151,-5.216410319010417,-0.0389980872472127,1.688754909688825e+18,111.34582527669272,2.893720125158628,-14.593825340270996,0.68793652455012,1.688754909688825e+18,111.34582527669272,-2.854411363601685,-9.359910329182943,0.6642472445964813,1.6887549096974758e+18,111.35447599283854,1.0378091136614482,0.4631885687510172,1.054760674635569,1.6887549096931515e+18,111.35015185546877,1.218294382095337,0.3492622077465057,0.6365979164838791,,,,,,,,,,,,1.6887549096880645e+18,111.34506455078126,18.697719955444335,44.87891845703125,12.856359672546386,1.6887549096880645e+18,111.34506455078126,-235.83087768554688,138.19671936035155,-119.14763793945312,1.688754909688825e+18,111.34582527669272,0.3778292735417684,-0.5509433746337891,-0.5847053726514181,0.4601084987322489,-2.92336368560791,1.2676884333292644,1.4700175126393635
6.4,1.6887549097407304e+18,111.39773046875,-1.903401533762614,-3.745844205220541,0.8406507472197214,1.6887549097407304e+18,111.39773046875,-3.4741791486740112,-13.423336664835611,1.3369896411895752,1.6887549097407304e+18,111.39773046875,-1.5766234993934631,-9.659987767537435,0.4336515069007873,1.688754909749381e+18,111.40638118489584,0.4630358566840489,0.2244420846303304,3.5752415657043457,1.6887549097363963e+18,111.3933965657552,0.4042400817076365,0.7233662543197474,3.3589444160461426,,,,,,,,,,,,1.688754909738061e+18,111.39506083984377,14.278879928588868,45.90615997314453,13.53711986541748,1.688754909738061e+18,111.39506083984377,-240.2497131347656,139.22395935058594,-118.46687622070311,1.6887549097407304e+18,111.39773046875,0.4030284186204274,-0.4987855950991313,-0.5755944848060608,0.5067091087500254,-2.8748277028401694,1.4035611947377522,1.4854292472203572
6.45,1.688754909792624e+18,111.44962386067708,-2.7372686862945557,-5.030508995056152,3.480097929636637,1.688754909792624e+18,111.44962386067708,-2.4859432379404702,-14.840485254923502,3.691327730814616,1.688754909792624e+18,111.44962386067708,0.2454794247945149,-9.792471567789711,0.1485424786806106,1.6887549097926354e+18,111.44963537597656,0.5838344693183899,-0.675846040248871,3.687717080116272,1.6887549097883108e+18,111.44531070963542,0.5679519474506378,-0.6985753029584885,3.687182585398356,,,,,,,,,,,,1.6887549097880658e+18,111.44506577148438,5.465599918365479,47.12859954833984,15.576959609985352,1.6887549097880658e+18,111.44506577148438,-249.06299438476563,140.44639587402344,-116.42703857421876,1.688754909792624e+18,111.44962386067708,0.4536016881465912,-0.4485013484954834,-0.5347902774810791,0.5535412629445394,-1.010111962755521,1.5181886752446492,-0.3741041421890258
6.5,1.6887549098445402e+18,111.50154028320314,-3.131196975708008,-5.447655359903972,8.345966021219889,1.6887549098445402e+18,111.50154028320314,-0.925623575846354,-14.997614224751793,8.830911636352539,1.6887549098445402e+18,111.50154028320314,2.1997275352478027,-9.532454172770182,0.4222577760616938,1.6887549098358876e+18,111.4928876139323,-0.6271040737628937,-1.170214161276817,4.102621793746948,1.688754909840216e+18,111.49721622721354,-0.6663521826267242,-1.390431111057599,4.117690006891887,1.6887549098488663e+18,111.5058662109375,0.0,0.0,2.199164867401123,5.326000213623047,1.1926438808441162,193.01165771484375,333.29998779296875,-122.9159072,49.2789625,1.688754909838067e+18,111.4950669921875,-4.450559829920531,47.235958862304685,15.23535976409912,1.688754909838067e+18,111.4950669921875,-258.9791595458984,140.5537567138672,-116.76864013671874,1.6887549098445402e+18,111.50154028320314,0.4965585271517436,-0.4132218857606252,-0.4650964240233103,0.6043813228607178,-0.1579910367727279,1.340549071629842,-1.2518775860468547
6.55,1.6887549098964436e+18,111.55344360351562,-1.522868235905965,-0.6775614420572916,0.3766818841298421,1.6887549098964436e+18,111.55344360351562,2.30209481716156,-9.671988487243652,1.3926227688789368,1.6887549098964436e+18,111.55344360351562,3.8191170692443848,-8.976922353108725,0.9532534877459208,1.6887549098877942e+18,111.54479427083334,-0.3572543536623319,-1.4522303144137063,3.1862730979919434,1.6887549098921206e+18,111.54912068684894,-0.2855286002159118,-1.1812097399185102,3.112511157989502,,,,,,,,,,,,1.6887549098880655e+18,111.54506552734374,-15.432999420166016,46.0232795715332,12.997879791259766,1.6887549098880655e+18,111.54506552734374,-269.9615966796875,139.34107666015626,-119.00611572265623,1.6887549098964436e+18,111.55344360351562,0.543540338675181,-0.3998219172159831,-0.3805749416351318,0.6319907307624817,-0.2319821616013844,1.158198356628418,-1.2681322892506917
6.6,1.6887549099483502e+18,111.60535001627606,-11.261091550191244,5.563118139902751,-3.836317618687948,1.6887549099483502e+18,111.60535001627606,-6.207779407501221,-2.805783967177073,-2.8368905782699585,1.6887549099483502e+18,111.60535001627606,5.047466278076172,-8.351397514343262,0.93673970301946,1.688754909939697e+18,111.59669694010417,0.579405685265859,-1.094619611899058,2.939432700475057,1.688754909944026e+18,111.60102563476562,0.5407684668898582,-1.4542156457901,2.9264517625172934,,,,,,,,,,,,1.688754909938065e+18,111.59506479492188,-22.8115592956543,43.200199127197266,12.94663963317871,1.688754909938065e+18,111.59506479492188,-277.34015502929685,136.51799621582032,-119.05735778808594,1.6887549099483502e+18,111.60535001627606,0.5852750142415365,-0.3671804070472717,-0.3271643122037251,0.6441463629404703,-0.1734795769055684,1.0195828080177307,-1.377908190091451
