seconds_elapsed_rounded,accelerometer_time,accelerometer_seconds_elapsed,accelerometer_z,accelerometer_y,accelerometer_x,accelerometeruncalibrated_time,accelerometeruncalibrated_seconds_elapsed,accelerometeruncalibrated_z,accelerometeruncalibrated_y,accelerometeruncalibrated_x,gravity_time,gravity_seconds_elapsed,gravity_z,gravity_y,gravity_x,gyroscope_time,gyroscope_seconds_elapsed,gyroscope_z,gyroscope_y,gyroscope_x,gyroscopeuncalibrated_time,gyroscopeuncalibrated_seconds_elapsed,gyroscopeuncalibrated_z,gyroscopeuncalibrated_y,gyroscopeuncalibrated_x,location_time,location_seconds_elapsed,location_bearingAccuracy,location_speedAccuracy,location_verticalAccuracy,location_horizontalAccuracy,location_speed,location_bearing,location_altitude,location_longitude,location_latitude,magnetometer_time,magnetometer_seconds_elapsed,magnetometer_z,magnetometer_y,magnetometer_x,magnetometeruncalibrated_time,magnetometeruncalibrated_seconds_elapsed,magnetometeruncalibrated_z,magnetometeruncalibrated_y,magnetometeruncalibrated_x,orientation_time,orientation_seconds_elapsed,orientation_qz,orientation_qy,orientation_qx,orientation_qw,orientation_roll,orientation_pitch,orientation_yaw
0.0,1.6888757376695032e+18,59.99950317382813,-3.470289409160614,-5.586895942687988,-0.5079468488693237,1.6888757376695032e+18,59.99950317382813,-4.808377146720886,-15.29821252822876,-0.9870392084121704,1.6888757376695032e+18,59.99950317382813,-1.360889196395874,-9.695571422576904,-0.543805867433548,1.6888757376695032e+18,59.99950317382813,0.978224366903305,-1.445230811834335,3.052722692489624,1.6888757376695032e+18,59.99950317382813,0.9775370955467224,-1.4404966235160828,3.0551661252975464,,,,,,,,,,,,1.6888757376659904e+18,59.99599052734375,-0.1732400178909302,44.18595962524414,-14.38379955291748,1.6888757376659904e+18,59.99599052734375,-255.56802978515623,139.41915893554688,-147.74199829101562,1.6888757376695032e+18,59.99950317382813,-0.5357927978038788,0.6394795477390289,-0.4002833664417267,0.3788326531648636,2.7415425777435303,1.4195939302444458,-0.7707533836364746
0.05,1.6888757377127693e+18,60.04276944986979,-4.006169716517131,-8.740535100301107,-0.8560730218887329,1.6888757377127693e+18,60.04276944986979,-4.147359828154246,-18.46341832478841,-2.1168503562609353,1.6888757377127693e+18,60.04276944986979,-0.1639915953079859,-9.707138061523438,-1.3254908720652263,1.6888757377127693e+18,60.04276944986979,1.75664484500885,-4.254065593083699,2.386955976486206,1.6888757377127693e+18,60.04276944986979,1.755932132403056,-4.249382257461548,2.389399449030558,,,,,,,,,,,,1.688875737715992e+18,60.04599213867188,-4.406639909744262,44.937478637695314,-11.297199630737303,1.688875737715992e+18,60.04599213867188,-259.8014343261719,140.1706787109375,-144.6553985595703,1.6888757377127693e+18,60.04276944986979,-0.524331529935201,0.5929359992345175,-0.3953897257645924,0.4644731084505717,1.7378079096476238,1.427401105562846,0.0918682689468065
0.1,1.6888757377646623e+18,60.094662272135416,-2.8639234701792393,-9.933510780334473,4.044025977452596,1.6888757377646623e+18,60.094662272135416,-1.2837493419647217,-19.523638407389324,2.7330023050308228,1.6888757377646623e+18,60.094662272135416,1.5573728283246355,-9.574382464090982,-1.3757370710372925,1.6888757377646623e+18,60.094662272135416,-1.1864020861685276,-1.2865840295950572,3.14096728960673,1.6888757377646623e+18,60.094662272135416,-1.187063908825318,-1.2820025285085042,3.1433597405751548,1.6888757377646715e+18,60.09467138671875,0.0,0.0,0.980437695980072,6.992000102996826,1.563798427581787,84.7673110961914,39.10000228881836,-122.7517505,49.1905337,1.688875737765994e+18,60.09599423828125,-10.14307975769043,44.4348388671875,-11.145919799804688,1.688875737765994e+18,60.09599423828125,-265.5378784179687,139.66803588867188,-144.50411682128907,1.6888757377646623e+18,60.094662272135416,-0.5386735796928406,0.5191871821880341,-0.3880815009276072,0.5375986893971761,0.7390490670998892,1.351630687713623,0.9648284713427224
0.15,1.6888757378165696e+18,60.146569498697914,-3.7108404636383057,-1.6667990684509275,2.6985654830932617,1.6888757378165696e+18,60.146569498697914,-0.99980099995931,-11.089735825856527,2.127219331761202,1.6888757378165696e+18,60.146569498697914,2.6882380644480386,-9.407191594441732,-0.6360596219698588,1.6888757378165696e+18,60.146569498697914,0.6083708753188452,-4.836016496022542,1.892765959103902,1.6888757378165696e+18,60.146569498697914,0.6077091097831727,-4.83133323987325,1.895158569018046,,,,,,,,,,,,1.688875737815995e+18,60.14599487304688,-12.785599708557127,42.73415908813477,-14.627799797058106,1.688875737815995e+18,60.14599487304688,-268.1803955078125,137.9673583984375,-147.98599548339843,1.6888757378165696e+18,60.146569498697914,-0.5332377751668295,0.4319990773995717,-0.41905743877093,0.5933546423912048,0.2365028957525889,1.2846961816151936,1.2864511013031006
0.2,1.6888757378684695e+18,60.19846948242188,-9.080730438232422,8.975191752115885,0.7985787391662598,1.6888757378684695e+18,60.19846948242188,-5.28295358022054,-0.0769691864649454,0.3692922989527384,1.6888757378684695e+18,60.19846948242188,3.774975061416626,-9.036415735880531,-0.4939998984336853,1.6888757378684695e+18,60.19846948242188,0.7408777276674906,-3.415093024571737,2.016160726547241,1.6888757378684695e+18,60.19846948242188,0.7401650547981262,-3.410460631052653,2.018604238828023,,,,,,,,,,,,1.6888757378659937e+18,60.19599375,-14.161759948730468,42.443799591064455,-14.769319915771485,1.6888757378659937e+18,60.19599375,-269.5565612792969,137.6769989013672,-148.1275177001953,1.6888757378684695e+18,60.19846948242188,-0.4993581473827362,0.3565451204776764,-0.4241830209891001,0.665420413017273,0.1320116271575291,1.1716260115305583,1.1995508273442586
0.25,1.6888757379203643e+18,60.25036458333333,-10.01811663309733,11.364198366800943,-0.3503013253211975,1.6888757379203643e+18,60.25036458333333,-5.484150091807048,2.6414768298467,-0.1826521207888921,1.6888757379203643e+18,60.25036458333333,4.511165301005046,-8.706976572672525,0.1029357487956683,1.6888757379203643e+18,60.25036458333333,0.2791145096222559,-3.4528648853302,1.4953980843226116,1.6888757379203643e+18,60.25036458333333,0.2784018317858377,-3.448181629180908,1.4977906545003254,,,,,,,,,,,,1.6888757379159944e+18,60.245994335937496,-15.418359756469728,41.65811920166016,-16.52367992401123,1.6888757379159944e+18,60.245994335937496,-270.8131591796875,136.8913146972656,-149.8818786621094,1.6888757379203643e+18,60.25036458333333,-0.4653999507427215,0.277817815542221,-0.4386208653450012,0.7163673043251038,-0.0217686680456002,1.0921961863835652,1.1652194261550903
0.3,1.6888757379722698e+18,60.30226977539062,0.0445152918497721,6.443476676940918,1.639770805835724,1.6888757379722698e+18,60.30226977539062,4.882554670174916,-2.103490481774012,2.21356040549775,1.6888757379722698e+18,60.30226977539062,4.815237998962402,-8.531222025553385,0.5090761482715607,1.6888757379722698e+18,60.30226977539062,0.8187121401230494,-1.1213449835777285,-0.0037160956611235,1.6888757379722698e+18,60.30226977539062,0.8179994722207388,-1.1166107455889385,-0.0012726336717605,,,,,,,,,,,,1.6888757379659912e+18,60.29599106445312,-14.266679573059085,41.12131958007812,-17.31423988342285,1.6888757379659912e+18,60.29599106445312,-269.66148071289064,136.3545135498047,-150.6724365234375,1.6888757379722698e+18,60.30226977539062,-0.4348801076412201,0.2275908937056859,-0.4502119620641072,0.7458573778470358,-0.1055104285478591,1.0543254613876345,1.1171376307805378
0.35,1.6888757380241695e+18,60.354169433593746,5.006924072901408,1.7545909881591797,4.283466180165608,1.6888757380241695e+18,60.354169433593746,9.18863852818807,-7.128617286682129,3.9934216340382895,1.6888757380241695e+18,60.354169433593746,4.158913056055705,-8.867463111877441,-0.354757987583677,1.6888757380241695e+18,60.354169433593746,1.4461726049582164,1.3735305070877075,-2.3724478483200073,1.6888757380241695e+18,60.354169433593746,1.4454598724842072,1.3782138029734294,-2.370055357615153,,,,,,,,,,,,1.688875738015993e+18,60.34599311523438,-11.890119552612305,42.91471862792969,-14.034879875183105,1.688875738015993e+18,60.34599311523438,-267.2849182128906,138.14791870117188,-147.39307861328126,1.6888757380241695e+18,60.354169433593746,-0.4067664841810861,0.2770853141943614,-0.4591290255387624,0.739242414633433,0.0892348308116197,1.129905144373576,0.9478341539700826
0.4,1.688875738076065e+18,60.40606518554688,6.728792031606038,-15.654934883117676,1.981859505176544,1.688875738076065e+18,60.40606518554688,10.54736296335856,-24.70270347595215,2.134397784868876,1.688875738076065e+18,60.40606518554688,3.795769135157267,-9.032022794087728,0.0878247991204261,1.688875738076065e+18,60.40606518554688,-0.83362744251887,-4.274325847625732,1.2477431694666543,1.688875738076065e+18,60.40606518554688,-0.8343400855859121,-4.269591728846232,1.2500848372777302,,,,,,,,,,,,1.6888757380659953e+18,60.3959953125,-6.783199787139893,44.19815826416016,-13.236999702453613,1.6888757380659953e+18,60.3959953125,-262.17799072265626,139.43135681152344,-146.59519958496094,1.688875738076065e+18,60.40606518554688,-0.3786963025728861,0.2468597491582234,-0.4942149917284648,0.7415168086687723,-0.0165011249482631,1.170854647954305,0.9535170396169028
0.45,1.6888757381193078e+18,60.4493076171875,5.439286231994629,5.814370393753052,2.8896979093551636,1.6888757381193078e+18,60.4493076171875,9.950852155685425,-2.8947173058986664,3.670290946960449,1.6888757381193078e+18,60.4493076171875,4.488764762878418,-8.693342685699463,0.7158794701099396,1.6888757381193078e+18,60.4493076171875,-0.2393064647912978,0.1311833262443543,0.5528330504894257,1.6888757381193078e+18,60.4493076171875,-0.2399936839938163,0.1358411908149719,0.555276483297348,,,,,,,,,,,,1.688875738115992e+18,60.44599208984376,-8.315519714355469,43.636959075927734,-15.381759452819823,1.688875738115992e+18,60.44599208984376,-263.7103210449219,138.87015380859376,-148.73995666503907,1.6888757381193078e+18,60.4493076171875,-0.3669510185718536,0.1843847781419753,-0.4869896620512008,0.770820826292038,-0.158490888774395,1.0888819098472595,0.9847032129764556
0.5,1.68887573816256e+18,60.49255989583333,-17.002309163411457,-5.559887886047363,3.822882572809855,1.68887573816256e+18,60.49255989583333,-12.79741350809733,-14.43908945719401,4.285944223403931,1.68887573816256e+18,60.49255989583333,4.1820939381917315,-8.86345640818278,0.3983481973409652,1.68887573816256e+18,60.49255989583333,-0.5141449173291524,3.505857467651367,-0.7348199884096781,1.68887573816256e+18,60.49255989583333,-0.5148575901985168,3.5105408430099487,-0.7323765357335409,,,,,,,,,,,,1.6888757381659855e+18,60.49598549804688,-10.101599884033202,43.3148796081543,-15.728239822387696,1.6888757381659855e+18,60.49598549804688,-265.49639282226565,138.54808044433594,-149.08643493652343,1.68887573816256e+18,60.49255989583333,-0.4093175331751505,0.2381514807542165,-0.4792526165644328,0.738523264726003,-0.0947215780615806,1.127784252166748,1.0720173915227251
0.55,1.6888757382144594e+18,60.54445947265625,-3.0133886337280273,0.7778825759887695,-2.2946524620056152,1.6888757382144594e+18,60.54445947265625,0.2578267653783162,-8.453643163045248,-2.755335251490275,1.6888757382144594e+18,60.54445947265625,3.248413960138957,-9.21578057607015,-0.5253962104519209,1.6888757382144594e+18,60.54445947265625,1.5203417936960857,2.899930059909821,-3.4310774008433023,1.6888757382144594e+18,60.54445947265625,1.5196291208267212,2.9046132961908975,-3.42863396803538,,,,,,,,,,,,1.6888757382159877e+18,60.54598779296875,-8.339919662475586,44.847199249267575,-12.565999603271484,1.6888757382159877e+18,60.54598779296875,-263.734716796875,140.0803955078125,-145.9241973876953,1.6888757382144594e+18,60.54445947265625,-0.4051757951577504,0.315226932366689,-0.4834719697634379,0.7079259753227234,0.1810906995087861,1.2245079278945925,0.9064122041066488
0.6,1.688875738266365e+18,60.59636458333333,-10.425433158874512,-0.4367678960164388,-3.5459465980529785,1.688875738266365e+18,60.59636458333333,-9.368698120117188,-10.144770622253418,-4.455635070800781,1.688875738266365e+18,60.59636458333333,1.0339335699876149,-9.692257563273111,-0.9744019905726116,1.688875738266365e+18,60.59636458333333,-1.6709709862867992,5.123632192611694,-3.090367317199707,1.688875738266365e+18,60.59636458333333,-1.671683669090271,5.12821364402771,-3.087923844655355,1.6888757382836723e+18,60.61367236328125,0.0,0.0,0.9900199770927428,6.797999858856201,1.5820244550704956,84.40232849121094,39.10000228881836,-122.7517342,49.1905335,1.6888757382659937e+18,60.59599350585937,-1.1907199919223783,45.859799194335935,-11.062959671020508,1.6888757382659937e+18,60.59599350585937,-256.5855194091797,141.0929962158203,-144.42115783691406,1.688875738266365e+18,60.59636458333333,-0.4307204683621724,0.4409269293149312,-0.5022158324718475,0.6049479047457377,0.7970139582951864,1.4239628712336223,0.5367262860139211
0.65,1.6888757383182725e+18,60.64827262369791,1.682146946589152,-0.6109387079874674,-2.3692307472229004,1.6888757383182725e+18,60.64827262369791,1.4303096930185957,-10.41635545094808,-2.7357939084370932,1.6888757383182725e+18,60.64827262369791,-0.2746386677026748,-9.789671579996744,-0.4312766591707865,1.6888757383182725e+18,60.64827262369791,-0.172722135980924,2.5102997620900473,-2.443461020787557,1.6888757383182725e+18,60.64827262369791,-0.1733839164177576,2.515034039815267,-2.441068450609843,,,,,,,,,,,,1.6888757383159928e+18,60.645992871093746,1.9446799516677855,44.94723968505859,-14.342319679260251,1.6888757383159928e+18,60.645992871093746,-253.45011291503903,140.18043518066406,-147.7005157470703,1.6888757383182725e+18,60.64827262369791,-0.4645485679308573,0.5009350180625916,-0.5124345819155375,0.5196510155995687,1.9504231214523315,1.5100770791371665,-0.4462737739086151
0.7,1.68887573837017e+18,60.70016975911458,4.068900267283122,1.522011439005534,1.1456176042556765,1.68887573837017e+18,60.70016975911458,2.6047868728637695,-8.170292854309082,0.6207380890846254,1.68887573837017e+18,60.70016975911458,-1.486914833386739,-9.676559130350748,-0.5895929535230001,1.68887573837017e+18,60.70016975911458,0.6131050785382589,2.646726369857788,-1.6495397488276164,1.68887573837017e+18,60.70016975911458,0.6123415033022562,2.6513078212738037,-1.647096335887909,,,,,,,,,,,,1.688875738366e+18,60.696000000000005,5.675439834594727,44.65687866210938,-14.37403984069824,1.688875738366e+18,60.696000000000005,-249.71935424804687,139.89007873535155,-147.73223571777345,1.68887573837017e+18,60.70016975911458,-0.4600133101145426,0.5676263570785522,-0.5031750102837881,0.461014986038208,2.7595132986704507,1.407135009765625,-1.1249985297520957
0.75,1.6888757384220695e+18,60.752069661458336,1.124963601430257,3.9740452766418457,-1.7043039202690125,1.6888757384220695e+18,60.752069661458336,-0.5670989950497944,-5.686941941579183,-2.1511476039886475,1.6888757384220695e+18,60.752069661458336,-1.7148640950520833,-9.645242055257162,-0.5115571816762289,1.6888757384220695e+18,60.752069661458336,-0.012115495900313,2.014989972114563,0.1875356286764144,1.6888757384220695e+18,60.752069661458336,-0.0127772639195123,2.019724130630493,0.1899790912866592,,,,,,,,,,,,1.688875738415993e+18,60.74599321289063,5.892599964141846,44.647119140625,-14.393559646606445,1.688875738415993e+18,60.74599321289063,-249.502197265625,139.88031921386718,-147.7517547607422,1.6888757384220695e+18,60.752069661458336,-0.48382235566775,0.6030535101890564,-0.4727991720040639,0.4225214719772339,2.8517375787099204,1.387539029121399,-1.0882691939671834
0.8,1.6888757384739615e+18,60.80396175130208,3.1968186696370444,0.805116335550944,-1.894595245520274,1.6888757384739615e+18,60.80396175130208,1.4015958309173584,-8.843274434407553,-2.166102707386017,1.6888757384739615e+18,60.80396175130208,-1.8180241982142131,-9.632645606994627,-0.3362209300200144,1.6888757384739615e+18,60.80396175130208,-0.2011782849828402,1.5499178767204285,-0.8773551993072033,1.6888757384739615e+18,60.80396175130208,-0.2018400554855664,1.5546011130015056,-0.8749117565651735,,,,,,,,,,,,1.6888757384659953e+18,60.79599526367188,4.152879858016968,44.922838592529295,-14.74735984802246,1.6888757384659953e+18,60.79599526367188,-251.24190979003907,140.15603942871093,-148.10555725097657,1.6888757384739615e+18,60.80396175130208,-0.4991895953814189,0.6185004909833273,-0.4581786592801412,0.3976507782936096,2.954671621322632,1.3811594645182292,-1.1200249592463176
0.85,1.6888757385258668e+18,60.855866536458336,1.278736432393392,-2.2245667775472007,-5.37901512781779,1.6888757385258668e+18,60.855866536458336,-1.0303095877170565,-11.768699645996094,-5.346164147059123,1.6888757385258668e+18,60.855866536458336,-2.3318475087483725,-9.528387705485024,-0.0318624299640456,1.6888757385258668e+18,60.855866536458336,-0.4703153371810913,0.6555602153142294,-0.3185153280695279,1.6888757385258668e+18,60.855866536458336,-0.470977117617925,0.6601416865984598,-0.3160718654592832,,,,,,,,,,,,1.6888757385159954e+18,60.84599536132812,5.33140001296997,44.544639587402344,-16.111320114135744,1.6888757385159954e+18,60.84599536132812,-250.0633972167969,139.77784118652343,-149.46951293945312,1.6888757385258668e+18,60.855866536458336,-0.5033990542093912,0.6428272724151611,-0.4533232649167378,0.3575384815533955,1.033539056777954,1.3308899402618408,-1.2177153825759888
0.9,1.6888757385691195e+18,60.89911975097657,4.319621324539185,-4.375842571258545,-10.61047077178955,1.6888757385691195e+18,60.89911975097657,2.2298115491867065,-13.970494747161863,-10.638190269470217,1.6888757385691195e+18,60.89911975097657,-2.112611174583435,-9.578907012939451,-0.0924331522546708,1.6888757385691195e+18,60.89911975097657,0.4408919885754585,-0.8307767510414124,0.5981898009777069,1.6888757385691195e+18,60.89911975097657,0.4402047842741012,-0.8261188864707947,0.600556880235672,,,,,,,,,,,,1.6888757385659973e+18,60.895997412109374,5.448519897460938,44.00783920288086,-16.184519386291505,1.6888757385659973e+18,60.895997412109374,-249.94627380371097,139.2410400390625,-149.54271545410157,1.6888757385691195e+18,60.89911975097657,-0.5052357614040375,0.6330742835998535,-0.4547234773635864,0.3703364282846451,3.0970659255981445,1.3536052703857422,-1.2098407745361328
0.95,1.6888757386123704e+18,60.94237036132812,-0.5033194621404012,-4.467967351277669,-2.7455339630444846,1.6888757386123704e+18,60.94237036132812,-1.880957971016566,-14.16072432200114,-3.342175046602885,1.6888757386123704e+18,60.94237036132812,-1.4004399975140889,-9.677011807759603,-0.6613545616467794,1.6888757386123704e+18,60.94237036132812,1.406822681427002,-0.998459259668986,2.2852468887964883,1.6888757386123704e+18,60.94237036132812,1.4060590664545696,-0.9937759637832642,2.2876394987106323,,,,,,,,,,,,1.688875738615993e+18,60.945993310546875,2.627879911661148,45.4303596496582,-13.856759452819825,1.688875738615993e+18,60.945993310546875,-252.76691589355468,140.66355895996094,-147.21495666503907,1.6888757386123704e+18,60.94237036132812,-0.5084789395332336,0.6182003815968832,-0.4346360564231872,0.4121305843194325,2.665714979171753,1.4078599611918132,-0.8131087819735209
1.0,1.6888757386642657e+18,60.99426578776041,-3.934688170750936,-8.501997629801432,1.9706160227457683,1.6888757386642657e+18,60.99426578776041,-3.9405800501505537,-18.200207710266113,0.5290132065614065,1.6888757386642657e+18,60.99426578776041,-0.0286932711799939,-9.682464917500814,-1.506316343943278,1.6888757386642657e+18,60.99426578776041,1.4609860181808472,-3.400737682978312,2.5099944273630777,1.6888757386642657e+18,60.99426578776041,1.460273345311483,-3.39605442682902,2.512336095174154,,,,,,,,,,,,1.6888757386659894e+18,60.99598935546875,-1.86659996509552,46.530799102783206,-10.435879898071288,1.6888757386659894e+18,60.99598935546875,-257.2613952636719,141.7639953613281,-143.79407653808593,1.6888757386642657e+18,60.99426578776041,-0.5041859944661459,0.5762805938720703,-0.4110062917073567,0.4936175445715586,1.621344248453776,1.4105456272761028,0.1261157741149266
1.05,1.6888757387161682e+18,61.046168050130206,-1.4017222325007122,-10.440152804056805,4.149751663208008,1.6888757387161682e+18,61.046168050130206,0.3367898464202881,-19.995622634887695,2.7860432068506875,1.6888757387161682e+18,61.046168050130206,1.7157106002171834,-9.539724667867024,-1.428421974182129,1.6888757387161682e+18,61.046168050130206,-1.1780027250448863,-1.676112413406372,3.0265827973683677,1.6888757387161682e+18,61.046168050130206,-1.178715373078982,-1.6714800000190737,3.028975327809652,,,,,,,,,,,,1.688875738715993e+18,61.04599335937501,-7.817759799957275,46.120879364013675,-10.609119606018066,1.688875738715993e+18,61.04599335937501,-263.212548828125,141.3540771484375,-143.96731567382812,1.6888757387161682e+18,61.046168050130206,-0.5183565616607666,0.4994039038817088,-0.4032987058162688,0.5644571185112,0.7081740995248159,1.3359785477320354,0.9129738608996072
1.1,1.6888757387680696e+18,61.09806974283854,-3.649413466453552,-2.0433874130249023,2.8058438499768577,1.6888757387680696e+18,61.09806974283854,-0.8382856051127116,-11.433504740397137,2.156531438231468,1.6888757387680696e+18,61.09806974283854,2.7883263429005942,-9.374372164408364,-0.7140259544054667,1.6888757387680696e+18,61.09806974283854,0.4328489104906717,-3.730961243311564,1.6406313180923462,1.6888757387680696e+18,61.09806974283854,0.4321871697902679,-3.72632892926534,1.6430238485336304,,,,,,,,,,,,1.6888757387659935e+18,61.09599340820313,-11.011719512939454,44.83987884521484,-14.110519790649414,1.6888757387659935e+18,61.09599340820313,-266.40651245117186,140.0730773925781,-147.46871948242188,1.6888757387680696e+18,61.09806974283854,-0.520341694355011,0.4219548404216766,-0.4234656691551208,0.6091145873069763,0.2532737503449122,1.2724955081939695,1.2260571320851643
1.15,1.688875738819971e+18,61.14997094726562,-8.918594360351562,8.295222282409668,0.2569584399461745,1.688875738819971e+18,61.14997094726562,-5.169493993123372,-0.7740781555573144,-0.2285145645340283,1.688875738819971e+18,61.14997094726562,3.7262990474700928,-9.053555170694986,-0.5501864850521088,1.688875738819971e+18,61.14997094726562,0.5429064830144247,-3.285386006037394,1.8840101957321167,1.688875738819971e+18,61.14997094726562,0.5421938200791677,-3.2807536125183105,1.886453668276469,1.688875738802673e+18,61.1326728515625,0.0,0.0,0.9900199770927428,6.758999824523926,1.59235417842865,84.3977279663086,39.10000228881836,-122.7517235,49.1905332,1.6888757388159995e+18,61.1459994140625,-12.892959785461423,44.44704055786133,-14.417959785461424,1.6888757388159995e+18,61.1459994140625,-268.2877502441406,139.68023681640625,-147.77615966796876,1.688875738819971e+18,61.14997094726562,-0.4893435438474019,0.3547147711118062,-0.4286320408185323,0.6710137526194254,0.1486525908112525,1.1760371923446655,1.1605361302693684
1.2,1.6888757388718715e+18,61.201871500651045,-9.870996475219728,11.6662867863973,-0.6825106342633566,1.6888757388718715e+18,61.201871500651045,-5.293721357981364,2.967299540837606,-0.5371886789798737,1.6888757388718715e+18,61.201871500651045,4.5544735590616865,-8.683242162068685,0.0806084473927815,1.6888757388718715e+18,61.201871500651045,0.1308269755293925,-3.189072926839193,1.8626299699147544,1.6888757388718715e+18,61.201871500651045,0.1300633897384007,-3.1844914754231772,1.8650734027226763,,,,,,,,,,,,1.6888757388659953e+18,61.195995166015635,-14.742479515075685,43.75407943725586,-15.650159454345705,1.6888757388659953e+18,61.195995166015635,-270.1372802734375,138.98727722167968,-149.00835571289062,1.6888757388718715e+18,61.201871500651045,-0.4614072144031524,0.2749661008516947,-0.4379085997740428,0.7205043236414591,-0.0162835878630479,1.0872188011805215,1.1486270825068157
1.25,1.6888757389237668e+18,61.25376676432291,-1.9242660999298096,8.140217622121176,1.5154674649238586,1.6888757389237668e+18,61.25376676432291,3.1304102589686713,-0.2775674263636271,2.143570284048716,1.6888757389237668e+18,61.25376676432291,5.031874974568685,-8.402039845784506,0.5633893807729086,1.6888757389237668e+18,61.25376676432291,0.721991832057635,-1.524465133746465,0.2705624004205068,1.6888757389237668e+18,61.25376676432291,0.7212282220522562,-1.5197818279266355,0.2729549606641133,,,,,,,,,,,,1.688875738915993e+18,61.24599326171875,-15.328079795837402,42.973279571533205,-17.221519470214844,1.688875738915993e+18,61.24599326171875,-270.7228698730469,138.20647888183595,-150.5797149658203,1.6888757389237668e+18,61.25376676432291,-0.4359174271424611,0.2180930177370707,-0.4425645669301351,0.7526131868362427,-0.1116981878876685,1.028246323267619,1.1130863428115845
1.3,1.6888757389756695e+18,61.30566951497397,7.569410641988118,1.1879777908325195,2.465749422709147,1.6888757389756695e+18,61.30566951497397,11.993425369262695,-7.580262502034505,2.368894418080648,1.6888757389756695e+18,61.30566951497397,4.4012134075164795,-8.752495129903158,-0.1615685274203618,1.6888757389756695e+18,61.30566951497397,1.6457218726476033,1.4643458127975464,-2.4533875385920205,1.6888757389756695e+18,61.30566951497397,1.6450601021448772,1.4690291285514832,-2.450994968414306,,,,,,,,,,,,1.6888757389659912e+18,61.29599130859375,-13.451719856262208,44.15179977416992,-15.103599739074706,1.6888757389659912e+18,61.29599130859375,-268.8465209960938,139.38500061035157,-148.46179809570313,1.6888757389756695e+18,61.30566951497397,-0.402454266945521,0.2565452804168065,-0.457453578710556,0.7498725851376852,0.0416983378430207,1.103352467219035,0.9574970006942748
1.35,1.688875739027571e+18,61.35757096354166,4.584960222244262,-17.65327485402425,3.2296411991119385,1.688875739027571e+18,61.35757096354166,8.630911032358805,-26.60280481974284,3.3108688990275064,1.688875739027571e+18,61.35757096354166,4.023149251937866,-8.93378480275472,0.016514287640651,1.688875739027571e+18,61.35757096354166,-0.8779151539007822,-3.7516289552052817,1.041627009709676,1.688875739027571e+18,61.35757096354166,-0.8785769542058309,-3.7469455798467,1.0440705021222432,,,,,,,,,,,,1.688875739015993e+18,61.34599306640625,-8.413119792938232,46.04767837524414,-12.5123197555542,1.688875739015993e+18,61.34599306640625,-263.80792236328125,141.28087768554687,-145.87052001953126,1.688875739027571e+18,61.35757096354166,-0.3821731706460317,0.246035873889923,-0.482797622680664,0.7475771109263102,0.0008927197195589,1.1454057693481443,0.943094233671824
1.4,1.6888757390708206e+18,61.40082067871094,5.116026878356934,10.72051763534546,4.107414960861206,1.6888757390708206e+18,61.40082067871094,9.787840843200684,2.1089740693569183,5.024030327796936,1.6888757390708206e+18,61.40082067871094,4.649012565612793,-8.595798015594482,0.8519019484519958,1.6888757390708206e+18,61.40082067871094,0.052610769867897,-1.602910399436951,1.194623380899429,1.6888757390708206e+18,61.40082067871094,0.0518471896648407,-1.5982525944709778,1.1970668137073517,,,,,,,,,,,,1.6888757390659912e+18,61.39599106445313,-8.591239929199219,45.21807861328125,-15.367119789123535,1.6888757390659912e+18,61.39599106445313,-263.98603515625,140.45127868652344,-148.72531433105468,1.6888757390708206e+18,61.40082067871094,-0.3620775938034057,0.1693044304847717,-0.4840485006570816,0.7783867418766022,-0.1814131662249564,1.0679214000701904,0.9782173335552216
1.45,1.6888757391140708e+18,61.44407063802083,-11.766851743062338,-6.359858512878418,3.0600831508636475,1.6888757391140708e+18,61.44407063802083,-7.301498969395955,-15.091732025146484,3.81376051902771,1.6888757391140708e+18,61.44407063802083,4.442551294962565,-8.7161283493042,0.6889639099438986,1.6888757391140708e+18,61.44407063802083,-0.6298020780086517,3.4789793888727822,-1.1057169834772749,1.6888757391140708e+18,61.44407063802083,-0.6305147310098013,3.4837136268615723,-1.1032735407352448,,,,,,,,,,,,1.6888757391159967e+18,61.44599658203125,-10.069879531860352,44.849639129638675,-15.950279808044431,1.6888757391159967e+18,61.44599658203125,-265.4646789550781,140.0828399658203,-149.30848083496093,1.6888757391140708e+18,61.44407063802083,-0.3868975241978962,0.1999887476364771,-0.4826408525307973,0.7591681679089864,-0.1530576422810554,1.0942449569702148,1.0359027584393818
1.5,1.6888757391659704e+18,61.49597062174479,-5.584145545959473,-1.4088579813639324,-1.4488786707321804,1.6888757391659704e+18,61.49597062174479,-1.824726661046346,-10.477572123209637,-1.6079768339792888,1.6888757391659704e+18,61.49597062174479,3.736617644627889,-9.052968978881836,-0.2238116413354873,1.6888757391659704e+18,61.49597062174479,1.1257228255271912,3.060333013534546,-2.3808982372283936,1.6888757391659704e+18,61.49597062174479,1.12506107489268,3.064914544423422,-2.37850558757782,,,,,,,,,,,,1.6888757391659968e+18,61.49599682617187,-9.774639797210693,45.74511871337891,-13.405359649658203,1.6888757391659968e+18,61.49599682617187,-265.1694396972656,140.9783172607422,-146.76355590820313,1.6888757391659704e+18,61.49597062174479,-0.4116562008857727,0.2873795131842295,-0.4754762748877207,0.7217549482981364,0.0685189602275689,1.1768951416015625,0.9882978995641072
1.55,1.688875739217866e+18,61.54786604817709,-8.67706298828125,0.663049062093099,-2.444216092427572,1.688875739217866e+18,61.54786604817709,-6.885745684305827,-8.930811564127604,-3.401596705118815,1.688875739217866e+18,61.54786604817709,1.768515944480896,-9.578115463256836,-1.0220940907796223,1.688875739217866e+18,61.54786604817709,-0.5053891837596893,4.129347165425618,-3.6251797676086426,1.688875739217866e+18,61.54786604817709,-0.5061527490615845,4.133979717890422,-3.6227873166402182,,,,,,,,,,,,1.6888757392159954e+18,61.54599541015625,-3.035359966754913,47.47995986938477,-10.853119468688964,1.6888757392159954e+18,61.54599541015625,-258.43015441894534,142.7131591796875,-144.21131896972656,1.688875739217866e+18,61.54786604817709,-0.4163482387860616,0.402592400709788,-0.4968980650107066,0.6450824538866679,0.5561546087265015,1.3585351308186848,0.6879476110140482
1.6,1.688875739269771e+18,61.59977091471354,-2.0349955558776855,-1.4803835550944011,-3.4852023124694824,1.688875739269771e+18,61.59977091471354,-1.745564103126526,-11.28315575917562,-3.911866108576457,1.688875739269771e+18,61.59977091471354,0.2666299144426982,-9.78702704111735,-0.491377333799998,1.688875739269771e+18,61.59977091471354,-1.3203343463440735,4.16605003674825,-2.2392283280690513,1.688875739269771e+18,61.59977091471354,-1.3210469918946426,4.170733292897542,-2.2367849349975586,,,,,,,,,,,,1.6888757392659978e+18,61.59599790039063,0.8857199609279632,46.60887985229492,-14.261799812316896,1.6888757392659978e+18,61.59599790039063,-254.50907287597656,141.84207763671876,-147.62000122070313,1.688875739269771e+18,61.59977091471354,-0.4636251827081044,0.4778156181176503,-0.5075307885805765,0.5458509922027588,1.245735804239909,1.507135232289632,0.2129227817058563
1.65,1.6888757393216666e+18,61.651666585286456,3.0972336530685425,2.3492253621419272,-0.6893401145935059,1.6888757393216666e+18,61.651666585286456,2.125225245952606,-7.40977414449056,-1.0977074205875397,1.6888757393216666e+18,61.651666585286456,-0.9948098460833232,-9.74325434366862,-0.4730807840824127,1.6888757393216666e+18,61.651666585286456,0.4464915891488393,2.3027584155400596,-2.215150078137716,1.6888757393216666e+18,61.651666585286456,0.4458298186461131,2.3074417114257812,-2.2128084103266397,1.688875739321661e+18,61.65166064453125,0.0,0.0,1.0005587339401243,6.706999778747559,1.6002081632614136,84.18452453613281,39.10000228881836,-122.7517124,49.1905346,1.68887573931599e+18,61.6459900390625,3.5477598667144776,46.09403915405274,-15.218279838562012,1.68887573931599e+18,61.6459900390625,-251.84703674316407,141.32723999023438,-148.57647705078125,1.6888757393216666e+18,61.651666585286456,-0.4732253849506378,0.5488419135411581,-0.4991103212038676,0.4746408263842265,2.6719395319620767,1.4579906860987346,-1.052712599436442
1.7,1.6888757393735616e+18,61.70356144205729,3.763572732607523,3.3221257527669272,0.1349446574846903,1.6888757393735616e+18,61.70356144205729,2.167697861790657,-6.358926137288411,-0.2380858759085337,1.6888757393735616e+18,61.70356144205729,-1.61867622534434,-9.66530672709147,-0.4377439717451731,1.6888757393735616e+18,61.70356144205729,0.0245873294770717,2.400904099146525,-0.4957171380519866,1.6888757393735616e+18,61.70356144205729,0.0239255515237649,2.405536413192749,-0.4933245883633693,,,,,,,,,,,,1.6888757393659889e+18,61.695988818359375,5.414359855651855,45.84271926879883,-14.842519569396972,1.6888757393659889e+18,61.695988818359375,-249.98043518066407,141.07591857910157,-148.20072021484376,1.6888757393735616e+18,61.70356144205729,-0.4825829863548279,0.5923711856206259,-0.481002926826477,0.4295794665813446,2.876444419225057,1.3990734815597534,-1.1404518683751423
1.75,1.688875739425465e+18,61.75546508789063,1.3067903518676758,1.4342292149861653,-2.4567179679870605,1.688875739425465e+18,61.75546508789063,-0.430309255917867,-8.229714711507162,-2.582453886667887,1.688875739425465e+18,61.75546508789063,-1.7599010864893596,-9.64819876352946,-0.1904493744174638,1.688875739425465e+18,61.75546508789063,-0.4023565749327342,1.182482401529948,-0.5424992435922226,1.688875739425465e+18,61.75546508789063,-0.4031201650698979,1.187063892682393,-0.5401575987537702,,,,,,,,,,,,1.6888757394159895e+18,61.745989550781246,4.111399936676025,45.7914794921875,-15.472039604187012,1.6888757394159895e+18,61.745989550781246,-251.28339538574215,141.02467346191406,-148.83023681640626,1.688875739425465e+18,61.75546508789063,-0.502086748679479,0.6111521522204081,-0.4648292263348897,0.3978157142798105,3.031341234842936,1.3893492221832275,-1.208234469095866
1.8,1.688875739477364e+18,61.80736409505209,2.375777085622152,-1.3475980758666992,-4.034261067708333,1.688875739477364e+18,61.80736409505209,0.0618145664532979,-10.888140678405762,-3.802793423334758,1.688875739477364e+18,61.80736409505209,-2.336763938268026,-9.524797439575195,0.1667540992299715,1.688875739477364e+18,61.80736409505209,-0.6027203798294067,0.89883728697896,-1.0255918602148693,1.688875739477364e+18,61.80736409505209,-0.6034839550654093,0.9035206387440364,-1.0231484199563663,,,,,,,,,,,,1.6888757394659866e+18,61.7959865234375,5.485119819641113,45.08631820678711,-17.087319946289064,1.6888757394659866e+18,61.7959865234375,-249.90967407226563,140.31951599121095,-150.4455139160156,1.688875739477364e+18,61.80736409505209,-0.5019901394844055,0.6318167050679525,-0.468809296687444,0.3590833246707916,-3.072446346282959,1.329656442006429,-1.3305399417877195
1.85,1.688875739520611e+18,61.850611083984376,2.7443050146102905,-3.1901798248291016,-8.743402481079102,1.688875739520611e+18,61.850611083984376,0.4438686072826385,-12.73310661315918,-8.416454315185547,1.688875739520611e+18,61.850611083984376,-2.3232380151748657,-9.527181625366213,0.262234404683113,1.688875739520611e+18,61.850611083984376,0.0702495127916336,-0.6714172661304474,0.3239112980663776,1.688875739520611e+18,61.850611083984376,0.0696386396884918,-0.6667594015598297,0.3262783922255039,,,,,,,,,,,,1.6888757395159905e+18,61.845990673828126,6.487959861755371,44.503160095214845,-18.25119934082031,1.6888757395159905e+18,61.845990673828126,-248.9068359375,139.73636169433593,-151.6093994140625,1.688875739520611e+18,61.850611083984376,-0.5028605163097382,0.6272066235542297,-0.4742482006549835,0.3589108437299728,-3.0292474031448364,1.3303340673446655,-1.382945895195007
1.9,1.6888757395638618e+18,61.89386181640625,2.9428837299346924,-3.8532943725585938,-4.118449529012044,1.6888757395638618e+18,61.89386181640625,0.9182457526524862,-13.456835746765137,-4.218745787938436,1.6888757395638618e+18,61.89386181640625,-2.0474393367767334,-9.587796211242676,-0.1650097432235876,1.6888757395638618e+18,61.89386181640625,1.1847731272379558,-0.2567161259551843,1.301906555891037,1.6888757395638618e+18,61.89386181640625,1.1841622789700823,-0.25208372498552,1.3042991360028584,,,,,,,,,,,,1.6888757395659889e+18,61.89598891601563,5.409479856491089,45.105838775634766,-16.853079795837402,1.6888757395659889e+18,61.89598891601563,-249.98531799316407,140.3390380859375,-150.21127624511718,1.6888757395638618e+18,61.89386181640625,-0.5012908180554708,0.6274495323499044,-0.4587519069512685,0.3798986077308655,0.9560434023539224,1.3589025735855105,-1.186850666999817
1.95,1.6888757396157706e+18,61.945770507812504,-4.441571394602458,-6.484800974527995,0.3838606476783752,1.6888757396157706e+18,61.945770507812504,-5.21934445699056,-16.221144040425617,-0.504885584115982,1.6888757396157706e+18,61.945770507812504,-0.8005744814872742,-9.720597902933756,-0.9534596999486288,1.6888757396157706e+18,61.945770507812504,1.5191709597905476,-2.361706813176473,2.568281094233195,1.6888757396157706e+18,61.945770507812504,1.5184582869211831,-2.3571253617604575,2.570673704147339,,,,,,,,,,,,1.6888757396159916e+18,61.945991601562504,0.4709200024604797,46.59911880493164,-14.095879745483398,1.6888757396159916e+18,61.945991601562504,-254.9238800048828,141.83231506347656,-147.4540771484375,1.6888757396157706e+18,61.945770507812504,-0.5089366436004639,0.5974170962969462,-0.4284890095392863,0.446866234143575,2.2555381457010903,1.4360682169596355,-0.4526535769303639
2.0,1.6888757396676682e+18,61.99766829427083,-0.2658213973045348,-11.72530460357666,3.5574493408203125,1.6888757396676682e+18,61.99766829427083,0.6163512269655865,-21.378673553466797,2.097508430480957,1.6888757396676682e+18,61.99766829427083,0.8593711704015732,-9.63762378692627,-1.524654467900594,1.6888757396676682e+18,61.99766829427083,0.2297362486521403,-2.259896010160446,3.391014814376831,1.6888757396676682e+18,61.99766829427083,0.229023536046346,-2.2552126944065094,3.3934582074483237,,,,,,,,,,,,1.6888757396659953e+18,61.995995410156254,-4.574999833106995,47.37503890991211,-11.189839744567871,1.6888757396659953e+18,61.995995410156254,-259.96979370117185,142.60823669433594,-144.54803771972655,1.6888757396676682e+18,61.99766829427083,-0.5052553613980612,0.5339253544807434,-0.4129876792430877,0.5368584195772806,1.0914688507715862,1.3844705025355022,0.5690697729587555
2.05,1.6888757397195717e+18,62.04957161458333,-4.8517898718516035,-6.762100537618001,5.495448589324951,1.6888757397195717e+18,62.04957161458333,-2.472782770792643,-16.26780414581299,4.859623352686564,1.6888757397195717e+18,62.04957161458333,2.3562055428822837,-9.48995844523112,-0.7005385756492615,1.6888757397195717e+18,62.04957161458333,-1.061938315629959,-3.141883591810862,2.106161594390869,1.6888757397195717e+18,62.04957161458333,-1.0626000960667927,-3.1372511039177575,2.1085540850957236,,,,,,,,,,,,1.6888757397159951e+18,62.04599521484376,-11.5119197845459,45.71583862304688,-13.86407985687256,1.6888757397159951e+18,62.04599521484376,-266.9067138671875,140.94903564453125,-147.22227478027344,1.6888757397195717e+18,62.04957161458333,-0.5420234203338623,0.4558002750078837,-0.4138000011444092,0.5710757374763489,0.2971947888533274,1.3150598605473836,1.2865939140319824
2.1,1.6888757397714683e+18,62.10146858723959,-5.592396100362142,4.491254170735677,0.0615939001242319,1.6888757397714683e+18,62.10146858723959,-2.1521445910135903,-4.703691204388936,-0.3070788979530334,1.6888757397714683e+18,62.10146858723959,3.417449951171875,-9.179200172424316,-0.4333862860997517,1.6888757397714683e+18,62.10146858723959,1.0477357109387715,-2.614706834157308,2.398918787638346,1.6888757397714683e+18,62.10146858723959,1.0470739603042605,-2.6101253032684326,2.401311238606771,,,,,,,,,,,,1.688875739765999e+18,62.09599897460937,-13.715239715576171,44.66175918579101,-16.201599884033204,1.688875739765999e+18,62.09599897460937,-269.11004028320315,139.89495849609375,-149.55979614257814,1.6888757397714683e+18,62.10146858723959,-0.5171511769294739,0.3801088432470957,-0.4254070321718852,0.6375673214594523,0.1261955673495928,1.2115925153096516,1.2758148908615112
2.15,1.6888757398233684e+18,62.15336840820313,-10.0097074508667,12.738669713338217,-0.5036051670710245,1.6888757398233684e+18,62.15336840820313,-5.621338526407878,3.947758595148722,-0.7569295565287272,1.6888757398233684e+18,62.15336840820313,4.365567684173584,-8.775165875752768,-0.3180378675460815,1.6888757398233684e+18,62.15336840820313,0.5963062842686971,-3.019405047098795,1.7474818627039592,1.6888757398233684e+18,62.15336840820313,0.5955936163663864,-3.0147218704223633,1.7499252955118816,1.6888757398406612e+18,62.1706611328125,0.0,0.0,1.0107795000076294,6.685999870300293,1.6029982566833496,83.85853576660156,39.10000228881836,-122.7517091,49.1905362,1.6888757398159954e+18,62.14599550781249,-16.979959869384764,44.117638397216794,-15.828279876708985,1.6888757398159954e+18,62.14599550781249,-272.3747497558594,139.35083923339843,-149.186474609375,1.6888757398233684e+18,62.15336840820313,-0.4890473286310832,0.3184250295162201,-0.4190821647644043,0.6951103409131368,0.073972763493657,1.107683261235555,1.1801480849583943
2.2,1.688875739875272e+18,62.20527221679688,-4.079032262166341,9.341863632202148,0.3691560824712117,1.688875739875272e+18,62.20527221679688,0.8795617421468099,0.8516455491383871,0.650050163269043,1.688875739875272e+18,62.20527221679688,4.935792446136475,-8.474472999572754,0.2161806374788284,1.688875739875272e+18,62.20527221679688,0.4486296117926637,-1.9594011704126997,0.588568647702535,1.688875739875272e+18,62.20527221679688,0.4479169364397724,-1.9547687570254009,0.5909612278143564,,,,,,,,,,,,1.6888757398659917e+18,62.195991601562504,-17.048279190063475,43.41491851806641,-17.816879653930663,1.6888757398659917e+18,62.195991601562504,-272.4430725097656,138.6481170654297,-151.17507629394532,1.688875739875272e+18,62.20527221679688,-0.4631924331188201,0.2553515483935674,-0.4278601408004761,0.7328079144159952,-0.0438974952946106,1.042768677075704,1.1525315443674724
2.25,1.688875739927172e+18,62.257172200520834,1.5392128626505537,5.549746672312419,3.1439595222473145,1.688875739927172e+18,62.257172200520834,6.077769597371419,-3.167100191116333,3.099104166030884,1.688875739927172e+18,62.257172200520834,4.515755335489909,-8.701101620992025,-0.1095688367883364,1.688875739927172e+18,62.257172200520834,1.2142473657925923,0.4633922018110752,-2.03708287080129,1.688875739927172e+18,62.257172200520834,1.213483810424805,0.4681264155854781,-2.0346903006235757,,,,,,,,,,,,1.6888757399159923e+18,62.245992333984375,-14.652199745178224,44.412879180908206,-16.821359825134277,1.6888757399159923e+18,62.245992333984375,-270.0469909667969,139.64607849121094,-150.17955932617187,1.688875739927172e+18,62.257172200520834,-0.4336878259976705,0.2690381904443105,-0.4440214534600575,0.7362461487452189,0.0263386281828085,1.0914547046025591,1.047699213027954
2.3,1.6888757399704223e+18,62.30042236328125,4.226495027542114,-7.836051464080811,3.741822838783264,1.6888757399704223e+18,62.30042236328125,7.783253908157349,-16.99442481994629,3.4788650274276733,1.6888757399704223e+18,62.30042236328125,3.533957600593567,-9.142628192901611,-0.3276712521910667,1.6888757399704223e+18,62.30042236328125,-0.7688502371311188,0.4218788146972656,-2.460030674934387,1.6888757399704223e+18,62.30042236328125,-0.7695375010371208,0.4264602810144424,-2.4575873017311096,,,,,,,,,,,,1.6888757399659955e+18,62.29599536132812,-9.447679901123047,46.20383911132812,-15.328079986572266,1.6888757399659955e+18,62.29599536132812,-264.84248046875,141.43703918457032,-148.686279296875,1.6888757399704223e+18,62.30042236328125,-0.4220019429922104,0.3065061420202255,-0.4751574099063873,0.7085571587085724,0.0909131988883018,1.2002946138381958,1.0124741792678835
2.35,1.688875740013667e+18,62.3436669921875,10.147555907567344,-10.344070752461752,3.5016146500905356,1.688875740013667e+18,62.3436669921875,14.116058031717936,-19.30888231595357,4.158925215403239,1.688875740013667e+18,62.3436669921875,3.945700168609619,-8.949066162109375,0.5925972014665604,1.688875740013667e+18,62.3436669921875,-0.5398521622021993,-3.981925010681152,2.448246121406555,1.688875740013667e+18,62.3436669921875,-0.5405139277378718,-3.97724183400472,2.4506894747416177,,,,,,,,,,,,1.688875740015993e+18,62.345993359374994,-7.620119857788086,45.542599487304685,-18.173119735717773,1.688875740015993e+18,62.345993359374994,-263.0149169921875,140.77579650878906,-151.53131713867188,1.688875740013667e+18,62.3436669921875,-0.4073504706223805,0.233946939309438,-0.4930042425791421,0.7313650051752726,-0.1436264303823311,1.15056316057841,1.108332872390747
2.4,1.6888757400655675e+18,62.39556787109375,-7.825234254201253,-0.6774721145629871,4.027527729670207,1.6888757400655675e+18,62.39556787109375,-3.658227205276489,-9.55075184504191,4.800201574961345,1.6888757400655675e+18,62.39556787109375,4.144205967585246,-8.857534726460775,0.7079602479934692,1.6888757400655675e+18,62.39556787109375,-0.2513201435407002,2.115019063154856,-1.5951218853394191,1.6888757400655675e+18,62.39556787109375,-0.2519310017426808,2.119753321011861,-1.5926784425973892,,,,,,,,,,,,1.6888757400659955e+18,62.395995703125,-9.03775987625122,45.454759216308595,-18.57083969116211,1.6888757400659955e+18,62.395995703125,-264.43255615234375,140.68795471191407,-151.92904052734374,1.6888757400655675e+18,62.39556787109375,-0.4052723050117492,0.2199978977441787,-0.4898655315240224,0.7394384344418844,-0.1693944682677587,1.127474665641785,1.1103272438049316
2.45,1.6888757401174735e+18,62.44747347005208,-8.0459566116333,-0.694550355275472,-1.782063861687978,1.6888757401174735e+18,62.44747347005208,-4.442075729370118,-9.838090101877848,-1.5431712369124095,1.6888757401174735e+18,62.44747347005208,3.581078847249349,-9.12779458363851,0.1741791144013404,1.6888757401174735e+18,62.44747347005208,0.6492479629814625,2.4945191144943237,-0.8563821588953336,1.6888757401174735e+18,62.44747347005208,0.6485352590680122,2.4991515080134072,-0.8539387161533037,,,,,,,,,,,,1.6888757401159951e+18,62.44599501953125,-9.271999931335449,45.44499893188477,-17.919359970092774,1.6888757401159951e+18,62.44599501953125,-264.6667907714844,140.6782012939453,-151.27756042480468,1.6888757401174735e+18,62.44747347005208,-0.4350351790587107,0.2873789568742116,-0.4843326906363169,0.7023690740267435,-0.046519860625267,1.195834716161092,1.1401534875233967
2.5,1.688875740169373e+18,62.49937312825521,-7.287866155306499,0.7926751772562662,-0.0734101831912993,1.688875740169373e+18,62.49937312825521,-5.136792023976644,-8.741579214731852,-0.7964111268520355,1.688875740169373e+18,62.49937312825521,2.128272771835327,-9.518509229024252,-0.787714421749115,1.688875740169373e+18,62.49937312825521,-0.0645481298367182,5.7585757573445635,-3.889429966608683,1.688875740169373e+18,62.49937312825521,-0.065260777870814,5.763208230336507,-3.887088219324747,,,,,,,,,,,,1.688875740165997e+18,62.495997167968746,-7.05403995513916,47.05295944213867,-14.740039825439451,1.688875740165997e+18,62.495997167968746,-262.44883422851564,142.2861572265625,-148.09823913574218,1.688875740169373e+18,62.49937312825521,-0.4490697781244914,0.4019238849480946,-0.4777974188327789,0.636965016523997,0.3958629469076792,1.3336625893910723,0.9078671733538308
2.55,1.68887574022127e+18,62.55126993815104,-8.375047524770102,-3.294382095336914,-2.3503560225168862,1.68887574022127e+18,62.55126993815104,-8.016155322392782,-13.103096644083658,-2.5744778315226235,1.68887574022127e+18,62.55126993815104,0.3360909509162108,-9.792969385782875,-0.2888353193799655,1.68887574022127e+18,62.55126993815104,-1.8524997631708784,1.7230981240669887,-2.128254453341166,1.68887574022127e+18,62.55126993815104,-1.8532124757766724,1.7278323372205098,-2.125861962636312,,,,,,,,,,,,1.6888757402159887e+18,62.54598891601563,-2.2252799808979034,46.83823928833008,-16.245519638061523,1.6888757402159887e+18,62.54598891601563,-257.6200714111328,142.07143859863282,-149.6037139892578,1.68887574022127e+18,62.55126993815104,-0.4821786582469939,0.4809987246990203,-0.5012802481651306,0.533313512802124,0.6457643111546835,1.525354027748108,0.8535763621330261
2.6,1.6888757402731732e+18,62.60317309570312,5.812694708506267,2.433065891265869,-1.7238619526227317,1.6888757402731732e+18,62.60317309570312,5.0394837856292725,-7.353542804718018,-1.7856439153353374,1.6888757402731732e+18,62.60317309570312,-0.796012302239736,-9.77086353302002,-0.1264954507350921,1.6888757402731732e+18,62.60317309570312,0.5054909884929657,1.3871222883462906,-2.4700845082600913,1.6888757402731732e+18,62.60317309570312,0.5048292279243469,1.3918055991331737,-2.467691977818807,,,,,,,,,,,,1.6888757402659932e+18,62.5959931640625,2.4546399652957915,45.73291854858398,-18.563519287109376,1.6888757402659932e+18,62.5959931640625,-252.94015502929688,140.96611938476562,-151.92171630859374,1.6888757402731732e+18,62.60317309570312,-0.4671666125456492,0.5136672755082449,-0.5256584485371908,0.491011639436086,2.9910055001576743,1.4887274503707886,-1.4560673634211223
2.65,1.6888757403250698e+18,62.65506982421875,3.1840474605560303,2.162830670674642,1.3902558883031209,1.6888757403250698e+18,62.65506982421875,1.6450655460357666,-7.533403396606445,1.1792627771695454,1.6888757403250698e+18,62.65506982421875,-1.5617833534876506,-9.68048890431722,-0.2757066090901692,1.6888757403250698e+18,62.65506982421875,0.7011714975039164,3.011565685272217,-0.8367326458295187,1.6888757403250698e+18,62.65506982421875,0.700458804766337,3.0161980787913003,-0.8342891931533813,,,,,,,,,,,,1.6888757403159928e+18,62.64599296875,5.255759811401367,46.07939910888672,-17.648519897460936,1.6888757403159928e+18,62.64599296875,-250.13903198242187,141.31259460449218,-151.0067169189453,1.6888757403250698e+18,62.65506982421875,-0.476201444864273,0.573563019434611,-0.5002007881800333,0.439948836962382,2.9669438203175864,1.4086395104726157,-1.28607173760732
2.7,1.68887574037697e+18,62.7069697265625,0.9143263896306356,3.2024919191996255,-1.865220308303833,1.68887574037697e+18,62.7069697265625,-0.8313064674536387,-6.45942481358846,-2.032902240753174,1.68887574037697e+18,62.7069697265625,-1.7684343655904131,-9.64617156982422,-0.2323954006036122,1.68887574037697e+18,62.7069697265625,-0.1894191304842631,1.6027576526006062,-0.1796452887356281,1.68887574037697e+18,62.7069697265625,-0.1901318083206812,1.607440988222758,-0.1772018273671467,1.688875740359673e+18,62.68967309570313,0.0,0.0,1.0107795000076294,6.701000213623047,1.6056746244430542,83.85417175292969,39.10000228881836,-122.7516954,49.1905357,1.6888757403659932e+18,62.69599321289063,4.382239866256714,46.572279357910155,-16.92871971130371,1.6888757403659932e+18,62.69599321289063,-251.01255798339844,141.80547790527345,-150.28692016601562,1.68887574037697e+18,62.7069697265625,-0.4955531259377797,0.6060945789019266,-0.4718547264734903,0.4053615729014079,3.0105831623077393,1.3880047003428142,-1.2139226992925007
2.75,1.6888757404202235e+18,62.75022375488281,4.181058883666992,-0.889531135559082,-1.7935057282447815,1.6888757404202235e+18,62.75022375488281,2.202593207359314,-10.507781505584717,-1.6683955788612366,1.6888757404202235e+18,62.75022375488281,-2.001267194747925,-9.602505207061768,0.0603966976050287,1.6888757404202235e+18,62.75022375488281,-0.5216789096593857,1.1179597973823547,-1.284573256969452,1.6888757404202235e+18,62.75022375488281,-0.522442489862442,1.122693955898285,-1.2822825014591217,,,,,,,,,,,,1.688875740415993e+18,62.74599296875,4.040639925003052,46.22335968017578,-18.2243595123291,1.688875740415993e+18,62.74599296875,-251.3541534423828,141.45656127929686,-151.58255920410156,1.6888757404202235e+18,62.75022375488281,-0.5049046277999878,0.6179504096508026,-0.4690537452697754,0.378321960568428,-3.113055109977722,1.3653918504714966,-1.3214868307113647
2.8,1.6888757404634703e+18,62.79347029622395,1.590248743693034,-1.5549767812093098,-6.084513028462728,1.6888757404634703e+18,62.79347029622395,-0.6913263400395712,-11.09910774230957,-5.664409319559733,1.6888757404634703e+18,62.79347029622395,-2.3043766021728516,-9.528385798136393,0.3553902059793472,1.6888757404634703e+18,62.79347029622395,-0.6965390940507253,0.0740165052314599,-0.0567086438337961,1.6888757404634703e+18,62.79347029622395,-0.697200874487559,0.0785980001091957,-0.0543670107920964,,,,,,,,,,,,1.6888757404659917e+18,62.795991699218746,5.0093199729919435,45.03507919311524,-19.84695930480957,1.6888757404659917e+18,62.795991699218746,-250.3854766845703,140.26827697753907,-153.20516052246094,1.6888757404634703e+18,62.79347029622395,-0.5046400626500448,0.6235977013905843,-0.4779659907023112,0.3577488859494526,-2.987921953201294,1.3308724164962769,-1.4287482500076294
2.85,1.6888757405153738e+18,62.84537377929687,3.877734820048014,-2.960056940714518,-6.866154511769612,1.6888757405153738e+18,62.84537377929687,1.8137595256169636,-12.556536356608072,-6.542774677276611,1.6888757405153738e+18,62.84537377929687,-2.0867768128712973,-9.580734252929686,0.2586663688222567,1.6888757405153738e+18,62.84537377929687,0.5313509479165077,-0.7109453280766805,0.5668829331795374,1.6888757405153738e+18,62.84537377929687,0.5306891848643621,-0.7063129345575968,0.569275513291359,,,,,,,,,,,,1.6888757405159995e+18,62.84599951171875,4.789719963073731,45.11315841674805,-20.005559539794923,1.6888757405159995e+18,62.84599951171875,-250.60507507324215,140.3463592529297,-153.36375732421874,1.6888757405153738e+18,62.84537377929687,-0.505197544892629,0.614228347937266,-0.478503276904424,0.3720948894818623,-3.020463546117147,1.354616403579712,-1.4206782182057698
2.9,1.688875740567271e+18,62.897270670572915,-2.7436566750208535,-5.511903127034505,-2.156185785929362,1.688875740567271e+18,62.897270670572915,-3.7712878783543906,-15.26241970062256,-2.509273370107015,1.688875740567271e+18,62.897270670572915,-1.0504326423009236,-9.734771410624186,-0.4178010175625483,1.688875740567271e+18,62.897270670572915,1.4337516625722249,-1.4956526557604473,2.709441900253296,1.688875740567271e+18,62.897270670572915,1.4330898523330688,-1.4910711646080017,2.71183435122172,,,,,,,,,,,,1.6888757405659958e+18,62.89599580078125,1.198039996623993,46.46979904174805,-17.25811939239502,1.6888757405659958e+18,62.89599580078125,-254.1967559814453,141.70299682617187,-150.61631774902344,1.688875740567271e+18,62.897270670572915,-0.5124515295028687,0.590708871682485,-0.4520184497038523,0.4284246365229288,2.6967922846476235,1.4497960805892944,-0.9023608962694804
2.95,1.6888757406191698e+18,62.94917000325521,-1.4903139472007751,-10.51755428314209,3.3221216201782227,1.6888757406191698e+18,62.94917000325521,-1.092124104499817,-20.2566401163737,2.236092686653137,1.6888757406191698e+18,62.94917000325521,0.3753883391618728,-9.72334067026774,-1.150742530822754,1.6888757406191698e+18,62.94917000325521,0.971530276040236,-3.203886349995931,2.8369091351826987,1.6888757406191698e+18,62.94917000325521,0.970817626764377,-3.199253956476847,2.839301586151123,,,,,,,,,,,,1.6888757406159974e+18,62.94599750976563,-2.7693999767303468,47.948438262939455,-13.917759704589844,1.6888757406159974e+18,62.94599750976563,-258.16419677734376,143.1816375732422,-147.2759552001953,1.6888757406191698e+18,62.94917000325521,-0.5002351005872091,0.5370792547861735,-0.438067505757014,0.5180540978908539,1.315990130106608,1.4398679335912068,0.3361897779007752
3.0,1.6888757406710725e+18,63.00107259114583,-5.099919160207112,-8.93998654683431,5.736023743947347,1.6888757406710725e+18,63.00107259114583,-3.111068328221639,-18.534006754557293,5.129613558451335,1.6888757406710725e+18,63.00107259114583,1.9660495519638064,-9.578275044759115,-0.6711236437161764,1.6888757406710725e+18,63.00107259114583,-1.4145602385203044,-1.6602808932463329,2.5311710437138877,1.6888757406710725e+18,63.00107259114583,-1.4153238733609517,-1.655597483118375,2.5336145162582397,,,,,,,,,,,,1.6888757406659932e+18,62.99599326171875,-9.740479850769043,46.78699951171875,-15.459839630126954,1.6888757406659932e+18,62.99599326171875,-265.13527221679686,142.02019653320312,-148.8180389404297,1.6888757406710725e+18,63.00107259114583,-0.5343403617540995,0.4667981465657552,-0.4258151849110921,0.560917874177297,0.3449334154526393,1.3537548383076985,1.2403311729431152
3.05,1.6888757407229737e+18,63.052973632812495,-2.9454895655314126,-0.4891416231791178,1.179252912600835,1.6888757407229737e+18,63.052973632812495,0.0644067923227947,-9.838688691457111,0.967298577229182,1.6888757407229737e+18,63.052973632812495,2.98709503809611,-9.333801905314129,-0.2766678382953008,1.6888757407229737e+18,63.052973632812495,1.214756468931834,-3.2282701333363852,2.237752119700114,1.6888757407229737e+18,63.052973632812495,1.2140437364578247,-3.223637819290161,2.240144650141398,,,,,,,,,,,,1.6888757407159923e+18,63.0459921875,-11.819359970092773,45.54260025024414,-17.7387996673584,1.6888757407159923e+18,63.0459921875,-267.21416015625,140.77579650878906,-151.0969970703125,1.6888757407229737e+18,63.052973632812495,-0.5133715073267618,0.3883526126543681,-0.4433759252230326,0.623165488243103,0.090300033489863,1.259612997372945,1.313304781913757
3.1,1.6888757407748698e+18,63.10486971028646,-9.797385533650717,10.48945681254069,0.1875735471645991,1.6888757407748698e+18,63.10486971028646,-5.743173122406006,1.5377873579661052,0.0743769034743308,1.6888757407748698e+18,63.10486971028646,4.031411488850911,-8.935924212137857,-0.1779101242621739,1.6888757407748698e+18,63.10486971028646,0.3657046606143315,-3.1899383068084717,2.0964386463165283,1.6888757407748698e+18,63.10486971028646,0.3649919877449671,-3.185356855392456,2.0988820791244507,,,,,,,,,,,,1.6888757407659955e+18,63.09599536132812,-14.683919715881348,45.38155975341797,-17.180039596557616,1.6888757407659955e+18,63.09599536132812,-270.0787109375,140.61475830078126,-150.53823547363282,1.6888757407748698e+18,63.10486971028646,-0.4871908326943715,0.3234802484512328,-0.4350974857807159,0.6840685407320658,0.0464017021780212,1.146090547243754,1.207227110862732
3.15,1.6888757408267717e+18,63.15677189127604,-7.561369260152181,11.836285591125488,-0.4931231737136841,1.6888757408267717e+18,63.15677189127604,-2.777668277422587,3.260021527608236,0.061016986767451,1.6888757408267717e+18,63.15677189127604,4.760899702707927,-8.560518900553385,0.4894266823927561,1.6888757408267717e+18,63.15677189127604,0.1041016168892383,-2.71656862894694,1.2994630932807922,1.6888757408267717e+18,63.15677189127604,0.103388941536347,-2.711885372797648,1.3018556634585063,,,,,,,,,,,,1.688875740815993e+18,63.145993164062496,-16.282119941711425,44.39823913574219,-18.59524002075195,1.688875740815993e+18,63.145993164062496,-271.6769226074219,139.63143615722657,-151.95343933105468,1.6888757408267717e+18,63.15677189127604,-0.4620594878991444,0.2469911475976308,-0.4427014887332916,0.7274027069409689,-0.1017913930118083,1.060624361038208,1.19131338596344
3.2,1.688875740870025e+18,63.20002502441406,-2.888813853263855,7.982569932937622,1.0427322387695312,1.688875740870025e+18,63.20002502441406,1.9716858565807345,-0.5315057337284088,1.8873388767242432,1.688875740870025e+18,63.20002502441406,4.837698221206665,-8.498330116271973,0.7798931896686554,1.688875740870025e+18,63.20002502441406,1.0018953382968905,-1.5258650183677671,-0.3860668279230594,1.688875740870025e+18,63.20002502441406,1.0011317729949951,-1.5212835669517517,-0.3836233802139759,1.688875740878675e+18,63.20867504882813,0.0,0.0,1.020374774932861,6.739999771118164,1.610270380973816,83.84308624267578,39.10000228881836,-122.751687,49.1905348,1.6888757408659922e+18,63.19599223632813,-15.474480056762696,44.09811859130859,-19.92991943359375,1.6888757408659922e+18,63.19599223632813,-270.86927490234376,139.33131408691406,-153.28811950683593,1.688875740870025e+18,63.20002502441406,-0.4366809874773025,0.2135348543524742,-0.4558024406433105,0.7455854415893555,-0.160027652978897,1.0475833415985107,1.1521933674812317
3.25,1.688875740913277e+18,63.24327709960937,6.178656895955403,2.2238734563191733,2.1448729435602822,1.688875740913277e+18,63.24327709960937,10.412168343861898,-6.637091954549153,2.4847469329833984,1.688875740913277e+18,63.24327709960937,4.210709889729817,-8.845220247904459,0.2751605400505165,1.688875740913277e+18,63.24327709960937,1.5001323223114014,0.4423173417647679,-2.4513003826141357,1.688875740913277e+18,63.24327709960937,1.499470551808675,0.4470006451010704,-2.448907812436422,,,,,,,,,,,,1.6888757409159918e+18,63.24599169921875,-11.58267993927002,46.02083892822266,-17.733919525146483,1.6888757409159918e+18,63.24599169921875,-266.97747192382815,141.25403442382813,-151.0921142578125,1.688875740913277e+18,63.24327709960937,-0.4033276438713074,0.2399262934923171,-0.4768639306227365,0.74287348985672,-0.0615140225660676,1.1250580946604412,1.0321001211802163
3.3,1.6888757409651743e+18,63.295174235026046,7.498982429504395,-17.13207753499349,2.8297382593154907,1.6888757409651743e+18,63.295174235026046,11.374082883199057,-26.140191396077473,3.4450663725535073,1.6888757409651743e+18,63.295174235026046,3.852298895517985,-8.992368380228678,0.5506146724025408,1.6888757409651743e+18,63.295174235026046,-0.9814059336980184,-3.4733797709147134,1.236391256252925,1.6888757409651743e+18,63.295174235026046,-0.9820676843325296,-3.46874729792277,1.2388346989949544,,,,,,,,,,,,1.6888757409659953e+18,63.29599545898437,-6.807599830627441,46.67475967407226,-17.480159568786622,1.6888757409659953e+18,63.29599545898437,-262.202392578125,141.9079559326172,-150.8383575439453,1.6888757409651743e+18,63.295174235026046,-0.3823648790518443,0.2219179222981135,-0.5031522115071615,0.7416476209958395,-0.135652024919788,1.160460392634074,1.0393312176068623
3.35,1.6888757410170767e+18,63.347076741536455,-0.7356630166371662,8.540196736653646,5.674962202707927,1.6888757410170767e+18,63.347076741536455,3.624129354953766,-0.1569293737411499,7.172884623209636,1.6888757410170767e+18,63.347076741536455,4.336990833282471,-8.681380907694498,1.4332088629404705,1.6888757410170767e+18,63.347076741536455,0.0213293706377347,-1.28755122423172,0.3945171435674033,1.6888757410170767e+18,63.347076741536455,0.020667607585589,-1.2828679084777832,0.3969096938769023,,,,,,,,,,,,1.6888757410159962e+18,63.3459962890625,-7.027199840545654,45.69875869750977,-20.027519607543944,1.6888757410159962e+18,63.3459962890625,-262.4219909667969,140.93195495605468,-153.3857177734375,1.6888757410170767e+18,63.347076741536455,-0.3559859494368235,0.1402524312337239,-0.5091037154197693,0.7709403236707052,-0.3193131089210509,1.0862709283828735,1.0589714050292969
3.4,1.6888757410689713e+18,63.39897135416667,-12.916586558024088,-10.162888209025065,0.3813874324162801,1.6888757410689713e+18,63.39897135416667,-8.883752663930258,-19.062421798706055,1.5222340027491252,1.6888757410689713e+18,63.39897135416667,4.010032256444295,-8.88378874460856,1.0761330326398213,1.6888757410689713e+18,63.39897135416667,-0.1193732482691605,4.187023162841797,-1.1843149860699975,1.6888757410689713e+18,63.39897135416667,-0.120035033673048,4.191706418991089,-1.1819224854310353,,,,,,,,,,,,1.6888757410659996e+18,63.39599946289062,-8.030039882659912,45.225398254394534,-20.3422794342041,1.6888757410659996e+18,63.39599946289062,-263.4248352050781,140.4585968017578,-153.70047607421876,1.6888757410689713e+18,63.39897135416667,-0.3913923601309458,0.1936654945214588,-0.5072352190812429,0.7422820130983988,-0.2607144812742868,1.1327474117279053,1.1364378929138184
3.45,1.6888757411208776e+18,63.45087760416667,-4.3304206530253095,-0.265542984008789,-0.9927986860275269,1.6888757411208776e+18,63.45087760416667,-1.2612169583638508,-9.584451039632162,-1.0227322435627382,1.6888757411208776e+18,63.45087760416667,3.046402374903361,-9.303162892659504,-0.0946470399697621,1.6888757411208776e+18,63.45087760416667,0.9154324730237324,4.657134850819905,-3.3502904574076333,1.6888757411208776e+18,63.45087760416667,0.9146689226229986,4.661716302235921,-3.347898006439209,,,,,,,,,,,,1.688875741115995e+18,63.445994970703126,-7.644519805908203,46.61375885009765,-16.748159408569336,1.688875741115995e+18,63.445994970703126,-263.0393127441406,141.84695739746093,-150.10635681152343,1.6888757411208776e+18,63.45087760416667,-0.4132597148418426,0.3051323493321736,-0.4999916950861613,0.6957398851712545,0.0498182500402132,1.252060095469157,1.0318975647290547
3.5,1.6888757411727762e+18,63.50277612304688,-9.215025742848717,0.9826389948527018,-1.4419904947280884,1.6888757411727762e+18,63.50277612304688,-8.301499207814535,-8.778069814046225,-1.8011972705523174,1.6888757411727762e+18,63.50277612304688,0.8907253046830496,-9.74496364593506,-0.4239202290773392,1.6888757411727762e+18,63.50277612304688,-1.4366532663504283,4.48324187596639,-3.5500434239705405,1.6888757411727762e+18,63.50277612304688,-1.437315046787262,4.487823327382405,-3.5476508935292563,,,,,,,,,,,,1.6888757411659927e+18,63.495992675781245,-2.4326799392700194,47.26279907226562,-15.613559913635251,1.6888757411659927e+18,63.495992675781245,-257.8274841308594,142.49599609375,-148.9717559814453,1.6888757411727762e+18,63.50277612304688,-0.4459816813468932,0.4309569398562113,-0.5178897579511007,0.5878193775812784,0.4674138327439626,1.46936031182607,0.8735392093658447
3.55,1.6888757412246712e+18,63.55467130533854,-1.2156455914179485,-1.48178497950236,-3.4406607945760093,1.6888757412246712e+18,63.55467130533854,-1.606182098388672,-11.29292662938436,-3.225923697153727,1.6888757412246712e+18,63.55467130533854,-0.4133379297951857,-9.795396486918133,0.150023673971494,1.6888757412246712e+18,63.55467130533854,-0.4132503320773442,1.9752327998479209,-2.1920390129089355,1.6888757412246712e+18,63.55467130533854,-0.413861225048701,1.9799160559972129,-2.1897482872009277,,,,,,,,,,,,1.6888757412159954e+18,63.54599545898437,1.790959930419922,46.03303909301758,-19.105199813842773,1.6888757412159954e+18,63.54599545898437,-253.6038360595703,141.2662384033203,-152.46339721679686,1.6888757412246712e+18,63.55467130533854,-0.4734394947687784,0.4857739110787709,-0.5336364110310873,0.5047067105770111,-2.519378145535787,1.5239693721135457,-2.272193710009257
3.6,1.688875741276573e+18,63.606573079427086,6.907881259918213,1.4041050275166829,-0.4902595927317937,1.688875741276573e+18,63.606573079427086,5.4725847244262695,-8.309874057769775,-0.4153541227181752,1.688875741276573e+18,63.606573079427086,-1.45809801419576,-9.698233922322592,0.0101920383361478,1.688875741276573e+18,63.606573079427086,0.643037478129069,2.6581292152404785,-1.873727281888326,1.688875741276573e+18,63.606573079427086,0.642426609992981,2.6628124713897705,-1.8713347911834717,,,,,,,,,,,,1.6888757412659953e+18,63.595995507812496,4.953199863433838,45.71095962524414,-18.96611976623535,1.6888757412659953e+18,63.595995507812496,-250.44159240722655,140.94415893554688,-152.32431640625,1.688875741276573e+18,63.606573079427086,-0.4689559837182362,0.5442416270573934,-0.5269402662913004,0.4535176654656728,1.058500051498413,1.4217758973439534,-1.5492243766784666
3.65,1.6888757413198267e+18,63.64982666015625,2.386955499649048,3.5053048133850098,-1.036257553845644,1.6888757413198267e+18,63.64982666015625,0.6942176818847656,-6.1689958572387695,-0.918245702981949,1.6888757413198267e+18,63.64982666015625,-1.7155392169952393,-9.658555507659912,0.053298395127058,1.6888757413198267e+18,63.64982666015625,0.2873357385396957,3.4996469020843506,0.1987602636218071,1.6888757413198267e+18,63.64982666015625,0.2866485118865966,3.5043811798095703,0.2011273875832558,,,,,,,,,,,,1.688875741315994e+18,63.64599404296875,4.919039916992188,46.08183898925781,-18.73431968688965,1.688875741315994e+18,63.64599404296875,-250.4757537841797,141.31503601074218,-152.09251403808594,1.6888757413198267e+18,63.64982666015625,-0.4941326975822449,0.5867897272109985,-0.4928321689367294,0.4103664010763168,-3.1103638410568237,1.3951509594917295,-1.4233615398406982
3.7,1.6888757413630697e+18,63.69306974283854,-0.6445709069569906,1.7905718485514324,-2.8600613673528037,1.6888757413630697e+18,63.69306974283854,-2.193420827388763,-7.907082239786784,-2.645464817682902,1.6888757413630697e+18,63.69306974283854,-1.5716513395309448,-9.68190892537435,0.1498830293615658,1.6888757413630697e+18,63.69306974283854,-0.1301142921050389,1.576388676961263,-0.0256054500738779,1.6888757413630697e+18,63.69306974283854,-0.1308269749085108,1.5809701681137085,-0.0231619874636332,,,,,,,,,,,,1.6888757413659927e+18,63.69599267578125,1.40299996137619,46.25019912719726,-18.968559646606444,1.6888757413659927e+18,63.69599267578125,-253.991796875,141.4833984375,-152.32675476074218,1.6888757413630697e+18,63.69306974283854,-0.5190461079279581,0.6028574903806051,-0.4653064707914987,0.3879931370417277,-3.0470923582712808,1.409329175949097,-1.3949772516886394
3.75,1.6888757414149734e+18,63.74497347005209,4.285418589909871,-0.8765592575073242,-3.38196591536204,1.6888757414149734e+18,63.74497347005209,2.0570298035939536,-10.429516474405924,-2.9190441171328225,1.6888757414149734e+18,63.74497347005209,-2.2511902252833047,-9.537212053934732,0.3982082605361938,1.6888757414149734e+18,63.74497347005209,-0.5996151268482208,0.398233229915301,-1.608560934662819,1.6888757414149734e+18,63.74497347005209,-0.6003278195858002,0.4028656333684921,-1.6061683545509975,1.6888757413976663e+18,63.72766625976563,0.0,0.0,1.020374774932861,6.664999961853027,1.6116294860839844,83.79353332519531,39.10000228881836,-122.7516691,49.1905342,1.6888757414159946e+18,63.7459947265625,3.625839900970459,45.7280387878418,-19.82011985778809,1.6888757414159946e+18,63.7459947265625,-251.76895751953128,140.96123962402345,-153.17831726074218,1.6888757414149734e+18,63.74497347005209,-0.5108077724774679,0.626021146774292,-0.4718792041142781,0.3526594638824463,-2.9683078130086265,1.335705558458964,-1.4282879829406738
3.8,1.6888757414668772e+18,63.79687744140625,2.1843918561935425,-4.092076301574707,-8.192644596099854,1.6888757414668772e+18,63.79687744140625,-0.052642116943995,-13.633904457092283,-7.512266794840495,1.6888757414668772e+18,63.79687744140625,-2.2598354816436768,-9.526082992553713,0.6156646410624186,1.6888757414668772e+18,63.79687744140625,-0.1884010334809621,-0.5353724906841913,0.3891211673617363,1.6888757414668772e+18,63.79687744140625,-0.1890628039836883,-0.5307400822639465,0.3915646195722123,,,,,,,,,,,,1.6888757414659912e+18,63.795991162109374,4.531079959869385,44.79595947265625,-21.46711959838867,1.6888757414659912e+18,63.795991162109374,-250.86371459960935,140.02915954589844,-154.8253173828125,1.6888757414668772e+18,63.79687744140625,-0.5129419565200806,0.6186071435610453,-0.4820548097292582,0.3490098218123118,-2.87546443939209,1.329910079638163,-1.5330733060836792
3.85,1.6888757415187753e+18,63.84877530924479,0.8144736289978027,-3.4034932454427085,-3.1618311405181885,1.6888757415187753e+18,63.84877530924479,-0.93120676279068,-13.059627215067543,-2.967299461364746,1.6888757415187753e+18,63.84877530924479,-1.7684818903605144,-9.64038880666097,0.1298181861639022,1.6888757415187753e+18,63.84877530924479,1.1561133861541748,-0.8551604350407919,1.9599610964457197,1.6888757415187753e+18,63.84877530924479,1.1554516355196636,-0.8504771192868551,1.9623537063598633,,,,,,,,,,,,1.6888757415159987e+18,63.84599873046875,3.886919951438904,45.38155822753906,-20.010438919067383,1.6888757415159987e+18,63.84599873046875,-251.50787353515625,140.61475524902343,-153.36864013671874,1.6888757415187753e+18,63.84877530924479,-0.5110941727956136,0.607040524482727,-0.4705121715863545,0.3853364388147989,-0.994088331858317,1.3882404168446858,-1.359694004058838
3.9,1.6888757415706708e+18,63.90067097981771,-4.362538735071818,-7.496850967407227,1.3384472529093423,1.6888757415706708e+18,63.90067097981771,-4.818347215652466,-17.27877203623454,0.7320042848587036,1.6888757415706708e+18,63.90067097981771,-0.4786098164816697,-9.766175905863443,-0.6711563964684805,1.6888757415706708e+18,63.90067097981771,1.3763811985651653,-3.488600492477417,2.470339059829712,1.6888757415706708e+18,63.90067097981771,1.3756685256958008,-3.483968178431193,2.472782532374064,,,,,,,,,,,,1.6888757415659932e+18,63.895993115234376,-0.4269999861717224,47.08711853027344,-16.989719772338866,1.6888757415659932e+18,63.895993115234376,-255.82179260253903,142.3203155517578,-150.34791870117186,1.6888757415706708e+18,63.90067097981771,-0.5077118575572968,0.5660171707471212,-0.451229174931844,0.465961883465449,2.172695199648539,1.4765595992406209,-0.4449672326445579
3.95,1.6888757416225723e+18,63.95257259114584,-1.719734857479731,-10.820127805074057,4.604087273279826,1.6888757416225723e+18,63.95257259114584,-0.4871387432018916,-20.53500493367513,4.0536409219106035,1.6888757416225723e+18,63.95257259114584,1.2097946405410769,-9.699131965637209,-0.6151597102483114,1.6888757416225723e+18,63.95257259114584,-1.5351043206950028,-1.215825438499451,3.42669947942098,1.6888757416225723e+18,63.95257259114584,-1.5357661433517933,-1.2110912303129833,3.429092009862264,,,,,,,,,,,,1.6888757416159895e+18,63.94598974609376,-6.041439819335937,47.30427932739258,-16.082039642333985,1.6888757416159895e+18,63.94598974609376,-261.4362365722656,142.5374755859375,-149.44023742675782,1.6888757416225723e+18,63.95257259114584,-0.5193361341953278,0.4878304600715637,-0.4469765623410542,0.5400691231091818,0.5401109233498573,1.4228310585021973,1.0508625308672588
4.0,1.6888757416744712e+18,64.00447094726563,-4.228375673294067,-4.658553759256999,5.1675723393758135,1.6888757416744712e+18,64.00447094726563,-1.7872391541798909,-14.170893987019856,5.577270905176799,1.6888757416744712e+18,64.00447094726563,2.418335199356079,-9.49659506479899,0.3449850032726924,1.6888757416744712e+18,64.00447094726563,-0.1410589714845021,-3.617034991582235,2.151925484339396,1.6888757416744712e+18,64.00447094726563,-0.1416698098182678,-3.6124534606933594,2.15431809425354,,,,,,,,,,,,1.688875741665989e+18,63.99598916015625,-11.158119773864746,45.047278594970706,-20.86931953430176,1.688875741665989e+18,63.99598916015625,-266.55291748046875,140.2804748535156,-154.2275146484375,1.6888757416744712e+18,64.00447094726563,-0.541759173075358,0.4048093458016713,-0.460594763358434,0.5739135344823202,-0.139270819723606,1.3186673720677693,1.6212395429611206
4.05,1.68887574172637e+18,64.0563701985677,-6.690786838531494,7.619860808054606,0.1249770522117614,1.68887574172637e+18,64.0563701985677,-3.1212377150853476,-1.5240286191304524,0.657826821009318,1.68887574172637e+18,64.0563701985677,3.54674768447876,-9.128144264221191,0.4681362907091776,1.68887574172637e+18,64.0563701985677,0.3694207648125787,-1.9839884837468464,2.664136012395223,1.68887574172637e+18,64.0563701985677,0.3687080865881095,-1.9793052275975545,2.666579564412435,,,,,,,,,,,,1.6888757417159882e+18,64.04598823242188,-13.378519630432129,44.139599609375,-21.12795944213867,1.6888757417159882e+18,64.04598823242188,-268.7733154296875,139.37279663085937,-154.4861602783203,1.68887574172637e+18,64.0563701985677,-0.5258178313573202,0.3372906645139058,-0.4528037110964456,0.6357663869857788,-0.1306706766287485,1.1970239480336506,1.4713441133499146
4.1,1.6888757417696174e+18,64.09961755371094,-9.291227340698242,13.56809425354004,-1.1698723435401917,1.6888757417696174e+18,64.09961755371094,-4.928018093109131,4.7973103523254395,-0.2590230451896786,1.6888757417696174e+18,64.09961755371094,4.340407848358154,-8.75503921508789,0.846135824918747,1.6888757417696174e+18,64.09961755371094,-0.0041233412921428,-2.558838129043579,2.012953758239746,1.6888757417696174e+18,64.09961755371094,-0.0048105642199516,-2.5542566776275635,2.0153971314430237,,,,,,,,,,,,1.68887574176599e+18,64.09598999023437,-16.594439697265624,42.941558074951175,-21.9624397277832,1.68887574176599e+18,64.09598999023437,-271.98923950195314,138.174755859375,-155.32063903808594,1.6888757417696174e+18,64.09961755371094,-0.5165449678897858,0.2792316675186157,-0.4478520154953003,0.674130767583847,-0.1921262368559836,1.1027921438217163,1.4259092211723328
4.15,1.6888757418128804e+18,64.14288020833334,-7.0669277509053545,11.009077707926432,-2.0962936083475747,1.6888757418128804e+18,64.14288020833334,-2.339781721433004,2.4945176616311073,-0.6707879441479841,1.6888757418128804e+18,64.14288020833334,4.704344590504964,-8.498814900716146,1.360792239507039,1.6888757418128804e+18,64.14288020833334,-0.0045305838187535,-2.314415693283081,0.8510880122582117,1.6888757418128804e+18,64.14288020833334,-0.005192349354426,-2.3097832997639975,0.8535314550002416,,,,,,,,,,,,1.6888757418159951e+18,64.14599526367188,-16.44803981781006,41.81183853149414,-24.121839141845705,1.6888757418159951e+18,64.14599526367188,-271.84283447265625,137.04503784179687,-157.48003540039062,1.6888757418128804e+18,64.14288020833334,-0.5010608434677124,0.2277167538801828,-0.4561684330304463,0.6990910967191061,-0.2813348571459452,1.0476575295130413,1.4068687359491985
4.2,1.688875741864775e+18,64.19477465820313,3.9053725401560464,4.239458401997884,0.8534754514694214,1.688875741864775e+18,64.19477465820313,8.33878763516744,-4.414359092712402,2.36430815855662,1.688875741864775e+18,64.19477465820313,4.410613536834717,-8.63807233174642,1.44611922899882,1.688875741864775e+18,64.19477465820313,1.4121168454488118,-0.9844093707700572,-1.3129020829995472,1.688875741864775e+18,64.19477465820313,1.4113532503445942,-0.9797260227302708,-1.3104586799939473,,,,,,,,,,,,1.688875741865992e+18,64.1959919921875,-13.036919784545898,42.73415908813477,-23.99251937866211,1.688875741865992e+18,64.1959919921875,-268.4317199707031,137.9673583984375,-157.35071411132813,1.688875741864775e+18,64.19477465820313,-0.4649483263492584,0.209775408109029,-0.4806252618630727,0.7131308714548746,-0.3161076108614603,1.0774226586023965,1.345043937365214
4.25,1.6888757419166802e+18,64.24668017578125,5.878263632456462,-9.694129943847656,3.3070839246114097,1.6888757419166802e+18,64.24668017578125,9.681559880574545,-18.700905799865723,4.407379786173503,1.6888757419166802e+18,64.24668017578125,3.7804948488871255,-8.9910306930542,1.035582383473714,1.6888757419166802e+18,64.24668017578125,0.1940515438715616,-1.4860315024852753,-0.2996803323427836,1.6888757419166802e+18,64.24668017578125,0.1933897535006206,-1.4813991487026217,-0.2972368399302165,1.6888757418990868e+18,64.2290869140625,0.0,0.0,1.029991865158081,6.678999900817871,1.6111010313034058,83.76846313476562,39.10000228881836,-122.7516583,49.1905324,1.6888757419159895e+18,64.24598979492188,-8.769359874725343,45.09851913452148,-21.91363945007324,1.6888757419159895e+18,64.24598979492188,-264.1641540527344,140.33171691894532,-155.27183837890624,1.6888757419166802e+18,64.24668017578125,-0.4297652641932168,0.2298670311768849,-0.5041708846886953,0.7127613027890524,-0.2669070263703664,1.159195899963379,1.260317285855611
4.3,1.688875741968579e+18,64.29857942708334,4.050881226857503,2.2076549530029292,3.1936960220336914,1.688875741968579e+18,64.29857942708334,8.327820618947348,-6.419943491617839,5.237888813018799,1.688875741968579e+18,64.29857942708334,4.254137992858887,-8.6118532816569,1.9794793526331584,1.688875741968579e+18,64.29857942708334,-0.0352774610122044,-3.384498834609986,1.7841846545537312,1.688875741968579e+18,64.29857942708334,-0.035939243932565,-3.379764715830485,1.786577224731445,,,,,,,,,,,,1.6888757419659953e+18,64.2959951171875,-7.685999965667724,44.066400146484376,-23.92663955688477,1.6888757419659953e+18,64.2959951171875,-263.08079223632814,139.29960021972656,-157.28484191894532,1.688875741968579e+18,64.29857942708334,-0.4026911556720733,0.141780691842238,-0.5124074021975199,0.7446627219518026,-0.4348183969656626,1.071598966916402,1.252159317334493
4.35,1.6888757420204795e+18,64.35047981770833,-6.030130386352539,-5.788000106811524,4.480091412862142,1.6888757420204795e+18,64.35047981770833,-1.879163424173991,-14.47837137679259,6.514060974121094,1.6888757420204795e+18,64.35047981770833,4.1281654834747314,-8.674625714619955,1.969256083170573,1.6888757420204795e+18,64.35047981770833,-0.1764382421970367,2.9507336815198264,-1.4073826571305592,1.6888757420204795e+18,64.35047981770833,-0.1771000027656555,2.9554169178009033,-1.4049391349156697,,,,,,,,,,,,1.688875742015993e+18,64.345993359375,-7.227279853820801,44.439718627929686,-24.136479949951173,1.688875742015993e+18,64.345993359375,-262.6220703125,139.67291564941405,-157.4946746826172,1.6888757420204795e+18,64.35047981770833,-0.3945900599161784,0.1405033965905507,-0.518774171670278,0.7445230086644491,-0.4445380369822184,1.0852829615275066,1.245673139890035
4.4,1.6888757420723796e+18,64.40237980143229,-8.753738562266031,-6.7342634201049805,0.8803114096323649,1.6888757420723796e+18,64.40237980143229,-4.989832798639934,-15.738990465799969,2.0670000165700912,1.6888757420723796e+18,64.40237980143229,3.741104523340861,-8.98898188273112,1.1219750841458638,1.6888757420723796e+18,64.40237980143229,0.8740463530023893,2.9120964209238687,-1.9562450647354128,1.6888757420723796e+18,64.40237980143229,0.8733845700820287,2.9166778723398843,-1.9538524945576985,,,,,,,,,,,,1.6888757420659932e+18,64.39599335937501,-9.494039726257324,44.58611907958984,-23.11655921936035,1.6888757420659932e+18,64.39599335937501,-264.8888366699219,139.8193145751953,-156.47475891113282,1.6888757420723796e+18,64.40237980143229,-0.4388403197129567,0.2328240225712458,-0.5044696430365244,0.705773115158081,-0.2873025238513946,1.1602885325749714,1.3005139827728271
4.45,1.6888757421242757e+18,64.45427571614583,-7.147732416788737,2.3423403104146323,-0.5710122287273407,1.6888757421242757e+18,64.45427571614583,-5.137589454650879,-7.254440148671468,-0.2909273405869803,1.6888757421242757e+18,64.45427571614583,1.9873417615890503,-9.581035296122232,0.2153713877002397,1.6888757421242757e+18,64.45427571614583,0.0343611761927604,4.728402614593506,-4.475249767303467,1.6888757421242757e+18,64.45427571614583,0.0336993932723998,4.7329840660095215,-4.4728061358133955,,,,,,,,,,,,1.688875742115993e+18,64.44599296875,-6.051199817657471,46.48443984985352,-19.56147994995117,1.688875742115993e+18,64.44599296875,-261.44599609375,141.71763610839844,-152.919677734375,1.6888757421242757e+18,64.45427571614583,-0.4441827932993571,0.3507952292760213,-0.5235776702562968,0.6349199215571085,-0.102148950099945,1.3647478421529131,1.3047306537628174
4.5,1.6888757421761805e+18,64.50618050130208,-8.324434598286947,-1.608454704284668,-3.9309789339701338,1.6888757421761805e+18,64.50618050130208,-8.308478196461996,-11.409177462259928,-3.3102707068125405,1.6888757421761805e+18,64.50618050130208,-0.0068451402088006,-9.784977595011393,0.555994709332784,1.6888757421761805e+18,64.50618050130208,-1.3355550666650136,3.2303573290506997,-3.1202996571858725,1.6888757421761805e+18,64.50618050130208,-1.3362677196661632,3.235040545463562,-3.1179071267445884,,,,,,,,,,,,1.6888757421659953e+18,64.49599536132813,-0.0536799907684326,46.4722396850586,-20.432559967041016,1.6888757421659953e+18,64.49599536132813,-255.4484710693359,141.70543823242187,-153.79075622558594,1.6888757421761805e+18,64.50618050130208,-0.4774701793988545,0.447963943084081,-0.5470175345738729,0.5207197765509287,-1.4457382361094158,1.5005433559417725,0.7795987923940023
4.55,1.6888757422194253e+18,64.54942541503905,3.992404490709305,2.429705858230591,-3.0038061141967773,1.6888757422194253e+18,64.54942541503905,2.9404798746109004,-7.316653490066528,-2.3443679213523865,1.6888757422194253e+18,64.54942541503905,-1.0747258961200714,-9.730614185333252,0.594724714756012,1.6888757422194253e+18,64.54942541503905,0.7069238126277924,0.816421389579773,-2.486985206604004,1.6888757422194253e+18,64.54942541503905,0.7062365710735321,0.821002870798111,-2.484541654586792,,,,,,,,,,,,1.6888757422159936e+18,64.5459935546875,3.367199969291687,44.9887191772461,-22.37479934692383,1.6888757422159936e+18,64.5459935546875,-252.02759704589843,140.22191772460937,-155.73299560546874,1.6888757422194253e+18,64.54942541503905,-0.4700652509927749,0.4913166761398315,-0.5595784485340118,0.473690778017044,-2.6203043460845947,1.44452565908432,-2.164130449295044
4.6,1.6888757422626765e+18,64.59267643229167,9.287171522776283,1.8365389506022136,1.1673125227292378,1.6888757422626765e+18,64.59267643229167,7.429714202880859,-7.796813329060872,1.6532410482565565,1.6888757422626765e+18,64.59267643229167,-1.8802587985992432,-9.61760711669922,0.4212150673071543,1.6888757422626765e+18,64.59267643229167,0.7379252215226492,3.5979963143666587,-1.6175711651643117,1.6888757422626765e+18,64.59267643229167,0.737263431151708,3.6027305126190186,-1.615127682685852,,,,,,,,,,,,1.688875742265996e+18,64.59599619140624,7.483479785919189,45.51819915771485,-21.2426399230957,1.688875742265996e+18,64.59599619140624,-247.91131286621095,140.75139770507812,-154.60083618164063,1.6888757422626765e+18,64.59267643229167,-0.4697820047537486,0.5471909642219543,-0.5438147981961569,0.4280291696389516,-2.9198288917541504,1.3733681440353394,-1.747142752011617
4.65,1.6888757423145838e+18,64.64458374023438,-1.8109008471171064,2.747835159301758,-3.935884475708008,1.6888757423145838e+18,64.64458374023438,-3.659822245438894,-6.8781687418619795,-3.263012448946635,1.6888757423145838e+18,64.64458374023438,-1.8717228571573896,-9.61025873819987,0.6081586678822836,1.6888757423145838e+18,64.64458374023438,0.0614428619543711,2.4839816888173423,0.3038545548915862,1.6888757423145838e+18,64.64458374023438,0.0606792817513148,2.488563140233358,0.3062471052010854,,,,,,,,,,,,1.6888757423159916e+18,64.6459916015625,3.562399983406067,45.60847930908203,-21.374399185180664,1.6888757423159916e+18,64.6459916015625,-251.8323974609375,140.8416778564453,-154.73259887695312,1.6888757423145838e+18,64.64458374023438,-0.5110832254091898,0.5895211100578308,-0.4975765546162923,0.3787284692128499,-2.8262226581573486,1.3690493901570635,-1.6602219740549724
4.7,1.6888757423664776e+18,64.69647778320312,3.393799980481466,-0.8413127263387045,-3.1879117488861084,1.6888757423664776e+18,64.69647778320312,1.237886945406596,-10.385249137878418,-2.3345972696940103,1.6888757423664776e+18,64.69647778320312,-2.178714553515116,-9.528191248575846,0.7886009812355042,1.6888757423664776e+18,64.69647778320312,-0.4309654335180918,0.1777617832024892,-1.6610953211784365,1.6888757423664776e+18,64.69647778320312,-0.4315763016541799,0.1824450939893722,-1.6587027510007222,,,,,,,,,,,,1.6888757423659955e+18,64.69599545898437,3.757599878311157,45.423038482666016,-22.22351951599121,1.6888757423659955e+18,64.69599545898437,-251.6371948242187,140.65623779296874,-155.58171691894532,1.6888757423664776e+18,64.69647778320312,-0.5145327051480612,0.6061061223347982,-0.4933798213799794,0.35249991218249,-2.7912677923838296,1.3325318892796834,-1.6434824069341023
4.75,1.6888757424183803e+18,64.74838045247395,2.3842734893163047,-4.644204457600911,-6.67677100499471,1.6888757424183803e+18,64.74838045247395,-0.1473580002784729,-14.08016586303711,-5.629314661026001,1.6888757424183803e+18,64.74838045247395,-2.554433027903239,-9.42021624247233,0.9827428857485452,1.6888757424183803e+18,64.74838045247395,-0.3183626085519791,-0.0477492989351352,0.1290961802005768,1.6888757424183803e+18,64.74838045247395,-0.3190243691205978,-0.0430660024285316,0.1315396502614021,1.6888757424356782e+18,64.76567822265625,0.0,0.0,1.029991865158081,6.689000129699707,1.6129748821258545,83.79182434082031,39.10000228881836,-122.7516505,49.1905317,1.688875742415993e+18,64.745993359375,6.078039836883545,44.3713996887207,-23.4239990234375,1.688875742415993e+18,64.745993359375,-249.31675415039064,139.60459899902344,-156.78219909667968,1.6888757424183803e+18,64.74838045247395,-0.5053091843922933,0.6099788745244344,-0.5078783432642618,0.3385774195194244,-2.7734660307566323,1.288325309753418,-1.6665447155634563
4.8,1.6888757424702825e+18,64.80028238932292,5.243030230204265,-2.789719581604004,-3.617766181627909,1.6888757424702825e+18,64.80028238932292,2.923032363255819,-12.307084401448568,-2.915654381116231,1.6888757424702825e+18,64.80028238932292,-2.342799345652262,-9.501619656880695,0.6373983124891917,1.6888757424702825e+18,64.80028238932292,0.9339620272318522,-0.189928180227677,1.0101166168848674,1.6888757424702825e+18,64.80028238932292,0.9333002765973408,-0.1852448831001917,1.012509157260259,,,,,,,,,,,,1.6888757424659937e+18,64.79599350585937,6.012159824371338,44.91307907104492,-22.238159561157225,1.6888757424659937e+18,64.79599350585937,-249.38263549804688,140.14627990722656,-155.5963592529297,1.6888757424702825e+18,64.80028238932292,-0.5036110679308573,0.6103635231653849,-0.4966119726498921,0.3564432958761851,-2.87808887163798,1.3207956155141194,-1.5705471833546956
4.85,1.6888757425221824e+18,64.85218229166667,-5.232683499654134,-6.120402654012044,-0.6960694293181101,1.6888757425221824e+18,64.85218229166667,-6.3196438153584795,-15.872788747151692,-0.6612166166305542,1.6888757425221824e+18,64.85218229166667,-1.109761615594228,-9.73664093017578,-0.029860641186436,1.6888757425221824e+18,64.85218229166667,1.5999579032262166,-1.3406456137696905,2.7650306224823,1.6888757425221824e+18,64.85218229166667,1.5991942882537842,-1.3360641499360402,2.767423152923584,,,,,,,,,,,,1.688875742515993e+18,64.84599340820313,1.3224800117313862,46.42587814331055,-19.79327964782715,1.688875742515993e+18,64.84599340820313,-254.072314453125,141.65907592773436,-153.15147705078124,1.6888757425221824e+18,64.85218229166667,-0.5228468974431356,0.5873300631841024,-0.4596416056156158,0.4120217363039651,0.9399720827738444,1.453794002532959,-1.2240017652511597
4.9,1.6888757425740813e+18,64.90408138020832,-1.870126446088155,-9.524967511494957,4.572713375091553,1.6888757425740813e+18,64.90408138020832,-1.322832107543945,-19.290138244628903,3.893321990966797,1.6888757425740813e+18,64.90408138020832,0.5244929144779841,-9.749425570170084,-0.7441047628720602,1.6888757425740813e+18,64.90408138020832,0.4631376465161641,-3.2907819747924805,3.716656764348348,1.6888757425740813e+18,64.90408138020832,0.4625267982482909,-3.286149581273397,3.719049453735352,,,,,,,,,,,,1.688875742565995e+18,64.89599506835938,-3.90887987613678,47.692239379882814,-16.421199798583984,1.688875742565995e+18,64.89599506835938,-259.3036743164063,142.9254364013672,-149.7793975830078,1.6888757425740813e+18,64.90408138020832,-0.5180553396542867,0.5265677173932394,-0.4417213300863902,0.5077536503473917,1.123000234365463,1.4638381401697795,0.5431161224842072
4.95,1.6888757426259835e+18,64.95598356119791,-3.7791081269582114,-8.00760555267334,9.649846076965332,1.6888757426259835e+18,64.95598356119791,-1.4378870725631714,-17.54178269704183,9.966704527537027,1.6888757426259835e+18,64.95598356119791,2.3184194962183633,-9.518431981404625,0.252144917845726,1.6888757426259835e+18,64.95598356119791,-1.4932092428207395,-2.6439775625864663,2.8623108863830566,1.6888757426259835e+18,64.95598356119791,-1.4938709338506062,-2.639345089594523,2.864703416824341,,,,,,,,,,,,1.688875742615993e+18,64.94599335937501,-10.740879726409911,45.88419876098633,-18.93683967590332,1.688875742615993e+18,64.94599335937501,-266.13568115234375,141.11739807128907,-152.29503479003907,1.6888757426259835e+18,64.95598356119791,-0.556891679763794,0.4257485469182332,-0.4468864103158315,0.5549671848615011,-0.0918053363760312,1.328689734141032,1.6431479056676228
5.0,1.6888757426692372e+18,64.99923706054688,-1.991281986236572,1.903770446777344,-0.7189140617847443,1.6888757426692372e+18,64.99923706054688,1.3085749372839928,-7.341179847717285,-0.13609179854393,1.6888757426692372e+18,64.99923706054688,3.277055501937866,-9.229205131530762,0.5181087851524353,1.6888757426692372e+18,64.99923706054688,0.8838456273078918,-2.711019992828369,2.740341544151306,1.6888757426692372e+18,64.99923706054688,0.8830820918083191,-2.7063621282577515,2.7427849769592285,,,,,,,,,,,,1.6888757426659976e+18,64.99599750976563,-13.21015968322754,44.25428009033203,-21.767239379882813,1.6888757426659976e+18,64.99599750976563,-268.6049560546875,139.4874755859375,-155.12543640136718,1.6888757426692372e+18,64.99923706054688,-0.5413827896118164,0.3575811684131622,-0.4525905549526214,0.6115158498287201,-0.1577463373541832,1.2253576517105105,1.5606467127799988
5.05,1.688875742712482e+18,65.04248201497396,-10.251468340555826,8.487909634908041,-2.0205978552500405,1.688875742712482e+18,65.04248201497396,-6.045665820439656,-0.3678964773813883,-1.2422738075256348,1.688875742712482e+18,65.04248201497396,4.183000882466634,-8.840060869852701,0.7136105100313822,1.688875742712482e+18,65.04248201497396,0.2513201435407002,-2.632218360900879,2.3592124780019126,1.688875742712482e+18,65.04248201497396,0.2507092853387196,-2.627535025278727,2.3616559902826944,,,,,,,,,,,,1.6888757427159956e+18,65.0459958984375,-16.67251968383789,43.11479949951172,-22.140559005737305,1.6888757427159956e+18,65.0459958984375,-272.06731567382815,138.347998046875,-155.4987579345703,1.688875742712482e+18,65.04248201497396,-0.5313936074574789,0.3022862672805786,-0.4414658844470978,0.6563021938006083,-0.1680555989344914,1.1228434642155964,1.4669430653254192
5.1,1.6888757427643832e+18,65.09438313802083,-8.646473248799643,10.991933822631836,-2.287999947865804,1.6888757427643832e+18,65.09438313802083,-3.7475589911142984,2.5912275314331055,-0.7824530303478241,1.6888757427643832e+18,65.09438313802083,4.876112778981526,-8.384961128234863,1.4408334493637085,1.6888757427643832e+18,65.09438313802083,-0.2347758710384368,-2.6016241709391275,1.8339701493581135,1.6888757427643832e+18,65.09438313802083,-0.2354885538419087,-2.5968900124231973,1.8364136616388955,,,,,,,,,,,,1.6888757427659994e+18,65.09599921875,-17.41915969848633,41.262838745117186,-24.509799194335937,1.6888757427659994e+18,65.09599921875,-272.81395263671874,136.49603881835938,-157.8679992675781,1.6888757427643832e+18,65.09438313802083,-0.5113282601038615,0.2233968923489252,-0.4484495321909587,0.6979218125343323,-0.2864981989065805,1.0252096851666768,1.4263031880060832
5.15,1.6888757428162742e+18,65.14627408854166,-2.587181250254313,7.3618270556132,0.6082966725031534,1.6888757428162742e+18,65.14627408854166,2.478764812151591,-0.8703892429669698,2.483949383099874,1.6888757428162742e+18,65.14627408854166,5.043144543965657,-8.216471036275228,1.8109392325083415,1.6888757428162742e+18,65.14627408854166,0.8763879934946696,-1.2878057360649109,-0.2705114732185999,1.6888757428162742e+18,65.14627408854166,0.875624418258667,-1.2831733624140422,-0.2681189328432083,,,,,,,,,,,,1.6888757428159885e+18,65.14598852539062,-17.577759552001954,40.63819961547851,-26.054319381713867,1.6888757428159885e+18,65.14598852539062,-272.97255859375,135.87139892578125,-159.4125213623047,1.6888757428162742e+18,65.14627408854166,-0.4901389976342519,0.18327496945858,-0.4574123720328013,0.718903124332428,-0.3449504375457763,0.9925824403762816,1.3848505020141602
5.2,1.6888757428681746e+18,65.19817439778646,9.67564614613851,0.20004669825236,1.285102407137553,1.6888757428681746e+18,65.19817439778646,13.876776218414308,-8.584251244862875,2.6632116635640464,1.6888757428681746e+18,65.19817439778646,4.178328355153401,-8.768552780151367,1.3133958180745442,1.6888757428681746e+18,65.19817439778646,1.3321953018506367,0.2719368636608123,-2.4716626008351645,1.6888757428681746e+18,65.19817439778646,1.3315335114796956,0.2766201496124267,-2.469219168027242,,,,,,,,,,,,1.688875742865988e+18,65.19598818359376,-12.199999809265137,43.40759811401367,-23.975439834594724,1.688875742865988e+18,65.19598818359376,-267.59479370117185,138.6407958984375,-157.33363342285156,1.6888757428681746e+18,65.19817439778646,-0.45187775293986,0.2162082443634668,-0.4897303481896718,0.7132900158564249,-0.3033609688282012,1.1071000893910723,1.3171974420547483
5.25,1.688875742920076e+18,65.25007600911458,3.1992787520090737,-12.88936201731364,7.384287675221761,1.688875742920076e+18,65.25007600911458,7.283552805582683,-21.59023888905843,9.463414192199709,1.688875742920076e+18,65.25007600911458,4.061472654342651,-8.685131072998047,2.014413038889567,1.688875742920076e+18,65.25007600911458,-1.1649709343910215,-4.575533469518025,1.9271780649820964,1.688875742920076e+18,65.25007600911458,-1.165632685025533,-4.570900996526082,1.9296214977900188,,,,,,,,,,,,1.6888757429159877e+18,65.24598754882813,-7.908039951324463,43.87363891601562,-24.546399307250976,1.6888757429159877e+18,65.24598754882813,-263.30283203125,139.10683898925782,-157.90459594726562,1.688875742920076e+18,65.25007600911458,-0.4296139379342397,0.1638945837815602,-0.5143747925758362,0.722743014494578,-0.4554587503274281,1.087998906771342,1.349788784980774
5.3,1.688875742971975e+18,65.30197493489582,-5.0400190353393555,-1.7367184956868496,6.749998569488525,1.688875742971975e+18,65.30197493489582,-0.7022933959960938,-10.095518112182615,9.64387289683024,1.688875742971975e+18,65.30197493489582,4.314924399058024,-8.3430544535319,2.8291609287261963,1.688875742971975e+18,65.30197493489582,-0.7823147575060526,0.8298603892326355,0.1247692157824834,1.688875742971975e+18,65.30197493489582,-0.7830274055401484,0.8345437248547872,0.1272126783927281,1.6888757429546747e+18,65.2846748046875,0.0,0.0,1.0404620170593262,6.686999797821045,1.6118083000183103,84.44403076171875,39.10000228881836,-122.7516386,49.19053,1.6888757429659868e+18,65.2959869140625,-7.524959754943848,42.534078979492186,-27.530519485473633,1.6888757429659868e+18,65.2959869140625,-262.91974487304685,137.76727905273438,-160.8887176513672,1.688875742971975e+18,65.30197493489582,-0.4171431362628937,0.0981599142154057,-0.5198629895846049,0.7387566566467285,-0.5806065400441488,1.0165167252222698,1.357829213142395
5.35,1.688875743023875e+18,65.3538749186198,-5.283570448557535,-2.5440540313720703,-5.750111103057861,1.688875743023875e+18,65.3538749186198,-0.978664497534434,-11.045070012410482,-3.284747297565142,1.688875743023875e+18,65.3538749186198,4.2821044921875,-8.485270818074545,2.400650421778361,1.688875743023875e+18,65.3538749186198,0.8460992574691771,1.9414315621058147,-1.5689564694960911,1.688875743023875e+18,65.3538749186198,0.8453865845998129,1.9461148579915364,-1.566513027374943,,,,,,,,,,,,1.6888757430159877e+18,65.3459875,-10.07475986480713,41.58247985839843,-27.667159271240234,1.6888757430159877e+18,65.3459875,-265.46954956054685,136.81568298339843,-161.02535400390624,1.688875743023875e+18,65.3538749186198,-0.4493320286273956,0.1480690936247507,-0.5092124938964844,0.71863987048467,-0.5094860196113586,1.0457585255304973,1.4150317907333374
5.4,1.688875743075785e+18,65.4057850748698,-8.721028010050455,0.3154249191284179,-0.5687141219774882,1.688875743075785e+18,65.4057850748698,-5.838686625162761,-9.00498898824056,0.468793844183286,1.688875743075785e+18,65.4057850748698,2.859540065129598,-9.304668744405111,0.9727944930394492,1.688875743075785e+18,65.4057850748698,1.3191125690937042,4.952844460805257,-4.597931782404582,1.688875743075785e+18,65.4057850748698,1.318399965763092,4.957426071166992,-4.595539251963298,,,,,,,,,,,,1.688875743065994e+18,65.39599404296874,-7.622559833526611,44.51779861450195,-23.167799758911137,1.688875743065994e+18,65.39599404296874,-263.0173583984375,139.7509979248047,-156.5259979248047,1.688875743075785e+18,65.4057850748698,-0.4468181431293487,0.2781111449003219,-0.5241336425145467,0.6675412058830261,-0.3168571392695108,1.256090799967448,1.409469723701477
5.45,1.688875743127681e+18,65.45768107096355,-6.636745611826579,-1.4088395436604817,-0.9540805021921792,1.688875743127681e+18,65.45768107096355,-5.861219088236491,-11.169296900431316,-0.1880359848340352,1.688875743127681e+18,65.45768107096355,0.7527251442273458,-9.744712193806969,0.7013310591379801,1.688875743127681e+18,65.45768107096355,-1.3683890501658122,4.905807813008626,-3.673590898513794,1.688875743127681e+18,65.45768107096355,-1.3691017429033916,4.910440127054851,-3.6711475054423017,,,,,,,,,,,,1.6888757431159977e+18,65.44599760742187,-2.198439908027649,46.13307876586914,-21.28899993896484,1.6888757431159977e+18,65.44599760742187,-257.5932373046875,141.36627502441405,-154.6471954345703,1.688875743127681e+18,65.45768107096355,-0.4799579381942749,0.4073960383733113,-0.5429758429527283,0.5539219975471497,-0.8091954092184702,1.456859111785889,2.169523278872172
5.5,1.6888757431709358e+18,65.50093566894532,-0.5816372931003571,-0.0442390441894531,-3.2562456130981445,1.6888757431709358e+18,65.50093566894532,-0.9287143051624298,-9.81147003173828,-2.214856445789337,1.6888757431709358e+18,65.50093566894532,-0.3698784932494163,-9.75148582458496,0.976675808429718,1.6888757431709358e+18,65.50093566894532,0.0861320048570633,2.000736355781555,-2.805016875267029,1.6888757431709358e+18,65.50093566894532,0.0854447707533836,2.0053179264068604,-2.8025734424591064,,,,,,,,,,,,1.6888757431659896e+18,65.49598969726563,0.4709199957549572,44.79107818603516,-23.63384017944336,1.6888757431659896e+18,65.49598969726563,-254.923876953125,140.02427673339844,-156.99203491210938,1.6888757431709358e+18,65.50093566894532,-0.5029452443122864,0.470065489411354,-0.5454822182655334,0.4778370559215545,-1.9180316925048828,1.4617245197296145,-2.8447458744049072
5.55,1.6888757432141824e+18,65.54418229166667,5.936622619628906,2.3374988238016763,-1.0677524010340371,1.6888757432141824e+18,65.54418229166667,4.570889472961426,-7.35753075281779,-0.2522433934112389,1.6888757432141824e+18,65.54418229166667,-1.388534665107727,-9.6792844136556,0.7507955233256022,1.6888757432141824e+18,65.54418229166667,0.6127996444702148,0.9487246175607046,-2.041002551714579,1.6888757432141824e+18,65.54418229166667,0.6120360692342123,0.9533570408821106,-2.038610061009725,,,,,,,,,,,,1.688875743215994e+18,65.54599384765625,5.316759872436523,44.68615951538086,-22.899399948120116,1.688875743215994e+18,65.54599384765625,-250.07803649902343,139.9193603515625,-156.25759887695312,1.6888757432141824e+18,65.54418229166667,-0.480309913555781,0.5122601389884949,-0.5549753109614054,0.4457201659679413,-2.6324694951375327,1.408551772435506,-2.0880627632141113
5.6,1.6888757432660818e+18,65.59608186848959,2.883324464162191,2.5426915486653647,-1.814018964767456,1.6888757432660818e+18,65.59608186848959,1.182054400444031,-7.10010306040446,-0.9880363941192628,1.6888757432660818e+18,65.59608186848959,-1.724071462949117,-9.627049446105955,0.7612691124280294,1.6888757432660818e+18,65.59608186848959,0.0564541282753149,2.249867598215739,-0.5426010489463806,1.6888757432660818e+18,65.59608186848959,0.0557923602561155,2.2544491291046143,-0.5402594109376272,,,,,,,,,,,,1.6888757432659932e+18,65.59599301757812,5.694959831237793,44.986279296875,-22.50411949157715,1.6888757432659932e+18,65.59599301757812,-249.69983825683593,140.21947631835937,-155.86231689453126,1.6888757432660818e+18,65.59608186848959,-0.4941853682200114,0.5495956937472025,-0.5343115329742432,0.4098668595155079,-2.7249438762664795,1.3778468370437622,-1.8873144388198853
5.65,1.6888757433179804e+18,65.6479806315104,1.0710502465566,-0.1901868184407552,-1.6286336183547974,1.6888757433179804e+18,65.6479806315104,-0.8153542677561442,-9.783055305480955,-0.6378866036732992,1.6888757433179804e+18,65.6479806315104,-1.9092060327529907,-9.577123324076334,0.9260335365931192,1.6888757433179804e+18,65.6479806315104,-0.0417424614230791,1.3239994843800862,-0.8101600209871928,1.6888757433179804e+18,65.6479806315104,-0.0425060416261355,1.328682820002238,-0.807716578245163,,,,,,,,,,,,1.688875743315993e+18,65.64599331054687,4.245599889755249,44.92771911621094,-23.343479537963866,1.688875743315993e+18,65.64599331054687,-251.1491943359375,140.16091613769532,-156.70167541503906,1.6888757433179804e+18,65.6479806315104,-0.509596049785614,0.573188046614329,-0.5181587735811869,0.3783562580744425,-2.6884674231211343,1.3531300624211628,-1.8362455765406291
5.7,1.6888757433698867e+18,65.69988671875,2.599788506825765,-1.956533432006836,-3.545628805955251,1.6888757433698867e+18,65.69988671875,0.1226322253545125,-11.402797063191732,-2.46261328458786,1.6888757433698867e+18,65.69988671875,-2.499957720438639,-9.43051846822103,1.018302063147227,1.6888757433698867e+18,65.69988671875,-0.3710497220357259,0.3101668326805035,-0.7611890435218811,1.6888757433698867e+18,65.69988671875,-0.3717624098062515,0.3147483163823684,-0.758745551109314,,,,,,,,,,,,1.688875743366e+18,65.69599985351563,6.156119918823242,44.366519165039065,-23.606999588012695,1.688875743366e+18,65.69599985351563,-249.23867492675785,139.59971618652344,-156.96519775390624,1.6888757433698867e+18,65.69988671875,-0.4992404878139496,0.5948663155237833,-0.5228039224942526,0.3514629304409026,-2.754140615463257,1.292296290397644,-1.735796292622884
5.75,1.6888757434217843e+18,65.75178434244792,5.910237232844035,-5.497759501139323,-5.826104482014974,1.6888757434217843e+18,65.75178434244792,3.613560914993286,-14.99063491821289,-4.749752839406331,1.6888757434217843e+18,65.75178434244792,-2.3194777170817056,-9.4771302541097,1.0116382837295532,1.6888757434217843e+18,65.75178434244792,0.5169956137736639,-0.3568471024433772,0.135713905096054,1.6888757434217843e+18,65.75178434244792,0.5163338482379913,-0.3521638015906016,0.1380555381377537,,,,,,,,,,,,1.6888757434159956e+18,65.74599555664062,6.375719928741455,44.015159606933594,-24.195039367675783,1.6888757434159956e+18,65.74599555664062,-249.01907348632812,139.24835510253905,-157.55323791503906,1.6888757434217843e+18,65.75178434244792,-0.5033357242743174,0.5881312688191732,-0.5216180284818014,0.3586364785830179,-2.7299272219340005,1.3099739948908489,-1.7690318822860718
5.8,1.6888757434736865e+18,65.80368636067708,2.672183672587076,0.5953110059102377,1.1358234484990437,1.6888757434736865e+18,65.80368636067708,0.9196414947509766,-9.022935390472412,2.0410777926445007,1.6888757434736865e+18,65.80368636067708,-1.7753435373306274,-9.602501233418783,0.840540885925293,1.6888757434736865e+18,65.80368636067708,0.2016364360849062,1.527010401089986,2.1840978066126504,1.6888757434736865e+18,65.80368636067708,0.201025570432345,1.531693696975708,2.1864903966585794,1.688875743473686e+18,65.80368603515625,0.0,0.0,1.0404620170593262,6.703000068664551,1.6120167970657349,85.05802917480469,39.10000228881836,-122.7516303,49.1905287,1.6888757434659922e+18,65.79599233398437,5.5314798831939695,45.164398193359375,-23.014079284667968,1.6888757434659922e+18,65.79599233398437,-249.86331787109376,140.39759826660156,-156.37227783203124,1.6888757434736865e+18,65.80368636067708,-0.5246541301409403,0.5888352592786154,-0.4932601849238078,0.3662638266881307,-2.678116401036581,1.368182102839152,-1.778283993403117
5.85,1.6888757435255877e+18,65.85558764648438,-9.121814489364624,-9.337679545084637,-3.70090260108312,1.6888757435255877e+18,65.85558764648438,-9.493523756663004,-19.13400650024414,-3.1672996083895364,1.6888757435255877e+18,65.85558764648438,-0.3945106913646062,-9.78058179219564,0.4688895891110102,1.6888757435255877e+18,65.85558764648438,1.3780610760052998,-2.7451775074005127,2.9162707328796387,1.6888757435255877e+18,65.85558764648438,1.3774502476056416,-2.740494211514791,2.9187142054239907,,,,,,,,,,,,1.6888757435159967e+18,65.84599663085937,-1.783639946579933,45.97447891235352,-21.92339973449707,1.6888757435159967e+18,65.84599663085937,-257.1784423828125,141.20767822265626,-155.2815948486328,1.6888757435255877e+18,65.85558764648438,-0.5501689314842224,0.5516295234362284,-0.4640265007813771,0.4202175537745158,-1.9341288407643635,1.503989338874817,-0.4656227429707845
5.9,1.6888757435774932e+18,65.90749324544271,-1.1400933861732483,-7.920578638712565,6.364555358886719,1.6888757435774932e+18,65.90749324544271,0.1611167049656311,-17.64646848042806,6.515057961146037,1.6888757435774932e+18,65.90749324544271,1.2784085869789124,-9.710144678751629,0.0857892756660779,1.6888757435774932e+18,65.90749324544271,-0.5082907875378927,-2.7971010208129883,3.5547266801198325,1.6888757435774932e+18,65.90749324544271,-0.5089525779088339,-2.7924686272939048,3.557170152664185,,,,,,,,,,,,1.688875743565992e+18,65.89599194335938,-6.0487597465515135,46.52347946166992,-19.388239669799805,1.688875743565992e+18,65.89599194335938,-261.4435546875,141.75667419433594,-152.746435546875,1.6888757435774932e+18,65.90749324544271,-0.5474805434544882,0.4760730663935343,-0.455216497182846,0.5150595009326935,-0.011879979322354,1.4376961787541709,1.636043667793274
5.95,1.688875743620737e+18,65.95073693847655,-5.590536713600159,-6.492949962615968,10.111589908599854,1.688875743620737e+18,65.95073693847655,-3.0774690210819244,-15.952948570251465,11.068300008773804,1.688875743620737e+18,65.95073693847655,2.4902660846710205,-9.44425344467163,0.8919967412948608,1.688875743620737e+18,65.95073693847655,-0.1272127032279968,-3.901443600654602,2.874121069908142,1.688875743620737e+18,65.95073693847655,-0.1278999149799347,-3.8968621492385864,2.87641179561615,,,,,,,,,,,,1.6888757436159923e+18,65.94599252929689,-10.482239723205566,44.29331817626953,-23.048239517211915,1.6888757436159923e+18,65.94599252929689,-265.8770385742188,139.526513671875,-156.40643615722655,1.688875743620737e+18,65.95073693847655,-0.5599342286586761,0.3893180191516876,-0.4701537638902664,0.5597701370716095,-0.3448877930641174,1.2972569465637207,1.8341505527496336
6.0,1.688875743663989e+18,65.9939891764323,-2.424577236175537,4.074414571126302,-1.650317947069804,1.688875743663989e+18,65.9939891764323,1.2025928099950154,-4.999603509902954,-0.5601198871930441,1.688875743663989e+18,65.9939891764323,3.6043686072031655,-9.058272997538248,1.0254846413930256,1.688875743663989e+18,65.9939891764323,0.5953390995661417,-2.228232820828756,3.012125571568807,1.688875743663989e+18,65.9939891764323,0.5946264068285624,-2.223600387573242,3.0145181814829507,,,,,,,,,,,,1.688875743665996e+18,65.99599599609374,-13.947039794921874,43.11235885620117,-23.71679916381836,1.688875743665996e+18,65.99599599609374,-269.3418334960937,138.345556640625,-157.0749969482422,1.688875743663989e+18,65.9939891764323,-0.5427375833193461,0.3190151552359263,-0.4626094996929168,0.6237408518791199,-0.2796098291873932,1.1780234177907307,1.620732307434082
6.05,1.688875743715886e+18,66.04588606770834,-11.262230237325031,9.834647178649902,-1.9961822827657063,1.688875743715886e+18,66.04588606770834,-6.794020970662435,1.1794621646404266,-0.6063811381657919,1.688875743715886e+18,66.04588606770834,4.445407708485921,-8.639439900716146,1.3250877062479656,1.688875743715886e+18,66.04588606770834,0.0666352220190067,-2.9582167863845825,1.9034561316172285,1.688875743715886e+18,66.04588606770834,0.0659734442209203,-2.953635255495707,1.9058995644251504,,,,,,,,,,,,1.688875743715992e+18,66.04599189453124,-15.630639839172364,41.96555938720703,-24.490279388427737,1.688875743715992e+18,66.04599189453124,-271.0254333496094,137.19875793457032,-157.84847717285157,1.688875743715886e+18,66.04588606770834,-0.5264942248662313,0.2566385219494502,-0.454849898815155,0.6703243255615234,-0.2885130246480306,1.0773762067159016,1.504455288251241
6.1,1.6888757437677878e+18,66.09778784179689,-5.78117831548055,9.636078834533691,-2.7909103631973267,1.6888757437677878e+18,66.09778784179689,-0.8841479619344076,1.3407783011595409,-0.7487541139125824,1.6888757437677878e+18,66.09778784179689,4.874228795369466,-8.279555638631185,1.977442781130473,1.6888757437677878e+18,66.09778784179689,0.12329297264417,-1.9914716084798176,1.0179051061471305,1.6888757437677878e+18,66.09778784179689,0.1226311946908633,-1.986737330754598,1.02034858862559,,,,,,,,,,,,1.6888757437659932e+18,66.09599321289063,-15.66967945098877,40.65039901733398,-26.703359603881836,1.6888757437659932e+18,66.09599321289063,-271.06447143554686,135.88359680175782,-160.06156005859376,1.6888757437677878e+18,66.09778784179689,-0.5034045577049255,0.188865840435028,-0.4643717408180237,0.7036078969637553,-0.3855298658212026,1.0043745239575703,1.455567200978597
6.15,1.6888757438196892e+18,66.14968929036458,4.188895066579183,4.1722941398620605,1.886736234029134,1.6888757438196892e+18,66.14968929036458,8.807381947835287,-4.306881507237752,3.787239948908488,1.6888757438196892e+18,66.14968929036458,4.5956854820251465,-8.463430404663086,1.8357901573181152,1.6888757438196892e+18,66.14968929036458,1.4860315322875977,-0.1385645990570386,-1.6747888922691343,1.6888757438196892e+18,66.14968929036458,1.485420644283295,-0.1338813056548436,-1.6723963022232056,,,,,,,,,,,,1.6888757438159954e+18,66.14599555664063,-13.415119743347168,41.55319900512696,-25.944519424438475,1.6888757438159954e+18,66.14599555664063,-268.80991821289064,136.7863983154297,-159.30271606445314,1.6888757438196892e+18,66.14968929036458,-0.4746780395507812,0.1877641677856445,-0.4797930320103963,0.7133833567301432,-0.3793236811955769,1.0412064790725708,1.3929729461669922
6.2,1.6888757438715855e+18,66.20158561197917,3.16545303662618,-10.463582197825112,5.983731508255005,1.6888757438715855e+18,66.20158561197917,6.822535514831543,-19.47318919499715,7.488139152526856,1.6888757438715855e+18,66.20158561197917,3.6342810789744058,-8.993861198425293,1.4396943251291912,1.6888757438715855e+18,66.20158561197917,-0.0757472937305769,-1.5143349319696426,-0.939459840456645,1.6888757438715855e+18,66.20158561197917,-0.0765108441313107,-1.509651616215706,-0.9370673100153604,,,,,,,,,,,,1.688875743865997e+18,66.1959970703125,-7.890959930419922,44.57391891479492,-23.582600021362303,1.688875743865997e+18,66.1959970703125,-263.2857604980469,139.80711364746094,-156.9407989501953,1.6888757438715855e+18,66.20158561197917,-0.4407875041166941,0.2195387880007425,-0.515939474105835,0.7007262110710144,-0.3778120080629985,1.1599394877751668,1.372301419576009
6.25,1.6888757439234857e+18,66.25348575846355,7.314256191253662,2.4785868326822915,2.2312426567077637,1.6888757439234857e+18,66.25348575846355,11.43988561630249,-6.088138163089752,4.7906302611033125,1.6888757439234857e+18,66.25348575846355,4.102828025817871,-8.550979932149252,2.4946741263071694,1.6888757439234857e+18,66.25348575846355,-0.0840448811650276,-3.551112333933512,2.0961841543515525,1.6888757439234857e+18,66.25348575846355,-0.0846557418505351,-3.546530803044637,2.098576605319977,,,,,,,,,,,,1.6888757439159956e+18,66.24599555664062,-6.012159824371338,43.34171905517578,-26.000638961791992,1.6888757439159956e+18,66.24599555664062,-261.4069519042969,138.57491455078124,-159.358837890625,1.6888757439234857e+18,66.25348575846355,-0.4117727080980937,0.1212737808624903,-0.5249807834625244,0.734437624613444,-0.5460135738054911,1.0586867729822795,1.3466378053029378
6.3,1.6888757439753838e+18,66.3053837076823,-13.02208137512207,-5.681302388509114,5.178480346997579,1.6888757439753838e+18,66.3053837076823,-9.070592403411863,-14.399408340454102,7.478567520777385,1.6888757439753838e+18,66.3053837076823,3.92868709564209,-8.70236078898112,2.235373616218567,1.6888757439753838e+18,66.3053837076823,-0.1851939757664998,4.107967058817546,-1.844711224238078,1.6888757439753838e+18,66.3053837076823,-0.185855746269226,4.1125993728637695,-1.8422677914301555,1.6888757439926807e+18,66.3226806640625,0.0,0.0,1.0499606132507324,6.706999778747559,1.6139966249465942,86.27652740478516,39.10000228881836,-122.751615,49.1905275,1.6888757439659855e+18,66.29598559570312,-6.404999828338623,43.1660400390625,-26.556959533691405,1.6888757439659855e+18,66.29598559570312,-261.79979248046874,138.39924011230468,-159.9151580810547,1.6888757439753838e+18,66.3053837076823,-0.4237972497940063,0.1510115986069043,-0.5252943436304728,0.7212167382240295,-0.5164439777533213,1.0911850134531658,1.3803664048512776
6.35,1.6888757440272906e+18,66.35729069010416,-1.0372773011525471,-0.8828967412312826,-2.627101103464762,1.6888757440272906e+18,66.35729069010416,2.3326032956441245,-9.996814409891764,-1.1345967451731365,1.6888757440272906e+18,66.35729069010416,3.3470791975657144,-9.098172505696615,1.427790919939677,1.6888757440272906e+18,66.35729069010416,0.6444119215011597,3.3659184773763022,-2.7512352069218955,1.6888757440272906e+18,66.35729069010416,0.6437501584490141,3.3705508708953857,-2.7487918535868325,,,,,,,,,,,,1.688875744015993e+18,66.34599331054687,-8.276479911804199,43.629638671875,-24.848959732055665,1.688875744015993e+18,66.34599331054687,-263.6712707519531,138.8628387451172,-158.2071563720703,1.6888757440272906e+18,66.35729069010416,-0.460479736328125,0.2451943755149841,-0.5179460247357687,0.6771129171053568,-0.399824321269989,1.1897483666737874,1.4664154052734375
6.4,1.6888757440705413e+18,66.40054125976562,-9.531427383422852,1.132869005203247,-1.078796237707138,1.6888757440705413e+18,66.40054125976562,-7.782057523727417,-8.510671854019165,-0.4280161261558532,1.6888757440705413e+18,66.40054125976562,1.7265682816505432,-9.627795696258543,0.5860666036605835,1.6888757440705413e+18,66.40054125976562,0.3268892578780651,5.676007032394409,-5.263215065002441,1.6888757440705413e+18,66.40054125976562,0.3261256664991379,5.680665016174316,-5.260847806930542,,,,,,,,,,,,1.6888757440659937e+18,66.39599350585937,-5.548559856414795,45.27907943725586,-22.22595977783203,1.6888757440659937e+18,66.39599350585937,-260.943359375,140.5122802734375,-155.5841552734375,1.6888757440705413e+18,66.40054125976562,-0.4748310297727585,0.3663065284490585,-0.5262204110622406,0.6018699109554291,-0.3347364366054534,1.383136749267578,1.6160218119621277
6.45,1.6888757441137912e+18,66.44379134114583,-7.048539161682129,-1.2893649737040205,-3.764376560846965,1.6888757441137912e+18,66.44379134114583,-7.097510655721028,-11.066007137298584,-2.8315068085988364,1.6888757441137912e+18,66.44379134114583,-0.0717728187640508,-9.760897000630695,0.8681562145551046,1.6888757441137912e+18,66.44379134114583,-1.4762576818466189,3.233971436818441,-3.3322699467341104,1.6888757441137912e+18,66.44379134114583,-1.4769703547159831,3.238654851913452,-3.3298264344533286,,,,,,,,,,,,1.688875744115994e+18,66.44599404296875,0.9979599714279176,44.81059951782227,-23.297119522094725,1.688875744115994e+18,66.44599404296875,-254.39683227539064,140.04379577636718,-156.6553161621094,1.6888757441137912e+18,66.44379134114583,-0.498136430978775,0.4556989173094432,-0.5435476303100586,0.4976984063784281,-1.545009712378184,1.472859263420105,-1.1605326334635415
6.5,1.688875744165689e+18,66.49568912760417,4.339917381604512,1.396271387736003,-2.72321879863739,1.688875744165689e+18,66.49568912760417,3.386442244052887,-8.317850430806478,-1.5762719044772286,1.688875744165689e+18,66.49568912760417,-0.9762764970461528,-9.698376655578612,1.0822335084279378,1.688875744165689e+18,66.49568912760417,0.322485938668251,0.3840815325578053,-1.6658295392990112,1.688875744165689e+18,66.49568912760417,0.3218241731325785,0.3888157258431117,-1.663437008857727,,,,,,,,,,,,1.6888757441659935e+18,66.49599379882812,3.918639898300171,44.03955917358398,-24.52444000244141,1.6888757441659935e+18,66.49599379882812,-251.47615661621097,139.27275695800782,-157.8826416015625,1.688875744165689e+18,66.49568912760417,-0.4988215963045756,0.4923021992047627,-0.5540889898935953,0.4490585724512736,-2.290135145187378,1.4203109741210938,-2.4343108336130777
6.55,1.6888757442175918e+18,66.5475918782552,3.122097651163737,1.4924991925557454,-0.1948210000991821,1.6888757442175918e+18,66.5475918782552,1.5585251276691754,-8.160920937856039,0.7770691514015198,1.6888757442175918e+18,66.5475918782552,-1.586374044418335,-9.637674967447916,0.907176673412323,1.6888757442175918e+18,66.5475918782552,0.4789183537165324,2.028225382169088,-1.13870374361674,1.6888757442175918e+18,66.5475918782552,0.4782056709130605,2.0328577756881714,-1.136311133702596,,,,,,,,,,,,1.688875744215996e+18,66.54599580078124,6.187839984893799,44.17376022338867,-23.955919647216795,1.688875744215996e+18,66.54599580078124,-249.2069549560547,139.40695495605468,-157.31411437988282,1.6888757442175918e+18,66.5475918782552,-0.4914643764495849,0.5290759205818176,-0.5481059948603312,0.4216258923212687,-2.6172850131988525,1.3836845954259236,-2.0440429051717124
6.6,1.688875744269489e+18,66.59948885091146,1.4595444202423096,2.2984058062235513,-1.3197377522786458,1.688875744269489e+18,66.59948885091146,-0.5405785143375397,-7.269195715586345,-0.3128615568081538,1.688875744269489e+18,66.59948885091146,-2.0229244232177734,-9.55185635884603,0.9421627322832744,1.688875744269489e+18,66.59948885091146,0.0619010130564371,1.2768610715866089,-1.0918707450230916,1.688875744269489e+18,66.59948885091146,0.0612901449203491,1.2815443674723308,-1.0894272327423096,,,,,,,,,,,,1.6888757442659937e+18,66.59599340820313,5.924319934844971,44.47631912231445,-24.04131965637207,1.6888757442659937e+18,66.59599340820313,-249.4704742431641,139.7095153808594,-157.39951782226564,1.688875744269489e+18,66.59948885091146,-0.5007341404755911,0.567513128121694,-0.5297761758168539,0.3826513787110646,-2.702394485473633,1.3417237997055054,-1.8529669443766277
