seconds_elapsed_rounded,accelerometer_time,accelerometer_seconds_elapsed,accelerometer_z,accelerometer_y,accelerometer_x,accelerometeruncalibrated_time,accelerometeruncalibrated_seconds_elapsed,accelerometeruncalibrated_z,accelerometeruncalibrated_y,accelerometeruncalibrated_x,gravity_time,gravity_seconds_elapsed,gravity_z,gravity_y,gravity_x,gyroscope_time,gyroscope_seconds_elapsed,gyroscope_z,gyroscope_y,gyroscope_x,gyroscopeuncalibrated_time,gyroscopeuncalibrated_seconds_elapsed,gyroscopeuncalibrated_z,gyroscopeuncalibrated_y,gyroscopeuncalibrated_x,location_time,location_seconds_elapsed,location_bearingAccuracy,location_speedAccuracy,location_verticalAccuracy,location_horizontalAccuracy,location_speed,location_bearing,location_altitude,location_longitude,location_latitude,magnetometer_time,magnetometer_seconds_elapsed,magnetometer_z,magnetometer_y,magnetometer_x,magnetometeruncalibrated_time,magnetometeruncalibrated_seconds_elapsed,magnetometeruncalibrated_z,magnetometeruncalibrated_y,magnetometeruncalibrated_x,orientation_time,orientation_seconds_elapsed,orientation_qz,orientation_qy,orientation_qx,orientation_qw,orientation_roll,orientation_pitch,orientation_yaw
0.0,,,,,,,,,,,,,,,,1.6887547984123796e+18,0.069379638671875,0.9329439401626588,1.21333110332489,0.4488332271575928,,,,,,,,,,,,,,,,,,,,,,,,,,,,,,,,,,,
0.05,1.6887547984643702e+18,0.1213701171875,-0.3751144409179687,-0.0553710460662841,-0.0630356669425964,1.6887547984470687e+18,0.1040687255859375,9.10319471359253,3.3433715105056763,-0.0972084216773509,1.6887547984643702e+18,0.1213701171875,9.237069129943848,3.2936148643493652,-0.2544873654842376,1.6887547984470638e+18,0.1040638020833333,1.4414892594019573,2.001856287320455,0.3287473122278849,1.6887547984427448e+18,0.0997447509765624,1.374828577041626,1.987755537033081,0.353920042514801,,,,,,,,,,,,1.6887547984430597e+18,0.1000597534179687,-49.788198471069336,2.683999925851822,9.814899802207949,1.6887547984430597e+18,0.1000597534179687,-304.31678771972656,96.00179862976074,-122.18910026550292,,,,,,,,,
0.1,1.6887547984989737e+18,0.155973876953125,-0.6815999348958334,-0.1569388707478841,-0.1093907554944356,1.68875479849032e+18,0.1473201497395833,8.66421127319336,3.241477092107137,-0.6761717995007833,1.6887547984989737e+18,0.155973876953125,9.16189956665039,3.4157210191090903,-0.7664575378100077,1.6887547984989737e+18,0.155973876953125,2.0957768758138022,2.2768983840942383,0.292095402876536,1.6887547984859948e+18,0.14299462890625,2.0180951356887817,2.3622159163157144,0.2495384514331817,,,,,,,,,,,,1.6887547984880584e+18,0.1450583007812499,-47.78495864868164,0.9711199820041656,15.298799514770508,1.6887547984880584e+18,0.1450583007812499,-302.3135559082031,94.2889190673828,-116.70519714355468,1.68875479849032e+18,0.1473201497395833,0.2262280980745951,0.0659737487634022,0.1637724687655766,0.9576786160469056,0.055641181146105,-0.3511873781681061,-0.4540354112784068
0.15,1.6887547985422264e+18,0.1992264404296875,-0.1454305648803711,-0.0694029331207275,-1.93912810087204,1.6887547985422244e+18,0.1992244466145833,8.636893113454184,3.453241984049479,-2.80698033173879,1.6887547985422264e+18,0.1992264404296875,9.015460968017578,3.6800297498703,-1.1863722205162048,1.6887547985422264e+18,0.1992264404296875,1.7982346415519714,1.4313336610794067,0.5476407110691071,1.6887547985379034e+18,0.1949034830729167,1.7905478874842329,1.5288939078648884,0.4836016496022542,,,,,,,,,,,,1.6887547985380652e+18,0.195064990234375,-46.513719940185545,-1.5713599979877473,19.46631965637207,1.6887547985380652e+18,0.195064990234375,-301.0423156738281,91.7464385986328,-112.53767700195311,1.6887547985422244e+18,0.1992244466145833,0.2824336091677348,0.1067708805203437,0.1661089311043421,0.9386219382286072,0.1150334899624188,-0.3815074960390727,-0.5623137354850769
0.2,1.688754798585475e+18,0.242474853515625,0.4076646169026692,-0.0170761744181315,-1.3024439811706543,1.6887547985941327e+18,0.2511326497395833,9.388837814331056,3.534797271092733,-2.1599212487538657,1.688754798585475e+18,0.242474853515625,9.02697213490804,3.6303948561350503,-1.2453891436258953,1.688754798585475e+18,0.242474853515625,0.2747875526547432,-0.0166460871696472,-0.7365507781505585,1.6887547985898084e+18,0.246808349609375,0.224543884396553,-0.0949895530939102,-0.8385652899742126,,,,,,,,,,,,1.688754798588057e+18,0.24505732421875,-45.83783950805664,-2.6400799036026,20.99131965637207,1.688754798588057e+18,0.24505732421875,-300.36643676757814,90.67771911621094,-111.01268005371094,1.6887547985941327e+18,0.2511326497395833,0.3012112478415171,0.1104808797438939,0.1573247810204823,0.9339441855748496,0.1199713026483853,-0.36873526374499,-0.6015251278877258
0.25,1.688754798637387e+18,0.2943871256510417,-0.0540841420491536,-0.2703723112742106,-0.7624411185582479,1.6887547986460378e+18,0.3030380859375,8.614161491394043,3.287538925806681,-2.3417756954828897,1.688754798637387e+18,0.2943871256510417,9.15950870513916,3.285684823989868,-1.2398284276326497,1.688754798637387e+18,0.2943871256510417,0.5880087018013,0.6179410926997662,-0.3637193391720454,1.688754798641709e+18,0.298709228515625,0.6063855588436127,0.7384342725078265,-0.2234239677588144,,,,,,,,,,,,1.688754798638063e+18,0.295062939453125,-46.3624382019043,-1.2565999984741212,21.14015922546387,1.688754798638063e+18,0.295062939453125,-300.8910278320312,92.06119689941406,-110.86383972167968,1.6887547986460378e+18,0.3030380859375,0.3141628503799438,0.1107419406374295,0.1408476779858271,0.9322644074757894,0.1254221548636754,-0.338715652624766,-0.628590981165568
0.3,1.688754798689292e+18,0.3462919108072917,-1.070792516072591,0.9731168746948242,-1.6040107409159343,1.6887547986979471e+18,0.3549469401041666,8.48435084025065,4.353541374206543,-2.797807852427165,1.688754798689292e+18,0.3462919108072917,9.038230260213217,3.5044097900390625,-1.5015494028727214,1.688754798689292e+18,0.3462919108072917,0.2945388555526733,0.5005531708399454,0.6461936434110006,1.6887547986936187e+18,0.35061865234375,0.2815070648988088,0.4972443183263142,0.6256787280241648,,,,,,,,,,,,1.688754798688059e+18,0.345058740234375,-45.5352783203125,-2.532719945907593,22.523640060424803,1.688754798688059e+18,0.345058740234375,-300.0638732910156,90.7850784301758,-109.48035583496092,1.6887547986979471e+18,0.3549469401041666,0.3252220551172892,0.1296498700976371,0.1486719598372776,0.9248160918553672,0.1539531151453653,-0.3675583004951477,-0.647615393002828
0.35,1.688754798741196e+18,0.3981963704427083,-1.7970843315124512,-0.3991278012593587,-0.0806336005528767,1.6887547987498478e+18,0.4068479817708333,6.590431769688924,3.091327428817749,-1.5629119674364726,1.688754798741196e+18,0.3981963704427083,8.880772908528646,3.76179838180542,-1.7882360617319744,1.688754798741196e+18,0.3981963704427083,0.3954334358374278,0.707941897213459,0.6439028879006704,1.6887547987455173e+18,0.4025172526041666,0.3927863538265228,0.6017531951268514,0.7573202004035314,,,,,,,,,,,,1.6887547987380652e+18,0.39506513671875,-44.50315856933594,-3.9161999225616455,24.002279663085936,1.6887547987380652e+18,0.39506513671875,-299.03175048828126,89.40159759521484,-108.00171813964845,1.6887547987498478e+18,0.4068479817708333,0.3341626028219859,0.1506794542074203,0.1566154658794402,0.917074461778005,0.1873775621255238,-0.3984547754128774,-0.6609060565630595
0.4,1.6887547987931034e+18,0.4501031901041667,-0.6179048220316569,-2.5440238316853843,1.307914098103841,1.6887547987931023e+18,0.450102294921875,7.743772268295288,1.6498512029647827,-0.1226321458816528,1.6887547987931034e+18,0.4501031901041667,8.563408533732096,4.424340724945068,-1.8068928718566897,1.6887547987931034e+18,0.4501031901041667,0.1223257674525181,0.2314670234918594,1.784744660059611,1.6887547987974254e+18,0.4544254557291666,0.1307760700583457,0.4055636276801427,1.826130708058675,,,,,,,,,,,,1.688754798788062e+18,0.4450620605468749,-43.776038360595706,-7.024759960174561,24.356079483032225,1.688754798788062e+18,0.4450620605468749,-298.30463256835935,86.29303741455078,-107.64791870117188,1.6887547987931023e+18,0.450102294921875,0.3335684686899185,0.1616999506950378,0.186616763472557,0.9097796678543092,0.1909904554486274,-0.4639224261045456,-0.6575796902179718
0.45,1.688754798845007e+18,0.502007080078125,-2.8330535888671875,1.7937028408050537,-0.9569785992304484,1.688754798836355e+18,0.4933554687499999,6.342575232187907,5.755137125651042,-2.757329305013021,1.688754798845007e+18,0.502007080078125,8.141866048177084,5.103964487711589,-1.9713133573532104,1.688754798845007e+18,0.502007080078125,0.6621779203414917,0.3521638090411822,0.6517932017644247,1.6887547988493335e+18,0.5063336588541666,0.6689483523368835,0.179543470342954,0.3802635967731476,,,,,,,,,,,,1.6887547988380662e+18,0.495066162109375,-42.11927947998047,-11.097119903564453,25.6273193359375,1.6887547988380662e+18,0.495066162109375,-296.6478759765625,82.22067718505859,-106.37667846679688,1.688754798836355e+18,0.4933554687499999,0.3376163939634959,0.1861777255932489,0.2151358276605605,0.8972058097521464,0.2215764919916788,-0.5372811158498129,-0.658561646938324
0.5,1.6887547988969124e+18,0.5539124348958334,-5.2125271161397295,0.08365265528361,0.7414465149243673,1.6887547988882624e+18,0.5452622884114583,2.470589369535446,6.0781683921813965,-0.8562317192554474,1.6887547988969124e+18,0.5539124348958334,8.649354616800943,4.370344479878743,-1.3800065914789836,1.6887547988969124e+18,0.5539124348958334,0.2929607977469762,-1.9821558793385825,-3.556610186894735,1.688754798892583e+18,0.5495828857421875,0.1654681153595447,-1.9252182245254517,-3.2324697971343994,,,,,,,,,,,,1.6887547988880627e+18,0.54506279296875,-43.05379867553711,-9.85759973526001,24.5585994720459,1.6887547988880627e+18,0.54506279296875,-297.5823913574219,83.46019897460937,-107.44539794921874,1.6887547988882624e+18,0.5452622884114583,0.3502649168173471,0.1576527605454126,0.1993095278739929,0.901106337706248,0.1652653738856315,-0.4891099135080973,-0.6993046204249064
0.55,1.6887547989488177e+18,0.6058174641927083,1.5868682861328125,-2.151064157485962,0.1494696090618769,1.688754798940167e+18,0.5971668294270834,10.785648028055826,-0.2855435212453206,0.0069790681203206,1.6887547989488177e+18,0.6058174641927083,9.473093350728352,2.4820284048716226,-0.4009906301895777,1.6887547989488177e+18,0.6058174641927083,0.3188716651250918,-1.4779375791549685,-3.0901127258936563,1.6887547989358418e+18,0.5928418782552084,0.4597270141045252,-1.869909405708313,-4.004781564076741,,,,,,,,,,,,1.6887547989380616e+18,0.59506162109375,-46.84067916870117,-1.3053999841213226,19.5273193359375,1.6887547989380616e+18,0.59506162109375,-301.3692687988281,92.01239776611328,-112.47667846679688,1.688754798940167e+18,0.5971668294270834,0.3644613325595855,0.0701036738852659,0.1211289316415786,0.9202481508255004,0.042786136890451,-0.2776957849661509,-0.7475699186325073
0.6,1.6887547989920717e+18,0.6490716552734375,-0.4678094387054443,-0.879814624786377,-0.1993739008903503,1.6887547989920727e+18,0.6490727539062501,9.151150703430176,0.9862417578697203,-0.3403790195782979,1.6887547989920717e+18,0.6490716552734375,9.626773357391356,1.885853946208954,-0.0484581794589757,1.6887547989920717e+18,0.6490716552734375,-0.2318233549594879,-0.5152648389339447,-0.6068946272134781,1.688754798987746e+18,0.64474609375,-0.1575523254772027,-0.6277658541997274,-0.7938703000545502,,,,,,,,,,,,1.6887547989880584e+18,0.645058447265625,-48.433999633789064,3.7209999561309814,17.140999603271485,1.6887547989880584e+18,0.645058447265625,-302.96259765625,97.03879852294922,-114.86299743652344,1.6887547989920727e+18,0.6490727539062501,0.3651897410551707,0.0310079821695883,0.0899528289834658,0.926043132940928,-0.0084290550633643,-0.1904116421937942,-0.7520444591840109
0.65,1.6887547990353172e+18,0.6923171386718749,-2.3083950678507485,-1.5062579313913982,-2.127947529157003,1.6887547990439764e+18,0.7009767252604165,7.2004021008809405,0.0205383946498235,-2.932204763094584,1.6887547990353172e+18,0.6923171386718749,9.674636205037435,1.6128950516382854,0.0209919065237045,1.6887547990353172e+18,0.6923171386718749,-0.3473787059386571,0.18000162144502,-1.0696759422620137,1.688754799039649e+18,0.696649169921875,-0.3799072802066803,0.3719660441080729,-1.2283991078535716,,,,,,,,,,,,1.688754799038061e+18,0.6950610351562501,-48.16559829711914,5.651039886474609,16.211359596252443,1.688754799038061e+18,0.6950610351562501,-302.69419555664064,98.96883850097656,-115.79263763427734,1.6887547990439764e+18,0.7009767252604165,0.3583358128865559,0.0222534040609995,0.0709968420366445,0.9305281440416971,-0.0096733722214897,-0.1486100206772486,-0.7360390623410543
0.7,1.688754799087226e+18,0.7442262369791667,-2.19087553024292,-1.0046627869208653,-6.016570091247559,1.688754799095879e+18,0.7528787434895833,7.73499870300293,-0.2007977043588955,-7.200601577758789,1.688754799087226e+18,0.7442262369791667,9.71065616607666,0.6227652380863825,-1.0542960961659749,1.688754799087226e+18,0.7442262369791667,-0.4178827206293742,3.700214465459188,-2.272927761077881,1.6887547990915564e+18,0.7485564778645833,-0.4017966190973918,4.082310597101848,-2.2924245993296304,,,,,,,,,,,,1.6887547990880612e+18,0.7450611328125001,-45.77927856445312,9.83563976287842,19.761559295654298,1.6887547990880612e+18,0.7450611328125001,-300.30787963867186,103.15343780517578,-112.24243774414064,1.688754799095879e+18,0.7528787434895833,0.3512559235095978,0.0695649534463881,-0.0051581823111822,0.9328770438830056,0.1340665879348913,-0.039292891548636,-0.7187402248382568
0.75,1.6887547991391365e+18,0.7961360677083333,-2.437773068745931,0.4543271462122599,-2.646478255589803,1.688754799147787e+18,0.8047867024739584,5.859623908996582,0.2983052233854928,-6.871787865956624,1.6887547991391365e+18,0.7961360677083333,8.881381670633951,-0.3939513017733891,-4.009831349054973,1.6887547991391365e+18,0.7961360677083333,-0.3998622099558512,7.345960140228272,-1.3009902785221736,1.6887547991434632e+18,0.8004632975260417,-0.44862961769104,7.55655574798584,-1.0677415219446025,,,,,,,,,,,,1.6887547991380613e+18,0.795061376953125,-36.56095962524414,14.33011989593506,31.029479217529296,1.6887547991380613e+18,0.795061376953125,-291.0895568847656,107.64791870117188,-100.97451782226562,1.688754799147787e+18,0.8047867024739584,0.335771123568217,0.2121998220682144,-0.1072220355272293,0.909710148970286,0.4782143632570902,0.0529774166643619,-0.7206081946690878
0.8,1.688754799191041e+18,0.8480410156249999,-2.540700674057007,2.9795130093892417,-1.2794132232666016,1.688754799199691e+18,0.856691162109375,2.752543648084005,1.838884214560191,-8.710073788960775,1.688754799191041e+18,0.8480410156249999,6.264467557271321,-0.8724762598673502,-7.38527266184489,1.688754799191041e+18,0.8480410156249999,-2.117818911870321,9.251757303873696,0.1692605813344319,1.6887547991953674e+18,0.8523675130208334,-2.2917118867238364,9.274665196736654,0.0917825053135554,,,,,,,,,,,,1.6887547991880635e+18,0.84506376953125,-20.15195960998535,16.448039627075197,41.75083923339844,1.6887547991880635e+18,0.84506376953125,-274.68055419921876,109.76583862304688,-90.25315856933594,1.688754799199691e+18,0.856691162109375,0.2653276771306991,0.4084135194619496,-0.1905301858981449,0.8495816588401794,0.9330285986264548,0.1090768724679946,-0.6617240508397421
0.85,1.6887547992429463e+18,0.8999462076822917,-4.076148668924968,-0.7212648789087931,-0.6789344151814779,1.688754799242944e+18,0.89994384765625,-1.742573082447052,-3.089133977890014,-9.711270809173584,1.6887547992429463e+18,0.8999462076822917,2.938098669052124,-2.083166122436523,-9.098613421122232,1.6887547992429463e+18,0.8999462076822917,-2.439235846201578,5.3595279057820635,-0.2988149027029673,1.688754799247269e+18,0.90426904296875,-2.3557509183883667,4.759200255076091,-0.2065742711226145,,,,,,,,,,,,1.688754799238061e+18,0.8950609863281251,-0.2537600040435791,21.203599548339845,44.559278106689455,1.688754799238061e+18,0.8950609863281251,-254.78236083984376,114.52139587402344,-87.44471740722656,1.688754799242944e+18,0.89994384765625,0.1866769343614578,0.5278574228286743,-0.2637369185686111,0.7851666212081909,1.2549057006835938,0.2189969941973686,-0.6262693107128143
0.9,1.6887547992948518e+18,0.9518516438802084,1.5065987904866536,-3.068723758061727,-3.5979223251342773,1.6887547992862052e+18,0.943205078125,2.362712929646174,-5.499105135599772,-12.173884073893229,1.6887547992948518e+18,0.9518516438802084,2.0458818674087524,-3.121351639429728,-9.066765467325846,1.6887547992948518e+18,0.9518516438802084,-2.0978639125823975,0.249640258649985,-0.7341581930716833,1.6887547992991798e+18,0.9561798502604169,-2.0911953449249268,0.1476257654527823,-0.9226610288023948,,,,,,,,,,,,1.6887547992880614e+18,0.94506162109375,8.217919921875,27.008359146118163,41.18720016479492,1.6887547992880614e+18,0.94506162109375,-246.3106719970703,120.32615661621094,-90.81679840087892,1.6887547992862052e+18,0.943205078125,0.141527031858762,0.5467331012090048,-0.2969548503557841,0.7698184450467428,1.331852912902832,0.3073421716690063,-0.6058563391367594
0.95,1.6887547993467556e+18,1.0037556966145833,4.728817621866862,-6.470157305399577,-6.197696685791016,1.6887547993381007e+18,0.9951006673177084,6.331010023752849,-10.4558375676473,-14.418551127115885,1.6887547993467556e+18,1.0037556966145833,1.828250567118327,-4.114536285400391,-8.71265443166097,1.6887547993467556e+18,1.0037556966145833,-1.3086769779523213,-0.8559240400791168,-2.1437297662099204,1.6887547993424282e+18,0.9994281005859376,-1.526017725467682,-0.5016730949282646,-1.9842430353164673,,,,,,,,,,,,1.6887547993380603e+18,0.995060302734375,11.070279502868653,29.926599502563477,38.205519104003905,1.6887547993380603e+18,0.995060302734375,-243.45831298828125,123.24439849853516,-93.79847869873046,1.6887547993381007e+18,0.9951006673177084,0.1258341670036315,0.5238979856173197,-0.3537276685237884,0.7643446326255798,1.3496310313542683,0.421368658542633,-0.6653612852096558
1.0,1.6887547993986614e+18,1.0556613769531251,7.107898871103923,-5.3358988761901855,-4.4586976369222,1.6887547993900004e+18,1.0470006510416667,9.244271596272789,-10.159924825032553,-13.97129249572754,1.6887547993986614e+18,1.0556613769531251,2.2493701775868735,-4.33972183863322,-8.503497759501139,1.6887547993986614e+18,1.0556613769531251,0.8426886101563772,-2.2328652143478394,-1.8392133911450703,1.688754799385686e+18,1.04268603515625,0.4458807210127513,-2.419789950052897,-2.3056599696477256,,,,,,,,,,,,1.6887547993880627e+18,1.0450626953125,11.28011989593506,29.709439849853517,38.378759765625,1.6887547993880627e+18,1.0450626953125,-243.24847717285155,123.02723693847656,-93.62523956298828,1.6887547993900004e+18,1.0470006510416667,0.1689912329117457,0.4750547508398692,-0.3980893492698669,0.7659613291422526,1.3088786204655964,0.4665747185548146,-0.7947294314702352
1.05,1.6887547994505638e+18,1.1075641276041666,2.706552267074585,-1.5864914258321126,2.093249479929606,1.688754799441917e+18,1.0989165852864584,7.032904545466105,-5.790232022603353,-7.270392100016276,1.6887547994505638e+18,1.1075641276041666,2.19368577003479,-4.227910836537679,-8.573885917663574,1.6887547994505638e+18,1.1075641276041666,-0.6442083120346069,1.833868424097697,1.3154473702112834,1.6887547994375926e+18,1.0945926106770834,-0.0546724398930867,0.9695959091186525,0.6502151489257812,,,,,,,,,,,,1.6887547994380628e+18,1.095062890625,10.494439697265625,28.096599197387697,39.89399948120117,1.6887547994380628e+18,1.095062890625,-244.0341552734375,121.41439819335938,-92.10999755859376,1.688754799441917e+18,1.0989165852864584,0.1906827390193939,0.4672163923581441,-0.3993167479832967,0.7652496496836344,1.2963067690531414,0.4481046696503957,-0.8300727605819702
1.1,1.6887547994938217e+18,1.1508216552734376,-2.680795431137085,-0.315030574798584,2.3286705017089844,1.6887547994938186e+18,1.1508186848958333,-1.1122636993726096,-6.05085043112437,-5.693522135416667,1.6887547994938217e+18,1.1508216552734376,1.875148355960846,-4.640348434448242,-8.435926914215088,1.6887547994938217e+18,1.1508216552734376,-1.7980818152427671,0.635147150605917,0.7796167805790901,1.688754799489493e+18,1.146492919921875,-1.7198402086893718,0.8894198338190714,0.9536115527153016,,,,,,,,,,,,1.6887547994880627e+18,1.145062744140625,12.258559799194336,30.78791961669922,37.60283889770508,1.6887547994880627e+18,1.145062744140625,-242.27003479003903,124.10571746826172,-94.40115814208984,1.6887547994938186e+18,1.1508186848958333,0.1334589049220085,0.4889459013938904,-0.39805602033933,0.7645137707392374,1.335240165392558,0.498623530069987,-0.7418156067530314
1.15,1.688754799537076e+18,1.1940757649739584,-1.7068461179733276,-2.063913663228353,0.6381807327270508,1.688754799545727e+18,1.202726806640625,0.1665005485216777,-6.856234550476074,-7.276573657989502,1.688754799537076e+18,1.1940757649739584,1.9319074948628745,-5.373221079508464,-7.971060911814372,1.688754799537076e+18,1.1940757649739584,-2.329127391179403,0.2788599828879038,0.5858197907606761,1.6887547995414016e+18,1.198401448567708,-2.4060963789621987,0.3503312170505523,0.7395032867789268,1.688754799545e+18,1.202,0.0,0.0,19.02753448486328,92.2689971923828,1.6182808876037598,109.65337371826172,337.29998779296875,-122.9175749,49.2790886,1.6887547995380613e+18,1.195061181640625,11.319159889221192,34.635799407958984,34.43327941894531,1.6887547995380613e+18,1.195061181640625,-243.20943603515624,127.95359802246094,-97.57071838378906,1.688754799545727e+18,1.202726806640625,0.0836666499574979,0.469853142897288,-0.4171003997325897,0.7732120553652445,1.3122169176737468,0.6023261149724325,-0.6849460999170939
1.2,1.6887547995889723e+18,1.2459727376302083,-8.840839068094889,-1.1322323481241865,0.8695739110310873,1.6887547995976302e+18,1.2546299641927083,-7.386444091796875,-6.441677888234456,-6.481159528096517,1.6887547995889723e+18,1.2459727376302083,2.1628066301345825,-6.167315324147542,-7.310529390970866,1.6887547995889723e+18,1.2459727376302083,-2.2195789019266763,0.4834998399019241,2.0434460242589316,1.6887547995932997e+18,1.2502997233072917,-2.177581866582235,0.4486805200576782,2.093435208002726,,,,,,,,,,,,1.6887547995880596e+18,1.2450595703125,9.989359855651855,39.40355911254883,29.875359344482423,1.6887547995880596e+18,1.2450595703125,-244.5392333984375,132.7213562011719,-102.1286376953125,1.6887547995976302e+18,1.2546299641927083,0.0100928697114189,0.4577376246452331,-0.41183536251386,0.7876180609067281,1.2505015929539998,0.6937246521313986,-0.5361991027990977
1.25,1.688754799640886e+18,1.2978860677083333,-12.311843554178871,2.0395562648773193,-2.801166852315267,1.6887547996495352e+18,1.306535400390625,-10.09791119893392,-5.188437143961589,-10.134600639343262,1.688754799640886e+18,1.2978860677083333,2.253749132156372,-6.851565361022949,-6.639591375986735,1.688754799640886e+18,1.2978860677083333,-2.2303199768066406,0.6045020495851835,-0.5042183796564738,1.6887547996452116e+18,1.3022115885416663,-2.154572606086731,0.4489859541257222,-0.9197594126065572,,,,,,,,,,,,1.6887547996380664e+18,1.29506650390625,8.027599811553955,42.96839904785156,26.190959548950197,1.6887547996380664e+18,1.29506650390625,-246.5009979248047,136.28619995117188,-105.81304016113282,1.6887547996495352e+18,1.306535400390625,-0.044614146153132,0.4461139142513275,-0.4296899636586507,0.7835526466369629,1.2337058782577517,0.7942489782969157,-0.464957336584727
1.3,1.6887547996927846e+18,1.3497846679687502,2.273760716120402,2.942925294240316,-5.731491883595784,1.6887547996927903e+18,1.3497904052734375,-1.3935199975967407,-5.908178329467773,-11.824432373046877,1.6887547996927846e+18,1.3497846679687502,1.5419307152430215,-7.532601356506348,-6.0885294278462725,1.6887547996927846e+18,1.3497846679687502,-0.5755368620157241,-2.07857080300649,-3.22562305132548,1.6887547996971164e+18,1.35411669921875,-0.5023857653141022,-1.9515108267466228,-2.8551332553227744,,,,,,,,,,,,1.6887547996880596e+18,1.34505966796875,13.317519760131836,44.137158966064455,23.382519149780272,1.6887547996880596e+18,1.34505966796875,-241.21107177734376,137.4549560546875,-108.62147827148438,1.6887547996927903e+18,1.3497904052734375,-0.0211216104216873,0.4155837744474411,-0.4932088702917099,0.7636458873748779,1.3048560619354248,0.8804115951061249,-0.6359572410583496
1.35,1.688754799744691e+18,1.4016907552083333,10.341704368591309,7.285436948140462,-3.3352932929992676,1.6887547997360443e+18,1.39304443359375,15.4273255666097,0.5906283855438234,-10.470991770426432,1.688754799744691e+18,1.4016907552083333,1.752155900001526,-7.623266537984212,-5.916431585947673,1.688754799744691e+18,1.4016907552083333,0.5476406912008921,-2.7269023656845093,-0.2413426836331685,1.6887547997490153e+18,1.40601513671875,0.7008151412010193,-3.1245248913764954,-0.3173954089482625,,,,,,,,,,,,1.6887547997380616e+18,1.3950615234375,16.36019973754883,44.483639526367185,23.07995986938477,1.6887547997380616e+18,1.3950615234375,-238.16839599609375,137.8014373779297,-108.92403717041016,1.6887547997360443e+18,1.39304443359375,0.0093443832204987,0.3831971685091654,-0.514245887597402,0.7670268019040426,1.2826070388158162,0.8978289167086283,-0.7148368159929911
1.4,1.6887547997966016e+18,1.4536013997395834,12.024045944213867,7.380946000417073,-0.7600940068562826,1.6887547997879483e+18,1.4449484863281252,14.859428723653158,-0.1421735684076945,-5.763113339742024,1.6887547997966016e+18,1.4536013997395834,3.1968344847361245,-7.357658704121907,-5.621240456899007,1.6887547997966016e+18,1.4536013997395834,-0.8407033284505209,-2.382018208503723,2.633796453475952,1.6887547997922762e+18,1.4492762451171874,-0.6230061799287796,-2.984000325202942,2.425745904445648,,,,,,,,,,,,1.6887547997880622e+18,1.4450623046875,11.577799797058104,43.40271835327148,26.874159622192384,1.6887547997880622e+18,1.4450623046875,-242.95079650878907,136.72051696777345,-105.12983856201171,1.6887547997879483e+18,1.4449484863281252,0.0681134400268395,0.3158693313598632,-0.4965421656767527,0.8051156798998514,1.082777976989746,0.8574625054995219,-0.7066546678543091
1.45,1.688754799848505e+18,1.5055054524739582,1.3033355871836343,-1.629557450612386,-4.38219420115153,1.6887547998398546e+18,1.4968543294270835,7.845268090565999,-7.294320583343506,-9.387043317159018,1.688754799848505e+18,1.5055054524739582,4.80886713663737,-6.800997416178386,-5.155473073323567,1.688754799848505e+18,1.5055054524739582,-1.1015936831633248,1.0883582234382632,5.196121533711751,1.6887547998355264e+18,1.4925266927083334,-1.540500322977702,0.9155342876911164,4.901582717895508,,,,,,,,,,,,1.688754799838061e+18,1.495061181640625,0.1659199595451355,44.861839294433594,24.71475944519043,1.688754799838061e+18,1.495061181640625,-254.3626708984375,138.179638671875,-107.28923950195312,1.6887547998398546e+18,1.4968543294270835,0.0115365451201796,0.29609481493632,-0.4178427259127299,0.8579816818237305,0.8328410387039185,0.7895739674568176,-0.3936250905195872
1.5,1.6887547999004096e+18,1.5574093424479167,-5.595481236775716,-2.931952476501465,-3.899831771850586,1.6887547998917563e+18,1.5487563476562498,0.9734800308942796,-9.04327424367269,-9.67238744099935,1.6887547999004096e+18,1.5574093424479167,5.919844786326091,-5.609669367472331,-5.441823641459147,1.6887547999004096e+18,1.5574093424479167,0.2352849307159582,1.489391287167867,3.2181907892227173,1.6887547998874386e+18,1.5444384765625,0.0255036254723866,1.2900455792744954,4.206672588984172,,,,,,,,,,,,1.688754799888063e+18,1.54506298828125,-11.987719821929932,43.67843856811523,23.106799697875974,1.688754799888063e+18,1.54506298828125,-266.51630859375,136.9962371826172,-108.89719848632812,1.6887547998917563e+18,1.5487563476562498,-0.0440555674334366,0.3155357837677001,-0.312058965365092,0.8946317235628763,0.7266910076141357,0.6268092393875122,-0.1470865880449612
1.55,1.6887547999436667e+18,1.600666748046875,-7.404389142990112,-0.3360798358917236,-1.2505791187286377,1.6887547999436572e+18,1.6006571451822915,-1.1515458921591442,-5.781258900960286,-7.126424153645833,1.6887547999436667e+18,1.600666748046875,5.871025085449219,-5.238142967224121,-5.858970880508423,1.6887547999436667e+18,1.600666748046875,0.7386887967586517,0.1615738570690155,-0.5219079945236444,1.688754799939337e+18,1.5963367513020834,0.6933829585711161,0.4259257912635803,-0.0887281696001688,,,,,,,,,,,,1.688754799938062e+18,1.595062158203125,-15.010879707336423,41.71423950195312,24.563479232788087,1.688754799938062e+18,1.595062158203125,-269.5394653320312,135.03203735351562,-107.44051666259766,1.6887547999436572e+18,1.6006571451822915,-0.0496835423012574,0.3429637948671977,-0.2772272725900014,0.8960846861203512,0.7654836575190226,0.5596845944722494,-0.1196152319510777
1.6,1.688754799986913e+18,1.643912841796875,-2.362058957417806,-0.3748331069946289,-1.9767985343933103,1.6887547999955674e+18,1.6525673828125,4.488935232162476,-5.466403325398763,-7.944968541463216,1.688754799986913e+18,1.643912841796875,6.0499335924784345,-5.129499276479085,-5.770638306935628,1.688754799986913e+18,1.643912841796875,0.956411341826121,-1.2781845927238464,-0.0737619784971078,1.6887547999912448e+18,1.6482447102864584,0.9109018842379252,-1.1333077599604924,0.0845030297835667,,,,,,,,,,,,1.6887547999880632e+18,1.64506328125,-15.484239387512208,40.869998931884766,25.74931907653809,1.6887547999880632e+18,1.64506328125,-270.01283569335936,134.18779602050782,-106.25467834472656,1.6887547999955674e+18,1.6525673828125,-0.014425667002797,0.3250258465607961,-0.2792512476444244,0.9033750693003336,0.7412817676862081,0.539814273516337,-0.1822941750288009
1.65,1.6887548000388242e+18,1.6958243001302085,-2.432079235712687,0.4031244913736979,-1.9774707158406577,1.688754800047474e+18,1.7044740397135418,3.201397180557251,-4.286941051483154,-7.720442136128743,1.6887548000388242e+18,1.6958243001302085,6.149664719899495,-4.760696570078532,-5.977144559224446,1.6887548000388242e+18,1.6958243001302085,0.4491386711597442,0.931264062722524,0.6288857658704122,1.688754800043148e+18,1.70014794921875,0.4429282049338023,0.9879727363586426,0.5929974317550659,,,,,,,,,,,,1.6887548000380603e+18,1.695060595703125,-16.523679733276367,39.36207885742188,26.74239921569824,1.6887548000380603e+18,1.695060595703125,-271.0522766113281,132.67987976074218,-105.2615982055664,1.688754800047474e+18,1.7044740397135418,-0.008729520253837,0.3393822312355041,-0.2604182958602904,0.903793772061666,0.7652429739634196,0.4968905051549275,-0.1841016858816146
1.7,1.6887548000907295e+18,1.7477294921875,-3.9293641249338784,-1.1801935831705728,-2.37552817662557,1.6887548000993802e+18,1.7563802083333335,2.128615140914917,-5.960521221160889,-9.081559499104818,1.6887548000907295e+18,1.7477294921875,5.99769655863444,-4.439991315205892,-6.366326014200847,1.6887548000907295e+18,1.7477294921875,0.6232861777146658,0.630005677541097,0.5458589990933737,1.688754800095056e+18,1.7520562337239582,0.667013943195343,0.63326362768809,0.5600107113520304,,,,,,,,,,,,1.6887548000880614e+18,1.7450615234375,-16.455359649658202,38.10060043334961,28.279599761962892,1.6887548000880614e+18,1.7450615234375,-270.98395385742185,131.41839599609375,-103.72439880371094,1.6887548000993802e+18,1.7563802083333335,-0.0046503322664647,0.3611221015453338,-0.2438063025474548,0.9000329573949178,0.8070700367291769,0.458103746175766,-0.188036079208056
1.75,1.6887548001426363e+18,1.7996364746093751,-4.4099040031433105,-1.6278175512949626,-1.671376387278239,1.6887548001426348e+18,1.7996346435546875,1.430608868598938,-5.318646669387817,-8.615656852722168,1.6887548001426363e+18,1.7996364746093751,5.7258931795756025,-3.98837939898173,-6.889819780985515,1.6887548001426363e+18,1.7996364746093751,1.308269739151001,1.2787954608599346,-0.051770823697249,1.6887548001469655e+18,1.8039655761718751,1.328122854232788,1.325475772221883,-0.1328631887833277,,,,,,,,,,,,1.6887548001380564e+18,1.7950564941406248,-16.10399971008301,36.44871978759765,30.5609992980957,1.6887548001380564e+18,1.7950564941406248,-270.6325988769531,129.76651611328126,-101.44300079345705,1.6887548001426348e+18,1.7996346435546875,0.0096033518202602,0.386575236916542,-0.2296912297606468,0.8931017518043518,0.8621912896633148,0.414584919810295,-0.2143352553248405
1.8,1.6887548001945372e+18,1.851537027994792,-4.587691307067871,-4.321688810984294,2.3861214319864907,1.688754800185893e+18,1.8428933105468748,0.4544369007150332,-7.557730356852214,-5.498507022857666,1.6887548001945372e+18,1.851537027994792,5.108465671539307,-3.727609952290853,-7.496268590291341,1.6887548001945372e+18,1.851537027994792,0.7716755072275797,1.322828729947408,-0.7245879968007406,1.68875480019886e+18,1.8558599446614583,0.6868161459763845,1.326035737991333,-0.7745262185732523,,,,,,,,,,,,1.6887548001880632e+18,1.84506337890625,-12.91491985321045,34.804158782958986,33.398719787597656,1.6887548001880632e+18,1.84506337890625,-267.4435119628906,128.12195587158203,-98.60527801513672,1.688754800185893e+18,1.8428933105468748,0.0294913270821173,0.4189052979151408,-0.2296633770068485,0.8779293894767761,0.9431613485018412,0.3881078461805979,-0.2669766793648402
1.85,1.6887548002464474e+18,1.903447265625,-3.549298127492269,-10.417338371276855,5.95183785756429,1.6887548002377933e+18,1.89479345703125,0.9200402895609536,-13.43649673461914,-2.522234559059143,1.6887548002464474e+18,1.903447265625,4.3380686442057295,-3.8513050079345703,-7.9070485432942705,1.6887548002464474e+18,1.903447265625,0.2745330135027567,1.424894094467163,-1.121548593044281,1.6887548002421204e+18,1.8991204833984376,0.249385729432106,1.5206726789474487,-1.0555751323699951,,,,,,,,,,,,1.6887548002380618e+18,1.89506171875,-8.410679721832276,34.40400009155273,35.28971939086914,1.6887548002380618e+18,1.89506171875,-262.93927001953125,127.72179870605468,-96.7142776489258,1.6887548002377933e+18,1.89479345703125,0.0415252024928728,0.4519173900286357,-0.2482231259346007,0.8557192087173462,1.0381678342819214,0.3975547850131988,-0.3263486723105113
1.9,1.6887548002983498e+18,1.9553500162760415,-0.481433629989624,-8.697365125020346,8.463825861612955,1.6887548002896955e+18,1.9466956380208331,2.164507530629635,-13.626327196756998,0.6542375783125559,1.6887548002983498e+18,1.9553500162760415,3.763126532236735,-4.174468199412028,-8.03857692082723,1.6887548002983498e+18,1.9553500162760415,0.1465058475732803,-0.3639229784409205,-2.637156089146932,1.6887548002853655e+18,1.942365397135417,0.2714277952909469,-0.0044287691513697,-2.253939986228943,,,,,,,,,,,,1.688754800288065e+18,1.94506494140625,-4.357839822769165,34.1868392944336,35.70207824707031,1.688754800288065e+18,1.94506494140625,-258.8864318847656,127.5046371459961,-96.30191955566406,1.6887548002896955e+18,1.9466956380208331,0.0631735051671663,0.4663677910963693,-0.2840534051259358,0.8351207375526428,1.111614505449931,0.4285410443941752,-0.4198939005533854
1.95,1.6887548003502518e+18,2.0072516276041665,3.2767748832702637,-4.073803742726644,2.0826841990152993,1.6887548003416056e+18,1.9986057942708335,6.7956163088480634,-9.039485931396484,-4.208974997202556,1.6887548003502518e+18,2.0072516276041665,3.028249184290568,-4.962334791819255,-7.890538851420085,1.6887548003502518e+18,2.0072516276041665,-1.8522452513376872,1.8109099864959717,-1.2659672896067302,1.68875480033728e+18,1.9942799479166664,-1.267749011516571,1.0781771217783291,-1.8945985635121665,,,,,,,,,,,,1.688754800338062e+18,1.995062158203125,0.2806000113487243,35.14575958251953,35.60204010009765,1.688754800338062e+18,1.995062158203125,-254.247998046875,128.46355743408202,-96.40195770263672,1.6887548003416056e+18,1.9986057942708335,0.076798657576243,0.46060311794281,-0.343363602956136,0.8146367271741232,1.1713634729385376,0.5106796423594157,-0.531436045964559
2.0,1.6887548003935058e+18,2.050505859375,-1.1677311062812803,-4.382163763046265,-5.402235984802246,1.688754800393509e+18,2.0505091959635418,1.1649058312177658,-9.82353369394938,-12.697313944498696,1.6887548003935058e+18,2.050505859375,2.2159234285354614,-5.724961996078491,-7.650188446044922,1.6887548003935058e+18,2.050505859375,-1.9467511773109436,2.1758256554603577,0.4762458205223083,1.6887548003891814e+18,2.046181396484375,-2.0509291092554727,2.2534309228261313,0.2729549606641134,,,,,,,,,,,,1.688754800388065e+18,2.04506494140625,5.494879913330078,38.47879867553711,31.42231979370117,1.688754800388065e+18,2.04506494140625,-249.0337158203125,131.79659729003907,-100.58167572021485,1.688754800393509e+18,2.0505091959635418,0.0176120738421256,0.4848172068595886,-0.3800893127918243,0.7872815132141113,1.2703489065170288,0.6208229660987854,-0.5091576178868612
2.05,1.6887548004367647e+18,2.0937644042968753,-2.794655760129293,-0.7605810165405273,-6.59099817276001,1.688754800445411e+18,2.102410970052083,-0.889531801144282,-6.522834618886312,-13.954742113749186,1.6887548004367647e+18,2.0937644042968753,1.7541132767995198,-6.193203608194987,-7.3997124036153155,1.6887548004367647e+18,2.0937644042968753,-1.2687162160873413,0.8632544080416361,-0.493528202176094,1.6887548004410929e+18,2.0980926106770834,-1.223054011662801,0.7275914152463278,-0.5627086907625198,,,,,,,,,,,,1.6887548004380593e+18,2.0950591796875,8.547319793701172,41.19451904296875,28.108799743652344,1.6887548004380593e+18,2.0950591796875,-245.9812744140625,134.51231994628907,-103.89519805908203,1.688754800445411e+18,2.102410970052083,-0.0194177770366271,0.4952933390935262,-0.4026853640874226,0.7694461146990458,1.3281456232070925,0.693143367767334,-0.5006115734577179
2.1,1.688754800488669e+18,2.145668701171875,4.363368471463521,3.3231199582417807,-7.458635965983073,1.688754800497319e+18,2.1543187662760417,6.388238191604614,-2.4673989613850913,-14.432708740234377,1.688754800488669e+18,2.145668701171875,1.5103495121002195,-6.548089663187663,-7.146631240844727,1.688754800488669e+18,2.145668701171875,-0.5734497507413229,0.4487823445039491,0.2939279874165852,1.6887548004929925e+18,2.1499925944010414,-0.5148066878318787,0.6819292406241099,0.5356779098510742,,,,,,,,,,,,1.688754800488061e+18,2.145060986328125,10.740879821777344,42.941559600830075,25.92987976074219,1.688754800488061e+18,2.145060986328125,-243.7877166748047,136.25935974121094,-106.07411651611328,1.688754800497319e+18,2.1543187662760417,-0.0327943389614423,0.4930120408535003,-0.4168769915898641,0.7628423372904459,1.3454509178797405,0.732134481271108,-0.506900280714035
2.15,1.6887548005405724e+18,2.1975722656250003,-0.5628156661987305,4.380024830500285,-3.4694321950276694,1.6887548005492216e+18,2.206221761067708,0.6342973311742147,-2.07058917482694,-9.61994457244873,1.6887548005405724e+18,2.1975722656250003,1.2817954619725545,-6.521045843760173,-7.214397112528483,1.6887548005405724e+18,2.1975722656250003,0.163966408620278,1.0725775758425395,-0.1005382140477498,1.688754800544902e+18,2.2019016927083332,0.1632028284172217,1.0056878129641216,-0.2607885499795278,,,,,,,,,,,,1.6887548005380595e+18,2.19505966796875,11.65343990325928,43.732119750976565,25.014879608154295,1.6887548005380595e+18,2.19505966796875,-242.87515563964843,137.04992065429687,-106.98911743164062,1.6887548005492216e+18,2.206221761067708,-0.0476949239770571,0.5151925086975098,-0.4083208243052164,0.7520100076993307,1.3884891271591189,0.7251242597897848,-0.4851594567298889
2.2,1.6887548005924795e+18,2.2494794108072917,-1.0322107474009197,3.5357715288798013,0.2223200798034667,1.6887548005924795e+18,2.2494797363281247,-3.397508978843689,-4.031906247138977,-7.322037220001221,1.6887548005924795e+18,2.2494794108072917,0.851888120174408,-6.4638315836588545,-7.329277992248535,1.6887548005924795e+18,2.2494794108072917,0.3849469100435574,-0.0520762701829274,-1.043205092350642,1.6887548005968056e+18,2.253805419921875,0.4300491246394813,-0.1444696287314097,-1.0519099434216816,,,,,,,,,,,,1.6887548005880612e+18,2.2450609375,14.498479843139648,43.38807830810547,25.024639511108397,1.6887548005880612e+18,2.2450609375,-240.03011474609377,136.70587768554688,-106.97935791015624,1.6887548005924795e+18,2.2494797363281247,-0.0378895103931426,0.5245288610458374,-0.4187965542078018,0.74025097489357,1.4387380480766296,0.720533162355423,-0.5352071225643158
2.25,1.6887548006443807e+18,2.301380615234375,-0.68252166112264,3.264237562815348,1.1705352465311687,1.6887548006357332e+18,2.2927332356770833,-0.3820539911588033,-3.417548894882202,-6.024728775024414,1.6887548006443807e+18,2.301380615234375,0.7327076196670532,-6.353215058644612,-7.438808759053548,1.6887548006443807e+18,2.301380615234375,0.1027271710336207,-0.1565851258734861,-0.2282090733448663,1.688754800648712e+18,2.305711669921875,0.0764090626810987,-0.1543452792490522,-0.1978694374362627,,,,,,,,,,,,1.688754800638061e+18,2.2950609863281253,16.823799514770506,42.46331939697266,25.925,1.688754800638061e+18,2.2950609863281253,-237.70479431152344,135.78111572265624,-106.07899780273438,1.6887548006357332e+18,2.2927332356770833,-0.0166875276093681,0.5222793618837992,-0.4280648330847422,0.7373592058817545,1.4549506902694702,0.7058880925178528,-0.5886102716128031
2.3,1.6887548006962906e+18,2.3532906901041666,0.9962179064750672,2.591533819834391,-0.5286733309427897,1.6887548006876385e+18,2.3446386718750003,1.574876089890798,-4.048257033030192,-7.966504255930583,1.6887548006962906e+18,2.3532906901041666,0.6677274902661642,-6.263363043467204,-7.520259221394856,1.6887548006962906e+18,2.3532906901041666,0.4217515389124552,0.1177951768040657,-0.2754493256409963,1.68875480070062e+18,2.3576201171875,0.4499022463957469,0.1493056491017341,-0.2648609826962153,,,,,,,,,,,,1.688754800688063e+18,2.34506298828125,17.294719314575197,42.45111923217773,26.300759506225585,1.688754800688063e+18,2.34506298828125,-237.2338745117187,135.7689178466797,-105.70323791503908,1.6887548006876385e+18,2.3446386718750003,-0.0066282966484625,0.5216976404190063,-0.4315678675969441,0.735882023970286,1.4620871146519978,0.6972099939982096,-0.6121474504470825
2.35,1.6887548007481938e+18,2.405193522135417,1.7018407583236694,2.698279619216919,-0.3481130599975586,1.688754800739543e+18,2.39654296875,2.273979067802429,-3.084348360697428,-8.014360427856445,1.6887548007481938e+18,2.405193522135417,0.6077678203582764,-6.026938120524089,-7.715575377146403,1.6887548007481938e+18,2.405193522135417,0.7298312385876974,-0.0387390370015055,0.0448986018697421,1.688754800743875e+18,2.400875244140625,0.6451500654220581,-0.059253929182887,-0.055054229684174,,,,,,,,,,,,1.688754800738064e+18,2.395064111328125,18.18287963867187,41.416558837890626,27.364599609375,1.688754800738064e+18,2.395064111328125,-236.3457153320313,134.73435668945314,-104.63939666748048,1.688754800739543e+18,2.39654296875,0.0074104838228473,0.5282774567604065,-0.4289666612943013,0.7326865196228027,1.4765052795410156,0.6697404384613037,-0.6334941983222961
2.4,1.6887548008001014e+18,2.4571013997395834,0.0649654269218445,2.642808675765991,-2.766206582387289,1.6887548007914465e+18,2.4484462890625003,0.9858429382244746,-3.4235309759775796,-10.069595654805502,1.6887548008001014e+18,2.4571013997395834,0.7726585070292155,-5.510649522145589,-8.075947920481363,1.6887548008001014e+18,2.4571013997395834,1.4556409517923992,-0.0328849119444688,0.7263696789741516,1.6887548007871245e+18,2.4441245930989584,1.3124439716339111,-0.0657189174865683,0.5834272106488546,,,,,,,,,,,,1.688754800788063e+18,2.4450630371093753,17.197119522094727,40.01111907958985,29.121399307250975,1.688754800788063e+18,2.4450630371093753,-237.33147277832032,133.32891540527345,-102.88259735107422,1.6887548007914465e+18,2.4484462890625003,0.0258405717710653,0.5379677613576254,-0.4084653755029042,0.7368528445561727,1.4640019337336223,0.6116436322530111,-0.6230375568072001
2.45,1.688754800843354e+18,2.5003542480468752,-1.0339786410331726,1.5093339681625366,-4.457329273223877,1.688754800843354e+18,2.5003540039062497,-0.4261218160390854,-3.4023943742116294,-12.753146489461264,1.688754800843354e+18,2.5003542480468752,0.930325984954834,-4.8737852573394775,-8.460798263549805,1.688754800843354e+18,2.5003542480468752,1.822592854499817,0.6038402915000916,1.517160177230835,1.68875480083903e+18,2.496030029296875,1.79034419854482,0.4983642200628916,1.3809117873509724,,,,,,,,,,,,1.6887548008380575e+18,2.4950578125,14.89131965637207,38.16647872924805,32.046959686279294,1.6887548008380575e+18,2.4950578125,-239.63727416992188,131.48427734375,-99.95703735351564,1.688754800843354e+18,2.5003540039062497,0.0410693287849426,0.5596030553181967,-0.36528280377388,0.7425709168116251,1.4480686982472737,0.5197724302609762,-0.5723767081896464
2.5,1.6887548008866066e+18,2.5436064453125,-6.138013521830241,0.6448065439860026,0.7062555948893229,1.6887548008952507e+18,2.5522508138020834,-4.950750112533569,-3.730809291203817,-6.111667950948079,1.6887548008866066e+18,2.5436064453125,0.8617765307426453,-4.052228768666585,-8.888189315795898,1.6887548008866066e+18,2.5436064453125,1.91704789797465,0.5258531644940376,0.4939354558785756,1.688754800890931e+18,2.547930826822917,1.826385259628296,0.4297436960041523,0.3760384519894917,,,,,,,,,,,,1.688754800888058e+18,2.545057763671875,12.992999649047851,34.891999053955075,35.028639221191405,1.688754800888058e+18,2.545057763671875,-241.5355987548828,128.2097961425781,-96.97535858154296,1.6887548008952507e+18,2.5522508138020834,0.0622715863088766,0.5898676514625549,-0.3206302821636199,0.7384061813354492,1.463167945543925,0.4116181135177612,-0.5387646754582723
2.55,1.6887548009385124e+18,2.595512369791667,-0.2893420855204264,-0.5950195789337158,5.266538937886556,1.6887548009471644e+18,2.6041644694010415,1.3168500264485676,-3.8325042724609375,-4.739583571751912,1.6887548009385124e+18,2.595512369791667,1.097454567750295,-3.5617549419403076,-9.07239850362142,1.6887548009385124e+18,2.595512369791667,0.5539020597934723,-1.1477139790852864,0.2765183349450429,1.688754800942837e+18,2.5998369140625,0.4905247986316681,-1.2595023314158122,0.2614503328998883,,,,,,,,,,,,1.688754800938061e+18,2.5950610839843753,11.90719985961914,32.78628005981445,36.80739898681641,1.688754800938061e+18,2.5950610839843753,-242.62139587402345,126.1040771484375,-95.19659576416016,1.6887548009471644e+18,2.6041644694010415,0.081952025492986,0.5827247301737467,-0.3036601841449737,0.7492557366689047,1.424182931582133,0.3678022821744283,-0.5363327860832214
2.6,1.688754800990415e+18,2.6474152018229167,0.1317567030588785,1.9278031190236409,2.5774585405985513,1.6887548009990664e+18,2.6560660807291665,2.5966113805770874,-1.4203396638234456,-6.11306365331014,1.688754800990415e+18,2.6474152018229167,1.8913114070892336,-3.5481857458750405,-8.944635391235352,1.688754800990415e+18,2.6474152018229167,-0.366875484585762,-1.9832758108774824,-0.5636759102344513,1.6887548009947392e+18,2.6517392578125,-0.5053891763091087,-1.968971331914266,-0.614632248878479,,,,,,,,,,,,1.6887548009880602e+18,2.645060205078125,8.720559978485108,32.22264022827149,37.92979888916015,1.6887548009880602e+18,2.645060205078125,-245.80803833007812,125.54043731689453,-94.07419891357422,1.6887548009990664e+18,2.6560660807291665,0.1010600502292314,0.5435015360514323,-0.3085972468058268,0.7738849719365438,1.3335569302241008,0.3768384953339894,-0.5573865373929342
2.65,1.6887548010423242e+18,2.6993239746093756,-1.088109056154887,1.080548842748006,-0.5169884363810221,1.688754801042324e+18,2.699323974609375,0.9068798124790192,-2.928515911102295,-8.240283012390137,1.6887548010423242e+18,2.6993239746093756,2.4034999211629233,-4.285777648289998,-8.483091036478678,1.6887548010423242e+18,2.6993239746093756,-2.079079826672872,-1.1429797808329265,-1.201266527175903,1.6887548010466511e+18,2.703651285807292,-2.1630229155222573,-1.0595457752545674,-1.2453505992889404,,,,,,,,,,,,1.688754801038061e+18,2.6950609375,6.192719841003418,34.094120025634766,36.86107940673829,1.688754801038061e+18,2.6950609375,-248.33587646484375,127.41191711425782,-95.14291839599608,1.688754801042324e+18,2.699323974609375,0.0981952883303165,0.5052289962768555,-0.3401047885417938,0.7869421243667603,1.2800256609916687,0.4513100832700729,-0.5867920815944672
2.7,1.6887548010942246e+18,2.7512246907552083,0.0852126677831014,-0.5221199989318847,-6.055561860402425,1.688754801085574e+18,2.7425740559895835,1.488734443982442,-5.266203721364339,-15.271393140157064,1.6887548010942246e+18,2.7512246907552083,2.2249942223230996,-5.399959564208984,-7.873533089955648,1.6887548010942246e+18,2.7512246907552083,-2.2076669534047446,0.6074545979499817,-1.1128946542739868,1.688754801098552e+18,2.755552001953125,-2.141591747601827,0.8473210285107294,-1.0838785568873088,,,,,,,,,,,,1.688754801088063e+18,2.745062841796875,7.115039825439453,38.01519927978516,32.835079193115234,1.688754801088063e+18,2.745062841796875,-247.4135528564453,131.33299865722657,-99.16891632080078,1.688754801085574e+18,2.7425740559895835,0.0765811329086621,0.4762708644072214,-0.3859704136848449,0.7861320972442627,1.2731632788976033,0.5633801221847534,-0.6159184773763021
2.75,1.6887548011461353e+18,2.80313525390625,-2.71256415049235,-5.270566622416179,2.01153834660848,1.6887548011374828e+18,2.7944826660156252,-0.7700900832811991,-12.119646390279136,-5.630710601806641,1.6887548011461353e+18,2.80313525390625,1.730247139930725,-6.082222938537598,-7.498754660288493,1.6887548011461353e+18,2.80313525390625,-0.9723447561264038,-0.0600175261497497,-0.4193080862363179,1.688754801150461e+18,2.8074608561197913,-0.935743769009908,-0.240579088528951,-0.3812817235787709,,,,,,,,,,,,1.6887548011380628e+18,2.795062841796875,10.016200065612791,40.32587814331055,28.82615966796875,1.6887548011380628e+18,2.795062841796875,-244.51239929199215,133.6436798095703,-103.17783966064454,1.6887548011374828e+18,2.7944826660156252,0.0443813651800155,0.4730647404988606,-0.4255212446053822,0.7701394160588583,1.327545205752055,0.6604405244191488,-0.6390275955200195
2.8,1.6887548011980372e+18,2.855037272135417,-3.1129395564397178,-0.6687177022298177,0.1150364875793456,1.688754801189389e+18,2.8463888346354165,-0.617946445941925,-7.753742376963298,-6.628916263580322,1.6887548011980372e+18,2.855037272135417,1.8325167099634807,-6.624050299326579,-6.993080933888753,1.6887548011980372e+18,2.855037272135417,-1.909310221672058,-0.8258389234542847,-0.1630501151084899,1.6887548011937152e+18,2.8507152099609376,-1.8158732652664185,-0.4139375537633896,-0.2538145184516907,,,,,,,,,,,,1.6887548011880622e+18,2.84506220703125,9.935679626464845,41.90943984985351,26.954679489135746,1.6887548011880622e+18,2.84506220703125,-244.59291381835936,135.22723999023438,-105.04931640625,1.688754801189389e+18,2.8463888346354165,0.0293318821738163,0.4504296282927195,-0.4466640253861745,0.772375206152598,1.3067927360534668,0.7257137099901835,-0.6415611902872721
2.85,1.6887548012499407e+18,2.9069407552083333,0.834172248840332,-0.8255132039388021,-0.7124902407328287,1.6887548012412938e+18,2.8982939453124996,2.737787882486979,-7.992227236429851,-6.352944215138753,1.6887548012499407e+18,2.9069407552083333,2.6227948665618896,-7.350605010986328,-5.929661750793457,1.6887548012499407e+18,2.9069407552083333,-2.266157388687134,-1.847256471713384,0.6663012504577637,1.6887548012369692e+18,2.8939692382812496,-2.416837453842163,-2.297260562578837,0.6479753106832504,,,,,,,,,,,,1.6887548012380652e+18,2.895065087890625,7.764079856872558,44.529999542236325,22.648079299926756,1.6887548012380652e+18,2.895065087890625,-246.76451721191407,137.84779357910156,-109.35591735839844,1.6887548012412938e+18,2.8982939453124996,0.0023581776767968,0.387718806664149,-0.4655507902304331,0.7951887448628744,1.1642674207687378,0.8308996359507242,-0.5708549817403158
2.9,1.6887548012931994e+18,2.950199462890625,-0.7489879727363586,1.5696110725402832,-1.0066092014312744,1.6887548012931963e+18,2.95019677734375,2.100898265838623,-6.472784678141276,-6.12722110748291,1.6887548012931994e+18,2.950199462890625,2.909244656562805,-7.684910774230957,-5.358174800872803,1.6887548012931994e+18,2.950199462890625,-0.910876452922821,-0.2493093758821487,0.1960877478122711,1.6887548012888732e+18,2.9458732096354168,-1.1149817903836567,-0.2133446931838989,0.2156354288260142,,,,,,,,,,,,1.6887548012880676e+18,2.9450673828125,5.019079875946045,46.938279724121095,18.97588005065918,1.6887548012880676e+18,2.9450673828125,-249.50951538085937,140.2560791015625,-113.02812042236329,1.6887548012931963e+18,2.95019677734375,-0.0252045448869466,0.3502399226029714,-0.4726070861021678,0.8082726995150248,1.0542900562286377,0.8972946206728617,-0.4840332567691803
2.95,1.688754801336453e+18,2.993453206380208,-0.4138334989547729,1.6635877291361492,-1.5351864496866865,1.688754801345095e+18,3.00209521484375,2.2119650840759277,-6.3220367431640625,-6.791628201802571,1.688754801336453e+18,2.993453206380208,2.970301707585653,-7.804012139638265,-5.148241678873698,1.688754801336453e+18,2.993453206380208,-0.4088724702596664,-0.4901684466749429,-0.2050470982988675,1.6887548013407782e+18,2.997778157552083,-0.3720678264896075,-0.5579235926270485,-0.2334014289081096,,,,,,,,,,,,1.6887548013380672e+18,2.995067138671875,4.7311598777771,47.71907806396485,17.580199813842775,1.6887548013380672e+18,2.995067138671875,-249.7974365234375,141.03688049316406,-114.42379760742188,1.688754801345095e+18,3.00209521484375,-0.0307267097135384,0.336389144261678,-0.4787871738274892,0.8103183706601461,1.0222456852595012,0.9217397967974345,-0.4673552612463633
3.0,1.6887548013883564e+18,3.0453562825520835,0.589163899421692,3.588608900705973,-1.3642500241597493,1.6887548013970066e+18,3.0540068359375,2.593819737434387,-3.787838260332743,-6.211966832478841,1.6887548013883564e+18,3.0453562825520835,3.0347025394439697,-7.962133248647054,-4.8583604494730634,1.6887548013883564e+18,3.0453562825520835,-0.6109670624136925,-1.0556260695060091,-0.934980183839798,1.68875480139269e+18,3.0496897786458335,-0.796822801232338,-0.9478083190818628,-1.0846421519915264,,,,,,,,,,,,1.6887548013880635e+18,3.04506376953125,4.921479892730713,47.96063919067383,17.19955978393555,1.6887548013880635e+18,3.04506376953125,-249.60711669921875,141.27843627929687,-114.80443725585936,1.6887548013970066e+18,3.0540068359375,-0.0202853300919134,0.3085999488830566,-0.4971047341823578,0.8105758428573608,0.9904230038324991,0.958907703558604,-0.4975950419902801
3.05,1.688754801440264e+18,3.097263753255208,-3.2186757723490396,-2.2485405604044595,1.084326187769572,1.688754801448911e+18,3.1059112141927088,1.1022936503092449,-12.086745262145996,-3.036890745162964,1.688754801440264e+18,3.097263753255208,2.645132382710775,-8.523191769917807,-4.064861456553142,1.688754801440264e+18,3.097263753255208,-1.3593278924624126,-2.0246110359827676,-1.5318464040756226,1.6887548014445924e+18,3.101592203776042,-1.225141167640686,-2.0720040003458657,-1.4039719700813291,,,,,,,,,,,,1.688754801438063e+18,3.09506318359375,7.903159809112549,48.480359649658205,14.191039657592771,1.688754801438063e+18,3.09506318359375,-246.625439453125,141.79815673828125,-117.81295623779296,1.688754801448911e+18,3.1059112141927088,-0.0163178254539767,0.258072018623352,-0.5423402190208435,0.7991571426391602,0.9568401177724204,1.0666487614313762,-0.5532451669375101
3.1,1.688754801492166e+18,3.149165852864583,0.0183213949203491,3.5580266316731772,-1.530412753423055,1.688754801492168e+18,3.1491678466796875,2.63868510723114,-3.471088409423828,-5.34167742729187,1.688754801492166e+18,3.149165852864583,2.726182778676351,-8.700444539388021,-3.6174214680989585,1.688754801492166e+18,3.149165852864583,-0.7214318712552389,-0.2034690280755361,0.4785620073477427,1.6887548014964954e+18,3.15349560546875,-0.7764606525500616,-0.1769472965970635,0.5477425207694372,,,,,,,,,,,,1.6887548014880563e+18,3.14505625,8.42531976699829,48.59015808105469,12.839279747009275,1.6887548014880563e+18,3.14505625,-246.10327758789063,141.907958984375,-119.16471862792967,1.688754801492168e+18,3.1491678466796875,-0.0152620859444141,0.2373864948749542,-0.5477317869663239,0.8021041452884674,0.9028635919094086,1.088415503501892,-0.5328055322170258
3.15,1.6887548015440742e+18,3.2010743815104163,-1.3100743293762207,3.961150805155436,-0.9177334308624268,1.6887548015354202e+18,3.1924200846354167,2.0331016977628074,-4.264009873072307,-3.934597969055176,1.6887548015440742e+18,3.2010743815104163,2.775216023127238,-8.886021296183268,-3.0869297981262207,1.6887548015440742e+18,3.2010743815104163,-0.9917906125386556,-0.8071057001749674,-0.9675596704085668,1.6887548015483953e+18,3.205395182291667,-0.9352856079737344,-0.8276715079943339,-1.1362602810064952,,,,,,,,,,,,1.6887548015380608e+18,3.195060693359375,8.044679927825928,49.1977180480957,10.6164400100708,1.6887548015380608e+18,3.195060693359375,-246.48391418457032,142.51551818847656,-121.38755950927734,1.6887548015354202e+18,3.1924200846354167,-0.0289060324430465,0.216558963060379,-0.5513703425725301,0.8050683935483297,0.815569798151652,1.120694915453593,-0.4574960867563883
3.2,1.6887548015959803e+18,3.252980387369792,0.8435477415720621,4.42050313949585,-0.8680034478505453,1.6887548015873231e+18,3.244323323567708,2.2055842777093253,-5.279763221740723,-3.872584104537964,1.6887548015959803e+18,3.252980387369792,1.9390422503153484,-9.25644048055013,-2.57554292678833,1.6887548015959803e+18,3.252980387369792,-1.3312281171480815,0.2268346448739369,-2.3615541458129883,1.688754801600306e+18,3.257305745442709,-1.4629204471906023,0.5115487575531006,-2.376774867375692,,,,,,,,,,,,1.688754801588063e+18,3.2450630859375,11.116639709472656,48.97323837280273,8.649799823760986,1.688754801588063e+18,3.2450630859375,-243.41195678710935,142.29103393554686,-123.3541976928711,1.6887548015873231e+18,3.244323323567708,-0.0282521490007638,0.1910601456960041,-0.5917544762293497,0.7824122707049052,0.8690136472384135,1.2139894564946492,-0.5524779061476389
3.25,1.6887548016478804e+18,3.304880533854167,-2.796394189198812,-3.0245701471964517,-0.2449076573053995,1.6887548016392335e+18,3.296233642578125,-1.460020621617635,-9.96231762568156,-1.6167505184809368,1.6887548016478804e+18,3.304880533854167,1.050567348798116,-9.582258224487305,-1.8080099821090696,1.6887548016478804e+18,3.304880533854167,-1.4616478482882185,-0.6633487790822983,-0.748259017864863,1.6887548016435602e+18,3.3005601806640623,-1.610240817070007,0.4944190382957458,-0.8032878339290619,,,,,,,,,,,,1.6887548016380585e+18,3.2950585937500003,16.3675199508667,48.1631591796875,3.906439876556397,1.6887548016380585e+18,3.2950585937500003,-238.16107482910155,141.4809539794922,-128.0975555419922,1.6887548016392335e+18,3.296233642578125,-0.0676966657241184,0.1850954194863636,-0.6362001895904541,0.7457750042279562,1.00018968184789,1.3431538343429563,-0.6383601427078247
3.3,1.6887548016997898e+18,3.356789794921875,3.937344233194987,-7.250406901041667,-5.93350092569987,1.688754801691138e+18,3.3481380208333333,5.2721859614054365,-17.77488358815511,-6.790631294250488,1.6887548016997898e+18,3.356789794921875,1.2948979139328003,-9.667091369628906,-1.0045634706815083,1.6887548016997898e+18,3.356789794921875,-1.7258470058441162,-2.345824321111043,0.357457975546519,1.6887548016868106e+18,3.3438107096354166,-1.351183036963145,-3.1258992751439414,0.2241366449743509,,,,,,,,,,,,1.6887548016880622e+18,3.345062109375,16.740839767456055,48.01675872802734,2.034959983825684,1.6887548016880622e+18,3.345062109375,-237.78775939941409,141.33455810546874,-129.9690399169922,1.688754801691138e+18,3.3481380208333333,-0.0490470031897226,0.1163827156027157,-0.6471952597300211,0.7515167196591696,0.6829240024089813,1.3933309316635132,-0.4474588831265767
3.35,1.6887548017430385e+18,3.40003857421875,-2.799750566482544,-3.4894051551818848,0.64072585105896,1.6887548017430405e+18,3.40004052734375,-0.218743880589803,-12.872987111409506,0.0979063709576924,1.6887548017430385e+18,3.40003857421875,1.6540236473083496,-9.6649808883667,-0.2694151476025581,1.6887548017430385e+18,3.40003857421875,-0.6235407143831254,-2.2005656957626343,1.1835514307022097,1.68875480173872e+18,3.395719807942708,-0.9870055100570122,-2.0825922886530557,1.0108292698860168,,,,,,,,,,,,1.688754801738062e+18,3.395062060546875,15.030399513244628,48.53403854370117,-0.2073999941349029,1.688754801738062e+18,3.395062060546875,-239.4981964111328,141.85184020996093,-132.21139831542968,1.6887548017430405e+18,3.40004052734375,-0.0458701116343339,0.0520704413453737,-0.6395063797632853,0.765421986579895,0.1241022137304146,1.3919202089309692,0.0150736905634403
3.4,1.6887548017862956e+18,3.4432958170572916,-0.565225839614868,-1.0051978429158528,1.9765719175338743,1.68875480179495e+18,3.4519501953125,2.4420748551686606,-9.972686767578123,1.605583945910136,1.6887548017862956e+18,3.4432958170572916,2.109330693880717,-9.579096794128418,0.008996821163843,1.6887548017862956e+18,3.4432958170572916,-0.2477058588216702,-2.2899301846822104,0.9364564418792723,1.6887548017906248e+18,3.4476248372395832,-0.2753984133402506,-2.2107213338216147,0.9152288436889648,,,,,,,,,,,,1.688754801788061e+18,3.4450607421874997,12.456199836730956,49.37339859008789,0.4562799870967865,1.688754801788061e+18,3.4450607421874997,-242.07239379882813,142.69119567871093,-131.54771728515624,1.68875480179495e+18,3.4519501953125,-0.0141251318467159,0.0003777462601041,-0.620868980884552,0.7836214502652487,-0.0721180355176328,1.3391594886779783,0.0927482023835182
3.45,1.6887548018382036e+18,3.495203694661458,0.2712581952412923,-0.069245974222819,-1.4625989000002544,1.6887548018468516e+18,3.5038516438802083,2.8512476285298667,-9.673384348551432,-1.6257235805193584,1.6887548018382036e+18,3.495203694661458,2.5797266165415444,-9.461409250895182,0.2013066858053207,1.6887548018382036e+18,3.495203694661458,0.3374521508812904,-0.7937175631523131,1.0199922720591228,1.6887548018425285e+18,3.499528238932292,0.4276056798795859,-0.6707809269428252,1.0168361067771912,,,,,,,,,,,,1.6887548018380623e+18,3.4950624023437498,9.784399604797365,49.70523910522461,1.2151199579238892,1.6887548018380623e+18,3.4950624023437498,-244.74419860839845,143.02303466796874,-130.78887634277345,1.6887548018468516e+18,3.5038516438802083,0.0077005891944281,-0.0227033259967962,-0.6009828249613444,0.7988517681757609,-0.0989943506817022,1.2890580495198567,0.0555549706332385
3.5,1.688754801890105e+18,3.547105143229167,-0.7479034264882406,0.5968209902445476,-2.214770754178365,1.688754801898756e+18,3.5557560221354163,2.268595258394877,-8.285547415415445,-2.016950090726217,1.688754801890105e+18,3.547105143229167,3.0178311665852866,-9.332859675089518,-0.0945776474351683,1.688754801890105e+18,3.547105143229167,0.8221228122711182,-0.8791369100411733,0.822377343972524,1.6887548018944346e+18,3.551434407552083,0.792495866616567,-1.017701506614685,0.8117380936940511,,,,,,,,,,,,1.688754801888061e+18,3.5450608398437504,7.044279956817627,49.54907913208008,2.6961999893188477,1.688754801888061e+18,3.5450608398437504,-247.48431396484375,142.86687622070312,-129.30779418945312,1.688754801898756e+18,3.5557560221354163,0.0355270237972338,-0.0237265123675266,-0.5829342603683472,0.8113031983375549,0.0083596420784791,1.2458839813868203,-0.093325479576985
3.55,1.6887548019420155e+18,3.599015625,0.2305242220560709,2.367581844329834,0.3057044148445129,1.6887548019506647e+18,3.607664957682292,3.812763532002767,-6.932405948638916,0.7938189258178076,1.6887548019420155e+18,3.599015625,3.3803811073303223,-9.208305676778158,-0.0786608426521221,1.6887548019420155e+18,3.599015625,0.2541708499193191,-1.5893186330795288,0.624966045220693,1.6887548019463414e+18,3.60334130859375,0.2291253755489984,-1.5117387374242146,0.5958481431007385,,,,,,,,,,,,1.6887548019380598e+18,3.59505986328125,5.170359897613525,50.00047912597656,4.48715991973877,1.6887548019380598e+18,3.59505986328125,-249.35823669433591,143.31827392578126,-127.51683807373048,1.6887548019506647e+18,3.607664957682292,0.0678955192367235,-0.0499278269708156,-0.5663962960243225,0.8197466929753622,-0.013949096823732,1.2096412579218547,-0.1556587268908818
3.6,1.6887548019939192e+18,3.650919270833333,0.710201104482015,2.1472525596618652,0.5502329071362814,1.6887548019939118e+18,3.650911865234375,4.238586187362671,-6.927819728851318,0.6646064817905426,1.6887548019939192e+18,3.650919270833333,3.5708940029144287,-9.136929512023926,-0.0228900955213854,1.6887548019939192e+18,3.650919270833333,0.271020546555519,-0.4195117106040318,0.1643736561139424,1.688754801998246e+18,3.655245849609375,0.282168835401535,-0.3616831203301747,0.1228348165750503,,,,,,,,,,,,1.6887548019880556e+18,3.64505556640625,3.4086799144744875,49.99559860229492,5.177679920196534,1.6887548019880556e+18,3.64505556640625,-251.11991271972656,143.3133972167969,-126.826318359375,1.6887548019939118e+18,3.650911865234375,0.081788308918476,-0.0607026014477014,-0.5588314533233643,0.8230008184909821,-0.0231180805712938,1.1937830448150637,-0.1823906078934669
3.65,1.6887548020458245e+18,3.702824462890625,1.316542387008667,0.6225132942199706,-1.2445983290672302,1.688754802037175e+18,3.694175048828125,4.551747004191081,-8.210771401723227,-1.207378387451172,1.6887548020458245e+18,3.702824462890625,3.5328481197357178,-9.15077527364095,-0.1295552998781204,1.6887548020458245e+18,3.702824462890625,0.3335833251476287,-0.3145446976025899,-0.2208277831474939,1.6887548020501473e+18,3.7071473795572913,0.3205006221930185,-0.302581916252772,-0.2291762729485829,,,,,,,,,,,,1.688754802038061e+18,3.695060986328125,3.486759948730469,49.59543914794922,5.931639957427978,1.688754802038061e+18,3.695060986328125,-251.04183349609377,142.91323852539062,-126.07235717773438,1.688754802037175e+18,3.694175048828125,0.0912410368522007,-0.0616923024257023,-0.5601792534192404,0.8210080067316691,0.002618569182232,1.1973783175150554,-0.2231706728537877
3.7,1.6887548020977262e+18,3.7547262369791663,2.4990015824635825,0.3987328211466471,0.975091000398,1.6887548020890788e+18,3.7460787760416663,5.775675614674886,-9.07557773590088,0.5210371414820353,1.6887548020977262e+18,3.7547262369791663,3.4177871545155845,-9.192797660827638,-0.2138498375813166,1.6887548020977262e+18,3.7547262369791663,0.2410881469647089,-0.2440406680107116,-0.3054835299650828,1.6887548020933985e+18,3.7503984375,0.2579378485679626,-0.2283108830451964,-0.2864958047866821,,,,,,,,,,,,1.688754802088059e+18,3.7450587890625,4.301719856262207,49.507599639892575,6.483079814910889,1.688754802088059e+18,3.7450587890625,-250.22687683105468,142.8253936767578,-125.52091674804689,1.6887548020890788e+18,3.7460787760416663,0.1010456855098406,-0.0636207138498624,-0.5650803446769714,0.8163437048594157,0.0293021438022454,1.20956285794576,-0.2665821909904479
3.75,1.6887548021496348e+18,3.806634847005209,3.574157476425171,0.8709444999694824,-1.4320204456647236,1.688754802140984e+18,3.797984130859375,6.905486583709717,-8.299904346466064,-1.1583255628744762,1.6887548021496348e+18,3.806634847005209,3.2275768915812173,-9.260024070739746,-0.2567894458770752,1.6887548021496348e+18,3.806634847005209,0.1431969900925954,-0.2294817119836807,-0.5337944229443868,1.6887548021366597e+18,3.7936595865885416,0.1522072553634643,-0.2107994109392166,-0.4937318364779154,,,,,,,,,,,,1.688754802138061e+18,3.7950609375,4.93855996131897,48.99519805908203,7.061359882354736,1.688754802138061e+18,3.7950609375,-249.59003601074215,142.31299743652343,-124.94263763427736,1.688754802140984e+18,3.797984130859375,0.1079206044475237,-0.0668973376353581,-0.5726559559504191,0.8098933895428976,0.0455779631932575,1.2286373376846311,-0.297133336464564
3.8,1.6887548021928822e+18,3.8498822021484376,4.213741779327393,2.7023446559906006,-0.3453789204359054,1.6887548021928858e+18,3.849885660807291,7.02512788772583,-7.231907685597737,-0.5349952777226766,1.6887548021928822e+18,3.8498822021484376,3.054593086242676,-9.318043231964111,-0.2808182388544082,1.6887548021928822e+18,3.8498822021484376,0.2728276923298836,-0.6840163469314575,-0.4509712606668472,1.6887548021885647e+18,3.8455647786458336,0.2507601777712503,-0.6010404924551646,-0.4664465188980102,,,,,,,,,,,,1.6887548021880586e+18,3.84505869140625,6.822239875793457,48.83903884887695,7.566439914703369,1.6887548021880586e+18,3.84505869140625,-247.7063537597656,142.1568389892578,-124.43755645751952,1.6887548021928858e+18,3.849885660807291,0.1178886468211809,-0.0738437448938687,-0.5814238786697388,0.8015974561373392,0.0598426101108391,1.25188946723938,-0.3353479901949563
3.85,1.6887548022361436e+18,3.893143636067709,-0.0982200304667155,-4.951831499735515,0.8284201920032501,1.6887548022447936e+18,3.9017937011718753,0.9641082038482032,-15.655839602152506,0.0851446042458216,1.6887548022361436e+18,3.893143636067709,2.8166023890177407,-9.38859717051188,-0.375454306602478,1.6887548022361436e+18,3.893143636067709,0.2520837187767028,0.4837034444014231,-0.6871724923451742,1.68875480224047e+18,3.8974700520833334,0.244447906812032,0.6559674541155497,-0.6573419173558553,,,,,,,,,,,,1.688754802238057e+18,3.89505693359375,7.568879890441894,48.64139862060547,7.93243989944458,1.688754802238057e+18,3.89505693359375,-246.9597137451172,141.95920104980468,-124.0715576171875,1.6887548022447936e+18,3.9017937011718753,0.1217184985677401,-0.071071279545625,-0.5945162375768026,0.7915784120559692,0.1139979362487792,1.2819817066192627,-0.3904113471508026
3.9,1.688754802288049e+18,3.945048746744792,-1.5574551423390706,-0.6360475222269694,-1.4547502001126609,1.688754802296696e+18,3.953696370442709,1.9774685502052307,-8.036893129348755,-1.6498512576023738,1.688754802288049e+18,3.945048746744792,2.77194873491923,-9.387928326924644,-0.6354556481043497,1.688754802288049e+18,3.945048746744792,0.3156137118736903,0.6902777155240377,0.4958698575695355,1.6887548022923756e+18,3.949375406901042,0.2970332304636637,0.7131851861874262,0.4777984196941057,,,,,,,,,,,,1.688754802288063e+18,3.9450630371093753,8.532679748535156,48.675558471679686,8.371639823913574,1.688754802288063e+18,3.9450630371093753,-245.99591674804688,141.99335632324218,-123.63235931396484,1.688754802296696e+18,3.953696370442709,0.1141854772965112,-0.0482790370782216,-0.5947374105453491,0.7942748467127482,0.2021536429723104,1.272472858428955,-0.4350193440914154
3.95,1.6887548023399462e+18,3.996946044921875,-3.282019853591919,3.8710179328918457,0.790639062722524,1.6887548023486052e+18,4.005605061848958,-0.9680961767832438,-6.673781712849935,-0.2893321216106415,1.6887548023399462e+18,3.996946044921875,2.4685962200164795,-9.450524965922035,-0.8670851985613505,1.6887548023399462e+18,3.996946044921875,-0.3180062621831894,2.4775676329930625,-1.447597861289978,1.6887548023442798e+18,4.00127978515625,-0.4030692459394534,2.6264150937398276,-1.580562909444173,,,,,,,,,,,,1.688754802338061e+18,3.99506103515625,10.167479515075684,48.41203918457031,7.385879993438721,1.688754802338061e+18,3.99506103515625,-244.36111755371093,141.7298370361328,-124.61811676025393,1.6887548023486052e+18,4.005605061848958,0.0820460518201191,-0.0130567959276959,-0.6168797214825948,0.7822590072949728,0.3297568758328755,1.3166087071100872,-0.4655674993991852
4.0,1.6887548023918597e+18,4.048859456380208,-4.158052444458008,0.093242327372233,-0.5775493383407593,1.6887548024005092e+18,4.057509195963541,-3.054238716761271,-9.359127044677734,-1.2442678014437358,1.6887548023918597e+18,4.048859456380208,1.4923847516377766,-9.667366981506348,-0.6980997721354166,1.6887548023918597e+18,4.048859456380208,-1.3679817914962769,2.9235501289367676,-1.3587679266929626,1.6887548023961856e+18,4.053185628255208,-1.4617495934168498,2.793130397796631,-1.256142556667328,,,,,,,,,,,,1.6887548023880617e+18,4.045061767578125,15.25243968963623,47.78983917236328,3.406239914894104,1.6887548023880617e+18,4.045061767578125,-239.27615661621093,141.10763854980468,-128.5977584838867,1.6887548024005092e+18,4.057509195963541,0.0105665133645137,0.0257251871128876,-0.653144379456838,0.7563928365707397,0.3356839964787165,1.41521422068278,-0.3142083833614985
4.05,1.6887548024437658e+18,4.1007657063802085,-1.5222536325454712,0.9748538335164388,-0.8619439005851746,1.6887548024437668e+18,4.100766845703125,-0.7537391483783722,-8.57019329071045,-0.6523432619869709,1.6887548024437658e+18,4.1007657063802085,0.93036554257075,-9.758749008178713,0.1641614735126495,1.6887548024437658e+18,4.1007657063802085,-2.0446678002675376,0.0042760570844014,-1.0725266337394714,1.6887548024480911e+18,4.105091145833334,-1.9677496751149497,-0.1890627940495809,-1.1877765655517578,,,,,,,,,,,,1.6887548024380575e+18,4.09505732421875,17.721719360351564,47.21399841308594,-2.154519981145859,1.6887548024380575e+18,4.09505732421875,-236.80687561035157,140.53179931640625,-134.1585205078125,1.6887548024437668e+18,4.100766845703125,-0.0373034179210662,0.0159321832470595,-0.6694605052471161,0.741662859916687,-0.257451232522726,1.4622698426246643,0.3328672274947166
4.1,1.688754802495668e+18,4.152667805989584,-0.1940275033315023,-0.221098264058431,-2.7561093171437583,1.6887548024870198e+18,4.144019856770833,0.2791626453399658,-10.12463092803955,-1.405982660750548,1.688754802495668e+18,4.152667805989584,0.0180916761358579,-9.77914841969808,0.7329024076461792,1.688754802495668e+18,4.152667805989584,-0.416101049631834,1.1019499897956848,-2.0008381605148315,1.6887548024999928e+18,4.15699267578125,-0.3116430907539325,1.3915510773658752,-1.9503399928410847,,,,,,,,,,,,1.6887548024880632e+18,4.145063134765625,22.17959976196289,45.59872055053711,-5.233799839019776,1.6887548024880632e+18,4.145063134765625,-232.3489959716797,138.91651611328126,-137.23779907226563,1.6887548024870198e+18,4.144019856770833,-0.0540385631223519,-0.0030064997263252,-0.6984112858772278,0.7134492595990499,-1.2888698776563008,1.4821664889653523,1.361128310362498
4.15,1.688754802547575e+18,4.204575113932292,0.2612413167953491,0.3129809697469075,-3.206338405609131,1.688754802538922e+18,4.195921875,-0.6514459649721781,-9.515059153238932,-2.755933483441671,1.688754802547575e+18,4.204575113932292,-0.799091617266337,-9.7505153020223,0.6860227584838867,1.688754802547575e+18,4.204575113932292,0.3894775062799454,1.9444859027862549,-1.735010027885437,1.68875480254325e+18,4.2002497558593745,0.3716351389884949,2.06464821100235,-1.7603608965873718,,,,,,,,,,,,1.688754802538059e+18,4.195058837890625,25.35891914367676,43.43199920654297,-7.778719902038574,1.688754802538059e+18,4.195058837890625,-229.1696746826172,136.74979553222656,-139.7827178955078,1.688754802538922e+18,4.195921875,-0.0882745310664176,0.035597584520777,-0.7273842493693033,0.6793211698532104,-2.201408306757609,1.4675026337305703,2.3770790894826255
4.2,1.6887548025994775e+18,4.2564774576822915,1.5578117370605469,2.067715644836426,-0.642912338177363,1.6887548025908283e+18,4.24782861328125,0.3385844031969706,-7.736793200174968,-0.2733799852430821,1.6887548025994775e+18,4.2564774576822915,-1.4593705733617146,-9.684312184651692,0.5535050630569458,1.6887548025994775e+18,4.2564774576822915,0.1894700353344281,0.9025024771690368,-1.0385218262672424,1.688754802586506e+18,4.243505696614584,0.3631084909041722,1.1037826140721638,-1.2858204245567322,,,,,,,,,,,,1.6887548025880645e+18,4.2450640136718745,27.935559844970705,41.74107894897461,-9.074359893798828,1.6887548025880645e+18,4.2450640136718745,-226.59303588867184,135.05887756347656,-141.07835998535157,1.6887548025908283e+18,4.24782861328125,-0.1056281402707099,0.0724626556038856,-0.7493701577186584,0.649559756120046,-2.689157406489054,1.421617031097412,2.942411263783773
4.25,1.6887548026427292e+18,4.299729248046875,0.9213544726371764,0.937993049621582,-1.0050931572914124,1.6887548026427323e+18,4.299732503255208,-0.8027920126914978,-8.967302322387695,-0.2893321365118027,1.6887548026427292e+18,4.299729248046875,-1.7820363640785215,-9.619894504547116,0.7126947939395905,1.6887548026427292e+18,4.299729248046875,-0.6274349689483643,0.6883687674999237,-0.8684976696968079,1.688754802638409e+18,4.295409098307292,-0.5355251977841059,0.6731226046880087,-0.8373944362004598,,,,,,,,,,,,1.68875480263806e+18,4.295060009765625,29.76555938720703,40.53327941894531,-10.455399894714356,1.68875480263806e+18,4.295060009765625,-224.7630340576172,133.8510711669922,-142.4593994140625,1.6887548026427323e+18,4.299732503255208,-0.1215400944153467,0.0830216581622759,-0.7619932889938354,0.6305660406748453,-2.7124575773874917,1.37675146261851,3.004171053568522
4.3,1.6887548026859848e+18,4.342984944661459,1.4861544768015544,-2.2489522298177085,-4.226611296335856,1.6887548026946332e+18,4.351633219401041,-0.7038886745770773,-11.77208932240804,-3.858825445175171,1.6887548026859848e+18,4.342984944661459,-2.10635773340861,-9.517396926879885,1.0943313638369243,1.6887548026859848e+18,4.342984944661459,-0.8273660739262899,0.50752721230189,-0.7213300267855326,1.6887548026903078e+18,4.347307861328125,-0.8061894178390503,0.4676682551701863,-0.6577491561571757,,,,,,,,,,,,1.688754802688059e+18,4.345058837890625,30.905039596557614,38.63251876831055,-13.202839660644532,1.688754802688059e+18,4.345058837890625,-223.6235565185547,131.9503173828125,-145.2068359375,1.6887548026946332e+18,4.351633219401041,-0.1436325460672378,0.0796650250752766,-0.774431049823761,0.6109309395154318,-2.6098002592722573,1.3218021790186565,2.9294216632843018
4.35,1.6887548027378967e+18,4.394896728515625,1.948922872543335,-4.088524500528972,-6.317175547281901,1.6887548027465428e+18,4.403542805989583,0.0873380700747172,-14.075579643249512,-4.795615355173747,1.6887548027378967e+18,4.394896728515625,-2.2953473726908364,-9.453299204508465,1.262860655784607,1.6887548027378967e+18,4.394896728515625,0.1839213371276855,0.125940054655075,-0.4446080873409907,1.688754802742218e+18,4.399218098958333,0.3270674149195353,0.1632537345091501,-0.457588975628217,,,,,,,,,,,,1.6887548027380557e+18,4.39505556640625,31.82247886657715,37.65163879394531,-14.6887996673584,1.6887548027380557e+18,4.39505556640625,-222.70611267089845,130.9694366455078,-146.6927978515625,1.6887548027465428e+18,4.403542805989583,-0.1478635718425114,0.0824240744113921,-0.7800854245821635,0.6022988557815552,-2.623595873514811,1.3017762502034504,2.9537390867869058
4.4,1.6887548027897997e+18,4.446799560546875,1.0507949193318684,-5.6958818435668945,-4.137341658274333,1.6887548027984507e+18,4.4554506835937495,-1.5054842829704285,-15.295720100402832,-2.7814568678538003,1.6887548027897997e+18,4.446799560546875,-2.129223744074503,-9.53447691599528,0.8489300012588501,1.6887548027897997e+18,4.446799560546875,1.0101165771484375,0.1722130967924992,1.277930070956548,1.6887548027941225e+18,4.451122639973959,0.9908743302027384,0.1000800927480062,1.5151494145393372,,,,,,,,,,,,1.688754802788063e+18,4.44506298828125,31.717559814453125,37.993238067626955,-14.081239700317385,1.688754802788063e+18,4.44506298828125,-222.8110382080078,131.3110382080078,-146.08523559570312,1.6887548027984507e+18,4.4554506835937495,-0.1390640089909235,0.103641852736473,-0.766148587067922,0.6186079581578573,-2.733562469482422,1.3557641903559368,3.0805823802948
4.45,1.6887548028417052e+18,4.498705322265625,-1.8885610898335776,-1.3365888595581057,-0.776405930519104,1.6887548028503524e+18,4.507352376302084,-3.046661456425985,-10.02831999460856,0.0548355244100093,1.6887548028417052e+18,4.498705322265625,-0.940217504898707,-9.749401092529297,0.3689526915550232,1.6887548028417052e+18,4.498705322265625,0.62919120490551,-1.5025757749875386,2.8281025091807046,1.688754802846031e+18,4.503031412760417,0.5247841452558836,-1.6798285245895386,2.876309871673584,,,,,,,,,,,,1.6887548028380646e+18,4.495064550781249,27.98679962158203,41.63127975463867,-12.21951961517334,1.6887548028380646e+18,4.495064550781249,-226.541796875,134.9490753173828,-144.22351684570313,1.6887548028503524e+18,4.507352376302084,-0.1131793657938639,0.0922540600101152,-0.7238683303197225,0.6738184293111166,-2.462803840637207,1.491341193517049,2.754697640736898
4.5,1.6887548028936102e+18,4.5506103515625,-2.059805472691854,-0.9991032282511396,0.6227922042210897,1.68875480289361e+18,4.550610107421875,-1.5834503471851349,-10.895119667053224,1.2523435354232788,1.6887548028936102e+18,4.5506103515625,0.5602398949364821,-9.759469032287598,0.6311710675557455,1.6887548028936102e+18,4.5506103515625,-1.6450601021448772,-1.8560631275177,3.248530387878418,1.6887548028979405e+18,4.554940673828125,-1.8976019223531089,-1.707215666770935,3.2833497524261475,,,,,,,,,,,,1.688754802888065e+18,4.545064892578125,22.01123962402344,45.26931915283203,-10.350479888916016,1.688754802888065e+18,4.545064892578125,-232.5173553466797,138.58711853027344,-142.35447998046874,1.68875480289361e+18,4.550610107421875,-0.0947801694273948,0.0427668774500489,-0.6833828091621399,0.7223871648311615,-0.8692272901535034,1.4782645106315613,1.0642844438552856
4.55,1.6887548029455122e+18,4.602511962890625,-3.1373549699783325,-8.797662734985352,5.153751810391744,1.6887548029368645e+18,4.593864501953125,-1.604387526710828,-16.367305437723797,5.490331649780273,1.6887548029455122e+18,4.602511962890625,2.195117791493734,-9.33180046081543,2.006495197614034,1.6887548029455122e+18,4.602511962890625,-2.3017911513646445,-0.702240506807963,3.41723108291626,1.6887548029498452e+18,4.606845296223958,-1.950950913131237,-0.6966918011506399,3.4177401860555015,,,,,,,,,,,,1.6887548029380603e+18,4.595060205078125,13.266279602050782,47.00415878295898,-15.679439735412595,1.6887548029380603e+18,4.595060205078125,-241.26231384277344,140.32195434570312,-147.68343505859374,1.6887548029368645e+18,4.593864501953125,-0.1274857620398203,-0.0198814291507005,-0.6307117938995361,0.764534592628479,-0.7579387426376343,1.2881831328074138,0.9118387699127196
4.6,1.6887548029974208e+18,4.654420979817708,-4.482290148735046,-1.1930489540100098,2.0707806746164956,1.688754802988769e+18,4.645768961588542,-0.177068829536438,-12.840684096018473,6.138188123703003,1.6887548029974208e+18,4.654420979817708,3.75201686223348,-8.80440616607666,2.1068129539489746,1.6887548029974208e+18,4.654420979817708,1.1775445540746052,-0.910545558455245,3.624619801839193,1.6887548029930967e+18,4.6500966796875005,1.206458866596222,-0.5968153662979602,3.739640593528747,,,,,,,,,,,,1.6887548029880612e+18,4.6450609375,5.475359869003296,48.48035888671875,-17.22151908874512,1.6887548029880612e+18,4.6450609375,-249.0532348632813,141.79815673828125,-149.22551879882812,1.688754802988769e+18,4.645768961588542,-0.1229637588063875,-0.0547506436705589,-0.562273104985555,0.8154505292574564,-0.5695099234580994,1.1279361248016355,0.6683781941731771
4.65,1.6887548030493263e+18,4.706326253255209,-8.401331901550293,8.306410789489746,-2.14117169380188,1.6887548030406766e+18,4.697676432291667,-2.9746773640314736,-1.0727821787198384,0.3118645250797272,1.6887548030493263e+18,4.706326253255209,4.958794593811035,-8.199973265329996,2.067317803700765,1.6887548030493263e+18,4.706326253255209,0.6799439340829849,-2.307899832725525,3.12315034866333,1.6887548030363507e+18,4.693350830078125,0.9937250216801962,-2.0098993380864463,3.134196917215983,,,,,,,,,,,,1.688754803038063e+18,4.695063134765625,-1.346879954636097,50.02487869262696,-14.225199890136718,1.688754803038063e+18,4.695063134765625,-255.8754760742187,143.34267883300782,-146.22919921875,1.6887548030406766e+18,4.697676432291667,-0.0718650060395399,-0.0820372352997461,-0.4970905582110087,0.860409657160441,-0.4101262291272481,1.0048869252204895,0.3949522872765859
4.7,1.6887548030925783e+18,4.749578369140625,-3.3441596031188965,7.752085208892822,-1.0270891189575195,1.6887548030925732e+18,4.7495733235677084,2.249053875605265,0.1527418320377667,1.6699907978375752,1.6887548030925783e+18,4.749578369140625,5.6617443561553955,-7.550034523010254,2.6731761693954468,1.6887548030925783e+18,4.749578369140625,-0.354149118065834,-2.324265837669373,2.0260872840881348,1.688754803088255e+18,4.745255126953126,-0.273820345600446,-2.423353354136149,2.245795170466105,,,,,,,,,,,,1.6887548030880632e+18,4.7450631347656245,-7.122359943389893,50.16395950317383,-14.34719944000244,1.6887548030880632e+18,4.7450631347656245,-261.6509521484375,143.4817626953125,-146.3511962890625,1.6887548030925732e+18,4.7495733235677084,-0.0324557038644949,-0.1413378442327181,-0.4377498130003611,0.8870953917503357,-0.4508717854817708,0.8754507303237915,0.2867202460765838
4.75,1.6887548031358374e+18,4.792837483723958,-3.835008462270101,5.389284133911133,-0.0267166296641031,1.688754803144486e+18,4.80148583984375,1.6558332443237305,-2.4526431957880654,2.840479850769043,1.6887548031358374e+18,4.792837483723958,5.62936274210612,-7.422827402750651,3.0711094538370767,1.6887548031358374e+18,4.792837483723958,0.0380772612988949,-0.8477791349093119,-0.3837252060572306,1.6887548031401592e+18,4.7971591796875,0.0926478977004687,-0.7644469738006592,-0.5635231733322144,,,,,,,,,,,,1.6887548031380608e+18,4.7950608398437495,-7.768959999084473,50.083438873291016,-15.498879623413083,1.6887548031380608e+18,4.7950608398437495,-262.29754638671875,143.40123596191407,-147.50287780761718,1.688754803144486e+18,4.80148583984375,-0.0213941608866055,-0.1727854857842127,-0.4313906629880268,0.8851655522982279,-0.519007662932078,0.8577062884966532,0.2900514602661133
4.8,1.688754803187738e+18,4.844737955729166,1.4568328857421875,2.9382540384928384,-1.6390034755071003,1.6887548031963914e+18,4.853391276041666,7.426324526468913,-5.755536079406738,1.4739787181218464,1.688754803187738e+18,4.844737955729166,4.935928185780843,-7.874490420023601,3.1238741079966226,1.688754803187738e+18,4.844737955729166,0.4765257934729258,-0.6354016860326132,-2.1246402263641357,1.688754803192068e+18,4.849068115234375,0.4699589908123016,-0.6261368791262308,-2.226603865623474,,,,,,,,,,,,1.6887548031880617e+18,4.845061669921875,-3.381839835643768,50.6202392578125,-15.245119667053222,1.6887548031880617e+18,4.845061669921875,-257.9104339599609,143.93804016113282,-147.24911499023438,1.6887548031963914e+18,4.853391276041666,-0.01301204568396,-0.1820136706034342,-0.4725306828816731,0.8620320955912272,-0.5913808544476827,0.9443080027898152,0.3394726812839508
4.85,1.6887548032396452e+18,4.896645345052083,7.305818239847819,-8.436535517374674,0.5791680812835693,1.6887548032482967e+18,4.905296468098958,12.203794161478678,-19.168503443400063,4.073381741841634,1.6887548032396452e+18,4.896645345052083,3.9300158818562823,-8.415558815002441,3.150569041570028,1.6887548032396452e+18,4.896645345052083,0.1870774750908216,-1.135140339533488,-1.305419037739436,1.6887548032439744e+18,4.900974365234375,0.180256148179372,-1.2212214072545369,-0.9655234018961588,,,,,,,,,,,,1.6887548032380575e+18,4.8950576171875,3.067080020904541,51.3595588684082,-14.425279808044433,1.6887548032380575e+18,4.8950576171875,-251.46151428222657,144.67735900878907,-146.4292785644531,1.6887548032482967e+18,4.905296468098958,-0.0035537589962283,-0.196896935502688,-0.5140013098716736,0.8348003029823303,-0.7010143399238586,1.0291895469029744,0.4162707229455312
4.9,1.688754803291551e+18,4.948551025390625,6.197980880737305,-7.148058891296387,3.484196503957113,1.6887548033001984e+18,4.957198242187499,7.6422765254974365,-14.3998072942098,8.237690607706705,1.688754803291551e+18,4.948551025390625,3.943336327870687,-8.375420888264975,3.2459407647450766,1.688754803291551e+18,4.948551025390625,0.5848525762557983,-1.2158254782358806,0.818355811216558,1.6887548032958774e+18,4.95287744140625,0.59406645099322,-1.1016445358594258,0.6696101228396097,,,,,,,,,,,,1.6887548032880632e+18,4.9450630859375,3.8185999393463135,52.05495910644531,-13.67375965118408,1.6887548032880632e+18,4.9450630859375,-250.70999755859376,145.3727600097656,-145.6777587890625,1.6887548033001984e+18,4.957198242187499,0.0266870831449826,-0.2181171129147211,-0.5009438097476959,0.8370729883511862,-0.6986386179924011,1.0166685183842976,0.3367264370123545
4.95,1.688754803343457e+18,5.000456949869792,-6.306763490041097,-0.1733201344807942,0.7684573332468668,1.6887548033434511e+18,5.0004511718749995,-3.7770705223083496,-8.68953537940979,3.4345977306365967,1.688754803343457e+18,5.000456949869792,3.876788775126139,-8.419149398803711,3.2125261624654136,1.688754803343457e+18,5.000456949869792,-0.1680897523959477,0.7819584136207899,-0.1125010152657826,1.688754803347783e+18,5.004782958984375,-0.2076941741009553,1.0114910801251729,-0.1101084525386492,,,,,,,,,,,,1.688754803338062e+18,4.995062060546875,3.9845199584960938,52.65763854980469,-13.515159606933594,1.688754803338062e+18,4.995062060546875,-250.54407348632813,145.97543640136718,-145.51915588378907,1.6887548033434511e+18,5.0004511718749995,0.0283592343330383,-0.2196529135107993,-0.5055144727230072,0.8339008688926697,-0.7105501890182495,1.0266472101211548,0.3443710952997207
5.0,1.6887548033953595e+18,5.052359375,-4.28177011013031,4.930467287699382,-1.2167659600575764,1.6887548033867082e+18,5.043708333333334,-0.9988040725390116,-2.785046140352885,1.0000004768371582,1.6887548033953595e+18,5.052359375,3.7933715184529624,-8.5973113377889,2.801736354827881,1.6887548033953595e+18,5.052359375,0.1816815064909557,2.596482753753662,-1.976810872554779,1.6887548033996882e+18,5.056688069661458,0.1765400593479474,2.635730822881063,-2.3080015977223716,,,,,,,,,,,,1.6887548033880645e+18,5.0450645996093755,3.613639926910401,52.92116012573242,-13.724999618530273,1.6887548033880645e+18,5.0450645996093755,-250.91495361328128,146.23895874023438,-145.72899475097657,1.6887548033867082e+18,5.043708333333334,0.0030777191277593,-0.183583527803421,-0.5167367259661356,0.8359302083651224,-0.6521126627922058,1.0461710691452026,0.3777400354544321
5.05,1.688754803447268e+18,5.10426806640625,-6.343652168909709,0.7449212074279785,0.2480072577794393,1.6887548034386166e+18,5.0956167805989585,-2.789831797281901,-8.423134644826254,2.689931432406107,1.688754803447268e+18,5.10426806640625,2.307893951733907,-9.211169242858888,2.39538836479187,1.688754803447268e+18,5.10426806640625,-0.4358014563719432,2.991814374923706,-4.788368860880534,1.6887548034429425e+18,5.099942504882812,-0.4109595865011215,3.1890984773635864,-4.89524507522583,,,,,,,,,,,,1.688754803438064e+18,5.0950640625,9.267119884490969,52.55027847290039,-14.81079978942871,1.688754803438064e+18,5.0950640625,-245.261474609375,145.86807861328126,-146.8147979736328,1.6887548034386166e+18,5.0956167805989585,-0.0515699833631515,-0.1209811270236968,-0.5900086363156637,0.7955187360445658,-0.7625828186670939,1.186366160710653,0.662220279375712
5.1,1.688754803499168e+18,5.1561680501302085,-5.342738310496013,-1.1535170873006184,-2.7806336879730225,1.688754803490521e+18,5.147521240234375,-5.474379380544026,-9.579466342926024,0.4580261309941609,1.688754803499168e+18,5.1561680501302085,0.595514178276062,-9.409242312113443,2.685842593510946,1.688754803499168e+18,5.1561680501302085,-1.4318172136942546,1.6164003610610962,-2.912910977999369,1.6887548034861998e+18,5.143199788411458,-1.162680168946584,1.977981686592102,-3.74999992052714,,,,,,,,,,,,1.6887548034880586e+18,5.145058544921875,18.578159904479985,49.419759368896486,-18.18287963867187,1.6887548034880586e+18,5.145058544921875,-235.9504364013672,142.73755798339843,-150.18687744140624,1.688754803490521e+18,5.147521240234375,-0.1178738425175348,-0.0766260524590809,-0.6707985401153564,0.7276349266370138,-1.255304177602132,1.2793142000834148,1.3142852783203125
5.15,1.6887548035424266e+18,5.1994267578125,2.4361140727996826,-2.3714442253112793,-4.297182083129883,1.6887548035424212e+18,5.199421142578125,1.3379866381486256,-11.60399341583252,-1.3001002669334412,1.6887548035424266e+18,5.1994267578125,0.1297260392457246,-9.289222240447998,3.149947762489319,1.6887548035424266e+18,5.1994267578125,-0.6630178391933442,0.2155590616166592,-0.9045386910438538,1.6887548035381023e+18,5.1951022135416665,-0.8476264340182146,0.4151338289181392,-1.1066842079162598,,,,,,,,,,,,1.688754803538065e+18,5.1950648925781255,23.40691986083984,45.76219863891602,-22.76763916015625,1.688754803538065e+18,5.1950648925781255,-231.12167663574215,139.0799987792969,-154.77163696289062,1.6887548035424212e+18,5.199421142578125,-0.1593913634618123,-0.0738663151860236,-0.6975194215774536,0.6946415901184082,-1.5212736129760742,1.2389777898788452,1.6439878543217976
5.2,1.6887548035856827e+18,5.2426826171875005,-0.2282249331474304,0.0543066660563151,-3.975739955902099,1.6887548035943322e+18,5.2513320312500005,-0.4466602206230163,-8.878568649291992,0.1589232732852298,1.6887548035856827e+18,5.2426826171875005,-0.6175018648306528,-9.302010536193848,3.0434610843658447,1.6887548035856827e+18,5.2426826171875005,0.4941899826129277,0.4282674416899681,-2.0672698418299356,1.6887548035900006e+18,5.247000488281249,0.5529857575893402,0.5036583791176478,-2.02817440032959,,,,,,,,,,,,1.6887548035880635e+18,5.245063427734375,27.630559539794923,43.73699951171875,-23.19219970703125,1.6887548035880635e+18,5.245063427734375,-226.89803771972657,137.05479736328124,-155.19619750976562,1.6887548035943322e+18,5.2513320312500005,-0.1630297005176544,-0.0556829770406087,-0.7294568618138632,0.6618045171101888,-1.794804573059082,1.2445438305536909,1.9488099416097004
5.25,1.6887548036375872e+18,5.294587320963541,3.283534526824951,2.82373841603597,0.2132360935211182,1.6887548036462356e+18,5.303235758463542,1.992822488149007,-6.445666154225667,3.0069804191589355,1.6887548036375872e+18,5.294587320963541,-1.32965886592865,-9.31590779622396,2.767148733139038,1.6887548036375872e+18,5.294587320963541,0.4658356507619222,0.633009115854899,-1.456506371498108,1.6887548036419095e+18,5.298909505208333,0.3778710638483365,0.6528113186359406,-1.3913474082946775,,,,,,,,,,,,1.6887548036380626e+18,5.295062695312501,30.82207946777344,42.55359954833985,-22.64563980102539,1.6887548036380626e+18,5.295062695312501,-223.70651245117188,135.87139892578125,-154.64963989257814,1.6887548036462356e+18,5.303235758463542,-0.1678664882977803,-0.0268590468913316,-0.7535657485326132,0.6349294185638428,-2.016088088353475,1.2465937932332356,2.2185084025065103
5.3,1.6887548036894884e+18,5.346488199869792,0.5609318017959596,0.4587198893229167,-1.6634194056193037,1.6887548036981425e+18,5.355142740885417,-1.5744772752126055,-9.623533884684244,0.8023931880791982,1.6887548036894884e+18,5.346488199869792,-1.7430496215820312,-9.188577016194662,2.9554684162139893,1.6887548036894884e+18,5.346488199869792,-0.7475463350613912,0.5762495497862498,-1.0732393463452656,1.6887548036938186e+18,5.350818684895834,-0.8143342733383179,0.4960734893878301,-1.1159998973210652,,,,,,,,,,,,1.6887548036880645e+18,5.3450640625,32.81068000793457,40.85047912597656,-23.65335922241211,1.6887548036880645e+18,5.3450640625,-221.7179168701172,134.16827697753905,-155.65735473632813,1.6887548036981425e+18,5.355142740885417,-0.188932180404663,-0.020088693127036,-0.7676116824150085,0.6120050946871439,-2.0878198941548667,1.200054407119751,2.3313878377278647
5.35,1.6887548037413978e+18,5.398397623697917,3.612749695777893,-3.9968531926472983,-6.089048544565837,1.6887548037500444e+18,5.407044596354166,1.3920245865980787,-13.390833536783854,-3.1357940832773843,1.6887548037413978e+18,5.398397623697917,-2.3268702824910483,-8.926026980082193,3.3352333704630532,1.6887548037413978e+18,5.398397623697917,-0.7992153565088908,-0.3117958046495914,-0.9316204016407332,1.6887548037457236e+18,5.402723714192708,-0.7475463549296061,-0.2902119060357411,-0.7571674684683481,,,,,,,,,,,,1.6887548037380613e+18,5.395061181640625,35.04327926635742,38.268958282470706,-26.261719512939457,1.6887548037380613e+18,5.395061181640625,-219.48531494140624,131.58675842285157,-158.26571350097657,1.6887548037500444e+18,5.407044596354166,-0.1980976959069569,-0.0333577437947193,-0.785235325495402,0.58568141857783,-2.162671168645223,1.1351489623387654,2.401856342951457
5.4,1.6887548037933025e+18,5.450302490234375,1.2029136021931963,-7.355332374572754,-5.246618906656901,1.6887548037933025e+18,5.450302490234375,-1.3770694434642792,-16.494922637939453,-1.6573287844657898,1.6887548037933025e+18,5.450302490234375,-2.299886782964071,-8.932455062866211,3.338068167368571,1.6887548037933025e+18,5.450302490234375,0.4944953918457031,-0.1055269748127708,0.459268848101298,1.6887548037976236e+18,5.454623453776041,0.6339254149546226,-0.0858774731556574,0.5324708720048269,,,,,,,,,,,,1.688754803788063e+18,5.4450628906250005,34.8431999206543,38.35191955566406,-27.17427978515625,1.688754803788063e+18,5.4450628906250005,-219.68539428710935,131.6697204589844,-159.17827758789062,1.6887548037933025e+18,5.450302490234375,-0.1953499317169189,-0.0358658581972122,-0.7831474542617798,0.5892525017261505,-2.153032422065735,1.1407337188720703,2.384411573410034
5.45,1.6887548038452065e+18,5.502206298828125,-0.6621964375178019,-5.723614692687988,-0.8579724629720052,1.688754803836557e+18,5.493556966145834,-2.003590146700541,-15.73300838470459,1.0713863372802734,1.6887548038452065e+18,5.502206298828125,-1.4652856190999348,-9.279426574707031,2.785315831502279,1.6887548038452065e+18,5.502206298828125,1.3510812123616536,0.4344269931316376,2.8094201485315957,1.6887548038495342e+18,5.506534261067709,1.335504174232483,0.40530909349521,3.0212886333465576,,,,,,,,,,,,1.688754803838058e+18,5.49505791015625,31.7273193359375,42.2339584350586,-25.23936004638672,1.688754803838058e+18,5.49505791015625,-222.80127868652343,135.5517578125,-157.24335632324218,1.688754803836557e+18,5.493556966145834,-0.1842284003893534,-0.0156735270284116,-0.7638745705286661,0.6179307103157043,-2.0730597972869873,1.218039909998576,2.315807263056437
5.5,1.6887548038971123e+18,5.5541123046875,-2.2746520042419434,-1.6644296646118164,2.3378219604492188,1.688754803888458e+18,5.5454580078125,-2.13100802898407,-10.829915046691896,4.217349926630656,1.6887548038971123e+18,5.5541123046875,0.249861866235733,-9.52165985107422,2.305375099182129,1.6887548038971123e+18,5.5541123046875,0.7090109388033549,-0.6422738830248514,3.5852700074513755,1.6887548038927887e+18,5.549788818359375,0.7271586954593658,-0.6472881138324738,3.649308919906616,,,,,,,,,,,,1.688754803888063e+18,5.54506298828125,23.167799377441405,48.507199096679685,-22.72371940612793,1.688754803888063e+18,5.54506298828125,-231.3607971191406,141.8249969482422,-154.72771606445312,1.688754803888458e+18,5.5454580078125,-0.1657618880271911,-0.0089326567637423,-0.7058611114819845,0.6881246964136759,-1.55277685324351,1.3169564008712769,1.7768515348434448
5.55,1.6887548039490194e+18,5.606019449869791,-2.783819635709127,-7.059326171875,9.047965049743652,1.6887548039403604e+18,5.5973606770833335,-0.7296114861965179,-16.599010785420734,10.574282010396322,1.6887548039490194e+18,5.606019449869791,1.9231377442677815,-9.403935114542644,1.9633301496505735,1.6887548039490194e+18,5.606019449869791,0.7810421387354533,0.3976732591787974,3.4596352577209473,1.6887548039360397e+18,5.593039713541667,0.7542149623235067,0.2024509261051813,3.491705814997355,,,,,,,,,,,,1.6887548039380593e+18,5.595059228515625,14.24471969604492,52.64543914794922,-20.230039596557617,1.6887548039380593e+18,5.595059228515625,-240.28387451171875,145.9632354736328,-152.23403625488282,1.6887548039403604e+18,5.5973606770833335,-0.1471604108810424,-0.0159181828300157,-0.6427778800328573,0.7511646548906962,-0.9034790595372518,1.2890019416809082,1.0912358562151592
5.6,1.6887548039922732e+18,5.649273071289063,-2.453460812568665,-3.1051435470581055,2.2005820274353027,1.688754803992273e+18,5.649272949218751,0.2390828927357991,-12.039287885030111,4.465206444263458,1.6887548039922732e+18,5.649273071289063,2.9770268201828003,-9.158514022827148,1.8607603907585144,1.6887548039922732e+18,5.649273071289063,0.6076582223176956,-2.5468499660491943,2.579913020133972,1.6887548039879483e+18,5.644948567708333,0.610508918762207,-1.6982562740643818,2.8204665978749595,,,,,,,,,,,,1.688754803988062e+18,5.6450619140625005,5.028839874267578,54.533999633789065,-18.02427978515625,1.688754803988062e+18,5.6450619140625005,-249.499755859375,147.85179748535157,-150.0282775878906,1.688754803992273e+18,5.649272949218751,-0.1215763390064239,-0.0323307228585084,-0.5852423111597697,0.800646960735321,-0.5601809422175089,1.1935525337855022,0.688702384630839
5.65,1.6887548040355185e+18,5.692518473307292,-5.570501406987508,1.5222681363423665,-1.5929640928904216,1.688754804044172e+18,5.701171956380208,-3.606781363487244,-5.577470143636067,0.006181463599205,1.6887548040355185e+18,5.692518473307292,4.132551034291585,-8.741456667582193,1.603656570116679,1.6887548040355185e+18,5.692518473307292,1.1397727727890017,-0.2717332194248835,3.1429526011149087,1.6887548040398487e+18,5.696848388671874,1.1840095520019531,-0.3863213720420996,3.0777427355448403,,,,,,,,,,,,1.6887548040380567e+18,5.6950568359375,-2.3375199139118195,54.909758758544925,-15.118239784240725,1.6887548040380567e+18,5.6950568359375,-256.86611022949216,148.22755737304686,-147.1222351074219,1.688754804044172e+18,5.701171956380208,-0.0870300804575284,-0.0423468425869941,-0.5236097772916158,0.8461606105168661,-0.3521427909533182,1.0734010140101116,0.4172999560832977
5.7,1.688754804087424e+18,5.744423909505208,-9.55064813296,9.333129405975342,-2.376776377360026,1.688754804096073e+18,5.7530731608072925,-2.2350957791010533,1.7768702109654744,-0.4105685005585353,1.688754804087424e+18,5.744423909505208,5.236126104990642,-8.083321253458658,1.8010279337565107,1.688754804087424e+18,5.744423909505208,0.1870774775743484,-3.547447204589844,3.204853614171346,1.6887548040917504e+18,5.748750325520834,0.0385354297856489,-3.645643870035807,3.162754774093628,,,,,,,,,,,,1.6887548040880553e+18,5.74505517578125,-10.03815965652466,54.61451950073242,-12.92223949432373,1.6887548040880553e+18,5.74505517578125,-264.56676025390624,147.93231201171875,-144.92623596191407,1.688754804096073e+18,5.7530731608072925,-0.0360161053637663,-0.0993085031708081,-0.4607575237751007,0.8804845611254374,-0.3586408992608388,0.9363532463709512,0.2639037122329076
5.75,1.6887548041393285e+18,5.796328287760417,-3.364434321721395,7.248254776000977,-0.0223354498545328,1.688754804147981e+18,5.804980712890625,1.9172491629918416,-0.6181458582480749,3.3128628730773926,1.6887548041393285e+18,5.796328287760417,5.684212525685628,-7.48937447865804,2.79334823290507,1.6887548041393285e+18,5.796328287760417,-0.2583450997869174,-1.8926131923993428,0.414013922214508,1.688754804143655e+18,5.8006547037760425,-0.206116110086441,-1.6667458613713582,0.1471676180760065,,,,,,,,,,,,1.6887548041380552e+18,5.795055322265625,-14.491159439086914,52.61615905761719,-15.642839813232422,1.6887548041380552e+18,5.795055322265625,-269.01976318359374,145.9339569091797,-147.64683837890624,1.688754804147981e+18,5.804980712890625,-0.0112587182472149,-0.1643107384443282,-0.4293655455112457,0.8879335323969523,-0.4813933670520782,0.8615236481030782,0.2500686645507812
5.8,1.6887548041912404e+18,5.848240478515625,-1.5330733458201091,5.495834668477376,-0.1596599419911702,1.688754804199891e+18,5.856890787760417,4.541577339172363,-3.1513474384943643,2.6492534478505454,1.6887548041912404e+18,5.848240478515625,5.091336727142334,-7.829278469085693,2.9845112959543862,1.6887548041912404e+18,5.848240478515625,0.5153157413005829,-0.3232495238383611,-2.1465296347935996,1.6887548041955648e+18,5.852564860026042,0.5734497308731079,-0.2774855395158132,-2.282345255215963,,,,,,,,,,,,1.6887548041880612e+18,5.845061230468749,-11.245959854125976,53.216399383544925,-15.716039657592772,1.6887548041880612e+18,5.845061230468749,-265.77454833984376,146.53419799804686,-147.72003784179688,1.688754804199891e+18,5.856890787760417,-0.00551212974824,-0.1751043746868769,-0.4661408861478169,0.8669870694478353,-0.550854504108429,0.9383385181427002,0.2977800369262695
5.85,1.6887548042431498e+18,5.9001498209635415,7.496158917744954,-4.15768559773763,-0.2979883750279745,1.688754804243149e+18,5.900149169921875,12.21595811843872,-11.244472026824951,2.1071794629096985,1.6887548042431498e+18,5.9001498209635415,4.043563683827718,-8.480648358662924,2.80898118019104,1.6887548042431498e+18,5.9001498209635415,0.3309871554374695,-0.6780604322751363,-1.9373082518577576,1.6887548042474757e+18,5.904475667317708,0.2112575670083364,-0.8454375267028809,-1.6465873022874196,,,,,,,,,,,,1.688754804238059e+18,5.89505908203125,-4.311479926109314,54.22167892456055,-14.40331974029541,1.688754804238059e+18,5.89505908203125,-258.8400817871094,147.5394744873047,-146.40731811523438,1.688754804243149e+18,5.900149169921875,0.0002856784558389,-0.1735160499811172,-0.5141789615154266,0.8398990333080292,-0.6169532537460327,1.0428545475006104,0.3616463690996169
5.9,1.688754804295051e+18,5.952050862630209,6.09061320622762,-9.642102400461832,0.3179496924082438,1.6887548042864036e+18,5.943403483072917,10.483753522237144,-21.28156503041585,3.299702445665995,1.688754804295051e+18,5.952050862630209,3.8678523699442544,-8.432325681050619,3.1858650048573813,1.688754804295051e+18,5.952050862630209,0.2395100891590118,-2.675793409347534,1.4353806177775066,1.688754804299378e+18,5.9563780110677085,0.3518583898742993,-2.626669645309448,1.3950635194778442,,,,,,,,,,,,1.6887548042880612e+18,5.945061230468751,-2.893839979171753,54.05087814331055,-14.688799858093262,1.6887548042880612e+18,5.945061230468751,-257.42243041992185,147.3686737060547,-146.6927947998047,1.6887548042864036e+18,5.943403483072917,0.0219835583120583,-0.2082857638597488,-0.5104783276716868,0.8336700201034546,-0.6929826537768046,1.0368523597717283,0.3535520335038503
5.95,1.68875480434696e+18,6.003959798177083,-5.881646951039632,-2.268337885538737,6.95671804745992,1.688754804338309e+18,5.995308919270833,0.5056830495595932,-9.912865797678627,11.322836558024088,1.68875480434696e+18,6.003959798177083,3.820964574813843,-8.43380355834961,3.240419387817383,1.68875480434696e+18,6.003959798177083,0.1947641968727111,-0.0750346096853415,-0.4164573699235916,1.68875480434263e+18,5.999629882812499,0.4428773075342178,0.1141554564237594,-0.5296201705932617,,,,,,,,,,,,1.6887548043380608e+18,5.9950609863281255,-3.6551199436187742,53.78247833251953,-13.759159660339355,1.6887548043380608e+18,5.9950609863281255,-258.1837097167969,147.10027770996095,-145.76315612792968,1.688754804338309e+18,5.995308919270833,0.0576513769725957,-0.2376439422369003,-0.4968232313791911,0.8326712648073832,-0.7105903029441833,1.0251716375350952,0.2734625836213429
6.0,1.6887548043988634e+18,6.055863525390625,-2.6591996351877847,0.126618226369222,-5.027941147486369,1.6887548043902108e+18,6.047210774739583,-0.3824528257052104,-8.246863206227621,-2.0550357898076377,1.6887548043988634e+18,6.055863525390625,3.5727956295013428,-8.5902738571167,3.103438377380371,1.6887548043988634e+18,6.055863525390625,0.1898263841867447,1.700088918209076,-1.3298027118047078,1.6887548043858895e+18,6.042889811197917,-0.1288925732175509,0.9286679128805796,-0.8281296590963999,,,,,,,,,,,,1.6887548043880596e+18,6.045059423828125,-2.498559904098511,53.55311889648438,-13.002759552001953,1.6887548043880596e+18,6.045059423828125,-257.02716064453125,146.87091979980468,-145.0067565917969,1.6887548043902108e+18,6.047210774739583,0.0467852726578712,-0.2295470188061396,-0.5116418798764547,0.8265263835589091,-0.7296988169352213,1.0500235160191853,0.3223748405774434
6.05,1.6887548044421197e+18,6.099119873046876,-3.4786477088928223,0.8396008014678955,0.3079680204391479,1.6887548044421225e+18,6.099122639973959,-0.5980062683423361,-8.112665812174479,2.675973335901896,1.6887548044421197e+18,6.099119873046876,2.852163314819336,-9.067762851715088,2.402925133705139,1.6887548044421197e+18,6.099119873046876,0.6708827614784241,4.296749711036682,-4.004756212234497,1.6887548044377948e+18,6.094794677734375,0.6107125282287598,4.036393880844116,-3.642334938049317,,,,,,,,,,,,1.6887548044380667e+18,6.095066552734375,1.7153200119733811,53.2871597290039,-11.65099983215332,1.6887548044380667e+18,6.095066552734375,-252.8132751464844,146.6049560546875,-143.65499572753907,1.6887548044421225e+18,6.099122639973959,0.0009739895661671,-0.157903179526329,-0.5730388164520264,0.8029697934786478,-0.7210426926612854,1.1737860441207886,0.4907811482747395
6.1,1.688754804485365e+18,6.142365234375,-6.528172969818115,3.846323331197103,0.1590145826339721,1.688754804494022e+18,6.151021809895833,-5.202993233998616,-6.029514312744141,1.9262221852938337,1.688754804485365e+18,6.142365234375,1.4076684713363647,-9.468302726745604,2.0923569202423096,1.688754804485365e+18,6.142365234375,-0.7095708648363749,3.684942801793417,-4.213493982950847,1.688754804489697e+18,6.1466969401041665,-0.8635598421096802,3.468645652135214,-4.076303720474243,,,,,,,,,,,,1.6887548044880645e+18,6.1450640624999995,10.904360008239744,51.715798950195314,-12.712399673461912,1.6887548044880645e+18,6.1450640624999995,-243.62423400878907,145.03359680175782,-144.71639709472657,1.688754804494022e+18,6.151021809895833,-0.0817412920296192,-0.0780207936962445,-0.6578520735104879,0.7437935272852579,-1.08277690410614,1.3086822430292766,1.0880471070607505
6.15,1.6887548045372795e+18,6.194279703776041,-3.636749426523844,-1.6716421445210774,-2.1886707146962485,1.688754804545927e+18,6.202926839192709,-2.840280532836914,-11.655837694803871,0.1850449641545613,1.6887548045372795e+18,6.194279703776041,0.2061759500453869,-9.42352040608724,2.705445210138957,1.6887548045372795e+18,6.194279703776041,-1.605608383814494,1.7208073536554973,-1.9515108267466228,1.688754804541605e+18,6.198605224609374,-1.5177456339200337,1.4802791600426035,-1.7955875396728516,,,,,,,,,,,,1.688754804538063e+18,6.195063037109375,17.27763957977295,48.50231857299805,-17.60459957122803,1.688754804538063e+18,6.195063037109375,-237.2509552001953,141.8201171875,-149.6085998535156,1.688754804545927e+18,6.202926839192709,-0.1517080018917719,-0.0576184752086798,-0.698712944984436,0.6965775887171427,-1.5102228323618572,1.2730632623036702,1.6449086666107178
6.2,1.6887548045891812e+18,6.246181396484374,0.9947190880775452,-0.2066993713378906,-4.412086804707845,1.6887548045978406e+18,6.254840413411458,0.512462871770064,-9.311071077982584,-0.9318050344785056,1.6887548045891812e+18,6.246181396484374,-0.591591864824295,-9.321762084960938,2.986088752746582,1.6887548045891812e+18,6.246181396484374,0.012573647002379,-0.3240131139755249,-1.872912844022115,1.6887548045935135e+18,6.250513509114583,0.1088867237170537,-0.2016873508691787,-1.9135353962580364,,,,,,,,,,,,1.6887548045880566e+18,6.245056640625,20.088519668579103,45.90127944946289,-20.366679763793947,1.6887548045880566e+18,6.245056640625,-234.44007263183593,139.21907653808594,-152.37067565917968,1.6887548045978406e+18,6.254840413411458,-0.1588846147060393,-0.0573972612619399,-0.7287668784459432,0.6634448568026224,-1.7912476857503254,1.2487252950668335,1.9367833137512207
6.25,1.6887548046410895e+18,6.298089518229166,4.406317710876465,0.9916162490844728,-0.4505889813105266,1.6887548046497377e+18,6.306737630208333,2.818346301714579,-8.136195023854574,2.493720054626465,1.6887548046410895e+18,6.298089518229166,-1.3708861668904622,-9.295551300048828,2.81482195854187,1.6887548046410895e+18,6.298089518229166,0.4049527595440547,1.043612360954285,-1.6587027708689372,1.688754804645412e+18,6.302412272135417,0.3580688436826069,1.1353948712348938,-1.5924747387568157,,,,,,,,,,,,1.6887548046380652e+18,6.295065185546875,24.456119537353516,44.17619857788086,-19.727399826049805,1.6887548046380652e+18,6.295065185546875,-230.07247619628907,137.4939971923828,-151.73139343261718,1.6887548046497377e+18,6.306737630208333,-0.1692302177349726,-0.0282979235053062,-0.7548311154047648,0.6329376498858134,-2.0217439333597818,1.2406611839930215,2.224165598551432
6.3,1.688754804692994e+18,6.349993896484375,-0.880705992380778,0.7559733390808105,-2.276655316352844,1.6887548046929925e+18,6.3499921875,-3.1785658597946167,-8.44995403289795,0.5673980712890625,1.688754804692994e+18,6.349993896484375,-1.7165669997533162,-9.197296142578123,2.946769873301188,1.688754804692994e+18,6.349993896484375,-0.4439972241719563,1.099913775920868,-0.9339620471000672,1.6887548046973235e+18,6.354323486328124,-0.5048292229572932,0.9343184158205986,-0.953764279683431,,,,,,,,,,,,1.6887548046880596e+18,6.345059521484375,26.11775932312012,42.39011917114258,-21.115759658813477,1.6887548046880596e+18,6.345059521484375,-228.41083679199215,135.70791931152343,-153.11975708007813,1.6887548046929925e+18,6.3499921875,-0.1940217316150664,-0.006979404715821,-0.763675332069397,0.615687221288681,-2.0704963207244873,1.2159309387207031,2.340059399604798
6.35,1.6887548047449006e+18,6.401900797526042,4.035811980565389,-1.189409255981445,-3.383852958679199,1.6887548047362458e+18,6.3932459309895835,1.1312068700790403,-9.900502840677897,0.3730809489885966,1.6887548047449006e+18,6.401900797526042,-2.2891148726145425,-8.973150571187338,3.2316342194875083,1.6887548047449006e+18,6.401900797526042,-0.6674211819966634,-0.1009963949521382,-1.2364930709203084,1.6887548047492232e+18,6.406223388671876,-0.6594799359639486,0.0089084704717,-1.1006264587243395,1.688754804743e+18,6.4,0.0,0.0,14.486469268798828,38.99599838256836,2.547043561935425,84.22135162353516,328.1999816894531,-122.9172579,49.2791706,1.6887548047380654e+18,6.395065332031249,28.142959213256837,40.08919906616211,-22.51631965637207,1.6887548047380654e+18,6.395065332031249,-226.38563232421876,133.40700073242186,-154.52031860351562,1.6887548047362458e+18,6.3932459309895835,-0.2026087939739227,-0.0115630379877984,-0.7798810402552286,0.5919997096061707,-2.1509706179300943,1.1648461818695068,2.427700996398926
6.4,1.688754804796806e+18,6.4538059895833335,-0.7179967164993286,-6.378198623657227,-6.6541439692179365,1.6887548047881526e+18,6.445152669270833,-2.722035229206085,-14.21575959523519,-3.0249266624450684,1.688754804796806e+18,6.4538059895833335,-2.3107818762461343,-8.892240206400553,3.438314358393351,1.688754804796806e+18,6.4538059895833335,-0.1275690197944641,-0.1357138951619466,0.2189442813396453,1.6887548047924833e+18,6.4494833984375,-0.3174971975386143,0.0435241609811782,0.3979023396968841,,,,,,,,,,,,1.6887548047880602e+18,6.445060058593749,28.667559814453124,38.09083938598633,-23.76803970336914,1.6887548047880602e+18,6.445060058593749,-225.86103515625,131.40863647460938,-155.77203369140625,1.6887548047881526e+18,6.445152669270833,-0.2150008231401443,-0.0158577257146437,-0.7841290632883707,0.5819366574287415,-2.1453304290771484,1.1332685947418213,2.4348485469818115
6.45,1.6887548048487084e+18,6.505708414713541,3.0634869734446206,-7.179943402608235,-3.521213928858439,1.6887548048400576e+18,6.497057698567708,1.2327024502058823,-16.88555145263672,-1.362513115008672,1.6887548048487084e+18,6.505708414713541,-2.057368437449137,-9.106049855550127,2.990729570388794,1.6887548048487084e+18,6.505708414713541,1.2662218411763508,0.1511382559935251,1.6507614950339,1.6887548048357368e+18,6.49273681640625,1.047837515672048,-0.2793690462907156,0.8040005067984263,,,,,,,,,,,,1.6887548048380585e+18,6.495058544921875,29.17019920349121,38.18111877441406,-21.715999603271484,1.6887548048380585e+18,6.495058544921875,-225.3583984375,131.49891662597656,-153.71999816894532,1.6887548048400576e+18,6.497057698567708,-0.1966535647710164,-0.0115631034908194,-0.7802460193634033,0.5934637784957886,-2.166755040486654,1.1724512974421184,2.4346150557200112
6.5,1.6887548049006177e+18,6.557617350260418,-1.9335339466730752,-1.0480165481567385,1.6909886995951335,1.6887548048919665e+18,6.548966552734375,-2.4829523166020713,-11.211770057678224,3.6745779514312744,1.6887548049006177e+18,6.557617350260418,-0.5044168854753176,-9.477853457132976,2.433165232340494,1.6887548049006177e+18,6.557617350260418,0.9053023258845012,-0.4652756949265798,3.6228381792704263,1.688754804887642e+18,6.544641764322917,1.1237884362538657,-0.1213585535685221,3.51272964477539,,,,,,,,,,,,1.6887548048880594e+18,6.545059374999999,23.836359786987305,42.12903900146485,-19.390679931640623,1.6887548048880594e+18,6.545059374999999,-230.692236328125,135.44683837890625,-151.39468078613282,1.6887548048919665e+18,6.548966552734375,-0.179635594288508,0.0023413034311185,-0.7328031857808431,0.6557423869768778,-1.834986964861552,1.2928956747055054,2.0956384340922036
6.55,1.688754804943872e+18,6.600871948242188,-1.9370175004005432,-4.992021560668945,5.9540815353393555,1.688754804943869e+18,6.600868489583334,-0.9359924433132012,-14.21137237548828,8.1280198097229,1.688754804943872e+18,6.600871948242188,0.935158967971802,-9.524777889251707,2.130492925643921,1.688754804943872e+18,6.600871948242188,0.999757319688797,-0.000458151102066,3.6429712772369385,1.6887548049395464e+18,6.596546305338542,0.9013825953006744,-0.0904589593410492,3.6349536577860513,,,,,,,,,,,,1.6887548049380603e+18,6.5950603515625,16.413879585266113,46.01839904785156,-17.42159957885742,1.6887548049380603e+18,6.5950603515625,-238.11471557617188,139.33619689941406,-149.42559509277345,1.688754804943869e+18,6.600868489583334,-0.1579691072305043,-0.0061477895360439,-0.6698728601137797,0.7249550024668375,-1.1452233791351318,1.3196998834609983,1.3620597124099731
6.6,1.6887548049871163e+18,6.64411669921875,-3.52744722366333,-5.94965394337972,8.312726815541586,1.6887548049957775e+18,6.652777506510417,-1.6570297082265215,-14.536995887756348,9.170692284901936,1.6887548049871163e+18,6.64411669921875,2.3355586926142373,-9.342320760091146,1.8315694332122805,1.6887548049871163e+18,6.64411669921875,0.4653266171614328,-0.584750771522522,3.1417309443155923,1.688754804991456e+18,6.6484560546875,0.3686571667591731,-0.8730791608492533,3.012838284174601,,,,,,,,,,,,1.6887548049880632e+18,6.64506318359375,8.620519828796386,48.68287887573242,-15.376879692077637,1.6887548049880632e+18,6.64506318359375,-245.90807495117187,142.00067749023438,-147.38087463378906,1.6887548049957775e+18,6.652777506510417,-0.1412857025861739,-0.0136852517801647,-0.6059496601422628,0.7824262976646423,-0.63416987657547,1.2365000247955322,0.8174027601877848
6.65,1.688754805039032e+18,6.696032063802083,-1.278740406036377,-2.2135677337646484,-1.2104975779851277,1.6887548050476782e+18,6.704678385416667,2.0865412751833596,-10.330812454223633,-0.1188435157140096,1.688754805039032e+18,6.696032063802083,3.4338126182556152,-8.987875938415527,1.8736330668131511,1.688754805039032e+18,6.696032063802083,0.7591018676757812,-1.083725889523824,2.7662014166514077,1.6887548050433516e+18,6.700351725260416,0.858774741490682,-0.7994699080785116,2.824233611424764,,,,,,,,,,,,1.6887548050380575e+18,6.6950576171875,3.2403198719024657,50.01267929077149,-13.883599853515625,1.6887548050380575e+18,6.6950576171875,-251.2882751464844,143.33047485351562,-145.88760070800782,1.6887548050476782e+18,6.704678385416667,-0.1052129392822582,-0.0440861297150452,-0.5563087860743204,0.822792132695516,-0.4716477493445078,1.1340616941452026,0.5602141420046488
6.7,1.6887548050909366e+18,6.7479365234375,-9.310765425364176,5.643113772074382,-1.0162013173103333,1.6887548050995855e+18,6.756585367838542,-5.652245998382568,-1.5473586320877075,0.7192426025867462,1.6887548050909366e+18,6.7479365234375,4.592255274454753,-8.536876678466797,1.4785390694936116,1.6887548050909366e+18,6.7479365234375,0.989703486363093,-1.3316861738761263,2.6017258961995444,1.6887548050952604e+18,6.7522604980468754,0.8740972876548767,-1.635286271572113,2.627636830012003,,,,,,,,,,,,1.688754805088058e+18,6.745058154296875,-2.7327999815344812,51.244879150390624,-11.094679641723634,1.688754805088058e+18,6.745058154296875,-257.2613952636719,144.56268005371095,-143.0986785888672,1.6887548050995855e+18,6.756585367838542,-0.0680633249382177,-0.0527257074912388,-0.5022822916507721,0.86004239320755,-0.3154488702615102,1.0300639073053997,0.3377921680609385
6.75,1.6887548051428406e+18,6.799840738932292,-6.314479351043701,9.8381077448527,-0.8397986094156901,1.688754805142843e+18,6.799843017578125,0.1450648605823516,2.258824586868286,1.238584816455841,1.6887548051428406e+18,6.799840738932292,5.419101238250732,-7.858089764912923,2.2247689167658486,1.6887548051428406e+18,6.799840738932292,-0.5260058790445328,-3.1437671184539795,2.250529408454895,1.688754805147166e+18,6.804166097005208,-0.5722789168357849,-3.0608930587768555,2.0618229309717813,,,,,,,,,,,,1.688754805138059e+18,6.795059033203126,-8.352119827270508,51.00087966918945,-11.30695972442627,1.688754805138059e+18,6.795059033203126,-262.880712890625,144.31867370605468,-143.3109558105469,1.688754805142843e+18,6.799843017578125,-0.0346145732328295,-0.114477515220642,-0.4549849331378937,0.8822633624076843,-0.3950165510177612,0.9192488491535188,0.2756181210279464
