seconds_elapsed_rounded,accelerometer_time,accelerometer_seconds_elapsed,accelerometer_z,accelerometer_y,accelerometer_x,accelerometeruncalibrated_time,accelerometeruncalibrated_seconds_elapsed,accelerometeruncalibrated_z,accelerometeruncalibrated_y,accelerometeruncalibrated_x,gravity_time,gravity_seconds_elapsed,gravity_z,gravity_y,gravity_x,gyroscope_time,gyroscope_seconds_elapsed,gyroscope_z,gyroscope_y,gyroscope_x,gyroscopeuncalibrated_time,gyroscopeuncalibrated_seconds_elapsed,gyroscopeuncalibrated_z,gyroscopeuncalibrated_y,gyroscopeuncalibrated_x,location_time,location_seconds_elapsed,location_bearingAccuracy,location_speedAccuracy,location_verticalAccuracy,location_horizontalAccuracy,location_speed,location_bearing,location_altitude,location_longitude,location_latitude,magnetometer_time,magnetometer_seconds_elapsed,magnetometer_z,magnetometer_y,magnetometer_x,magnetometeruncalibrated_time,magnetometeruncalibrated_seconds_elapsed,magnetometeruncalibrated_z,magnetometeruncalibrated_y,magnetometeruncalibrated_x,orientation_time,orientation_seconds_elapsed,orientation_qz,orientation_qy,orientation_qx,orientation_qw,orientation_roll,orientation_pitch,orientation_yaw
0.0,,,,,,,,,,,,,,,,1.688875677734739e+18,0.0647388916015625,1.3581825494766235,3.0951777696609497,0.7167740166187286,1.6888756777433925e+18,0.073392578125,1.3859004974365234,3.1561880111694336,0.6438519954681396,,,,,,,,,,,,1.6888756777367e+18,0.066699951171875,-42.33399963378906,-11.675399780273438,-18.165800094604492,,,,,,,,,,,,,,
0.05,1.6888756777866327e+18,0.1166328125,-0.5222063064575195,1.159524917602539,-0.899773359298706,1.6888756777693417e+18,0.0993414713541666,6.975875695546468,4.902893622716268,-0.8029914100964864,1.6888756777866327e+18,0.1166328125,8.191133499145508,5.365295886993408,-0.5958480834960938,1.68887567777685e+18,0.1068499348958333,1.5958345333735149,1.8278615474700928,0.5189300179481506,1.68887567777685e+18,0.1068499348958333,1.5949691931406658,1.832035779953003,0.5208644270896912,,,,,,,,,,,,1.68887567776685e+18,0.096850048828125,-41.14571914672852,-12.73923988342285,-15.040159797668457,1.68887567776685e+18,0.096850048828125,-300.85931396484375,71.0381591796875,-130.720556640625,1.6888756777866327e+18,0.1166328125,-0.4642436504364013,-0.1106969118118286,0.2650608122348785,0.8378345966339111,0.0724666640162468,-0.5786985754966736,1.0335525274276731
0.1,1.6888756778212452e+18,0.1512451171875,-1.264915943145752,1.6322800318400066,-2.162780483563741,1.6888756778212452e+18,0.1512451171875,7.0008009274800616,6.900501728057861,-2.697708169619242,1.6888756778212452e+18,0.1512451171875,8.242915471394857,5.283966859181722,-0.5996411442756653,1.6888756778212452e+18,0.1512451171875,0.0880664239327112,0.1652390460173289,-0.5396485229333242,1.6888756778212452e+18,0.1512451171875,0.086997389793396,0.1696169277032216,-0.537510504325231,,,,,,,,,,,,1.6888756778170998e+18,0.147100048828125,-40.872439575195315,-13.244319915771484,-13.510279655456545,1.6888756778170998e+18,0.147100048828125,-300.58604125976564,70.5330795288086,-129.1906768798828,1.6888756778212452e+18,0.1512451171875,-0.4549113611380259,-0.1051588505506515,0.2622752885023753,0.8444988131523132,0.0724724108974138,-0.568857729434967,1.009411096572876
0.15,1.688875677873145e+18,0.20314501953125,-2.445704936981201,1.537104606628418,-2.103508134682974,1.688875677873145e+18,0.20314501953125,5.894120375315349,6.630910396575928,-3.0093732674916587,1.688875677873145e+18,0.20314501953125,8.317023913065592,5.109550952911377,-0.970578670501709,1.688875677873145e+18,0.20314501953125,-1.2729413509368896,0.2544253766536712,0.0024943674604097,1.688875677873145e+18,0.20314501953125,-1.273959477742513,0.2587523361047109,0.0046323910355568,,,,,,,,,,,,1.68887567786735e+18,0.1973500488281249,-41.594678497314455,-12.182919692993163,-12.724599838256836,1.68887567786735e+18,0.1973500488281249,-301.3082763671875,71.59447937011718,-128.40499725341795,1.688875677873145e+18,0.20314501953125,-0.4738671481609344,-0.0888810207446415,0.2611105541388194,0.8362286686897278,0.1160183077057202,-0.5478684902191162,1.063737869262695
0.2,1.688875677925043e+18,0.2550426432291666,-1.2796845436096191,-0.8659084637959799,0.2850407361984253,1.688875677925043e+18,0.2550426432291666,7.112465699513753,4.135993997255961,-0.6550351778666178,1.688875677925043e+18,0.2550426432291666,8.369348843892416,5.017647584279378,-1.0047893524169922,1.688875677925043e+18,0.2550426432291666,-0.1577050487200419,-0.3296636144320171,-0.364584743976593,1.688875677925043e+18,0.2550426432291666,-0.1586722532908121,-0.325234850247701,-0.362446720401446,,,,,,,,,,,,1.6888756779176e+18,0.247600048828125,-42.29007873535157,-11.76811981201172,-12.08775978088379,1.6888756779176e+18,0.247600048828125,-302.00367431640626,72.00927734375,-127.76815643310547,1.688875677925043e+18,0.2550426432291666,-0.4935652116934458,-0.0906119172771771,0.2553551097710927,0.8264157970746359,0.1193437129259109,-0.5369457999865214,1.1096405585606892
0.25,1.6888756779769423e+18,0.3069423014322917,-3.210266590118408,-2.978707949320475,1.6889463265736897,1.6888756779769423e+18,0.3069423014322917,5.57148814201355,1.3738789955774944,1.3519447843233745,1.6888756779769423e+18,0.3069423014322917,8.758953412373861,4.368332227071126,-0.4017150277892747,1.6888756779769423e+18,0.3069423014322917,1.9265162150065105,-1.3287337223688762,-2.726851503054301,1.6888756779769423e+18,0.3069423014322917,1.9255491097768147,-1.3243558406829834,-2.7247135639190674,,,,,,,,,,,,1.68887567796785e+18,0.29785009765625,-43.43199844360352,-9.325679969787595,-13.761599731445312,1.68887567796785e+18,0.29785009765625,-303.1455932617188,74.45171813964843,-129.44199829101564,1.6888756779769423e+18,0.3069423014322917,-0.4746575156847636,-0.0936676735679308,0.2101796815792719,0.849093496799469,0.0464405172194043,-0.4619679848353068,1.031338632106781
0.3,1.688875678020188e+18,0.35018798828125,0.5957551002502441,-3.481113076210022,2.407366394996643,1.688875678020188e+18,0.35018798828125,9.959825038909912,-0.5255236774682999,2.746960401535034,1.688875678020188e+18,0.35018798828125,9.341268539428713,2.97133469581604,0.274880476295948,1.688875678020188e+18,0.35018798828125,-0.2466368526220321,-0.8281805515289307,-3.457650065422058,1.688875678020188e+18,0.35018798828125,-0.2477058619260788,-0.8237517923116684,-3.455588221549988,,,,,,,,,,,,1.6888756780181e+18,0.348099853515625,-46.330718994140625,-0.6807599306106568,-18.590359497070313,1.6888756780181e+18,0.348099853515625,-306.0443054199219,83.09663848876953,-134.27075805664063,1.688875678020188e+18,0.35018798828125,-0.4686238765716553,-0.0852100253105163,0.128238096833229,0.869758278131485,-0.0295161120593547,-0.3078500926494598,0.983860194683075
0.35,1.6888756780634345e+18,0.3934342447916667,-1.4208458264668782,-3.43058451016744,1.3162986040115354,1.6888756780634345e+18,0.3934342447916667,8.184250990549723,-1.3692927559216816,1.3144572377204895,1.6888756780634345e+18,0.3934342447916667,9.582295417785645,2.0770369370778403,-0.0665548319617907,1.6888756780634345e+18,0.3934342447916667,-1.6705636978149414,0.997899293899536,-1.7906496127446492,1.6888756780634345e+18,0.3934342447916667,-1.6715818643569946,1.002277175585429,-1.788562496503194,,,,,,,,,,,,1.68887567806835e+18,0.398349853515625,-47.90207901000976,5.270399761199951,-17.54115982055664,1.68887567806835e+18,0.398349853515625,-307.6156799316406,89.04779815673828,-133.2215576171875,1.6888756780634345e+18,0.3934342447916667,-0.4964894354343414,-0.0502405489484468,0.0941085964441298,0.8612529436747233,0.0067076361738145,-0.2134205450614293,1.04631241162618
0.4,1.688875678115337e+18,0.4453370768229166,-6.699082851409912,-3.915517807006836,-0.8542312482992808,1.688875678115337e+18,0.4453370768229166,3.0498518149058023,-2.9894331296284995,-1.5210375885168712,1.688875678115337e+18,0.4453370768229166,9.726133346557615,0.9418297708034516,-0.7315198183059692,1.688875678115337e+18,0.4453370768229166,-2.10224183400472,0.8354091048240662,-2.8294260501861572,1.688875678115337e+18,0.4453370768229166,-2.1033109029134116,0.8397361040115356,-2.8272879123687744,,,,,,,,,,,,1.6888756781186e+18,0.448599853515625,-48.209519958496095,10.972679901123048,-14.3862398147583,1.6888756781186e+18,0.448599853515625,-307.9231201171875,94.75007934570311,-130.06663818359374,1.688875678115337e+18,0.4453370768229166,-0.5385311841964722,0.0056308169538776,0.0609008272488911,0.8399520317713419,0.074890753875176,-0.096282967676719,1.14353613058726
0.45,1.6888756781672328e+18,0.4972328287760416,-3.07106351852417,-2.4495186805725098,-4.0953145027160645,1.6888756781672328e+18,0.4972328287760416,6.620541413625081,-3.493321657180786,-5.199404080708821,1.6888756781672328e+18,0.4972328287760416,9.668803532918297,-1.0280577838420868,-1.168803056081136,1.6888756781672328e+18,0.4972328287760416,-2.407012701034546,1.0326167742411296,-3.768631378809611,1.6888756781672328e+18,0.4972328287760416,-2.4080307483673096,1.0369437336921692,-3.766493240992228,,,,,,,,,,,,1.68887567816885e+18,0.498849853515625,-46.77479934692383,20.598479080200196,-12.422039794921876,1.68887567816885e+18,0.498849853515625,-306.4883972167969,104.3758773803711,-128.1024383544922,1.6888756781672328e+18,0.4972328287760416,-0.5827727516492208,0.079534584035476,-0.0073850462213158,0.8080426454544067,0.1202572956681251,0.1051163983841736,1.242998480796814
0.5,1.6888756782191296e+18,0.5491297200520834,0.0423537890116373,-2.1866492430369058,-8.710939725240072,1.6888756782191296e+18,0.5491297200520834,9.390632470448812,-4.784249464670817,-10.216156323750814,1.6888756782191296e+18,0.5491297200520834,9.325477282206217,-2.581855058670044,-1.5699300368626912,1.6888756782191296e+18,0.5491297200520834,-1.9434168338775637,1.563051462173462,-2.258165200551351,1.6888756782191296e+18,0.5491297200520834,-1.9444859027862549,1.5673274993896484,-2.2560272216796875,,,,,,,,,,,,1.6888756782191e+18,0.549099853515625,-44.61295928955078,28.157599639892577,-10.606679916381836,1.6888756782191e+18,0.549099853515625,-304.32655639648436,111.93499908447264,-126.28707885742188,1.6888756782191296e+18,0.5491297200520834,-0.6208492318789164,0.1468674590190251,-0.0524898419777551,0.7679164012273153,0.166831796367963,0.2664285153150558,1.3371363480885825
0.55,1.6888756782710223e+18,0.6010225423177084,1.8681421279907224,1.0138383706410723,-8.966944058736166,1.6888756782710223e+18,0.6010225423177084,10.513065656026203,-2.8831519285837808,-11.457831700642904,1.6888756782710223e+18,0.6010225423177084,8.622122128804525,-3.8812451362609863,-2.5556012789408364,1.6888756782710223e+18,0.6010225423177084,-2.55448571840922,3.45093043645223,-2.353052854537964,1.6888756782710223e+18,0.6010225423177084,-2.555503845214844,3.4552574157714844,-2.35091495513916,,,,,,,,,,,,1.68887567826935e+18,0.59934990234375,-41.21159973144531,34.25515937805176,-6.583119964599609,1.68887567826935e+18,0.59934990234375,-300.9251953125,118.03255920410156,-122.26351776123047,1.6888756782710223e+18,0.6010225423177084,-0.6536801854769388,0.2370844980080922,-0.0594342177112896,0.7153262297312418,0.2887358615795771,0.4071082472801208,1.420175592104594
0.6,1.6888756783229263e+18,0.6529263509114583,2.343560695648194,-0.5274880727132162,-11.577900250752768,1.6888756783229263e+18,0.6529263509114583,10.105488141377768,-5.710471312204997,-14.59482224782308,1.6888756783229263e+18,0.6529263509114583,7.739126046498616,-5.167238076527913,-3.081635316212972,1.6888756783229263e+18,0.6529263509114583,-1.9694804747899373,1.8699603080749512,-2.0647754669189453,1.6888756783229263e+18,0.6529263509114583,-1.9704476197560628,1.8742873271306355,-2.0626374085744223,,,,,,,,,,,,1.6888756783196e+18,0.64959990234375,-36.5536392211914,40.08919906616211,-3.7209998607635497,1.6888756783196e+18,0.64959990234375,-296.26723022460936,123.8665985107422,-119.40139923095704,1.6888756783229263e+18,0.6529263509114583,-0.684863011042277,0.3163361847400665,-0.0715868969758351,0.6521210074424744,0.3791852792104085,0.555081288019816,1.5103141069412231
0.65,1.6888756783748242e+18,0.7048242187500001,3.673178513844808,0.5492227872212728,-11.31319268544515,1.6888756783748242e+18,0.7048242187500001,10.595218976338703,-5.626124223073323,-14.503496170043944,1.6888756783748242e+18,0.7048242187500001,6.8992390632629395,-6.1596018473307295,-3.255017042160034,1.6888756783748242e+18,0.7048242187500001,-0.705142100652059,0.9254608551661172,-2.081421494483948,1.6888756783748242e+18,0.7048242187500001,-0.7061602274576821,0.9297368923823038,-2.0792834758758545,,,,,,,,,,,,1.68887567836985e+18,0.69984990234375,-32.181159591674806,45.059479522705075,-2.82795991897583,1.68887567836985e+18,0.69984990234375,-291.89475708007814,128.83687744140624,-118.50835723876952,1.6888756783748242e+18,0.7048242187500001,-0.6869443456331888,0.3733204404513041,-0.0933777540922164,0.6162434021631876,0.4410333931446075,0.6791305144627889,1.5208752155303955
0.7,1.6888756784267223e+18,0.7567221679687499,4.339728673299153,1.599064032236735,-9.202898661295572,1.6888756784267223e+18,0.7567221679687499,10.570692698160808,-5.08355188369751,-12.767702420552572,1.6888756784267223e+18,0.7567221679687499,6.208162625630696,-6.666870752970378,-3.6295172373453775,1.6888756784267223e+18,0.7567221679687499,0.7683157622814178,1.1936307152112324,-1.2318606774012248,1.6888756784267223e+18,0.7567221679687499,0.7673485477765402,1.198008557160695,-1.2297226389249163,,,,,,,,,,,,1.6888756784200998e+18,0.75009990234375,-28.282039642333984,48.1631591796875,-1.908079957962036,1.6888756784200998e+18,0.75009990234375,-287.9956298828125,131.94055786132813,-117.5884780883789,1.6888756784267223e+18,0.7567221679687499,-0.667991062005361,0.4159069657325744,-0.1019446204106012,0.608458677927653,0.5290856460730234,0.7471803426742554,1.4521472851435344
0.75,1.6888756784699704e+18,0.7999703369140625,3.190626859664917,4.41394567489624,-4.126261949539185,1.6888756784699704e+18,0.7999703369140625,8.851948261260986,-2.3123639822006226,-8.46251630783081,1.6888756784699704e+18,0.7999703369140625,5.638520002365112,-6.710564613342285,-4.400967836380005,1.6888756784699704e+18,0.7999703369140625,0.7845800518989563,2.5228735208511353,-0.4024838358163833,1.6888756784699704e+18,0.7999703369140625,0.7835110127925873,2.5272258520126343,-0.40034581720829,,,,,,,,,,,,1.68887567847035e+18,0.800349951171875,-24.639119338989257,48.797559356689455,2.347279965877533,1.68887567847035e+18,0.800349951171875,-284.35271606445315,132.57495727539063,-113.33311614990234,1.6888756784699704e+18,0.7999703369140625,-0.6514764130115509,0.4545668065547942,-0.0761134549975394,0.6025083065032959,0.6624696254730225,0.7532576024532318,1.3784734010696411
0.8,1.6888756785132134e+18,0.8432134602864583,-0.3735495408376059,2.5021905104319253,-2.9402661323547363,1.6888756785132134e+18,0.8432134602864583,4.671786864598592,-4.0869410037994385,-8.135796387990316,1.6888756785132134e+18,0.8432134602864583,5.022535006205241,-6.573386351267497,-5.260243733723958,1.6888756785132134e+18,0.8432134602864583,0.771777331829071,2.8993191719055176,0.0009672018156076,1.6888756785132134e+18,0.8432134602864583,0.7707592248916626,2.9036460717519126,0.0031052310951054,,,,,,,,,,,,1.6888756785206e+18,0.850599951171875,-21.25483932495117,48.42179870605469,7.707959938049316,1.6888756785206e+18,0.850599951171875,-280.96843872070315,132.1991973876953,-107.9724380493164,1.6888756785132134e+18,0.8432134602864583,-0.6437526345252991,0.4925481180349986,-0.0306026516482233,0.5844666759173075,0.8079020977020264,0.7342942555745443,1.3414944807688396
0.85,1.6888756785651162e+18,0.8951162923177084,0.5606188774108887,3.389343023300171,1.061656634012858,1.6888756785651162e+18,0.8951162923177084,4.828317165374756,-3.001596689224243,-4.998207728068034,1.6888756785651162e+18,0.8951162923177084,4.24489688873291,-6.375194549560547,-6.1245778401692705,1.6888756785651162e+18,0.8951162923177084,0.5745696624120077,2.054848869641622,-0.2015855374435584,1.6888756785651162e+18,0.8951162923177084,0.5735515604416529,2.0591249068578086,-0.1994474952419598,,,,,,,,,,,,1.6888756785708498e+18,0.9008499511718748,-17.326439666748048,47.2505989074707,12.102399635314942,1.6888756785708498e+18,0.9008499511718748,-277.0400329589844,131.0279998779297,-103.57799835205078,1.6888756785651162e+18,0.8951162923177084,-0.6282494068145752,0.5320908625920614,0.0165431268202761,0.5671900312105814,0.9643658995628356,0.707384447256724,1.2910754680633545
0.9,1.688875678617015e+18,0.9470150553385416,-0.8745034535725912,0.7677880922953287,-1.6139146486918132,1.688875678617015e+18,0.9470150553385416,3.009572664896647,-5.503492037455241,-8.044071674346924,1.688875678617015e+18,0.9470150553385416,3.8612747192382817,-6.255534966786702,-6.494870503743489,1.688875678617015e+18,0.9470150553385416,0.6698646446069082,0.3521129290262858,-0.1464040378729502,1.688875678617015e+18,0.9470150553385416,0.668846558779478,0.3565416932106018,-0.1442660167813301,,,,,,,,,,,,1.6888756786210998e+18,0.9510999511718752,-15.15239963531494,46.525919342041014,14.452119827270508,1.6888756786210998e+18,0.9510999511718752,-274.8659973144531,130.30331420898438,-101.22827758789064,1.688875678617015e+18,0.9470150553385416,-0.6197940111160278,0.5492002169291178,0.0385455762346585,0.5591921806335449,1.0341227451960249,0.6914696296056112,1.2694476048151653
0.95,1.6888756786689106e+18,0.99891064453125,-0.8800307114919027,3.4574817021687827,-1.5123569170633953,1.6888756786689106e+18,0.99891064453125,2.8578278621037803,-2.509273370107015,-8.30329418182373,1.6888756786689106e+18,0.99891064453125,3.715057134628296,-5.951009909311931,-6.855650742848714,1.6888756786689106e+18,0.99891064453125,1.2425508101781209,-0.1260418584182237,-0.7914268374443054,1.6888756786689106e+18,0.99891064453125,1.2415327231089277,-0.1217149036626021,-0.7892888188362122,,,,,,,,,,,,1.6888756786713498e+18,1.001349951171875,-14.054399681091308,45.05215911865234,16.709120178222655,1.6888756786713498e+18,1.001349951171875,-273.7679931640625,128.82955627441407,-98.97127838134766,1.6888756786689106e+18,0.99891064453125,-0.589560349782308,0.5557173490524292,0.041544913003842,0.5845933159192404,1.073836088180542,0.651838997999827,1.182200034459432
1.0,1.68887567872081e+18,1.0508099772135415,-2.2042901515960693,3.7299485206604,0.477357546488444,1.68887567872081e+18,1.0508099772135415,1.431306718538205,-2.0801604986190796,-6.501299063364665,1.68887567872081e+18,1.0508099772135415,3.612795432408651,-5.794363816579183,-7.043370087941487,1.68887567872081e+18,1.0508099772135415,0.4564690589904785,-0.5181664526462555,-0.681521991888682,1.68887567872081e+18,1.0508099772135415,0.4555018544197082,-0.5137376586596171,-0.6793839732805887,1.688875678708e+18,1.038,0.0,0.0,1.000664472579956,14.005000114440918,0.0,0.0,40.900001525878906,-122.7531371,49.1903577,1.6888756787216e+18,1.0516,-12.80511989593506,44.34456024169922,17.98767967224121,1.6888756787216e+18,1.0516,-272.5187255859375,128.12195587158203,-97.69271850585938,1.68887567872081e+18,1.0508099772135415,-0.5663209358851115,0.560690681139628,0.0368427714953819,0.6028911272684733,1.0965463320414226,0.6319019993146261,1.1141451994578044
1.05,1.6888756787727086e+18,1.1027088216145833,-1.255437692006429,2.9917585849761963,-1.3033315340677898,1.6888756787727086e+18,1.1027088216145833,2.305883447329203,-2.77726948261261,-8.352745532989502,1.6888756787727086e+18,1.1027088216145833,3.5385197003682456,-5.753282864888509,-7.114127477010091,1.6888756787727086e+18,1.1027088216145833,0.6275113224983215,-0.2890410671631495,-0.6799948215484619,1.6888756787727086e+18,1.1027088216145833,0.6264932155609131,-0.2847650249799092,-0.677958607673645,,,,,,,,,,,,1.6888756787718497e+18,1.10184990234375,-12.185359764099122,44.393359375,18.287799453735353,1.6888756787718497e+18,1.10184990234375,-271.8989624023437,128.1707565307617,-97.3925994873047,1.6888756787727086e+18,1.1027088216145833,-0.545766810576121,0.5647477904955546,0.0241924673318862,0.6185015241305033,1.1088748772939043,0.6267613967259725,1.049936294555664
1.1,1.6888756788246036e+18,1.1546037597656251,-2.6857170263926187,3.850553035736084,-0.6472997665405273,1.6888756788246036e+18,1.1546037597656251,0.7894320587317148,-1.8129619161287944,-7.82273546854655,1.6888756788246036e+18,1.1546037597656251,3.452347675959269,-5.647769769032796,-7.240149180094401,1.6888756788246036e+18,1.1546037597656251,0.505745512743791,-0.7292203903198242,-1.0196359157562256,1.6888756788246036e+18,1.1546037597656251,0.5047274058063825,-0.7248934308687845,-1.0175487995147705,,,,,,,,,,,,1.6888756788220997e+18,1.152099755859375,-11.690039825439452,43.99563903808594,18.96611976623535,1.6888756788220997e+18,1.152099755859375,-271.4036376953125,127.77303924560547,-96.7142807006836,1.6888756788246036e+18,1.1546037597656251,-0.5186078151067098,0.5689816077550253,0.0112933878942081,0.6380218267440796,1.1254489024480183,0.613593578338623,0.9705932140350342
1.15,1.688875678876504e+18,1.2065040690104167,-2.67851456006368,3.616737127304077,-0.1387451489766438,1.688875678876504e+18,1.2065040690104167,0.8047860066095988,-2.3270200292269387,-7.0801628430684405,1.688875678876504e+18,1.2065040690104167,3.4604989687601724,-5.928011894226074,-7.006131172180176,1.688875678876504e+18,1.2065040690104167,-0.6013459165891012,-1.165938138961792,-1.5359188318252563,1.688875678876504e+18,1.2065040690104167,-0.6024149258931478,-1.161509354909261,-1.533780813217163,,,,,,,,,,,,1.68887567887235e+18,1.202349755859375,-11.597319984436036,45.1326789855957,17.7485595703125,1.68887567887235e+18,1.202349755859375,-271.3109191894531,128.9100799560547,-97.93183746337893,1.688875678876504e+18,1.2065040690104167,-0.4999564786752065,0.5678669810295105,-0.0279707623024781,0.6530991395314535,1.1114904483159382,0.6491776506106058,0.8947076996167501
1.2,1.6888756789197522e+18,1.2497521972656251,-1.8632144927978516,6.359412670135498,0.8102223873138428,1.6888756789197522e+18,1.2497521972656251,1.5281163454055786,-0.1743769347667694,-5.633601903915405,1.6888756789197522e+18,1.2497521972656251,3.3685293197631836,-6.518044471740723,-6.508537769317627,1.6888756789197522e+18,1.2497521972656251,-1.6832391619682312,-1.4090369939804075,-1.742111325263977,1.6888756789197522e+18,1.2497521972656251,-1.6843082308769226,-1.404684603214264,-1.7399733066558838,,,,,,,,,,,,1.6888756789226e+18,1.2525998046875002,-11.192279624938966,48.38519821166992,14.405759811401367,1.6888756789226e+18,1.2525998046875002,-270.90587158203124,132.16259765625,-101.27463836669922,1.6888756789197522e+18,1.2497521972656251,-0.4906228929758072,0.5667148530483246,-0.0826624371111392,0.6566056609153748,1.092484951019287,0.7271776497364044,0.8288328945636749
1.25,1.6888756789630006e+18,1.2930008138020834,-0.736009438832601,1.269905964533488,1.9753275712331135,1.6888756789630006e+18,1.2930008138020834,2.457827607790629,-6.147360722223918,-3.5429726441701255,1.6888756789630006e+18,1.2930008138020834,3.1710356076558432,-7.401521523793538,-5.583013693491618,1.6888756789630006e+18,1.2930008138020834,-3.1051807403564453,-0.3659082651138305,-1.2945252656936646,1.6888756789630006e+18,1.2930008138020834,-3.106198867162069,-0.3616322129964828,-1.2923872073491414,,,,,,,,,,,,1.6888756789728497e+18,1.3028498046875,-8.915759658813476,53.196878814697264,8.520479869842529,1.6888756789728497e+18,1.3028498046875,-268.6293518066406,136.97427368164062,-107.15991821289064,1.6888756789630006e+18,1.2930008138020834,-0.506900817155838,0.5628594954808553,-0.1450164467096328,0.6360947688420614,1.05300772190094,0.8564923604329427,0.8272233804066976
1.3,1.6888756790148933e+18,1.3448931477864583,-3.790390570958456,-6.89523188273112,-6.4440999031066895,1.6888756790148933e+18,1.3448931477864583,-0.7447660764058432,-15.19701608022054,-10.657632191975912,1.6888756790148933e+18,1.3448931477864583,3.022823174794515,-8.286039034525553,-4.278245766957601,1.6888756790148933e+18,1.3448931477864583,-2.47512420018514,-1.1938342911501725,-0.182648703455925,1.6888756790148933e+18,1.3448931477864583,-2.4761422077814736,-1.1895073056221008,-0.1805106798807779,,,,,,,,,,,,1.6888756790231e+18,1.3530998046875,-8.586359977722168,56.67631912231445,2.0276399195194243,1.6888756790231e+18,1.3530998046875,-268.2999572753906,140.45371704101564,-113.65275573730467,1.6888756790148933e+18,1.3448931477864583,-0.5408649444580078,0.5496264497439066,-0.2082122514645258,0.601354201634725,0.9526546597480774,1.0067129333813984,0.9117899934450784
1.35,1.6888756790667968e+18,1.396796875,1.6281626621882122,-0.2481203079223632,-3.051737070083618,1.6888756790667968e+18,1.396796875,4.762315432230631,-8.861021041870117,-6.541179656982422,1.6888756790667968e+18,1.396796875,3.1113513310750327,-8.597155570983887,-3.5541559855143228,1.6888756790667968e+18,1.396796875,-0.5866851607958475,-1.11029851436615,-0.5254968206087748,1.6888756790667968e+18,1.396796875,-0.5877541700998942,-1.105869710445404,-0.5233588020006815,,,,,,,,,,,,1.68887567907335e+18,1.4033498046875,-8.53755979537964,57.92071914672851,-1.573799991607666,1.68887567907335e+18,1.4033498046875,-268.25115966796875,141.6981170654297,-117.25419769287107,1.6888756790667968e+18,1.396796875,-0.5428976019223531,0.526838997999827,-0.252296765645345,0.6032986044883728,0.8503561615943909,1.0686092774073284,0.9419941703478496
1.4,1.6888756791186944e+18,1.448694580078125,-0.7350796461105347,2.1646814346313477,-1.2793320020039876,1.6888756791186944e+18,1.448694580078125,2.3888346751530967,-6.6534427007039385,-4.233302195866902,1.6888756791186944e+18,1.448694580078125,3.1011128425598145,-8.80237897237142,-3.018683671951294,1.6888756791186944e+18,1.448694580078125,-0.4803437143564224,-2.0538307428359985,-0.8627453446388245,1.6888756791186944e+18,1.448694580078125,-0.4813618212938308,-2.049503803253174,-0.8606073260307312,,,,,,,,,,,,1.6888756791236e+18,1.4535998046874998,-7.954399967193604,59.04555892944336,-4.045519828796387,1.6888756791236e+18,1.4535998046874998,-267.6679931640625,142.8229522705078,-119.72591857910156,1.6888756791186944e+18,1.448694580078125,-0.528416911760966,0.5037499169508616,-0.2963699599107106,0.6155391931533813,0.7700160344441732,1.1141055425008135,0.9243921041488647
1.45,1.688875679170588e+18,1.5005882161458333,1.7481121222178142,0.0071983337402343,-3.0630372365315757,1.688875679170588e+18,1.5005882161458333,4.878965457280477,-8.94397258758545,-5.591029326121013,1.688875679170588e+18,1.5005882161458333,3.1080519358317056,-8.935425758361816,-2.592705567677816,1.688875679170588e+18,1.5005882161458333,-0.2400191376606623,-1.6949983636538188,-0.2435316046079,1.688875679170588e+18,1.5005882161458333,-0.2410372421145439,-1.6906204620997112,-0.2414444883664449,,,,,,,,,,,,1.68887567917385e+18,1.503849853515625,-7.415159893035889,59.50183944702148,-6.314719867706299,1.68887567917385e+18,1.503849853515625,-267.1287536621094,143.27923278808595,-121.9951171875,1.688875679170588e+18,1.5005882161458333,-0.504508395989736,0.4761564334233601,-0.3386331399281819,0.6355533401171366,0.693398912747701,1.1457432905832927,0.884036660194397
1.5,1.688875679222489e+18,1.5524892578124998,-0.3191748062769572,1.1519412994384766,-2.436209201812744,1.688875679222489e+18,1.5524892578124998,3.1308090686798096,-7.738587697347005,-4.760720094045003,1.688875679222489e+18,1.5524892578124998,3.42718243598938,-8.874783833821615,-2.389224370320638,1.688875679222489e+18,1.5524892578124998,-0.1183551425735155,-0.33159801363945,0.922661026318868,1.688875679222489e+18,1.5524892578124998,-0.1194241568446159,-0.3272710566719373,0.924748162428538,,,,,,,,,,,,1.6888756792240998e+18,1.554099853515625,-9.635559844970704,59.099238586425784,-7.454199886322021,1.6888756792240998e+18,1.554099853515625,-269.3491516113281,142.87663879394532,-123.1345962524414,1.688875679222489e+18,1.5524892578124998,-0.5077324112256368,0.4566084643205007,-0.3416458467642466,0.6457079450289408,0.6075153748194376,1.13111674785614,0.9396932125091552
1.55,1.6888756792743908e+18,1.604390869140625,1.8130642573038735,0.3686841328938802,-1.4796675046284993,1.6888756792743908e+18,1.604390869140625,5.739583969116211,-8.272187232971191,-3.979862372080485,1.6888756792743908e+18,1.604390869140625,3.903718312581381,-8.625126202901205,-2.5649083455403647,1.6888756792743908e+18,1.604390869140625,0.9450085361798604,-0.1916589662432669,0.6687956402699152,1.6888756792743908e+18,1.604390869140625,0.9439904491106668,-0.1873320067922274,0.6709336638450623,,,,,,,,,,,,1.6888756792743498e+18,1.6043498535156249,-12.12679977416992,58.22815856933594,-6.824679946899414,1.6888756792743498e+18,1.6043498535156249,-271.84039306640625,142.00555725097655,-122.505078125,1.6888756792743908e+18,1.604390869140625,-0.5041937331358591,0.4415182769298553,-0.3255786001682281,0.6669093569119772,0.5791714787483215,1.0748584667841594,0.9433561762173972
1.6,1.688875679326286e+18,1.6562861328125,-0.1816427707672119,3.584822654724121,-1.0513219833374023,1.688875679326286e+18,1.6562861328125,3.816951036453247,-4.932803789774577,-3.84067972501119,1.688875679326286e+18,1.6562861328125,3.975792407989502,-8.50188128153483,-2.8540712197621665,1.688875679326286e+18,1.6562861328125,0.5309437016646067,-0.4226169387499491,-0.2213877414663632,1.688875679326286e+18,1.6562861328125,0.5299764970938364,-0.4182390669981639,-0.219249720374743,,,,,,,,,,,,1.6888756793245998e+18,1.654599853515625,-12.797799873352051,57.88899917602539,-5.355799770355224,1.6888756793245998e+18,1.654599853515625,-272.5113952636719,141.66639709472656,-121.03619995117188,1.688875679326286e+18,1.6562861328125,-0.4863237341245015,0.4408475955327351,-0.3208582699298858,0.6827617088953654,0.6207934816678365,1.049028754234314,0.870853861172994
1.65,1.688875679369535e+18,1.69953515625,0.5817903280258179,3.8858256340026855,-0.7431035041809082,1.688875679369535e+18,1.69953515625,4.474877595901489,-4.642076015472412,-3.6445679664611816,1.688875679369535e+18,1.69953515625,3.8702858686447144,-8.51215648651123,-2.9661779403686523,1.688875679369535e+18,1.69953515625,0.2615266889333724,0.2648100797086954,-0.3372739702463149,1.688875679369535e+18,1.69953515625,0.2604576721787452,0.269086143001914,-0.3351359516382217,,,,,,,,,,,,1.6888756793748498e+18,1.704849853515625,-11.45823974609375,57.82311859130859,-4.316359996795654,1.6888756793748498e+18,1.704849853515625,-271.1718322753906,141.60051574707032,-119.99675750732422,1.688875679369535e+18,1.69953515625,-0.4760085940361023,0.4444757103919983,-0.3242186456918716,0.6861007809638977,0.6519971191883087,1.0512364506721497,0.8258114159107208
1.7,1.688875679412786e+18,1.74278564453125,1.398769776026408,5.3777845700581866,-3.094620863596598,1.688875679412786e+18,1.74278564453125,5.128417015075684,-3.154537836710612,-6.185446580251058,1.688875679412786e+18,1.74278564453125,3.706845839818319,-8.516577084859213,-3.1555392742156982,1.688875679412786e+18,1.74278564453125,0.2896519352992375,0.2937243854006131,-0.3890702625115712,1.688875679412786e+18,1.74278564453125,0.2887356479962666,0.2981022472182909,-0.3869831164677937,,,,,,,,,,,,1.6888756794200748e+18,1.750074890136719,-10.681099891662598,57.99574851989746,-3.82164990901947,1.6888756794200748e+18,1.750074890136719,-270.3946990966797,141.7731475830078,-119.50204849243164,1.688875679412786e+18,1.74278564453125,-0.4692745904127757,0.454980731010437,-0.3224672675132751,0.6846691171328226,0.7031044165293375,1.0523159503936768,0.7819194793701172
1.75,1.6888756794646822e+18,1.7946822916666667,2.966459592183431,4.146224498748779,-4.783694585164388,1.6888756794646822e+18,1.7946822916666667,6.427121639251709,-4.440081755320231,-8.028318723042807,1.6888756794646822e+18,1.7946822916666667,3.437860647837321,-8.570561091105143,-3.309337615966797,1.6888756794646822e+18,1.7946822916666667,0.2029599795738855,0.3983350520332654,-0.5695809225241343,1.6888756794646822e+18,1.7946822916666667,0.2019418726364771,0.4027129138509432,-0.5674938062826792,,,,,,,,,,,,1.6888756794652997e+18,1.79529990234375,-9.13535976409912,58.28915863037109,-3.1573599338531495,1.6888756794652997e+18,1.79529990234375,-268.8489562988281,142.06655578613282,-118.83775634765624,1.6888756794646822e+18,1.7946822916666667,-0.4587693711121877,0.4664658705393473,-0.3272531727949778,0.6817745765050253,0.7639195124308268,1.0638059377670288,0.7202892104784647
1.8,1.6888756795165806e+18,1.8465803222656252,0.925805648167928,4.088330109914144,-2.08292293548584,1.6888756795165806e+18,1.8465803222656252,4.043272018432617,-4.578267256418864,-5.454838116963704,1.6888756795165806e+18,1.8465803222656252,3.094664971033732,-8.65085220336914,-3.4366286595662436,1.6888756795165806e+18,1.8465803222656252,-0.0963130841652551,0.2468404714018106,-0.7341582179069519,1.6888756795165806e+18,1.8465803222656252,-0.0973311985532442,0.2512183332194885,-0.7320711016654968,,,,,,,,,,,,1.6888756795155497e+18,1.84554990234375,-8.098359775543212,58.416038513183594,-2.493680000305176,1.6888756795155497e+18,1.84554990234375,-267.81195678710935,142.1934356689453,-118.17407684326172,1.6888756795165806e+18,1.8465803222656252,-0.4515867630640666,0.4813829263051351,-0.3323158423105875,0.6737012068430582,0.8350622455279032,1.081233064333598,0.6604254047075907
1.85,1.688875679568479e+18,1.8984789225260417,0.3828563292821248,2.6300856272379556,-2.163896322250366,1.688875679568479e+18,1.8984789225260417,3.0749765237172446,-6.26022211710612,-5.311069170633952,1.688875679568479e+18,1.8984789225260417,2.669318755467733,-8.874562581380209,-3.2118863264719644,1.688875679568479e+18,1.8984789225260417,-0.7047348618507385,-0.5707517663637797,-1.2025900681813555,1.688875679568479e+18,1.8984789225260417,-0.705752968788147,-0.5663738946119944,-1.2004520495732625,,,,,,,,,,,,1.6888756795658e+18,1.8957997558593749,-5.192319869995117,59.35299911499023,-3.3379199504852295,1.6888756795658e+18,1.8957997558593749,-264.9059143066406,143.1303955078125,-119.01831817626952,1.688875679568479e+18,1.8984789225260417,-0.4411804775396982,0.4838714400927226,-0.3600761791070302,0.6644115845362345,0.874263068040212,1.1326457262039185,0.5946364800135294
1.9,1.6888756796203717e+18,1.9503714192708337,1.0444541772206624,2.142452081044515,-2.8361337979634604,1.6888756796203717e+18,1.9503714192708337,3.271586775779724,-7.0957159996032715,-5.263611793518066,1.6888756796203717e+18,1.9503714192708337,2.204331159591675,-9.22242291768392,-2.492191473642985,1.6888756796203717e+18,1.9503714192708337,-1.669291098912557,-1.3051644961039226,-1.53637699286143,1.6888756796203717e+18,1.9503714192708337,-1.6702582836151123,-1.3007866541544597,-1.5342389742533369,,,,,,,,,,,,1.6888756796159862e+18,1.9459859863281248,-2.7035199880599974,60.368038177490234,-6.3805999755859375,1.6888756796159862e+18,1.9459859863281248,-262.4171142578125,144.14543762207032,-122.06099548339844,1.6888756796203717e+18,1.9503714192708337,-0.4342621862888336,0.4673991501331329,-0.4109408855438232,0.6509165167808533,0.8405730128288269,1.2264436880747478,0.5674716035525004
1.95,1.6888756796722747e+18,2.0022744954427085,1.633062442143758,0.9767484664916992,-1.871988614400228,1.6888756796722747e+18,2.0022744954427085,3.096511880556742,-8.610771814982096,-3.3623146216074624,1.6888756796722747e+18,2.0022744954427085,1.4406479994455974,-9.571775118509928,-1.5550394852956135,1.6888756796722747e+18,2.0022744954427085,-1.6531031529108684,-0.7082473635673523,-1.95130721728007,1.6888756796722747e+18,2.0022744954427085,-1.6541213194529216,-0.7039203842480978,-1.9492710034052532,,,,,,,,,,,,1.6888756796659917e+18,1.995991796875,1.4713199615478516,61.72467880249023,-11.18007984161377,1.6888756796659917e+18,1.995991796875,-258.24228515625,145.5020782470703,-126.86047668457032,1.6888756796722747e+18,2.0022744954427085,-0.4287501076857249,0.4500177999337514,-0.4732289413611094,0.6239887475967407,0.8188522458076477,1.354981501897176,0.5317536493142446
2.0,1.6888756797241684e+18,2.054168701171875,2.019488056500753,1.1884276072184246,-0.5423727035522461,1.6888756797241684e+18,2.054168701171875,2.554936329523722,-8.597012837727865,-1.101097176472346,1.6888756797241684e+18,2.054168701171875,0.5126468539237976,-9.769695281982422,-0.6234379559755325,1.6888756797241684e+18,2.054168701171875,-2.2251275777816772,0.5651012659072876,-1.5007940530776978,1.6888756797241684e+18,2.054168701171875,-2.2260438601175943,0.5694282154242197,-1.4986560543378191,,,,,,,,,,,,1.688875679715994e+18,2.045993798828125,6.607519912719726,62.06871871948242,-15.772159767150878,1.688875679715994e+18,2.045993798828125,-253.10607299804687,145.8461151123047,-131.4525573730469,1.6888756797241684e+18,2.054168701171875,-0.4319507777690887,0.4431159694989522,-0.5268781185150146,0.5822981198628744,0.8014125426610311,1.4901070594787598,0.5344938238461813
2.05,1.688875679776072e+18,2.1060721842447916,-3.167716383934021,-2.5516640345255532,2.4718835751215615,1.688875679776072e+18,2.1060721842447916,-2.8099714517593384,-12.319846153259276,3.4289148648579917,1.688875679776072e+18,2.1060721842447916,0.334943542877833,-9.752436955769856,0.8923177917798361,1.688875679776072e+18,2.1060721842447916,-3.3962580362955728,1.9969693819681804,0.0658207324643929,1.688875679776072e+18,2.1060721842447916,-3.397327105204264,2.001296361287435,0.0679587610065936,,,,,,,,,,,,1.688875679765995e+18,2.0959950195312502,8.442399787902833,61.89059906005859,-22.206439590454103,1.688875679765995e+18,2.0959950195312502,-251.2711944580078,145.66799621582032,-137.8868408203125,1.688875679776072e+18,2.1060721842447916,-0.4964776635169983,0.430860698223114,-0.5452244281768799,0.5194887717564901,-1.1436615586280825,1.4698009888331096,2.57677952448527
2.1,1.6888756798193132e+18,2.149313110351563,-4.985057711601257,-5.441628932952881,-1.876521110534668,1.6888756798193132e+18,2.149313110351563,-4.882554650306702,-14.971891403198242,0.5557330623269081,1.6888756798193132e+18,2.149313110351563,0.0797016434371471,-9.514517307281494,2.367540717124939,1.6888756798193132e+18,2.149313110351563,-3.380299210548401,-2.199191153049469,-1.0079276263713837,1.6888756798193132e+18,2.149313110351563,-3.3812918663024902,-2.19483882188797,-1.0057896077632904,,,,,,,,,,,,1.6888756798159895e+18,2.145989404296875,8.44483995437622,60.0435188293457,-31.15879898071289,1.6888756798159895e+18,2.145989404296875,-251.2687561035156,143.8209197998047,-146.83919677734374,1.6888756798193132e+18,2.149313110351563,-0.5258510410785675,0.3901762813329696,-0.5860117375850677,0.4769106954336166,-1.5304710268974304,1.3235251903533936,2.9530389308929443
2.15,1.688875679862567e+18,2.1925668131510414,3.1617480516433716,-5.884756406148274,-4.179625590642293,1.688875679862567e+18,2.1925668131510414,2.4386850198109946,-15.273785591125488,-1.328814168771108,1.688875679862567e+18,2.1925668131510414,-0.7458644310633341,-9.373284022013346,2.786098003387451,1.688875679862567e+18,2.1925668131510414,0.3151046733061473,-0.7692829370498657,-1.5378023386001587,1.688875679862567e+18,2.1925668131510414,0.3140356143315632,-0.764955997467041,-1.5356643199920654,,,,,,,,,,,,1.6888756798659917e+18,2.195991650390625,13.947039794921874,58.05979843139649,-34.97739868164062,1.6888756798659917e+18,2.195991650390625,-245.7665557861328,141.8372009277344,-150.65779724121094,1.688875679862567e+18,2.1925668131510414,-0.4972717364629109,0.3702805836995442,-0.6332298119862875,0.4630912045637766,-1.8324547211329143,1.2684568166732788,-1.0174750487009685
2.2,1.688875679914465e+18,2.244464925130208,0.0851057966550191,-1.823338826497396,0.0539746681849161,1.688875679914465e+18,2.244464925130208,-1.2085748314857483,-11.408379872639976,1.7579270601272583,1.688875679914465e+18,2.244464925130208,-1.316482146581014,-9.569295883178713,1.6392389138539631,1.688875679914465e+18,2.244464925130208,3.4400366942087808,1.4142548541227975,-1.300583044687907,1.688875679914465e+18,2.244464925130208,3.439018646876017,1.4185818036397295,-1.2984450260798135,,,,,,,,,,,,1.6888756799159864e+18,2.2459862792968748,16.88967933654785,59.13583755493164,-30.04615936279297,1.6888756799159864e+18,2.2459862792968748,-242.82391662597655,142.91323852539062,-145.7265594482422,1.688875679914465e+18,2.244464925130208,-0.4722119271755218,0.4422471523284912,-0.6090211470921835,0.4579513669013977,-2.263540506362915,1.348135511080424,-2.602524201075236
2.25,1.688875679966363e+18,2.296363037109375,3.5981297492980957,5.335672378540039,-0.2709100196758906,1.688875679966363e+18,2.296363037109375,1.937588135401408,-4.338985125223796,0.0482552891092684,1.688875679966363e+18,2.296363037109375,-1.6833430926005046,-9.658912340799969,0.2544518411159515,1.688875679966363e+18,2.296363037109375,1.8469510475794475,0.9009753415981928,-0.7385870019594828,1.688875679966363e+18,2.296363037109375,1.845983882745107,0.9053531934817632,-0.7364489634831747,,,,,,,,,,,,1.6888756799659935e+18,2.29599384765625,18.905119705200196,60.160638427734376,-23.445959091186523,1.6888756799659935e+18,2.29599384765625,-240.80847778320313,143.93804016113282,-139.12635498046876,1.688875679966363e+18,2.296363037109375,-0.4372523923714955,0.5032109717528025,-0.576555073261261,0.4722044269243876,-2.970554828643799,1.394687533378601,-1.850605050722758
2.3,1.68887568001826e+18,2.3482601725260417,0.5273332993189493,1.5101830164591472,-3.507267872492472,1.68887568001826e+18,2.3482601725260417,-1.4478570818901062,-8.109475453694662,-3.3547372817993164,1.68887568001826e+18,2.3482601725260417,-1.9979918797810872,-9.60391330718994,0.0878169958790143,1.68887568001826e+18,2.3482601725260417,0.5504914025465647,2.670651912689209,-0.3765984239677588,1.68887568001826e+18,2.3482601725260417,0.5494732956091563,2.6750298341115317,-0.3744604016343753,,,,,,,,,,,,1.6888756800159923e+18,2.345992236328125,20.230039215087892,59.75315856933594,-22.345519638061525,1.6888756800159923e+18,2.345992236328125,-239.48355407714843,143.53055725097656,-138.02591552734376,1.68887568001826e+18,2.3482601725260417,-0.4510684510072072,0.5474626223246256,-0.549287756284078,0.4412988324960072,-3.08066455523173,1.3656706015268962,-1.6237319707870483
2.35,1.68887568007016e+18,2.400160074869792,1.0273610353469849,1.6839985847473145,-3.8025035858154297,1.68887568007016e+18,2.400160074869792,-1.074975589911143,-7.908079306284587,-3.804986715316773,1.68887568007016e+18,2.400160074869792,-2.1251381238301597,-9.576332728068037,-0.0671965940855443,1.68887568007016e+18,2.400160074869792,0.4967861572901408,0.7347181638081869,-0.4877758969863255,1.68887568007016e+18,2.400160074869792,0.4957680503527323,0.7390451431274414,-0.4857396831115086,,,,,,,,,,,,1.688875680065996e+18,2.395995947265625,20.18855972290039,59.68483810424805,-22.223519134521485,1.688875680065996e+18,2.395995947265625,-239.52503356933593,143.4622344970703,-137.90391540527344,1.68887568007016e+18,2.400160074869792,-0.4588096141815185,0.5729832649230957,-0.5288141369819641,0.4260281523068746,1.0344587167104085,1.3530309597651164,-1.480624755223592
2.4,1.6888756801220577e+18,2.452057454427083,0.737642765045166,1.6325974464416504,-1.8129135370254517,1.6888756801220577e+18,2.452057454427083,-1.7335999806722004,-7.8693954149882,-1.871386686960856,1.6888756801220577e+18,2.452057454427083,-2.494044224421183,-9.486247698465982,-0.1231866081555684,1.6888756801220577e+18,2.452057454427083,0.2445497214794158,1.2711596886316936,-0.7745262185732523,1.6888756801220577e+18,2.452057454427083,0.2435825119415918,1.2755884726842244,-0.7723881999651591,1.688875680123e+18,2.453,0.0,0.0,0.9927542805671692,16.451000213623047,10.370580673217772,5.999528408050537,41.0,-122.7531047,49.1905648,1.6888756801159928e+18,2.4459927246093747,21.859959411621094,59.41155853271484,-21.930719757080077,1.6888756801159928e+18,2.4459927246093747,-237.8536346435547,143.18895874023437,-137.61111755371093,1.6888756801220577e+18,2.452057454427083,-0.4569221436977386,0.5965561072031657,-0.5203194816907247,0.4056041439374288,3.1083501974741616,1.3145250876744587,-1.4088389078776042
2.45,1.688875680173952e+18,2.503951904296875,0.836551507314046,1.0491126378377278,-2.5235594113667807,1.688875680173952e+18,2.503951904296875,-2.0099709828694663,-8.346763610839844,-2.45902411142985,1.688875680173952e+18,2.503951904296875,-2.869323968887329,-9.380131085713703,-0.0001782424127062,1.688875680173952e+18,2.503951904296875,-0.1496110831697781,1.0394381086031597,-0.7728463411331177,1.688875680173952e+18,2.503951904296875,-0.1505782852570215,1.043816010157267,-0.7707083225250244,,,,,,,,,,,,1.6888756801659927e+18,2.495992724609375,23.563079833984375,58.916238403320314,-22.25767936706543,1.6888756801659927e+18,2.495992724609375,-236.15051879882813,142.69363708496093,-137.93807983398438,1.688875680173952e+18,2.503951904296875,-0.457752803961436,0.6155973275502523,-0.5164031783739725,0.3804693420728047,-1.032950798670451,1.2750751574834187,-1.4063652356465657
2.5,1.6888756802258534e+18,2.555853515625,1.262510061264038,-1.9231592814127605,-6.615068435668945,1.6888756802258534e+18,2.555853515625,-1.8841484586397808,-11.220144907633465,-6.336991945902507,1.6888756802258534e+18,2.555853515625,-3.1694599787394204,-9.281240463256836,0.2133632550636927,1.6888756802258534e+18,2.555853515625,-0.2647591779629389,0.2672026356061299,-0.437532236178716,1.6888756802258534e+18,2.555853515625,-0.2658281872669855,0.2715805023908615,-0.4353942026694615,,,,,,,,,,,,1.6888756802159962e+18,2.545996142578125,25.49067916870117,58.00367813110351,-23.80219955444336,1.6888756802159962e+18,2.545996142578125,-234.22291870117184,141.78107604980468,-139.48259582519532,1.6888756802258534e+18,2.555853515625,-0.4567131797472636,0.6230876247088114,-0.5221046010653178,0.3613472084204356,-3.0592337449391684,1.242123246192932,-1.45379372437795
2.55,1.688875680269102e+18,2.59910205078125,2.5428649187088013,-0.7181496620178223,-9.470683574676514,1.688875680269102e+18,2.59910205078125,-0.68255265802145,-9.986445426940918,-9.131309986114502,1.688875680269102e+18,2.59910205078125,-3.248219132423401,-9.252550601959229,0.2746598124504089,1.688875680269102e+18,2.59910205078125,0.0274125784635544,0.5109124332666397,-0.1230893433094024,1.688875680269102e+18,2.59910205078125,0.0263435617089272,0.5152648389339447,-0.1209513209760188,,,,,,,,,,,,1.6888756802659958e+18,2.5959959472656253,25.48335990905762,57.586439514160155,-24.60007972717285,1.6888756802659958e+18,2.5959959472656253,-234.23023681640623,141.36383972167968,-140.28047790527344,1.688875680269102e+18,2.59910205078125,-0.4569826275110245,0.6253276467323303,-0.5231659412384033,0.3555658757686614,-3.040369391441345,1.2332504391670227,-1.465137958526611
2.6,1.688875680312347e+18,2.642347005208333,4.628962278366089,-0.932363510131836,-6.121080716451009,1.688875680312347e+18,2.642347005208333,1.516850213209788,-10.2418794631958,-5.930411497751872,1.688875680312347e+18,2.642347005208333,-3.134913523991903,-9.293770790100098,0.1259556108464797,1.688875680312347e+18,2.642347005208333,0.3735949993133544,-0.4817690551280975,0.5859215855598449,1.688875680312347e+18,2.642347005208333,0.372576892375946,-0.4773402810096741,0.5880087018013,,,,,,,,,,,,1.6888756803159905e+18,2.645990478515625,23.106799697875974,53.18711929321289,-16.909199810028078,1.6888756803159905e+18,2.645990478515625,-234.87928161621093,141.54683837890624,-139.6607208251953,1.688875680312347e+18,2.642347005208333,-0.4560628235340118,0.6237277189890543,-0.5194769700368246,0.364741454521815,-3.083078384399414,1.2466482718785603,-1.4307983716328938
2.65,1.6888756803642488e+18,2.6942488606770834,1.7355866034825642,-3.7469040552775064,-6.652645587921143,1.6888756803642488e+18,2.6942488606770834,-0.4508476853370666,-13.30229918162028,-6.918846607208252,1.6888756803642488e+18,2.6942488606770834,-2.2092357873916626,-9.539649963378906,-0.330914556980133,1.6888756803642488e+18,2.6942488606770834,1.25629531343778,-0.4670064933598041,2.82657527923584,1.6888756803642488e+18,2.6942488606770834,1.2553280293941498,-0.4626286017398039,2.828713297843933,,,,,,,,,,,,1.6888756803659884e+18,2.6959884765625,16.618839836120607,47.71419982910156,-4.557919931411743,1.6888756803659884e+18,2.6959884765625,-238.7759552001953,142.94739685058593,-137.9161163330078,1.6888756803642488e+18,2.6942488606770834,-0.4667934477329254,0.6004044810930887,-0.5010578831036886,0.4122270246346791,2.997528314590454,1.341556708017985,-1.271600564320882
2.7,1.6888756804161434e+18,2.7461432291666665,-2.7405327608187995,-4.303164800008138,-3.1691273053487143,1.6888756804161434e+18,2.7461432291666665,-3.3619157106926045,-13.986846288045248,-4.559523582458496,1.6888756804161434e+18,2.7461432291666665,-0.644184465209643,-9.667936325073242,-1.4551097949345906,1.6888756804161434e+18,2.7461432291666665,2.1327850421269736,-0.3681481257081032,2.8968756993611655,1.6888756804161434e+18,2.7461432291666665,2.1317670345306396,-0.3637193441390991,2.8989628156026206,,,,,,,,,,,,1.688875680415994e+18,2.745993896484375,9.113399696350095,49.72231826782227,1.0174799799919128,1.688875680415994e+18,2.745993896484375,-246.2813934326172,144.955517578125,-132.34071655273436,1.6888756804161434e+18,2.7461432291666665,-0.4815592070420583,0.5817402998606364,-0.4396569629510243,0.485551764567693,2.014199455579122,1.4076385895411174,-0.3047406462331612
2.75,1.6888756804680417e+18,2.7980415852864584,-3.4056570529937744,-11.006429036458334,3.829261938730875,1.6888756804680417e+18,2.7980415852864584,-2.507478713989258,-20.674984614054363,2.4576282699902854,1.6888756804680417e+18,2.7980415852864584,0.8753769795099894,-9.652810414632162,-1.4363471269607544,1.6888756804680417e+18,2.7980415852864584,-1.1914417346318562,-3.962021072705587,2.339766581853231,1.6888756804680417e+18,2.7980415852864584,-1.1924598813056946,-3.957592248916626,2.3419046799341836,,,,,,,,,,,,1.6888756804659917e+18,2.795991650390625,0.2903600458055734,50.04439926147461,2.652279961109161,1.6888756804659917e+18,2.795991650390625,-255.10443420410155,145.27759704589843,-130.70591735839844,1.6888756804680417e+18,2.7980415852864584,-0.4938549796740214,0.5168658991654714,-0.4318173627058665,0.5485332012176514,0.991064429283142,1.396936019261678,0.610242893298467
2.8,1.6888756805199434e+18,2.849943359375,-0.6365209817886351,-1.3682440121968586,-0.654222329457601,1.6888756805199434e+18,2.849943359375,1.633500228325526,-10.892926375071209,-1.3330016334851582,1.6888756805199434e+18,2.849943359375,2.247219721476237,-9.508937199910482,-0.7434927821159363,1.6888756805199434e+18,2.849943359375,0.3208060661951701,-4.0223948160807295,2.8006643454233804,1.6888756805199434e+18,2.849943359375,0.3197879592577616,-4.017966190973918,2.8027515411376953,,,,,,,,,,,,1.6888756805159928e+18,2.84599267578125,-5.8633198738098145,50.09075927734375,-0.4660399854183197,1.6888756805159928e+18,2.84599267578125,-261.25811767578125,145.32395629882814,-133.82423706054686,1.6888756805199434e+18,2.849943359375,-0.46635502576828,0.4044921894868215,-0.4706815481185913,0.6293333172798157,0.3048107276360193,1.3291237354278564,1.03432563940684
2.85,1.6888756805718405e+18,2.901840576171874,-5.0829111735026045,4.256414890289307,0.2837165792783101,1.6888756805718405e+18,2.901840576171874,-1.3980066378911336,-4.822135845820109,-0.4251248240470885,1.6888756805718405e+18,2.901840576171874,3.662103096644083,-9.06280549367269,-0.7735548814137777,1.6888756805718405e+18,2.901840576171874,0.6004805366198221,-1.6562083959579468,2.3221532901128135,1.6888756805718405e+18,2.901840576171874,0.5994624296824137,-1.651881416638692,2.3242913087209067,,,,,,,,,,,,1.688875680565991e+18,2.89599072265625,-13.351679801940918,48.919558715820315,0.1537199944257736,1.688875680565991e+18,2.89599072265625,-268.746484375,144.1527587890625,-133.20447998046876,1.6888756805718405e+18,2.901840576171874,-0.4491236408551534,0.339694341023763,-0.4454473753770192,0.6957412362098694,0.1929986476898193,1.1819833119710286,1.0165434678395588
2.9,1.688875680623743e+18,2.953742838541667,-6.659103075663249,8.879120826721191,-2.1401975552241006,1.688875680623743e+18,2.953742838541667,-2.1006988684336343,0.1834497451782226,-2.574477752049764,1.688875680623743e+18,2.953742838541667,4.535602887471517,-8.679925918579102,-0.4989937047163645,1.688875680623743e+18,2.953742838541667,0.0505491054306427,-2.4227424462636313,1.4787519971529643,1.688875680623743e+18,2.953742838541667,0.0494800846402843,-2.418466409047445,1.480890115102132,,,,,,,,,,,,1.6888756806159918e+18,2.9459916992187503,-18.02427978515625,47.3359992980957,-0.3074400067329407,1.6888756806159918e+18,2.9459916992187503,-273.4190734863281,142.56919555664064,-133.66563720703124,1.688875680623743e+18,2.953742838541667,-0.4294824103514353,0.2831319769223531,-0.4351720114549001,0.7386051615079244,0.0970774553716182,1.0896033843358357,0.994094749291738
2.95,1.688875680675638e+18,3.0056378580729164,-1.6801576614379885,9.260425885518393,2.2860509951909385,1.688875680675638e+18,3.0056378580729164,2.997409184773763,0.610967367887497,2.3647069533665976,1.688875680675638e+18,3.0056378580729164,4.654765446980794,-8.633713404337565,0.0139424912631511,1.688875680675638e+18,3.0056378580729164,0.0369573440402746,-1.0470230200638373,-0.94307412703832,1.688875680675638e+18,3.0056378580729164,0.0358883328735828,-1.0426960711677868,-0.9409361084302268,,,,,,,,,,,,1.6888756806659948e+18,2.995994873046875,-19.507799911499024,46.94559860229492,-2.7913599491119383,1.6888756806659948e+18,2.995994873046875,-274.9025939941406,142.17879638671874,-136.14955444335936,1.688875680675638e+18,3.0056378580729164,-0.4072000980377197,0.2396314988533655,-0.4546686907609303,0.7549272775650024,-0.0180391379108186,1.07956858476003,1.0001871585845947
3.0,1.6888756807275328e+18,3.0575327962239585,1.4577178955078125,7.688731034596761,1.979647954305013,1.6888756807275328e+18,3.0575327962239585,5.168496926625569,-1.4075779716173809,1.942573149998983,1.6888756807275328e+18,3.0575327962239585,3.68797771135966,-9.08056386311849,-0.101788238932689,1.6888756807275328e+18,3.0575327962239585,-0.1671225416163603,1.2980377276738484,-2.824081023534139,1.6888756807275328e+18,3.0575327962239585,-0.1681915521621704,1.3024664719899497,-2.8219428857167563,,,,,,,,,,,,1.688875680715996e+18,3.0459958984375,-15.547679710388184,48.00699920654297,-3.013399934768677,1.688875680715996e+18,3.0459958984375,-270.94248046875,143.24019775390624,-136.37160034179686,1.6888756807275328e+18,3.0575327962239585,-0.3959602117538452,0.2695429821809132,-0.4903831581274668,0.727714995543162,0.0106396165986855,1.1880933046340942,0.9893516302108764
3.05,1.6888756807707791e+18,3.1007791748046873,8.829914331436157,-13.43046760559082,1.1467133462429049,1.6888756807707791e+18,3.1007791748046873,11.728719234466553,-22.82124710083008,1.4186447858810425,1.6888756807707791e+18,3.1007791748046873,2.8760035037994385,-9.375034809112549,0.2072180174291133,1.6888756807707791e+18,3.1007791748046873,-1.4294246435165403,-1.278999090194702,-0.5468007624149323,1.6888756807707791e+18,3.1007791748046873,-1.430493712425232,-1.2745703905820849,-0.5446627140045167,,,,,,,,,,,,1.6888756807659917e+18,3.09599169921875,-9.320799732208252,49.34655914306641,-3.8893598556518554,1.6888756807659917e+18,3.09599169921875,-264.71559448242186,144.5797607421875,-137.24755859375,1.6888756807707791e+18,3.1007791748046873,-0.3994576632976531,0.2809538841247558,-0.5251551866531372,0.6968270540237427,-0.0955817401409149,1.2743279933929443,1.1116901636123655
3.1,1.6888756808140296e+18,3.144029541015625,8.786270300547281,-6.793644269307454,-4.076228618621826,1.6888756808140296e+18,3.144029541015625,11.903096357981363,-16.09232981999715,-3.319044510523478,1.6888756808140296e+18,3.144029541015625,3.094024419784546,-9.282939275105797,0.6924705704053243,1.6888756808140296e+18,3.144029541015625,0.1633046368757883,-1.2898928845922153,0.5976298352082571,1.6888756808140296e+18,3.144029541015625,0.1623374323050181,-1.2855659152070682,0.5997169514497122,,,,,,,,,,,,1.688875680815994e+18,3.145993896484375,-9.247599792480468,48.965918731689456,-6.461119842529297,1.688875680815994e+18,3.145993896484375,-264.64239501953125,144.19911499023436,-139.8193145751953,1.6888756808140296e+18,3.144029541015625,-0.3830712139606475,0.2344134102265039,-0.5377790133158366,0.7134455243746439,-0.2444511950016021,1.243763446807861,1.161316951115926
3.15,1.6888756808659315e+18,3.195931559244792,-3.2274427016576133,-2.985256195068359,-0.1020011107126871,1.6888756808659315e+18,3.195931559244792,-0.1320040225982666,-12.305489500363668,0.4143571456273396,1.6888756808659315e+18,3.195931559244792,3.0726372400919595,-9.304488182067873,0.4516446987787882,1.6888756808659315e+18,3.195931559244792,-0.2054034620523452,1.8583029583096504,-0.6845254153013229,1.6888756808659315e+18,3.195931559244792,-0.2063706467549006,1.8626299450794856,-0.6823873942097028,,,,,,,,,,,,1.6888756808659922e+18,3.195992236328125,-9.403759574890136,49.051318359375,-5.306999969482422,1.6888756808659922e+18,3.195992236328125,-264.7985595703125,144.28451843261718,-138.66519775390626,1.6888756808659315e+18,3.195931559244792,-0.3797552386919656,0.2462788919607798,-0.5333727796872457,0.7143620649973551,-0.1709288954734802,1.251368244489034,1.1009660561879475
3.2,1.6888756809178253e+18,3.247825113932292,-7.892660299936931,-1.1485265096028645,-0.3821031699577967,1.6888756809178253e+18,3.247825113932292,-4.851248423258464,-10.49093190828959,-0.4416751538713773,1.6888756809178253e+18,3.247825113932292,3.0186105569203696,-9.32666015625,-0.1242854918042818,1.6888756809178253e+18,3.247825113932292,0.9162978480259576,3.616169532140096,-0.1262454688549041,1.6888756809178253e+18,3.247825113932292,0.9152797808249792,3.6204965114593506,-0.1241074502468109,,,,,,,,,,,,1.688875680915994e+18,3.245993896484375,-10.46515998840332,49.08059921264648,-4.155320024490356,1.688875680915994e+18,3.245993896484375,-265.8599487304688,144.3137969970703,-137.51351623535157,1.6888756809178253e+18,3.247825113932292,-0.4169176419576009,0.3066397706667582,-0.5025563339392344,0.6919110218683878,0.0196322885652383,1.2584733963012695,1.0696193774541218
3.25,1.6888756809697252e+18,3.299725504557292,0.1354246139526367,4.523935159047444,2.3175437847773233,1.6888756809697252e+18,3.299725504557292,2.356930414835612,-5.00718077023824,1.530409465233485,1.6888756809697252e+18,3.299725504557292,2.198704401652018,-9.51537068684896,-0.8518478473027548,1.6888756809697252e+18,3.299725504557292,-0.2194533348083496,3.7747400204340615,-2.0920607646306357,1.6888756809697252e+18,3.299725504557292,-0.2205223341782887,3.779066880544027,-2.0899736086527505,,,,,,,,,,,,1.6888756809659935e+18,3.295993505859375,-8.698599815368652,49.67351913452149,-0.5489999894052744,1.6888756809659935e+18,3.295993505859375,-264.09339599609376,144.9067169189453,-133.90719604492188,1.6888756809697252e+18,3.299725504557292,-0.4297360976537068,0.3844999273618062,-0.4898849129676819,0.6528381506601969,0.354073812564214,1.3307891686757405,0.8839938839276632
3.3,1.6888756810216223e+18,3.3516227213541665,-8.492557207743326,0.7207622528076172,-2.6239037116368613,1.6888756810216223e+18,3.3516227213541665,-7.887740612030029,-9.062018076578775,-3.062613526980082,1.6888756810216223e+18,3.3516227213541665,0.5820150909324487,-9.767035166422524,-0.5034232586622238,1.6888756810216223e+18,3.3516227213541665,-1.7516051928202312,4.039091904958089,-2.9595912297566733,1.6888756810216223e+18,3.3516227213541665,-1.7525723775227864,4.0434699058532715,-2.95745317141215,,,,,,,,,,,,1.6888756810159918e+18,3.34599169921875,-2.4180399239063264,50.039519500732425,-1.3151599414646626,1.6888756810159918e+18,3.34599169921875,-257.8128295898438,145.27271728515626,-134.67335815429686,1.6888756810216223e+18,3.3516227213541665,-0.4787048598130544,0.4740932683149974,-0.4949020942052205,0.5476100047429403,0.8208996653556824,1.494843324025472,0.6599844992160797
3.35,1.6888756810735155e+18,3.4035154622395836,-1.078481912612915,0.1462775866190592,-7.406649589538574,1.6888756810735155e+18,3.4035154622395836,-1.6111672520637512,-9.656435171763102,-7.624330361684163,1.6888756810735155e+18,3.4035154622395836,-0.5554868678251902,-9.786967595418297,-0.2823941732446352,1.6888756810735155e+18,3.4035154622395836,0.7119634449481964,3.0862948099772134,-1.5041029453277588,1.6888756810735155e+18,3.4035154622395836,0.7109962403774261,3.09057092666626,-1.5019649267196655,,,,,,,,,,,,1.688875681065991e+18,3.3959910156250004,3.528239941596985,49.58567886352539,-4.345639896392822,1.688875681065991e+18,3.3959910156250004,-251.8665557861328,144.81887817382812,-137.7038360595703,1.6888756810735155e+18,3.4035154622395836,-0.5017460187276205,0.5402432282765707,-0.4847630858421325,0.4699333906173706,2.8384784857432046,1.51169486840566,-1.1802858114242551
3.4,1.6888756811254223e+18,3.4554223632812495,3.6168623765309658,1.68098783493042,-2.2099832693735757,1.6888756811254223e+18,3.4554223632812495,2.418545534213384,-8.0500537554423,-2.7292136351267495,1.6888756811254223e+18,3.4554223632812495,-1.2211183309555054,-9.715296427408854,-0.5839438239733378,1.6888756811254223e+18,3.4554223632812495,0.3915646225214004,2.839047114054362,-0.9216938316822052,1.6888756811254223e+18,3.4554223632812495,0.3905974278847376,2.843475898106893,-0.919555813074112,,,,,,,,,,,,1.6888756811159913e+18,3.44599111328125,6.619719791412353,49.30507888793945,-2.886519956588745,1.6888756811159913e+18,3.44599111328125,-248.7750732421875,144.53828125,-136.24471740722657,1.6888756811254223e+18,3.4554223632812495,-0.5049711068471273,0.5947830279668173,-0.4545150498549143,0.429164191087087,2.737920125325521,1.4386931260426838,-0.9500845273335776
3.45,1.6888756811773207e+18,3.507320719401042,0.72015909353892,3.432476202646891,-1.1927203337351482,1.6888756811773207e+18,3.507320719401042,-0.7212366263071696,-6.269793669382731,-1.6386847297350566,1.6888756811773207e+18,3.507320719401042,-1.4641972382863362,-9.686524709065756,-0.5106779138247172,1.6888756811773207e+18,3.507320719401042,0.2112066627790529,2.817055940628052,-0.2081014240781466,1.6888756811773207e+18,3.507320719401042,0.210188557083408,2.8214848041534424,-0.2059634005029996,,,,,,,,,,,,1.6888756811659935e+18,3.495993310546875,7.883639812469482,49.266039276123045,-3.333039903640747,1.6888756811659935e+18,3.495993310546875,-247.5111511230469,144.49923706054688,-136.6912384033203,1.6888756811773207e+18,3.507320719401042,-0.5304791728655497,0.6328851779301962,-0.4142845968405406,0.3822503586610157,2.8442696730295816,1.4189022779464722,-0.90341587861379
3.5,1.6888756812205696e+18,3.550569580078125,0.5372505187988281,1.4275941848754885,-4.551832914352417,1.6888756812205696e+18,3.550569580078125,-1.2044871151447296,-8.232207298278809,-4.805086851119995,1.6888756812205696e+18,3.550569580078125,-1.7645391821861267,-9.64405632019043,-0.3179672211408615,1.6888756812205696e+18,3.550569580078125,-0.6209445297718048,1.1958450973033905,-0.9854783713817596,1.6888756812205696e+18,3.550569580078125,-0.6219371855258942,1.2001975178718567,-0.9834930598735808,,,,,,,,,,,,1.6888756812159923e+18,3.54599228515625,8.134959697723389,49.11963882446289,-4.218759918212891,1.6888756812159923e+18,3.54599228515625,-247.2598388671875,144.35283508300782,-137.57695617675782,1.6888756812205696e+18,3.550569580078125,-0.5378936529159546,0.6517401933670044,-0.4030061215162277,0.3513493537902832,3.000350832939148,1.3935811519622805,-0.988998919725418
3.55,1.6888756812638177e+18,3.5938177897135417,1.417175054550171,-0.0302934646606445,-7.782220681508382,1.6888756812638177e+18,3.5938177897135417,-0.6478567079951366,-9.630911827087402,-7.749156316121419,1.6888756812638177e+18,3.5938177897135417,-2.0878332455952964,-9.58487319946289,-0.0316489810744921,1.6888756812638177e+18,3.5938177897135417,-0.5575672487417856,0.2668972015380859,-0.356287161509196,1.6888756812638177e+18,3.5938177897135417,-0.5585853556791941,0.2713259756565093,-0.3542000452677409,,,,,,,,,,,,1.688875681265992e+18,3.595991845703125,10.12599983215332,48.50475921630859,-5.536359977722168,1.688875681265992e+18,3.595991845703125,-245.268798828125,143.7379577636719,-138.8945556640625,1.6888756812638177e+18,3.5938177897135417,-0.5349371830622355,0.6575782497723898,-0.4135136405626933,0.332298735777537,-1.021600087483724,1.3622714678446453,-1.1433871984481812
3.6,1.688875681315716e+18,3.645716145833333,2.5489639043807983,-1.1565383275349934,-8.479817708333334,1.688875681315716e+18,3.645716145833333,0.707477887471517,-10.79641596476237,-8.698109785715738,1.688875681315716e+18,3.645716145833333,-1.8642873764038088,-9.62413247426351,-0.2830057336638371,1.688875681315716e+18,3.645716145833333,1.0985393524169922,-0.6363688558340072,0.7144578297932943,1.688875681315716e+18,3.645716145833333,1.097572108109792,-0.6320418963829676,0.7165958484013876,,,,,,,,,,,,1.688875681315994e+18,3.64599384765625,9.513559913635254,48.66579971313477,-4.460319852828979,1.688875681315994e+18,3.64599384765625,-245.88123779296876,143.8989990234375,-137.81851501464843,1.688875681315716e+18,3.645716145833333,-0.5348029732704163,0.6521318753560384,-0.4080141683419545,0.349379042784373,0.9379258950551352,1.3837480942408245,-1.026664932568868
3.65,1.6888756813676106e+18,3.6976108398437497,-0.8007851839065552,-3.806944529215494,-3.96535849571228,1.6888756813676106e+18,3.6976108398437497,-1.5565311113993328,-13.54118283589681,-4.846263408660889,1.6888756813676106e+18,3.6976108398437497,-0.7785474608341852,-9.718493143717447,-0.9456183513005576,1.6888756813676106e+18,3.6976108398437497,1.177493671576182,-1.1024081259965897,3.177262862523397,1.6888756813676106e+18,3.6976108398437497,1.1764755646387737,-1.0980302790800731,3.1792990366617837,,,,,,,,,,,,1.688875681365991e+18,3.695990966796875,4.9068399429321286,49.36852035522461,-1.5835599541664125,1.688875681365991e+18,3.695990966796875,-250.48795471191409,144.60172119140626,-134.94175720214844,1.6888756813676106e+18,3.6976108398437497,-0.5428844094276428,0.6202209790547689,-0.3892926772435505,0.4102077484130859,2.2219781080881753,1.4465388456980388,-0.2847937842210133
3.7,1.6888756814195128e+18,3.749512858072917,-6.04230797290802,-8.253690719604492,-5.20979905128479,1.6888756814195128e+18,3.749512858072917,-5.2735817432403564,-17.825332641601562,-7.179664293924968,1.6888756814195128e+18,3.749512858072917,0.7459246516227722,-9.555896759033203,-2.0345786015192666,1.6888756814195128e+18,3.749512858072917,2.4797056516011557,-2.8914798498153687,2.1231130361557,1.6888756814195128e+18,3.749512858072917,2.478687524795532,-2.8871527910232544,2.125251134236654,,,,,,,,,,,,1.6888756814159956e+18,3.7459956054687504,-3.2403198957443236,49.2635986328125,3.9088798999786376,1.6888756814159956e+18,3.7459956054687504,-258.63511352539064,144.49679565429688,-129.44931335449218,1.6888756814195128e+18,3.749512858072917,-0.5420607725779215,0.5801697174708048,-0.3496350248654682,0.496136337518692,1.1950674454371135,1.355613907178243,0.6547386447588602
3.75,1.6888756814714074e+18,3.801407470703125,-5.895006815592448,-12.817556063334148,2.407297213872274,1.6888756814714074e+18,3.801407470703125,-3.61575452486674,-22.1230411529541,0.3198406100273132,1.6888756814714074e+18,3.801407470703125,2.256450970967611,-9.289739926656088,-2.152170022328695,1.6888756814714074e+18,3.801407470703125,-0.3708461125691732,-4.156581560770671,2.164091944694519,1.6888756814714074e+18,3.801407470703125,-0.3719151218732198,-4.152305603027344,2.1662299633026123,,,,,,,,,,,,1.6888756814659922e+18,3.7959921875,-10.108919906616212,48.02163925170898,6.256159973144531,1.6888756814659922e+18,3.7959921875,-265.5037109375,143.2548370361328,-127.10203552246094,1.6888756814714074e+18,3.801407470703125,-0.5271144906679789,0.5034986933072408,-0.3588102062543233,0.5820218920707703,0.7302761673927307,1.2498730818430583,0.9314813017845154
3.8,1.6888756815233093e+18,3.8533091634114585,0.4230163097381594,-0.1755183537801107,-0.4064981937408447,1.6888756815233093e+18,3.8533091634114585,4.13260414203008,-9.17029349009196,-1.6875381469726562,1.6888756815233093e+18,3.8533091634114585,3.686786413192749,-8.979029973347982,-1.3457534710566204,1.6888756815233093e+18,3.8533091634114585,0.7926994462807974,-4.889365355173747,2.3873122533162436,1.6888756815233093e+18,3.8533091634114585,0.791732261578242,-4.884987433751424,2.389450271924337,,,,,,,,,,,,1.6888756815159956e+18,3.8459958007812505,-15.684319877624512,46.98951873779297,2.486359930038452,1.6888756815159956e+18,3.8459958007812505,-271.07911376953126,142.22271728515625,-130.87183837890626,1.6888756815233093e+18,3.8533091634114585,-0.4926560421784718,0.3893891274929046,-0.3994661072889964,0.666871706644694,0.3248868584632873,1.162358323733012,1.057037353515625
3.85,1.688875681575204e+18,3.905204182942708,-10.764400959014893,9.42434803644816,-0.6732155084609985,1.688875681575204e+18,3.905204182942708,-6.001598000526428,0.8915257652600607,-1.6883357365926106,1.688875681575204e+18,3.905204182942708,4.740001519521077,-8.517077128092447,-1.079833706219991,1.688875681575204e+18,3.905204182942708,0.8576039026180903,-3.52611780166626,1.2892311016718545,1.688875681575204e+18,3.905204182942708,0.8565348883469898,-3.521739959716797,1.291369120279948,,,,,,,,,,,,1.6888756815659904e+18,3.89599033203125,-21.16699981689453,44.803279113769534,1.42739999294281,1.6888756815659904e+18,3.89599033203125,-276.56178588867186,140.0364776611328,-131.93079528808593,1.688875681575204e+18,3.905204182942708,-0.4500952164332072,0.3128094275792439,-0.4013246993223826,0.7332848111788431,0.2000168611605961,1.0570929050445557,0.9837778210639954
3.9,1.6888756816271022e+18,3.957102294921875,-7.812582015991211,12.627768516540527,0.9831900000572203,1.6888756816271022e+18,3.957102294921875,-2.5710880160331726,4.318845311800639,1.222732345263163,1.6888756816271022e+18,3.957102294921875,5.218692461649577,-8.29317824045817,0.1748289217551549,1.6888756816271022e+18,3.957102294921875,-1.0442232092221575,-3.972304026285807,0.4153883854548136,1.6888756816271022e+18,3.957102294921875,-1.0452413360277812,-3.9680279890696206,0.4174755116303761,,,,,,,,,,,,1.6888756816159928e+18,3.9459928710937495,-23.807079696655272,43.456399536132814,-1.7421599626541138,1.6888756816159928e+18,3.9459928710937495,-279.2018737792969,138.6895965576172,-135.10035705566406,1.6888756816271022e+18,3.957102294921875,-0.4149986406167348,0.2151042620340982,-0.4349375069141388,0.7690543333689371,-0.056455531467994,1.0120342175165813,1.0207106471061709
3.95,1.6888756816703534e+18,4.000353393554687,-2.0870230197906494,6.970644950866699,4.433431386947632,1.6888756816703534e+18,4.000353393554687,2.7849465012550354,-1.5137593895196917,5.480760097503662,1.6888756816703534e+18,4.000353393554687,4.849168062210083,-8.468659400939941,0.9826152622699738,1.6888756816703534e+18,4.000353393554687,0.0209221243858337,-1.2513574659824371,-1.9372064471244812,1.6888756816703534e+18,4.000353393554687,0.0199294835329056,-1.2470813989639282,-1.9350683093070984,,,,,,,,,,,,1.6888756816659953e+18,3.9959951171875,-22.31379928588867,43.424679565429685,-7.43223991394043,1.6888756816659953e+18,3.9959951171875,-277.70859375,138.65787658691406,-140.79043884277343,1.6888756816703534e+18,4.000353393554687,-0.396497830748558,0.1732644662261008,-0.4747869670391083,0.7663154900074005,-0.223461978137493,1.0454537868499756,1.084235966205597
4.0,1.6888756817136005e+18,4.043600667317708,2.739326000213623,2.186481316884359,-0.2200981577237446,1.6888756817136005e+18,4.043600667317708,6.543971220652263,-6.851847489674886,0.3401796321074168,1.6888756817136005e+18,4.043600667317708,3.781843821207682,-9.022583643595375,0.4955643067757289,1.6888756817136005e+18,4.043600667317708,1.6537649631500244,0.8240572015444437,-3.0883310635884604,1.6888756817136005e+18,4.043600667317708,1.6527976989746094,0.8285368879636129,-3.086193005243937,,,,,,,,,,,,1.6888756817159898e+18,4.045989697265625,-16.557840156555176,45.60359954833984,-5.853559875488282,1.6888756817159898e+18,4.045989697265625,-271.95263671875,140.83679809570313,-139.21175842285157,1.6888756817136005e+18,4.043600667317708,-0.3720819155375163,0.2158154249191284,-0.5125830471515656,0.7426212231318156,-0.1522080078721046,1.174244403839111,1.0281858642896016
4.05,1.6888756817655017e+18,4.09550146484375,13.4037815729777,-13.64910634358724,-3.363102992375692,1.6888756817655017e+18,4.09550146484375,16.52204195658366,-22.969103177388508,-3.1280173858006797,1.6888756817655017e+18,4.09550146484375,3.095458189646403,-9.304251988728842,0.1703720837831497,1.6888756817655017e+18,4.09550146484375,-0.3194316029548645,-2.0041979352633157,-0.1342376470565796,1.6888756817655017e+18,4.09550146484375,-0.3204497496287028,-1.9997691810131073,-0.1320996185143788,,,,,,,,,,,,1.6888756817659932e+18,4.09599326171875,-10.82383975982666,46.93339920043945,-2.757200002670288,1.6888756817659932e+18,4.09599326171875,-266.2186340332031,142.16659545898438,-136.1153991699219,1.6888756817655017e+18,4.09550146484375,-0.337812215089798,0.2292586714029311,-0.5407204826672872,0.7351828614870707,-0.0899377657721439,1.2540188630421956,0.926372528076172
4.1,1.6888756818174e+18,4.147399983723958,-0.1533331871032709,0.8715205192565918,1.7874248027801514,1.6888756818174e+18,4.147399983723958,3.1882365544637037,-8.369295914967855,2.145763715108236,1.6888756818174e+18,4.147399983723958,3.3187684218088784,-9.225071271260578,0.2936254565914472,1.6888756818174e+18,4.147399983723958,0.5590435167153677,1.0946195721626282,0.4644102901220321,1.6888756818174e+18,4.147399983723958,0.5580253899097443,1.0990483959515889,0.4665483434995015,,,,,,,,,,,,1.6888756818159928e+18,4.145992675781249,-11.780319595336914,46.4453987121582,-3.057319927215576,1.6888756818159928e+18,4.145992675781249,-267.17511596679685,141.67859802246093,-136.41551818847657,1.6888756818174e+18,4.147399983723958,-0.3234149714310964,0.2059800326824188,-0.540105402469635,0.7490720947583517,-0.1227214162548382,1.2297455072402954,0.9020247260729471
4.15,1.6888756818692974e+18,4.19929736328125,-11.64726416269938,-6.75562063852946,3.5980796813964844,1.6888756818692974e+18,4.19929736328125,-8.296713749567667,-15.982659022013346,4.14038070042928,1.6888756818692974e+18,4.19929736328125,3.327748934427897,-9.21129322052002,0.4775875359773636,1.6888756818692974e+18,4.19929736328125,-2.393166422843933,2.462652325630188,-0.6783658266067505,1.6888756818692974e+18,4.19929736328125,-2.3941336075464883,2.4671319325764975,-0.6762278079986572,,,,,,,,,,,,1.688875681865993e+18,4.19599306640625,-13.659119606018066,46.00863876342773,-3.723439884185791,1.688875681865993e+18,4.19599306640625,-269.0539184570313,141.24183654785156,-137.08163757324218,1.6888756818692974e+18,4.19929736328125,-0.3820083638032277,0.2373765707015991,-0.5256134470303854,0.7217434446016947,-0.176791563630104,1.2227981487909954,1.0985548496246338
4.2,1.688875681921191e+18,4.251190511067708,-4.114786267280579,1.076013724009196,-2.9875401655832925,1.688875681921191e+18,4.251190511067708,-2.1080767711003623,-8.520642121632894,-2.6923242807388306,1.688875681921191e+18,4.251190511067708,1.98390789826711,-9.580910682678224,0.230502317349116,1.688875681921191e+18,4.251190511067708,1.375719428062439,4.80267333984375,-3.783444801966349,1.688875681921191e+18,4.251190511067708,1.3746504584948225,4.807102203369141,-3.781306743621826,,,,,,,,,,,,1.6888756819159918e+18,4.245991845703125,-8.220359802246094,46.847999572753906,-3.9796399116516112,1.6888756819159918e+18,4.245991845703125,-263.6151611328125,142.0811981201172,-137.33783874511718,1.688875681921191e+18,4.251190511067708,-0.4082899292310079,0.314959039290746,-0.5469038685162863,0.6576160192489624,-0.1206939369440078,1.3638077974319458,1.2019545634587605
4.25,1.688875681973091e+18,4.303090901692708,-6.892553329467773,3.998058478037516,-6.749710877736409,1.688875681973091e+18,4.303090901692708,-6.423931280771892,-5.779863198598226,-7.503891785939534,1.688875681973091e+18,4.303090901692708,0.4458207786083221,-9.762176513671877,-0.8188944856325785,1.688875681973091e+18,4.303090901692708,0.2690861572821935,5.325675964355469,-1.5483397841453552,1.688875681973091e+18,4.303090901692708,0.2681698600451151,5.33010466893514,-1.546201725800832,,,,,,,,,,,,1.6888756819659912e+18,4.2959910644531245,-0.6173200011253357,47.57755889892578,0.954039978981018,1.6888756819659912e+18,4.2959910644531245,-256.0121154785156,142.81075439453124,-132.40415954589844,1.688875681973091e+18,4.303090901692708,-0.4370712637901306,0.4559127986431122,-0.5182082653045654,0.5755567153294882,1.0302864909172058,1.4832463661829631,0.339054728547732
4.3,1.6888756820249828e+18,4.354982991536459,-0.4442029297351837,1.5753451983133953,-4.547991434733073,1.6888756820249828e+18,4.354982991536459,-0.5549354578057925,-8.222935199737549,-5.180461088816325,1.6888756820249828e+18,4.354982991536459,-0.1335340415438016,-9.782535235087076,-0.6971833308537801,1.6888756820249828e+18,4.354982991536459,0.0484619935353597,2.6557366847991943,-0.9408342937628428,1.6888756820249828e+18,4.354982991536459,0.0475456913312276,2.6601653893788657,-0.9386962751547496,,,,,,,,,,,,1.6888756820159885e+18,4.345988623046875,2.2423599481582643,47.63611831665039,0.3684399843215942,1.6888756820159885e+18,4.345988623046875,-253.1524353027344,142.86931762695312,-132.98975524902343,1.6888756820249828e+18,4.354982991536459,-0.4764028290907542,0.510818342367808,-0.4941965341567993,0.5172714193662008,1.71841557820638,1.5103365977605183,-0.171876403192679
4.35,1.688875682076892e+18,4.406891845703125,1.4656874338785808,2.1873151461283364,-1.9440582593282063,1.688875682076892e+18,4.406891845703125,0.5830511053403219,-7.546763261159261,-2.8426733016967773,1.688875682076892e+18,4.406891845703125,-0.9054378668467205,-9.71833324432373,-0.9633285204569498,1.688875682076892e+18,4.406891845703125,0.6407976349194845,2.705878575642904,-1.2089532017707825,1.688875682076892e+18,4.406891845703125,0.639779527982076,2.710358142852783,-1.2068151831626892,,,,,,,,,,,,1.68887568206599e+18,4.395990234375001,5.148399829864502,47.21643905639648,1.1687599539756774,1.68887568206599e+18,4.395990234375001,-250.2463928222656,142.44963684082032,-132.18943786621094,1.688875682076892e+18,4.406891845703125,-0.4781290392080943,0.5640748341878256,-0.4746999740600586,0.4769572118918101,2.3659372329711914,1.4489049116770427,-0.7043591936429342
4.4,1.6888756821201403e+18,4.450140502929687,2.0774452686309814,2.3211872577667236,-0.7297453284263611,1.6888756821201403e+18,4.450140502929687,0.8659026920795441,-7.3695948123931885,-1.7165511846542358,1.6888756821201403e+18,4.450140502929687,-1.2343440651893616,-9.675036907196048,-1.0515193343162537,1.6888756821201403e+18,4.450140502929687,0.4302782118320465,2.947959303855896,-0.0486401449888945,1.6888756821201403e+18,4.450140502929687,0.4292855560779571,2.952464461326599,-0.0465021152049303,,,,,,,,,,,,1.6888756821159928e+18,4.4459927734375,7.732359886169434,46.64303894042969,1.7153199195861817,1.6888756821159928e+18,4.4459927734375,-247.6624328613281,141.87623901367186,-131.64287719726562,1.6888756821201403e+18,4.450140502929687,-0.4914801716804504,0.5989288687705994,-0.4482526630163193,0.4457277208566665,2.478458285331726,1.4186477065086365,-0.7103291451931
4.45,1.6888756821633856e+18,4.493385579427083,-0.1221831639607747,1.852745056152344,-2.125699043273926,1.6888756821633856e+18,4.493385579427083,-1.4871392846107483,-7.824330647786458,-3.0390841960906982,1.6888756821633856e+18,4.493385579427083,-1.3877575794855754,-9.661330540974935,-0.9780986507733664,1.6888756821633856e+18,4.493385579427083,-0.1729257702827453,2.359823306401571,-0.2378302042682964,1.6888756821633856e+18,4.493385579427083,-0.1739438821872075,2.3642520904541016,-0.2356921726216872,,,,,,,,,,,,1.68887568216599e+18,4.49599013671875,8.337479782104491,46.72844009399414,1.549399971961975,1.68887568216599e+18,4.49599013671875,-247.0573181152344,141.96163635253907,-131.8087951660156,1.6888756821633856e+18,4.493385579427083,-0.5101653933525085,0.6227361957232157,-0.4229281147321065,0.4157482286294301,2.567545016606649,1.4108651479085286,-0.700467069943746
4.5,1.6888756822152845e+18,4.545284423828125,1.0520736773808796,-0.0151389439900716,-4.723521550496419,1.6888756822152845e+18,4.545284423828125,-0.6534400085608164,-9.673583984375,-5.144967555999756,1.6888756822152845e+18,4.545284423828125,-1.7283151944478352,-9.64269987742106,-0.4861593743165334,1.6888756822152845e+18,4.545284423828125,-0.9071348905563354,1.5999578634897869,-0.5073235854506493,1.6888756822152845e+18,4.545284423828125,-0.9081020951271056,1.6043866872787476,-0.5051855618755022,,,,,,,,,,,,1.688875682215994e+18,4.545993994140625,10.287039756774902,46.045240020751955,-0.7954399555921554,1.688875682215994e+18,4.545993994140625,-245.10775756835935,141.2784393310547,-134.1536376953125,1.6888756822152845e+18,4.545284423828125,-0.5264153083165487,0.6387115518252054,-0.4187487761179605,0.3734589119752248,2.9253388245900473,1.398569067319234,-0.978005071481069
4.55,1.6888756822671862e+18,4.597186197916667,0.9931039412816366,0.2788721720377604,-10.585657755533854,1.6888756822671862e+18,4.597186197916667,-0.6476573944091797,-9.400602340698242,-10.778868675231934,1.6888756822671862e+18,4.597186197916667,-1.6635627349217732,-9.663729349772137,-0.2579240798950195,1.6888756822671862e+18,4.597186197916667,0.2994257807731628,-0.019853115081787,0.356338071792076,1.6888756822671862e+18,4.597186197916667,0.2984585960706075,-0.0153734385967254,0.3584760936597983,,,,,,,,,,,,1.6888756822659886e+18,4.595988623046876,9.506239700317384,45.996439361572264,-2.8645598888397217,1.6888756822659886e+18,4.595988623046876,-245.8885528564453,141.229638671875,-136.2227569580078,1.6888756822671862e+18,4.597186197916667,-0.5342985590298971,0.6320684353510538,-0.4241344034671783,0.3675347169240315,3.068994919459025,1.4104969104131062,-1.1200414896011353
4.6,1.6888756823190835e+18,4.64908349609375,-0.9477238655090332,-1.205437183380127,-8.993625005086264,1.6888756823190835e+18,4.64908349609375,-2.1501505176226297,-10.899506409962973,-9.904490947723389,1.6888756823190835e+18,4.64908349609375,-1.2252281705538433,-9.678324063618978,-0.9755795001983644,1.6888756823190835e+18,4.64908349609375,1.34588885307312,-1.4260648886362712,1.4904093941052754,1.6888756823190835e+18,4.64908349609375,1.344921628634135,-1.421585222085317,1.4925474127133689,,,,,,,,,,,,1.688875682315996e+18,4.6459960449218745,9.06703977584839,46.11599960327148,-0.4928799986839294,1.688875682315996e+18,4.6459960449218745,-246.3277587890625,141.3492004394531,-133.8510772705078,1.6888756823190835e+18,4.64908349609375,-0.5233693321545919,0.6233471035957336,-0.4101895093917846,0.4108582039674123,2.499444564183553,1.4260356426239014,-0.6006083885828654
4.65,1.6888756823709798e+18,4.700979899088542,-3.3988022804260254,-7.83350658416748,-3.080006202061971,1.6888756823709798e+18,4.700979899088542,-3.394019603729248,-17.455242156982422,-4.946363131205241,1.6888756823709798e+18,4.700979899088542,-0.0180187808970609,-9.605990409851074,-1.9310704072316487,1.6888756823709798e+18,4.700979899088542,2.0872247219085693,-2.897792021433512,2.182061513264974,1.6888756823709798e+18,4.700979899088542,2.086308479309082,-2.8933632373809814,2.184199651082357,,,,,,,,,,,,1.68887568236599e+18,4.6959900878906256,4.013799881935119,46.755279541015625,4.3236799240112305,1.68887568236599e+18,4.6959900878906256,-251.38099670410156,141.9884765625,-129.03451843261718,1.6888756823709798e+18,4.700979899088542,-0.5043570001920065,0.5814482768376669,-0.3974105020364125,0.4985473255316416,1.5636193752288818,1.3877081871032717,0.1981202295670906
4.7,1.688875682422882e+18,4.752881998697917,-4.235528945922852,-12.518577575683594,-0.4213265577952067,1.688875682422882e+18,4.752881998697917,-2.6707888394594193,-21.865214665730793,-2.924428125222524,1.688875682422882e+18,4.752881998697917,1.5419387022654216,-9.330891927083334,-2.567815065383911,1.688875682422882e+18,4.752881998697917,0.6138686736424763,-1.6661349932352705,2.905835072199503,1.688875682422882e+18,4.752881998697917,0.612850546836853,-1.6616552869478862,2.907973051071167,,,,,,,,,,,,1.688875682415999e+18,4.745998974609376,-2.1057199597358705,46.342919158935544,7.8885198593139645,1.688875682415999e+18,4.745998974609376,-257.5005157470703,141.57611999511718,-125.46967926025393,1.688875682422882e+18,4.752881998697917,-0.4928326408068339,0.5258326729138693,-0.3753758668899536,0.5823768178621928,0.9848381082216898,1.2712375720342,0.6475448409716288
4.75,1.6888756824747745e+18,4.804774576822917,-4.289759635925293,-2.672417322794596,0.0526330471038818,1.6888756824747745e+18,4.804774576822917,-1.3094721635182698,-11.762916564941406,-2.108076738193631,1.6888756824747745e+18,4.804774576822917,2.9574859142303467,-9.074754079182943,-2.225423256556193,1.6888756824747745e+18,4.804774576822917,0.9078984558582306,-6.279236475626628,1.454164703687032,1.6888756824747745e+18,4.804774576822917,0.9069312512874604,-6.274807771046956,1.4563027620315552,,,,,,,,,,,,1.6888756824659958e+18,4.795995800781251,-8.220359706878662,45.79391937255859,7.1589599609375,1.6888756824659958e+18,4.795995800781251,-263.6151489257812,141.02711791992186,-126.19923858642578,1.6888756824747745e+18,4.804774576822917,-0.4577413101991017,0.4318666656812032,-0.3998472193876902,0.6643478075663248,0.6012594203154246,1.1923693021138508,0.7910564343134562
4.8,1.688875682526678e+18,4.856678059895834,-6.210594813028972,5.455331961313884,1.5090315739313762,1.688875682526678e+18,4.856678059895834,-1.9012970129648843,-3.181457062562307,-0.2811566640933354,1.688875682526678e+18,4.856678059895834,4.28649640083313,-8.621043841044107,-1.8549017111460369,1.688875682526678e+18,4.856678059895834,0.9409869710604348,-3.7289250691731777,1.7249306837717693,1.688875682526678e+18,4.856678059895834,0.9400707085927328,-3.724445343017578,1.7270687421162922,,,,,,,,,,,,1.6888756825159918e+18,4.84599169921875,-13.715239715576171,44.8593994140625,5.951159954071045,1.6888756825159918e+18,4.84599169921875,-269.1100341796875,140.09259948730468,-127.40703735351562,1.688875682526678e+18,4.856678059895834,-0.3987282117207845,0.3336451152960459,-0.4130901495615641,0.7471424341201782,0.3713091711203257,1.0846273104349773,0.754665195941925
4.85,1.6888756825699264e+18,4.8999263916015625,-9.334599494934082,9.802487850189207,2.533026099205017,1.6888756825699264e+18,4.8999263916015625,-4.33699107170105,1.4452648162841797,1.2272189259529114,1.6888756825699264e+18,4.8999263916015625,4.974806547164917,-8.341477870941162,-1.3705207109451294,1.6888756825699264e+18,4.8999263916015625,0.3714824169874191,-3.3757177591323853,1.105666100978851,1.6888756825699264e+18,4.8999263916015625,0.370566114783287,-3.3712124824523926,1.1078041195869446,,,,,,,,,,,,1.688875682565992e+18,4.895991845703125,-17.450879287719726,43.94439926147461,4.294399929046631,1.688875682565992e+18,4.895991845703125,-272.8456787109375,139.17760009765624,-129.0637969970703,1.6888756825699264e+18,4.8999263916015625,-0.3606007248163223,0.2687765806913376,-0.4196755290031433,0.7882508933544159,0.2363441064953803,1.0268986225128174,0.7242901027202606
4.9,1.6888756826131753e+18,4.9431752115885415,-5.55771001180013,11.20686181386312,1.908514698346456,1.6888756826131753e+18,4.9431752115885415,-0.3118645350138345,2.917648355166117,1.3030913521846137,1.6888756826131753e+18,4.9431752115885415,5.223044077555339,-8.273468335469564,-0.6701368391513824,1.6888756826131753e+18,4.9431752115885415,-0.1764891445636748,-2.7460428873697915,-0.2824742595354716,1.6888756826131753e+18,4.9431752115885415,-0.1774054455260435,-2.7416141033172607,-0.2803362359603246,,,,,,,,,,,,1.6888756826159908e+18,4.9459908691406245,-18.88071975708008,43.57107849121094,1.8055999271571637,1.6888756826159908e+18,4.9459908691406245,-274.2755187988281,138.8042755126953,-131.55259704589844,1.6888756826131753e+18,4.9431752115885415,-0.3283941845099131,0.2093273550271987,-0.4392193555831909,0.8093031644821167,0.0951918909947077,1.0136775970458984,0.7181976238886515
4.95,1.688875682665073e+18,4.9950729166666665,-0.2141853968302408,6.6017500559488935,2.893886089324951,1.688875682665073e+18,4.9950729166666665,4.3242293993632,-2.1016958554585776,2.530609409014384,1.688875682665073e+18,4.9950729166666665,4.515613396962483,-8.687700907389322,-0.427990178267161,1.688875682665073e+18,4.9950729166666665,0.5805255969365438,0.4636976321538289,-2.752355138460795,1.688875682665073e+18,4.9950729166666665,0.5795583923657736,0.4681264162063598,-2.7502171993255615,,,,,,,,,,,,1.6888756826659914e+18,4.995991357421875,-14.23251953125,45.591399383544925,0.7905600070953369,1.6888756826659914e+18,4.995991357421875,-269.6273193359375,140.82460021972656,-132.56763916015626,1.688875682665073e+18,4.9950729166666665,-0.2998051941394806,0.1987380733092625,-0.483647068341573,0.7976330121358236,0.0624145989616711,1.0996278921763103,0.6796927452087402
5.0,1.688875682716973e+18,5.046972981770833,9.771732330322266,-10.112476666768393,-2.344129661719004,1.688875682716973e+18,5.046972981770833,13.306686401367188,-19.26700782775879,-2.8344978696356216,1.688875682716973e+18,5.046972981770833,3.512152115503947,-9.138785044352211,-0.5550816605488459,1.688875682716973e+18,5.046972981770833,-0.33500870068868,-2.034181316693624,-0.6832018891970316,1.688875682716973e+18,5.046972981770833,-0.3359249730904896,-2.029752492904663,-0.6810637811819712,,,,,,,,,,,,1.688875682715996e+18,5.0459958984375,-7.398079776763916,47.35063934326172,1.7128799557685852,1.688875682715996e+18,5.0459958984375,-262.79287109375,142.583837890625,-131.64531555175782,1.688875682716973e+18,5.046972981770833,-0.2752237121264139,0.2138170401255289,-0.528272787729899,0.7738053599993387,0.1151004160443941,1.210525353749593,0.6034403045972189
5.05,1.6888756827688673e+18,5.098867187500001,7.578013737996419,-4.571742693583171,-2.407622496287028,1.6888756827688673e+18,5.098867187500001,11.377273162206016,-13.639686663945517,-2.434098958969116,1.6888756827688673e+18,5.098867187500001,3.776457945505778,-9.05219841003418,-0.0911898625393708,1.6888756827688673e+18,5.098867187500001,0.7234171579281489,-0.8082765117287636,0.3319034452239672,1.6888756827688673e+18,5.098867187500001,0.7225008805592855,-0.8037459701299667,0.3340414687991142,,,,,,,,,,,,1.6888756827659873e+18,5.0959872558593755,-7.3590398788452145,47.63611907958985,-0.0024400010704994,1.6888756827659873e+18,5.0959872558593755,-262.75383911132815,142.86931762695312,-133.3606384277344,1.6888756827688673e+18,5.098867187500001,-0.2399440656105677,0.1581190476814905,-0.5367409388224283,0.7932555079460144,-0.018737685556213,1.1873824993769329,0.6003553668657938
5.1,1.688875682820762e+18,5.150761881510417,-12.46397852897644,-7.341932932535808,-2.5860955715179443,1.688875682820762e+18,5.150761881510417,-8.741379896799723,-16.439488728841145,-2.7210381428400674,1.688875682820762e+18,5.150761881510417,3.699796676635742,-9.08181063334147,-0.1996560096740722,1.688875682820762e+18,5.150761881510417,-1.7040086140235264,2.5523476898670197,-0.311184952656428,1.688875682820762e+18,5.150761881510417,-1.7049248764912288,2.556776523590088,-0.3090468943119049,,,,,,,,,,,,1.6888756828159877e+18,5.145987548828125,-7.459079933166504,48.22171936035157,-0.0927199900150299,1.6888756828159877e+18,5.145987548828125,-262.8538818359375,143.45491943359374,-133.45092163085937,1.688875682820762e+18,5.150761881510417,-0.2544451852639516,0.1755928496519724,-0.534453829129537,0.7860182325045267,0.0096540966381629,1.194971203804016,0.619975725809733
5.15,1.688875682872662e+18,5.202662109375,-4.389047304789225,1.1853084564208984,2.8088136514027915,1.688875682872662e+18,5.202662109375,-0.9579268296559644,-8.012565930684408,2.4087747732798257,1.688875682872662e+18,5.202662109375,3.4083189169565835,-9.18212922414144,-0.4647524108489354,1.688875682872662e+18,5.202662109375,0.9004662819206715,2.5205318927764893,-0.7432193756103516,1.688875682872662e+18,5.202662109375,0.8995499809583029,2.5250114599863687,-0.7410813470681509,,,,,,,,,,,,1.6888756828659912e+18,5.195991259765625,-7.771399974822998,48.494998168945315,-2.4399999618530273,1.6888756828659912e+18,5.195991259765625,-263.1661865234375,143.7281951904297,-135.79819946289064,1.688875682872662e+18,5.202662109375,-0.3031852046648661,0.2298944989840189,-0.5258419911066691,0.7605045636494955,0.0923136208827297,1.2204629182815552,0.6933992902437845
5.2,1.6888756829245637e+18,5.254563395182291,-7.605770667394002,1.549794356028239,1.4839592576026917,1.6888756829245637e+18,5.254563395182291,-5.2307101885477705,-7.877371311187744,0.200797696908315,1.6888756829245637e+18,5.254563395182291,2.352259357770284,-9.411420504252115,-1.3478750387827556,1.6888756829245637e+18,5.254563395182291,-0.7719300389289856,6.935866038004558,-2.43613064289093,1.6888756829245637e+18,5.254563395182291,-0.7728972633679708,6.9402947425842285,-2.4340434471766152,,,,,,,,,,,,1.688875682915996e+18,5.2459958984375,-5.653479766845703,49.0757194519043,-0.3611199960112571,1.688875682915996e+18,5.2459958984375,-261.04827270507815,144.3089172363281,-133.7193145751953,1.6888756829245637e+18,5.254563395182291,-0.3509912888209025,0.3429455856482188,-0.5119260946909586,0.702834407488505,0.4890219171841939,1.298901637395223,0.5487015247344971
5.25,1.6888756829764608e+18,5.306460611979166,-6.2874884605407715,0.4182264010111491,-5.712467193603516,1.6888756829764608e+18,5.306460611979166,-5.5738809903462725,-9.335996468861898,-6.5238315264383955,1.6888756829764608e+18,5.306460611979166,0.6908060808976492,-9.73847770690918,-0.8760776321093241,1.6888756829764608e+18,5.306460611979166,-2.0500128269195557,2.5017476876576743,-2.0632482767105103,1.6888756829764608e+18,5.306460611979166,-2.050980051358541,2.506176471710205,-2.0611102183659873,,,,,,,,,,,,1.688875682965992e+18,5.295991748046875,0.6856399655342101,49.19771881103516,-2.818199896812439,1.688875682965992e+18,5.295991748046875,-254.7091552734375,144.43092041015626,-136.17639770507813,1.6888756829764608e+18,5.306460611979166,-0.4102645913759867,0.4215484062830607,-0.5349796414375305,0.6059570908546448,0.7811567982037863,1.469067891438802,0.4787457585334778
5.3,1.688875683019712e+18,5.3497117919921875,1.719956435263157,2.703484535217285,-7.961273431777954,1.688875683019712e+18,5.3497117919921875,1.6411771774291992,-7.100102901458741,-8.515756845474243,1.688875683019712e+18,5.3497117919921875,-0.101580761373043,-9.787842273712158,-0.6191967129707336,1.688875683019712e+18,5.3497117919921875,0.4769330471754074,1.8576412200927737,-1.953470766544342,1.688875683019712e+18,5.3497117919921875,0.4760167449712753,1.8620699644088743,-1.951332688331604,,,,,,,,,,,,1.6888756830159972e+18,5.345997216796875,5.441199827194214,48.72679901123047,-6.705119800567627,1.6888756830159972e+18,5.345997216796875,-249.9535949707031,143.96000061035156,-140.06332092285157,1.688875683019712e+18,5.3497117919921875,-0.4234617501497268,0.4508677870035171,-0.5480254590511322,0.5629501342773438,1.659298837184906,1.5233390927314758,-0.3257787488400936
5.35,1.688875683062963e+18,5.392962809244792,3.365814725557963,3.355140209197998,-1.3056095838546753,1.688875683062963e+18,5.392962809244792,2.631706178188324,-6.40159813563029,-2.116052786509196,1.688875683062963e+18,5.392962809244792,-0.7569100062052408,-9.74099318186442,-0.8751566608746847,1.688875683062963e+18,5.392962809244792,0.6122396985689799,2.619593779246012,-0.7182247887055079,1.688875683062963e+18,5.392962809244792,0.6113233963648478,2.624022563298543,-0.7160867700974146,,,,,,,,,,,,1.68887568306599e+18,5.39598984375,7.94951982498169,48.78535842895508,-6.5391998291015625,1.68887568306599e+18,5.39598984375,-247.44527282714844,144.0185546875,-139.89739990234375,1.688875683062963e+18,5.392962809244792,-0.4285872181256612,0.4988667865594228,-0.5357823173205057,0.5291895071665446,2.38142196337382,1.4709020455678303,-0.9484394391377768
5.4,1.6888756831148618e+18,5.44486181640625,-0.9624903798103333,3.217958927154541,-2.656848430633545,1.6888756831148618e+18,5.44486181640625,-1.8638094663619995,-6.521438757578532,-3.5014971097310386,1.6888756831148618e+18,5.44486181640625,-0.9241205255190532,-9.723652521769203,-0.9093621174494424,1.6888756831148618e+18,5.44486181640625,-0.0520762602488199,2.2727241118748984,-0.1718567622204621,1.6888756831148618e+18,5.44486181640625,-0.0530434623360633,2.277152895927429,-0.1697187249859174,,,,,,,,,,,,1.6888756831159964e+18,5.445996435546875,6.853959846496582,49.019598388671874,-7.16871976852417,1.6888756831159964e+18,5.445996435546875,-248.54083557128905,144.25279235839844,-140.52691345214845,1.6888756831148618e+18,5.44486181640625,-0.4559554855028787,0.535379946231842,-0.5065508683522543,0.4986684421698252,2.4472272396087646,1.4577359358469646,-0.890336791674296
5.45,1.688875683166759e+18,5.496758951822916,2.2073049346605935,0.0628906885782877,-3.123415946960449,1.688875683166759e+18,5.496758951822916,0.8855438033739725,-9.64686393737793,-3.698306878407797,1.688875683166759e+18,5.496758951822916,-1.3445626099904378,-9.69400946299235,-0.639604409535726,1.688875683166759e+18,5.496758951822916,-0.6163121263186137,1.5256868203481038,-1.073901077111562,1.688875683166759e+18,5.496758951822916,-0.6172284086545309,1.5301156242688496,-1.0717630585034688,,,,,,,,,,,,1.6888756831659904e+18,5.495990283203125,7.8372800827026365,48.74387893676758,-8.525359916687012,1.6888756831659904e+18,5.495990283203125,-247.5575164794922,143.97707824707032,-141.88355712890626,1.688875683166759e+18,5.496758951822916,-0.4737361967563629,0.5611751874287924,-0.4986717998981476,0.4602042436599731,2.797535022099813,1.4347323179244995,-1.150495211283366
5.5,1.6888756832186565e+18,5.548656656901041,-1.5959277153015137,-1.216718037923177,-8.423171361287435,1.6888756832186565e+18,5.548656656901041,-3.1276185512542725,-10.91525936126709,-8.586643854777018,1.6888756832186565e+18,5.548656656901041,-1.5544922749201455,-9.682796160380043,-0.2281861007213592,1.6888756832186565e+18,5.548656656901041,-0.5700900008281072,0.4714352499383191,0.3236567626396815,1.6888756832186565e+18,5.548656656901041,-0.5710062806804975,0.475864043556309,0.325794796148936,,,,,,,,,,,,1.6888756832159903e+18,5.545990576171875,7.871439838409424,48.33151931762696,-10.936079788208009,1.6888756832159903e+18,5.545990576171875,-247.52335205078128,143.5647186279297,-144.29427795410157,1.6888756832186565e+18,5.548656656901041,-0.4866990645726521,0.5650177597999573,-0.5044509967168173,0.4351610640684764,-1.0495425860087078,1.4225945472717283,-1.455979625384013
5.55,1.6888756832705528e+18,5.600552734375,3.681500593821207,1.0409262975056963,-9.52171834309896,1.6888756832705528e+18,5.600552734375,2.314457734425863,-8.664809544881185,-10.05264695485433,1.6888756832705528e+18,5.600552734375,-1.389844258626302,-9.689990679423014,-0.5956423381964365,1.6888756832705528e+18,5.600552734375,1.0669270753860474,-0.5780821442604065,0.5843435128529867,1.6888756832705528e+18,5.600552734375,1.0659598310788472,-0.5736024578412374,0.5864815413951874,,,,,,,,,,,,1.6888756832659937e+18,5.595993505859375,6.658759880065918,48.96835861206055,-10.367559814453124,1.6888756832659937e+18,5.595993505859375,-248.73603515625,144.20155639648436,-143.7257568359375,1.6888756832705528e+18,5.600552734375,-0.4815377692381541,0.5671044985453287,-0.4933927456537882,0.4504834214846293,2.8661038080851235,1.4336974223454793,-1.1902430057525637
5.6,1.6888756833224492e+18,5.652449462890625,-3.0399510264396667,-4.440982182820638,-3.376696745554606,1.6888756833224492e+18,5.652449462890625,-3.348156988620758,-14.185649553934732,-4.444269259770711,1.6888756833224492e+18,5.652449462890625,-0.3310075799624125,-9.728922208150228,-1.132286051909129,1.6888756833224492e+18,5.652449462890625,1.2648983001708984,-1.6342681646347046,2.459954341252645,1.6888756833224492e+18,5.652449462890625,1.2639819979667664,-1.6297884782155354,2.462092320124308,,,,,,,,,,,,1.6888756833159936e+18,5.645993603515625,2.4521999090909956,50.11515884399414,-8.49119987487793,1.6888756833159936e+18,5.645993603515625,-252.94259643554688,145.34835205078124,-141.84939880371093,1.6888756833224492e+18,5.652449462890625,-0.482988307873408,0.538532555103302,-0.4705765744050343,0.504657655954361,1.8689652681350708,1.4700297911961873,-0.251820981502533
5.65,1.6888756833743493e+18,5.704349202473959,-2.6588842471440635,-8.570160547892252,-3.921371777852377,1.6888756833743493e+18,5.704349202473959,-1.750349720319112,-18.105292638142902,-6.013562043507894,1.6888756833743493e+18,5.704349202473959,0.8857331375281016,-9.519386927286783,-2.1569037437438965,1.6888756833743493e+18,5.704349202473959,2.110539436340332,-3.6274704933166504,1.764891465504964,1.6888756833743493e+18,5.704349202473959,2.109572251637777,-3.62304170926412,1.7670295238494873,,,,,,,,,,,,1.688875683365993e+18,5.695992724609375,-3.030479884147644,50.671478271484375,-3.701479911804199,1.688875683365993e+18,5.695992724609375,-258.4252685546875,145.90467529296876,-137.05968017578124,1.6888756833743493e+18,5.704349202473959,-0.4453810453414917,0.5002045333385468,-0.4481746355692546,0.5911435087521871,1.1161266167958577,1.3532464106877644,0.3601874013741811
5.7,1.6888756834262515e+18,5.756251383463542,-5.491898616154988,-11.672125180562338,3.499906897544861,1.6888756834262515e+18,5.756251383463542,-3.1172496477762857,-20.898115158081055,1.1716854969660442,1.6888756834262515e+18,5.756251383463542,2.3518476486206055,-9.21024481455485,-2.392934958140055,1.6888756834262515e+18,5.756251383463542,0.1507818972071011,-2.2406027714411416,2.4151575565338135,1.6888756834262515e+18,5.756251383463542,0.1497128854195276,-2.236173987388611,2.4172955751419067,,,,,,,,,,,,1.6888756834159928e+18,5.745992871093749,-9.496479892730711,50.5323989868164,-0.888159990310669,1.6888756834159928e+18,5.745992871093749,-264.8912719726562,145.76559753417968,-134.2463592529297,1.6888756834262515e+18,5.756251383463542,-0.4329587618509928,0.4434503614902496,-0.4254892269770304,0.6590226888656616,0.7302132248878479,1.237452268600464,0.6290782491366068
5.75,1.688875683469506e+18,5.7995059814453125,-2.374727189540863,-1.5332002639770508,0.1901815533637999,1.688875683469506e+18,5.7995059814453125,1.0501500368118286,-10.512567520141602,-1.8086748644709587,1.688875683469506e+18,5.7995059814453125,3.4020756483078003,-8.963622093200684,-2.0635699033737183,1.688875683469506e+18,5.7995059814453125,1.2715159952640531,-5.008102178573608,1.661324381828308,1.688875683469506e+18,5.7995059814453125,1.2705233693122864,-5.003673791885376,1.6634624004364014,,,,,,,,,,,,1.6888756834659937e+18,5.795993359375,-14.781519508361816,49.36607894897461,-2.264319920539856,1.6888756834659937e+18,5.795993359375,-270.1763122558594,144.59927673339843,-135.62251892089844,1.688875683469506e+18,5.7995059814453125,-0.4010768979787826,0.3713821917772292,-0.4342826008796692,0.7155814468860626,0.4868300557136535,1.1680103540420532,0.6961562633514404
5.8,1.6888756835127488e+18,5.842748779296875,-7.38347061475118,4.932702700297038,-0.031197706858317,1.6888756835127488e+18,5.842748779296875,-3.011566698551178,-3.633501221736272,-1.997807463010152,1.6888756835127488e+18,5.842748779296875,4.34910249710083,-8.550458590189615,-2.031323234240214,1.6888756835127488e+18,5.842748779296875,1.620778203010559,-3.7266852060953775,1.5191200971603394,1.6888756835127488e+18,5.842748779296875,1.6198110183080037,-3.7222565015157065,1.5212072134017944,,,,,,,,,,,,1.688875683515996e+18,5.84599599609375,-18.951480102539065,48.44619903564453,-1.9934799432754515,1.688875683515996e+18,5.84599599609375,-274.3462707519531,143.6793975830078,-135.35167541503907,1.6888756835127488e+18,5.842748779296875,-0.3481929302215576,0.3102030754089355,-0.4289661347866058,0.7731055816014608,0.3909140229225158,1.0760793685913086,0.611090878645579
5.85,1.6888756835646472e+18,5.8946472167968755,-9.658154487609863,11.635125478108725,1.431074142456055,1.6888756835646472e+18,5.8946472167968755,-4.406183481216431,3.445066452026367,0.1042871723572413,1.6888756835646472e+18,5.8946472167968755,5.229169527689616,-8.17431386311849,-1.391500433286031,1.6888756835646472e+18,5.8946472167968755,0.1056796809037526,-4.113311926523845,1.0015135506788888,1.6888756835646472e+18,5.8946472167968755,0.1047124775747458,-4.108832200368245,1.0036515692869823,,,,,,,,,,,,1.6888756835659945e+18,5.895994482421875,-22.582199096679688,47.1456787109375,-3.882039928436279,1.6888756835659945e+18,5.895994482421875,-277.97698364257815,142.37887878417968,-137.2402374267578,1.6888756835646472e+18,5.8946472167968755,-0.2976674536863962,0.2276997566223144,-0.4305856923262278,0.8205385804176331,0.2207257648309072,1.0025225083033245,0.5742867191632589
5.9,1.6888756836165458e+18,5.946545817057292,-4.981889009475708,9.145569642384848,3.5426457722981772,1.6888756836165458e+18,5.946545817057292,0.3667000755667686,0.9016953309377036,3.303889830907186,1.6888756836165458e+18,5.946545817057292,5.325787544250488,-8.228129386901855,-0.3034694430728753,1.6888756836165458e+18,5.946545817057292,-0.1610139012336731,-2.6663249731063843,-1.0682505667209623,1.6888756836165458e+18,5.946545817057292,-0.1619301935036977,-2.661794424057007,-1.0661125481128693,,,,,,,,,,,,1.6888756836159923e+18,5.9459924804687505,-21.428079223632817,46.93583984375,-8.308199882507324,1.6888756836159923e+18,5.9459924804687505,-276.8228698730469,142.16903991699218,-141.66640014648436,1.6888756836165458e+18,5.946545817057292,-0.2682226101557414,0.1530767629543939,-0.4594564934571584,0.8325575391451517,0.0151853437225023,1.011133074760437,0.6153109868367513
5.95,1.6888756836684408e+18,5.998440836588542,5.958079020182292,3.5675408045450845,1.8872439861297607,1.6888756836684408e+18,5.998440836588542,10.331011613210045,-5.2195437749226885,1.5834504167238872,1.6888756836684408e+18,5.998440836588542,4.350131273269653,-8.771339416503906,-0.3685070313513279,1.6888756836684408e+18,5.998440836588542,1.2643383542696636,1.0230465829372406,-2.840166966120402,1.6888756836684408e+18,5.998440836588542,1.2634220520655317,1.0275262395540874,-2.838029066721598,,,,,,,,,,,,1.68887568366599e+18,5.995990283203125,-15.064559745788577,48.72923889160156,-8.574159908294678,1.68887568366599e+18,5.995990283203125,-270.4593505859375,143.96243896484376,-141.93235778808594,1.6888756836684408e+18,5.998440836588542,-0.2448337525129318,0.1637986600399016,-0.508031407992045,0.8089958628018697,0.0430710613727569,1.1254602670669556,0.558547854423523
6.0,1.6888756837203515e+18,6.050351725260417,9.988224029541016,-15.906244277954102,-4.563969592253367,1.6888756837203515e+18,6.050351725260417,13.63609790802002,-25.01217524210612,-5.123830954233806,1.6888756837203515e+18,6.050351725260417,3.625072638193766,-9.090185483296713,-0.6245748400688171,1.6888756837203515e+18,6.050351725260417,-0.0387899279594421,-2.9232446551322937,-0.4031710401177406,1.6888756837203515e+18,6.050351725260417,-0.0397062301635742,-2.918816059827805,-0.401033017784357,,,,,,,,,,,,1.6888756837159923e+18,6.045992333984374,-9.276879692077635,50.290838623046874,-6.4415998458862305,1.6888756837159923e+18,6.045992333984374,-264.6716796875,145.52403869628907,-139.79979553222657,1.6888756837203515e+18,6.050351725260417,-0.2137181411186853,0.1724945853153864,-0.5412584543228149,0.7942250569661459,0.1200462536265452,1.2059162457784016,0.4429776966571808
6.05,1.6888756837722412e+18,6.102241373697917,4.308415174484252,1.3616735140482583,0.9848379294077556,1.6888756837722412e+18,6.102241373697917,8.196813464164734,-7.657431125640869,0.5976074139277141,1.6888756837722412e+18,6.102241373697917,3.8655967712402344,-9.00335947672526,-0.4519439836343129,1.6888756837722412e+18,6.102241373697917,0.8237517674763998,0.2870557705561321,0.242717112104098,1.6888756837722412e+18,6.102241373697917,0.8227336804072062,0.2915354271729787,0.2448551654815673,,,,,,,,,,,,1.6888756837659922e+18,6.095992236328125,-9.867359733581544,50.00535888671875,-6.690479850769043,1.6888756837659922e+18,6.095992236328125,-265.262158203125,145.23855895996093,-140.04867858886718,1.6888756837722412e+18,6.102241373697917,-0.1867368767658869,0.141064832607905,-0.5406883756319681,0.8079624970753988,0.0687984687586625,1.184629996617635,0.4080743590990702
6.1,1.6888756838241364e+18,6.154136637369792,-16.30343468983968,-9.36335023244222,0.4858195583025614,1.6888756838241364e+18,6.154136637369792,-12.592029571533203,-18.443079630533855,-0.1292124191919964,1.6888756838241364e+18,6.154136637369792,3.688603162765503,-9.063984235127768,-0.6797454953193665,1.6888756838241364e+18,6.154136637369792,-1.188794664417704,3.404810110727946,-0.3198897615075112,1.6888756838241364e+18,6.154136637369792,-1.1898127732177577,3.409238894780477,-0.3177517354488373,,,,,,,,,,,,1.6888756838159944e+18,6.1459943359375,-11.255719947814942,49.5417594909668,-6.043879890441895,1.6888756838159944e+18,6.1459943359375,-266.6505187988281,144.77495422363282,-139.4020751953125,1.6888756838241364e+18,6.154136637369792,-0.2348972161610921,0.1886154164870579,-0.5324537754058838,0.7905508478482565,0.1319192945957183,1.1976627111434937,0.4876508315404256
6.15,1.6888756838760348e+18,6.2060349121093745,-1.812697172164917,3.699810822804769,1.748559792836507,1.6888756838760348e+18,6.2060349121093745,1.145962655544281,-5.542176087697347,0.2995016425848007,1.6888756838760348e+18,6.2060349121093745,2.935858408610026,-9.226241747538248,-1.513771613438924,1.6888756838760348e+18,6.2060349121093745,1.125977357228597,4.628016869227092,-1.3673709233601887,1.6888756838760348e+18,6.2060349121093745,1.1249592502911885,4.632445732752482,-1.3652329047520957,,,,,,,,,,,,1.6888756838659924e+18,6.195992431640625,-10.535919761657714,49.827239227294925,-4.106519985198974,1.6888756838659924e+18,6.195992431640625,-265.93071899414065,145.06043701171876,-137.4647186279297,1.6888756838760348e+18,6.2060349121093745,-0.2713493605454762,0.2770099441210428,-0.52660204966863,0.7555038134256998,0.4320215384165446,1.2439041932423909,0.3762374718983968
6.2,1.688875683919282e+18,6.249281860351562,-8.037626266479492,1.7389695644378662,2.701457142829895,1.688875683919282e+18,6.249281860351562,-6.321538209915161,-7.682157278060913,0.5736792385578156,1.688875683919282e+18,6.249281860351562,1.6932867765426636,-9.405381679534912,-2.1924914121627808,1.688875683919282e+18,6.249281860351562,-1.0047969669103622,7.242723703384399,-1.9072740077972412,1.688875683919282e+18,6.249281860351562,-1.0057895928621292,7.24715256690979,-1.905135989189148,,,,,,,,,,,,1.688875683915994e+18,6.245993945312501,-7.500559711456299,50.57143859863281,-0.1415200024843216,1.688875683915994e+18,6.245993945312501,-262.895361328125,145.804638671875,-133.49971923828124,1.688875683919282e+18,6.249281860351562,-0.3365775197744369,0.3957469910383224,-0.5079858005046844,0.6862382888793945,0.8748227059841156,1.3039758801460266,0.2252596393227577
6.25,1.688875683962536e+18,6.2925361328125,-9.144275824228922,1.3432265917460124,-3.797057787577311,1.688875683962536e+18,6.2925361328125,-8.565706729888916,-8.336195151011148,-5.266403436660767,1.688875683962536e+18,6.2925361328125,0.5557679335276285,-9.663676579793297,-1.5340591271718342,1.688875683962536e+18,6.2925361328125,-2.5884904861450195,3.1028391122817993,-1.297935922940572,1.688875683962536e+18,6.2925361328125,-2.5894578297932944,3.10726793607076,-1.2957979043324788,,,,,,,,,,,,1.688875683965992e+18,6.29599189453125,-3.25251989364624,50.627559661865234,-2.779159939289093,1.688875683965992e+18,6.29599189453125,-258.6473083496094,145.86075744628906,-136.13735961914062,1.688875683962536e+18,6.2925361328125,-0.4042853713035583,0.4543860952059428,-0.5139857729276022,0.6042149265607198,1.1706904570261638,1.4246017535527546,0.1389724264542261
6.3,1.688875684014435e+18,6.344435139973958,1.9185576438903809,1.571382999420166,-8.610804239908854,1.688875684014435e+18,6.344435139973958,1.7106688022613523,-8.192227204640707,-9.582257588704428,1.688875684014435e+18,6.344435139973958,-0.2306902135411898,-9.747865041097006,-1.0361667275428772,1.688875684014435e+18,6.344435139973958,0.1812233527501424,1.3614659011363983,-1.7238616943359375,1.688875684014435e+18,6.344435139973958,0.1802052458127339,1.3658947149912517,-1.7217237154642742,,,,,,,,,,,,1.688875684015993e+18,6.345993066406249,-0.1366399943828583,50.29815826416016,-5.838919830322266,1.688875684015993e+18,6.345993066406249,-255.53143310546875,145.53135986328124,-139.197119140625,1.688875684014435e+18,6.344435139973958,-0.4252658685048421,0.4781524240970611,-0.5303654472033182,0.5557748476664225,1.7669960657755537,1.4840908447901409,-0.3793576757113139
6.35,1.6888756840663334e+18,6.396333170572916,3.0592658122380576,2.7274651527404785,-0.7810234626134237,1.6888756840663334e+18,6.396333170572916,1.9469600518544512,-6.956134637196858,-1.9270198742548623,1.6888756840663334e+18,6.396333170572916,-1.1351071794827778,-9.66785462697347,-1.2107098897298176,1.6888756840663334e+18,6.396333170572916,0.5396485428015391,3.460347890853882,-0.7243843774000803,1.6888756840663334e+18,6.396333170572916,0.5386813382307688,3.4648276964823403,-0.7222463488578796,,,,,,,,,,,,1.688875684065994e+18,6.395993896484375,3.193959903717041,50.473838806152344,-4.794599914550782,1.688875684065994e+18,6.395993896484375,-252.2008331298828,145.70704040527343,-138.15279846191407,1.6888756840663334e+18,6.396333170572916,-0.4428409139315287,0.546057383219401,-0.5057706832885742,0.499295433362325,2.409754196802775,1.4243779977162678,-0.8551588257153829
6.4,1.6888756841182318e+18,6.448231770833334,0.8310691515604655,2.485002040863037,-2.545828859011332,1.6888756841182318e+18,6.448231770833334,-0.3940181334813435,-7.199604511260986,-3.566701571146647,1.6888756841182318e+18,6.448231770833334,-1.2478888432184856,-9.668861389160158,-1.0855861902236938,1.6888756841182318e+18,6.448231770833334,-0.4700099105636279,1.899994532267253,-0.0186313955734173,1.6888756841182318e+18,6.448231770833334,-0.4710280199845632,1.9044232765833535,-0.016493363926808,,,,,,,,,,,,1.6888756841159918e+18,6.445991845703125,2.2862799406051635,50.43235855102539,-4.6872398376464846,1.6888756841159918e+18,6.445991845703125,-253.1085174560547,145.66555480957032,-138.04543762207032,1.6888756841182318e+18,6.448231770833334,-0.4743309219678243,0.5761500398317972,-0.4759262601534524,0.4651163021723429,2.5182950496673584,1.4255731105804443,-0.837708592414856
6.45,1.6888756841701297e+18,6.500129882812499,1.0495328903198244,-0.0275144577026367,-4.609769980112712,1.6888756841701297e+18,6.500129882812499,-0.5080760171016058,-9.70209821065267,-5.197210709253947,1.6888756841701297e+18,6.500129882812499,-1.5804104804992676,-9.658838589986166,-0.6521542072296143,1.6888756841701297e+18,6.500129882812499,-0.7539095282554626,1.1690433621406555,-0.5357797369360924,1.6888756841701297e+18,6.500129882812499,-0.7548258105913798,1.1734721461931863,-0.5336926008264223,,,,,,,,,,,,1.688875684165994e+18,6.495994042968751,2.866999936103821,49.94191970825195,-6.351319885253906,1.688875684165994e+18,6.495994042968751,-252.52779541015624,145.17511901855468,-139.7095184326172,1.6888756841701297e+18,6.500129882812499,-0.4958978096644084,0.5953572392463684,-0.4688373903433482,0.4239348471164703,2.8776466051737466,1.4158198833465576,-1.1074308554331462
6.5,1.6888756842220257e+18,6.552025716145834,1.102990945180257,-1.1826032002766926,-9.738554318745932,1.6888756842220257e+18,6.552025716145834,-0.4342973232269287,-10.870194435119627,-10.170293807983398,1.6888756842220257e+18,6.552025716145834,-1.5600896676381428,-9.671846071879068,-0.4964529077212016,1.6888756842220257e+18,6.552025716145834,0.386015921831131,0.3791437000036239,0.1471167157093683,1.6888756842220257e+18,6.552025716145834,0.3850487569967906,0.3836233764886856,0.1492038369178771,,,,,,,,,,,,1.6888756842159916e+18,6.545991455078125,2.915799951553345,49.72963943481445,-7.512759780883789,1.6888756842159916e+18,6.545991455078125,-252.47899475097657,144.96283569335938,-140.87095947265624,1.6888756842220257e+18,6.552025716145834,-0.5077536304791769,0.5979502399762472,-0.4636542697747548,0.4118554492791493,2.993757724761963,1.4231934150060015,-1.1916218201319375
6.55,1.6888756842739238e+18,6.603923828125001,-0.0259868502616882,-1.4928738276163738,-7.071664492289226,1.6888756842739238e+18,6.603923828125001,-1.084148069222768,-11.181660016377768,-8.170292774836222,1.6888756842739238e+18,6.603923828125001,-1.0809627374013264,-9.673041025797524,-1.1633416414260864,1.6888756842739238e+18,6.603923828125001,1.116610765457153,-1.788918912410736,1.835853656133016,1.6888756842739238e+18,6.603923828125001,1.115643580754598,-1.7844391266504924,1.837991754213969,,,,,,,,,,,,1.6888756842659917e+18,6.595991845703125,1.732399934530258,49.919959259033206,-4.865359878540039,1.6888756842659917e+18,6.595991845703125,-253.6623962402344,145.1531555175781,-138.2235565185547,1.6888756842739238e+18,6.603923828125001,-0.501016358534495,0.593363881111145,-0.4428252975145975,0.4475152989228566,2.3816845417022705,1.4356602430343628,-0.6059842308362325
6.6,1.6888756843258258e+18,6.655826009114583,-3.910955270131429,-7.123424212137858,-3.0846930344899497,1.6888756843258258e+18,6.655826009114583,-3.681756416956583,-16.72981834411621,-5.02552588780721,1.6888756843258258e+18,6.655826009114583,0.2063973546028137,-9.590648969014486,-2.0055463314056396,1.6888756843258258e+18,6.655826009114583,2.133345047632853,-2.4807746410369873,1.8993327220280964,1.6888756843258258e+18,6.655826009114583,2.132428765296936,-2.4763458569844565,1.9014707803726196,,,,,,,,,,,,1.6888756843159913e+18,6.6459912109375,-3.259839916229248,50.04440002441406,-1.5420799612998963,1.6888756843159913e+18,6.6459912109375,-258.654638671875,145.27760009765626,-134.90028076171876,1.6888756843258258e+18,6.655826009114583,-0.4870519936084747,0.552985409895579,-0.4224208295345306,0.5270865062872568,1.4188520510991414,1.394224961598714,0.2428335199753443
6.65,1.6888756843690747e+18,6.699074829101562,-0.947153866291046,-11.86449909210205,-1.0538647174835205,1.6888756843690747e+18,6.699074829101562,0.2632104754447937,-21.18515396118164,-3.8467613458633423,1.6888756843690747e+18,6.699074829101562,1.1875627934932709,-9.304909706115724,-2.8576101064682007,1.6888756843690747e+18,6.699074829101562,1.9195677042007449,-2.58846515417099,2.108630418777466,1.6888756843690747e+18,6.699074829101562,1.9186514019966123,-2.583959937095642,2.110768496990204,,,,,,,,,,,,1.6888756843659924e+18,6.695992285156249,-7.834840106964111,49.42951889038086,3.4330798864364622,1.6888756843659924e+18,6.695992285156249,-263.22963256835936,144.66271362304687,-129.92511901855468,1.6888756843690747e+18,6.699074829101562,-0.454384222626686,0.5225343704223633,-0.4036756306886672,0.5977308750152588,1.11456036567688,1.2785090804100037,0.4314517676830292
6.7,1.6888756844123238e+18,6.742323649088543,-6.542232513427734,-9.784168561299644,3.3353198369344077,1.6888756844123238e+18,6.742323649088543,-4.095315933227539,-18.838892300923664,0.4803591469923655,1.6888756844123238e+18,6.742323649088543,2.424115260442098,-9.038978576660156,-2.9196741580963135,1.6888756844123238e+18,6.742323649088543,0.5342525591452917,-3.3386331101258597,1.9158770442008972,1.6888756844123238e+18,6.742323649088543,0.5332344720760981,-3.334153413772583,1.9180151025454204,,,,,,,,,,,,1.6888756844159918e+18,6.745991845703125,-14.41063995361328,48.44375839233398,4.221199941635132,1.6888756844159918e+18,6.745991845703125,-269.80543823242186,143.676953125,-129.13699951171876,1.6888756844123238e+18,6.742323649088543,-0.4551704525947571,0.4754783014456431,-0.383940726518631,0.6467524369557699,0.8141604661941528,1.1952275037765503,0.6546085874239603
6.75,1.6888756844642225e+18,6.794222493489582,-2.8785438537597656,2.2659385999043784,0.5319896936416626,1.6888756844642225e+18,6.794222493489582,0.8879365921020508,-6.427919228871663,-2.002194364865621,1.6888756844642225e+18,6.794222493489582,3.743678967157999,-8.678112665812174,-2.5988975365956626,1.6888756844642225e+18,6.794222493489582,1.19230717420578,-4.619362910588582,1.6396641333897908,1.6888756844642225e+18,6.794222493489582,1.1913399298985798,-4.614883263905843,1.641751249631246,,,,,,,,,,,,1.6888756844659942e+18,6.795994042968751,-18.3414794921875,47.35307846069336,2.852359962463379,1.6888756844659942e+18,6.795994042968751,-273.73627319335935,142.586279296875,-130.50584106445314,1.6888756844642225e+18,6.794222493489582,-0.3998882373174031,0.3831442991892496,-0.4040339291095733,0.7272647023200989,0.5552403628826141,1.1087554295857749,0.655433734258016
