,seconds_elapsed_rounded,accelerometer_time,accelerometer_seconds_elapsed,accelerometer_z,accelerometer_y,accelerometer_x,accelerometeruncalibrated_time,accelerometeruncalibrated_seconds_elapsed,accelerometeruncalibrated_z,accelerometeruncalibrated_y,accelerometeruncalibrated_x,gravity_time,gravity_seconds_elapsed,gravity_z,gravity_y,gravity_x,gyroscope_time,gyroscope_seconds_elapsed,gyroscope_z,gyroscope_y,gyroscope_x,gyroscopeuncalibrated_time,gyroscopeuncalibrated_seconds_elapsed,gyroscopeuncalibrated_z,gyroscopeuncalibrated_y,gyroscopeuncalibrated_x,location_time,location_seconds_elapsed,location_bearingAccuracy,location_speedAccuracy,location_verticalAccuracy,location_horizontalAccuracy,location_speed,location_bearing,location_altitude,location_longitude,location_latitude,magnetometer_time,magnetometer_seconds_elapsed,magnetometer_z,magnetometer_y,magnetometer_x,magnetometeruncalibrated_time,magnetometeruncalibrated_seconds_elapsed,magnetometeruncalibrated_z,magnetometeruncalibrated_y,magnetometeruncalibrated_x,orientation_time,orientation_seconds_elapsed,orientation_qz,orientation_qy,orientation_qx,orientation_qw,orientation_roll,orientation_pitch,orientation_yaw,totalacceleration_time,totalacceleration_seconds_elapsed,totalacceleration_z,totalacceleration_y,totalacceleration_x
0,-4.4,,,,,,,,,,,,,,,,,,,,,,,,,,1.688754793958e+18,-4.384999755859375,0.0,0.0,4.157031059265137,46.875,0.0,0.0,325.3999938964844,-122.9180264,49.2791938,,,,,,,,,,,,,,,,,,,,,,,,
1,0.1,1.6887547984730214e+18,0.130021484375,-0.45827579498291016,-0.0334548950195312,-0.0265249311923981,1.6887547984643684e+18,0.121368408203125,8.908179521560669,3.321237862110138,-0.28414768539369106,1.6887547984730214e+18,0.130021484375,9.222424030303955,3.31805956363678,-0.3920948654413223,1.6887547984470487e+18,0.10404877929687499,1.4563943862915039,1.9309450149536134,0.33356296420097353,1.6887547984600458e+18,0.11704577636718749,1.6659822165966034,2.193693459033966,0.29145907610654825,,,,,,,,,,,,1.688754798458059e+18,0.11505904715401785,-49.045741489955354,2.096657088824681,11.711999825068883,1.688754798458059e+18,0.11505904715401785,-303.5743321010045,95.41445595877511,-120.29199872698102,1.688754798481668e+18,0.1386680908203125,0.215905450284481,0.05759392306208605,0.16429153829813,0.9606696665287018,0.0422391993924975,-0.34767694771289825,-0.4347110688686371,1.688754798455716e+18,0.112716064453125,9.029764890670776,3.31989187002182,-0.29356943070888514
2,0.2,1.6887547985422254e+18,0.1992255452473958,-0.030873457590738933,-0.1870177984237671,-1.2360625366369884,1.6887547985422252e+18,0.1992251953125,8.98983449935913,3.3600016117095945,-2.4563520908355714,1.6887547985422254e+18,0.1992255452473958,9.0488600730896,3.6142945686976113,-1.1126677791277568,1.6887547985422254e+18,0.1992255452473958,1.4320463339487712,1.254259079694748,0.1138500173886617,1.6887547985465526e+18,0.2035526123046875,1.3458379718164604,1.146975872417291,0.05525784691174825,,,,,,,,,,,,1.688754798543061e+18,0.20006093749999998,-46.56129951477051,-1.6274799704551697,19.411419486999513,1.688754798543061e+18,0.20006093749999998,-301.0898956298828,91.6903190612793,-112.592578125,1.6887547985422252e+18,0.1992251953125,0.2787270456552505,0.10366756916046138,0.16529086828231807,0.9400253057479858,0.11062404960393901,-0.3779717147350311,-0.5552817285060883,1.6887547985422254e+18,0.1992255452473958,9.017850557963053,3.4271202087402344,-2.3488545417785645
3,0.30000000000000004,1.6887547986460362e+18,0.3030360514322917,-0.7123173077901205,0.2752491235733032,-1.0845367908477783,1.6887547986373896e+18,0.29438948567708334,8.416255156199137,3.555734475453695,-2.2886351148287454,1.6887547986460362e+18,0.3030360514322917,9.11674435933431,3.3715691566467285,-1.3135454853375752,1.6887547986460362e+18,0.3030360514322917,0.4140648233393828,0.407650734608372,-0.13632475088040036,1.6887547986417116e+18,0.298711572265625,0.4462065115571022,0.483408211171627,-0.2085799515247345,,,,,,,,,,,,1.688754798643062e+18,0.300061865234375,-45.93787841796875,-1.7250799536705017,21.550079536437988,1.688754798643062e+18,0.300061865234375,-300.4664733886719,91.59271774291992,-110.45391845703125,1.6887547986373896e+18,0.29438948567708334,0.31163288652896876,0.11221997439861293,0.14563601464033124,0.932150642077128,0.126417089253664,-0.3486144195000331,-0.622967372337977,1.6887547986460362e+18,0.3030360514322917,8.404291073481241,3.6466617584228516,-2.3982065121332803
4,0.4,1.6887547987411968e+18,0.39819677734375,-1.0380223274230957,-0.35232377052307134,-0.22066740989685057,1.688754798741197e+18,0.3981971842447917,7.7419776519139605,3.3897323608398438,-1.7762719790140789,1.6887547987411968e+18,0.39819677734375,8.867234802246093,3.811305522918701,-1.737614059448242,1.6887547987411968e+18,0.39819677734375,0.31856622397899625,0.4992601588368416,0.8177653253078461,1.6887547987368673e+18,0.39386751302083334,0.3011056619385878,0.44509170452753705,0.8456156775355339,,,,,,,,,,,,1.688754798743062e+18,0.4000619384765625,-44.52633857727051,-4.3492999792099,23.75705966949463,1.688754798743062e+18,0.4000619384765625,-299.054931640625,88.96849746704102,-108.24693756103515,1.688754798741197e+18,0.3981971842447917,0.33157401780287427,0.14570131401220954,0.158521128197511,0.9183815618356069,0.1772670671343803,-0.3983868757883708,-0.6569562057654063,1.6887547987411968e+18,0.39819677734375,7.829076480865479,3.4588250637054445,-1.9584056854248046
5,0.5,1.6887547988363564e+18,0.49335632324218753,-2.990158955256144,0.49207735061645524,0.2378131151199341,1.6887547988450066e+18,0.5020064697265625,5.034299438198407,5.667500098546346,-1.6535401592652004,1.6887547988363564e+18,0.49335632324218753,8.2855118115743,4.894023974736531,-1.8775700728098552,1.6887547988363564e+18,0.49335632324218753,0.39757146158566076,0.08289950465162603,0.6412812471389769,1.6887547988406812e+18,0.49768115234375004,0.3982586897909641,0.03362303972244263,0.45064035554726917,,,,,,,,,,,,1.688754798843065e+18,0.5000651611328125,-42.43891906738281,-10.548119831085206,25.29669952392578,1.688754798843065e+18,0.5000651611328125,-296.96751403808594,82.769677734375,-106.7072982788086,1.6887547988450066e+18,0.5020064697265625,0.3405290295680364,0.17769354830185569,0.20984235405921933,0.8989685972531637,0.20526149620612455,-0.5217018773158392,-0.6690336565176646,1.6887547988363564e+18,0.49335632324218753,5.295216793815295,5.385944664478302,-1.6398811073352892
6,0.6000000000000001,1.6887547989401672e+18,0.5971670735677084,-0.31435513496398926,-1.6322994033495586,0.26012367258469266,1.688754798948819e+18,0.6058188476562499,9.471091071764628,0.9192426999409994,-0.20937198400497437,1.6887547989401672e+18,0.5971670735677084,9.28079636891683,2.9235830903053284,-0.6192220188677311,1.6887547989401672e+18,0.5971670735677084,0.24159721191972494,-1.5823955138524373,-3.1621184845765433,1.6887547989444923e+18,0.6014922688802083,0.22759821328024069,-1.5213853518168132,-3.0572023491064706,,,,,,,,,,,,1.68875479894306e+18,0.6000599853515626,-46.80285911560058,-1.2834399431943893,19.6968994140625,1.68875479894306e+18,0.6000599853515626,-301.3314514160156,92.03435821533203,-112.30709915161133,1.688754798948819e+18,0.6058188476562499,0.3631514956553777,0.06802642003943518,0.12043215334415434,0.9201565186182658,0.040520917798858115,-0.2748478874564171,-0.7441153228282928,1.6887547989401672e+18,0.5971670735677084,8.966305335362753,1.2911271924773853,-0.3592224841316541
7,0.7000000000000001,1.68875479904397e+18,0.7009699707031251,-2.2749501864115396,-1.5875576535860698,-3.147901490330696,1.688754799043977e+18,0.7009771484375,7.11828842163086,-0.33547373712062833,-3.232583749294281,1.68875479904397e+18,0.7009699707031251,9.691640059153238,1.3878137469291687,-0.2189749808361133,1.68875479904397e+18,0.7009699707031251,-0.37079519778490067,0.9925287688771883,-1.3372349192698796,1.6887547990483016e+18,0.7053016357421874,-0.36975164463122684,1.2052116791407268,-1.405244618654251,,,,,,,,,,,,1.688754799043061e+18,0.700060888671875,-47.84107856750488,6.3256998538970945,16.899439525604247,1.688754799043061e+18,0.700060888671875,-302.369677734375,99.64349822998047,-115.10455703735352,1.688754799043977e+18,0.7009771484375,0.358246785402298,0.02626227587461466,0.06581958420574657,0.9306289076805114,0.0014756092801690407,-0.14174852371215818,-0.7353436946868896,1.68875479904397e+18,0.7009699707031251,7.416553894678752,-0.19990038809676966,-3.367000582317511
8,0.8,1.688754799147787e+18,0.8047869059244791,-2.4567864735921225,1.1818217461307843,-2.8650046586990356,1.6887547991391337e+18,0.7961336669921875,6.202595154444377,0.5458626660207906,-7.302695274353027,1.688754799147787e+18,0.8047869059244791,8.341870387395224,-0.3958224604527156,-4.608055134614308,1.688754799147787e+18,0.8047869059244791,-0.828664148847262,7.609599192937215,-0.9147961710890135,1.6887547991434624e+18,0.800462255859375,-0.6335894405841828,7.4728978157043455,-1.023229818791151,,,,,,,,,,,,1.6887547991430633e+18,0.8000633300781249,-34.38325939178467,14.17029972076416,31.973759269714357,1.6887547991430633e+18,0.8000633300781249,-288.91185607910154,107.4880989074707,-100.03023834228516,1.6887547991391337e+18,0.7961336669921875,0.3345768004655838,0.19159419834613797,-0.08739454334136094,0.9115511079629263,0.4261488492290179,0.0324070746816384,-0.7144075135389963,1.688754799147787e+18,0.8047869059244791,5.884947896003723,0.7858428383866946,-7.473183949788411
9,0.9,1.688754799242946e+18,0.89994609375,-3.167552995681763,-0.1951448678970337,-0.8991100311279296,1.6887547992429455e+18,0.8999455973307292,0.4426722079515457,-2.1075781881809235,-9.996415456136068,1.688754799242946e+18,0.89994609375,3.185395860671997,-2.0403127670288086,-8.963143730163575,1.688754799242946e+18,0.89994609375,-2.4650550842285157,5.278975105285644,-0.18738290369510652,1.6887547992386202e+18,0.8956200764973957,-2.431014597415924,5.5969764192899065,-0.1266018239160379,,,,,,,,,,,,1.6887547992430607e+18,0.9000607666015625,-0.580720067024231,21.95999946594238,43.63329887390137,1.6887547992430607e+18,0.9000607666015625,-255.10931701660155,115.27779617309571,-88.37069778442383,1.6887547992429455e+18,0.8999455973307292,0.19396484146515525,0.5062391211589178,-0.25309983392556507,0.7970580259958903,1.1995729406674702,0.21122566858927405,-0.6261216700077057,1.688754799242946e+18,0.89994609375,0.0177068829536438,-2.2356141984462736,-9.86237735748291
10,1.0,1.6887547993381056e+18,0.9951053873697916,4.453857183456421,-5.496154705683391,-5.6902055740356445,1.6887547993467543e+18,1.0037542724609374,6.989634354909261,-9.857731421788534,-14.515659809112549,1.6887547993381056e+18,0.9951053873697916,1.9294323722521465,-3.8956171671549478,-8.77886962890625,1.6887547993381056e+18,0.9951053873697916,-1.301168407003085,-0.8898779737452666,-1.9056450128555298,1.6887547993424323e+18,0.9994323323567708,-1.17278490960598,-0.9958630570520958,-1.986228346824646,,,,,,,,,,,,1.6887547993430615e+18,1.0000614501953125,10.767719745635986,29.759459495544434,38.570299530029295,1.6887547993430615e+18,1.0000614501953125,-243.76087493896483,123.0772575378418,-93.43369903564454,1.6887547993467543e+18,1.0037542724609374,0.13713702559471128,0.5130834877490997,-0.3606144537528356,0.7655855417251587,1.337389051914215,0.425118421514829,-0.6920876900355021,1.6887547993381056e+18,0.9951053873697916,6.383153438568115,-9.391928513844809,-14.469199180603027
11,1.1,1.6887547994419146e+18,1.0989144694010415,3.3418683608373008,-2.488624016443888,0.4849258263905843,1.6887547994419123e+18,1.0989125000000002,5.878686761856079,-7.293323516845703,-7.672107219696045,1.6887547994419146e+18,1.0989144694010415,2.193963130315145,-4.2984607219696045,-8.537347793579102,1.6887547994419146e+18,1.0989144694010415,-0.23072888453801474,0.4467461506525674,0.39841140309969586,1.6887547994462415e+18,1.1032416178385416,-0.3562108079592387,0.5731697976589203,0.5269221862157186,,,,,,,,,,,,1.6887547994430628e+18,1.100062841796875,11.047099781036376,28.770039558410645,39.21079940795899,1.6887547994430628e+18,1.100062841796875,-243.481494140625,122.08783798217773,-92.79319763183594,1.6887547994419123e+18,1.0989125000000002,0.18274426758289333,0.4704079210758209,-0.39902281761169434,0.7651893258094787,1.3019734144210815,0.4547987341880798,-0.8176230549812317,1.6887547994419146e+18,1.0989144694010415,5.535695383946101,-6.787241379419963,-8.052546183268229
12,1.2000000000000002,1.6887547995457242e+18,1.202724365234375,-3.9317848881085715,-1.7156333128611247,0.9756860733032227,1.688754799537074e+18,1.1940738118489584,-1.284546951452891,-6.166204233964284,-6.677470684051514,1.6887547995457242e+18,1.202724365234375,1.966914971669515,-5.507543325424194,-7.851736545562744,1.6887547995457242e+18,1.202724365234375,-2.2534055709838867,0.31670817360281944,0.988354521493117,1.6887547995414e+18,1.1984,-2.3152098178863527,0.2959947526454926,0.8178263917565346,1.688754799545e+18,1.202,0.0,0.0,19.02753448486328,92.2689971923828,1.6182808876037598,109.65337371826172,337.29998779296875,-122.9175749,49.2790886,1.688754799543061e+18,1.2000610107421874,11.366739845275879,35.259219360351565,33.73909931182861,1.688754799543061e+18,1.2000610107421874,-243.16185607910157,128.57701721191407,-98.26489791870117,1.688754799537074e+18,1.1940738118489584,0.08922031335532661,0.47469759980837506,-0.411639079451561,0.7719235817591349,1.3150261640548706,0.5838893502950668,-0.685794601837794,1.6887547995457242e+18,1.202724365234375,-1.9650058796008427,-7.223333358764648,-6.876174688339233
13,1.3,1.6887547996495332e+18,1.3065332438151043,-9.928996443748474,1.4798050324122112,-3.1480424404144287,1.6887547996408845e+18,1.2978846435546876,-8.445866425832113,-5.45543630917867,-9.249356110890707,1.6887547996495332e+18,1.3065332438151043,2.063425858815511,-6.974067687988281,-6.550342798233032,1.6887547996495332e+18,1.3065332438151043,-1.7293086151281993,-0.3004947913189729,-1.107676883538564,1.688754799636557e+18,1.2935573323567708,-1.9079866707324982,0.016213377316792805,-0.31698814034461975,,,,,,,,,,,,1.6887547996430625e+18,1.300062451171875,9.474519872665406,42.85859909057617,25.8652193069458,1.6887547996430625e+18,1.300062451171875,-245.0540740966797,136.17639770507813,-106.13877944946289,1.6887547996408845e+18,1.2978846435546876,-0.028209297452121935,0.4455645481745402,-0.4309660842021306,0.783330112695694,1.2429954409599304,0.7767558395862579,-0.4990077366431554,1.6887547996495332e+18,1.3065332438151043,-7.865706513325374,-5.494419137636821,-9.698508977890015
14,1.4000000000000001,1.6887547997446917e+18,1.401691796875,12.325032806396484,6.899301052093506,-2.991101551055908,1.688754799744695e+18,1.4016949055989585,12.78764315446218,-1.0208379824956257,-8.849356015523275,1.6887547997446917e+18,1.401691796875,1.8416900157928466,-7.588755989074707,-5.920842456817627,1.6887547997446917e+18,1.401691796875,0.45115452706813813,-3.045254874229431,-0.4713436484336853,1.6887547997403676e+18,1.3973675130208332,0.27608563502629596,-2.936327427625656,-0.777682363986969,,,,,,,,,,,,1.6887547997430618e+18,1.4000618896484374,15.179239654541016,44.11153907775879,24.169419860839845,1.6887547997430618e+18,1.4000618896484374,-239.34935607910157,137.42933654785156,-107.83457794189454,1.688754799744695e+18,1.4016949055989585,0.02623328135814515,0.3678751438856125,-0.5103606283664703,0.7752914726734161,1.2392951647440593,0.885414332151413,-0.7201404770215353,1.6887547997446917e+18,1.401691796875,14.166586875915527,-0.6896115139126777,-8.912067985534668
15,1.5,1.6887547998398554e+18,1.496855183919271,3.9887361923853555,1.3519963423411052,-3.6698755423227944,1.6887547998485056e+18,1.5055056152343749,7.143871943155925,-6.5087767243385315,-9.314859867095947,1.6887547998398554e+18,1.496855183919271,4.532639940579732,-6.835491021474202,-5.283643881479899,1.6887547998398554e+18,1.496855183919271,-1.0966558624058962,0.3319543302059174,4.566828568776448,1.6887547998441812e+18,1.5011815185546873,-1.0664179921150208,0.5342780103286108,4.6319111585617065,,,,,,,,,,,,1.688754799843061e+18,1.5000610107421875,-1.1431399405002598,44.39579887390137,24.700119400024413,1.688754799843061e+18,1.5000610107421875,-255.6717315673828,137.7135986328125,-107.30387878417969,1.6887547998485056e+18,1.5055056152343749,0.0037073873293896483,0.30067704617977137,-0.397071252266566,0.863833616177241,0.8218228220939636,0.7526006797949473,-0.3577997957666715,1.6887547998398554e+18,1.496855183919271,8.521240135033926,-5.483651697635651,-8.953643163045248
16,1.6,1.6887547999436613e+18,1.6006612141927083,-5.606911102930705,-1.2600029309590657,-2.0691579977671304,1.6887547999436582e+18,1.600658154296875,-0.15876379311084748,-6.407620048522949,-7.50006332397461,1.6887547999436613e+18,1.6006612141927083,5.9504172801971436,-5.287998994191487,-5.728827238082886,1.6887547999436613e+18,1.6006612141927083,0.7285586148500443,0.06505716840426123,0.5047273909052212,1.688754799947989e+18,1.604989054361979,0.7529932210842768,-0.029601524273554485,0.3642284149924914,,,,,,,,,,,,1.6887547999430628e+18,1.6000627197265627,-14.969399738311768,41.79597930908203,24.663519287109374,1.6887547999430628e+18,1.6000627197265627,-269.49798889160155,135.11377716064453,-107.34047775268554,1.6887547999436582e+18,1.600658154296875,-0.04528230316936964,0.3372686445713043,-0.28018341660499574,0.8974683880805969,0.7557989358901978,0.5627841114997864,-0.12762882262468336,1.6887547999436613e+18,1.6006612141927083,0.3433700203895569,-6.548158486684163,-7.798109372456868
17,1.7000000000000002,1.6887548000474755e+18,1.7044752197265625,-2.62567400932312,2.344449361161664e-05,-2.059889554977417,1.688754800038822e+18,1.6958218587239582,3.7297125260035195,-4.69611382484436,-7.951349417368571,1.6887548000474755e+18,1.7044752197265625,6.108164628346761,-4.71821387608846,-6.047567367553711,1.6887548000474755e+18,1.7044752197265625,0.5206862588723501,0.5835544764995575,0.5897649427254995,1.6887548000431488e+18,1.7001486328125002,0.49641963839530945,0.6771746724843979,0.59137864112854,,,,,,,,,,,,1.6887548000430612e+18,1.7000612304687501,-16.46877956390381,39.26081924438476,26.92661933898926,1.6887548000430612e+18,1.7000612304687501,-270.99737548828125,132.57861785888673,-105.07737808227539,1.688754800038822e+18,1.6958218587239582,-0.008988467666010016,0.336258128285408,-0.26422283550103504,0.9037518401940664,0.7602693339188894,0.5049475928147634,-0.18529875079790747,1.6887548000474755e+18,1.7044752197265625,3.482354521751404,-4.718347152074178,-8.10758113861084
18,1.8,1.688754800142635e+18,1.7996349609375,-4.477988910675049,-2.0764517784118652,-1.3884796142578124,1.688754800142637e+18,1.7996370442708332,1.239781241863966,-6.239384810129802,-8.052944898605347,1.688754800142635e+18,1.7996349609375,5.69619140625,-4.00343427658081,-6.897143077850342,1.688754800142635e+18,1.7996349609375,1.1762515783309937,1.163576102256775,-0.006017027795314789,1.688754800138313e+18,1.79531298828125,1.0874419411023457,1.0879001021385193,0.05085453142722448,,,,,,,,,,,,1.6887548001430595e+18,1.800059423828125,-15.424459743499757,36.24985961914062,30.933099365234376,1.6887548001430595e+18,1.800059423828125,-269.9530548095703,129.56765594482422,-101.07089920043946,1.688754800142637e+18,1.7996370442708332,0.010971302050165832,0.3880313038825988,-0.23274035751819608,0.8913169304529825,0.8676941792170206,0.41813169916470844,-0.2202273905277252,1.688754800142635e+18,1.7996349609375,1.2180663645267487,-6.080042743682862,-8.285746574401855
19,1.9000000000000001,1.688754800237794e+18,1.8947939860026042,-3.786450147628784,-8.443579077720642,5.434924681981404,1.6887548002464433e+18,1.903443155924479,0.8893324049810568,-12.838889280954996,-1.77377953628699,1.688754800237794e+18,1.8947939860026042,4.480504751205444,-3.8320425748825073,-7.825130542119344,1.688754800237794e+18,1.8947939860026042,0.3756566643714905,1.1772391572594643,-1.1933507025241852,1.6887548002421153e+18,1.8991150716145835,0.3486767957607905,1.0991756493846576,-1.2809080481529236,,,,,,,,,,,,1.6887548002430648e+18,1.90006474609375,-8.12519974708557,34.32347946166992,35.20919914245606,1.6887548002430648e+18,1.90006474609375,-262.65379028320314,127.64127807617187,-96.79479904174805,1.6887548002464433e+18,1.903443155924479,0.04526655872662858,0.45412692427635193,-0.2543700883785883,0.8522185484568278,1.0502984623114269,0.4026434322198232,-0.34247834980487823,1.688754800237794e+18,1.8947939860026042,0.6939185783267021,-12.275778452555338,-2.39033014078935
20,2.0,1.6887548003416023e+18,1.9986022949218751,1.9243693153063457,-5.583171288172404,3.046843926111857,1.688754800341605e+18,1.998605078125,5.654120302200317,-10.04566764831543,-4.555694961547852,1.6887548003416023e+18,1.9986022949218751,3.137483795483907,-4.837215105692546,-7.901956399281819,1.6887548003416023e+18,1.9986022949218751,-1.263651135067145,1.119639625151952,-1.524668703476588,1.6887548003459277e+18,2.0029278971354167,-1.3541864280899365,1.237103883177042,-1.3790282706419628,,,,,,,,,,,,1.688754800343063e+18,2.0000628173828128,0.9357399880886078,35.79845924377442,34.58455982208252,1.688754800343063e+18,2.0000628173828128,-253.59285736083984,129.11625595092772,-97.41943740844727,1.688754800341605e+18,1.998605078125,0.0693766854703426,0.4637625992298126,-0.3415999174118042,0.81378732919693,1.176147961616516,0.5142583131790162,-0.5186536014080048,1.6887548003416023e+18,1.9986022949218751,5.061717232068379,-10.420543193817139,-4.855236575007439
21,2.1,1.6887548004454141e+18,2.1024139404296878,-0.8014331261316934,-0.005700270334879558,-6.823257207870483,1.6887548004367619e+18,2.093761962890625,-0.1539382462700208,-7.043173710505168,-13.852847894032797,1.6887548004454141e+18,2.1024139404296878,1.7319783568382263,-6.246389150619507,-7.353395541508992,1.6887548004454141e+18,2.1024139404296878,-1.1354966759681702,0.6923903027394166,-0.3349832172195117,1.688754800449739e+18,2.1067390950520832,-1.07754081984361,0.679358517130216,-0.2773837223649025,,,,,,,,,,,,1.6887548004430607e+18,2.100060791015625,8.749839782714844,41.31895904541015,28.0002197265625,1.6887548004430607e+18,2.100060791015625,-245.77875518798828,134.63675994873046,-104.00377655029297,1.6887548004367619e+18,2.093761962890625,-0.011280526581685968,0.49208545684814453,-0.3992000222206116,0.7732155323028564,1.3158101439476013,0.6798756122589111,-0.5048865228891373,1.6887548004454141e+18,2.1024139404296878,0.9304091564069191,-6.252246220906575,-14.17677609125773
22,2.2,1.6887548005492244e+18,2.206224568684896,0.3564275900522868,4.045743187268575,-3.050647735595703,1.688754800540572e+18,2.1975720621744794,2.7311078906059265,-2.243470604221026,-10.978469689687094,1.6887548005492244e+18,2.206224568684896,1.1912664473056793,-6.521859010060628,-7.226002852121989,1.6887548005492244e+18,2.206224568684896,0.08671740628778936,0.8957575311263403,-0.020514880617459614,1.6887548005449016e+18,2.20190166015625,0.029901849944144472,1.1123856067657472,0.14028519988059998,,,,,,,,,,,,1.6887548005430605e+18,2.200060302734375,12.145099925994874,43.55765953063965,25.01243953704834,1.6887548005430605e+18,2.200060302734375,-242.38349609375,136.87546081542968,-106.99155807495117,1.688754800540572e+18,2.1975720621744794,-0.043886889082690055,0.5101805826028188,-0.41150119900703425,0.7537734806537628,1.381385902563731,0.7278324762980143,-0.49367643892765045,1.6887548005492244e+18,2.206224568684896,1.5475580890973408,-2.4762723123033843,-10.276774565378824
23,2.3000000000000003,1.6887548006443822e+18,2.301382080078125,0.10024778842926026,3.134943151473999,0.7438077926635742,1.688754800644384e+18,2.301384114583333,-0.19840486844380698,-3.971786459287008,-6.892525752385457,1.6887548006443822e+18,2.301382080078125,0.7364190816879272,-6.356602668762207,-7.435451507568359,1.6887548006443822e+18,2.301382080078125,0.26957483068108556,-0.25454754903912546,-0.48976120054721833,1.6887548006400602e+18,2.297059855143229,0.31243211574231583,-0.2613994120620191,-0.5896376706659794,,,,,,,,,,,,1.688754800643061e+18,2.3000609130859373,16.659099578857422,42.68413887023926,25.855459785461427,1.688754800643061e+18,2.3000609130859373,-237.86949462890624,136.00193634033204,-106.14853744506836,1.688754800644384e+18,2.301384114583333,-0.016221191578855067,0.5218644738197327,-0.428390105565389,0.7374313473701477,1.4545355637868245,0.7059673070907593,-0.5897167225678762,1.6887548006443822e+18,2.301382080078125,0.8365307629108429,-3.221816062927246,-6.691767883300781
24,2.4000000000000004,1.6887548007395423e+18,2.396542317708333,1.034582833449046,2.7388423681259155,-0.7505069573720297,1.6887548007481925e+18,2.405192586263021,1.8409779071807861,-3.3460633357365928,-8.449555079142252,1.6887548007395423e+18,2.396542317708333,0.633849024772644,-6.046563704808553,-7.695434808731079,1.6887548007395423e+18,2.396542317708333,0.7493025660514832,0.0446186145224298,0.05082907900214199,1.6887548007438738e+18,2.4008739827473957,0.7890597184499105,0.028379783189545066,0.07651086989790201,,,,,,,,,,,,1.6887548007430636e+18,2.400063623046875,17.976699447631837,41.18963890075683,27.602499580383302,1.6887548007430636e+18,2.400063623046875,-236.55189361572266,134.50743713378907,-104.40149765014648,1.6887548007481925e+18,2.405192586263021,0.010569195457113248,0.5301185846328735,-0.4243006507555644,0.7339262962341309,1.472419520219167,0.6582208375136057,-0.6291068295637766,1.6887548007395423e+18,2.396542317708333,1.6682959000269573,-3.3078779180844626,-8.4460658232371
25,2.5,1.6887548008433554e+18,2.50035546875,-2.3939063350359597,1.7122851610183716,-3.041713237762451,1.6887548008433546e+18,2.500354541015625,-1.2468999087810517,-3.1329226970672606,-12.09787197113037,1.6887548008433554e+18,2.50035546875,0.8790866235891978,-4.821202913920085,-8.47731097539266,1.6887548008433554e+18,2.50035546875,1.8293123642603557,0.4398993334422509,1.056771417458852,1.6887548008476782e+18,2.5046783040364584,1.8451439142227173,0.4608723682661851,1.0276535054047902,,,,,,,,,,,,1.6887548008430577e+18,2.5000577880859374,14.521659660339356,37.707759094238284,32.31169948577881,1.6887548008430577e+18,2.5000577880859374,-240.0069351196289,131.0255554199219,-99.69229736328126,1.6887548008433546e+18,2.500354541015625,0.04179398790001866,0.560811448097229,-0.3645238637924194,0.7416194915771485,1.4512152910232543,0.5169355988502502,-0.5733534693717957,1.6887548008433554e+18,2.50035546875,-1.514955868323644,-3.1090741952260337,-11.519148190816244
26,2.6,1.6887548009471613e+18,2.6041614176432293,-1.090563972791036,0.1301584243774414,4.4220130443573,1.6887548009385093e+18,2.5955094401041667,-0.6400800744692484,-3.621935864289602,-4.690131862958272,1.6887548009471613e+18,2.6041614176432293,1.267071008682251,-3.5747690995534263,-9.037843068440756,1.6887548009471613e+18,2.6041614176432293,0.4931209658583005,-1.2309443714718025,-0.050447290142377234,1.6887548009428388e+18,2.599838720703125,0.561996029317379,-1.1718227930366993,0.049357916414737704,,,,,,,,,,,,1.6887548009430615e+18,2.600061376953125,11.461899852752685,32.799699783325195,36.88181915283203,1.6887548009430615e+18,2.600061376953125,-243.0666976928711,126.11749725341797,-95.12217712402344,1.6887548009385093e+18,2.5955094401041667,0.07939458203812434,0.5824086765448252,-0.3076087882121404,0.7479569415251414,1.4284807046254475,0.3766978482405345,-0.5392478207747141,1.6887548009471613e+18,2.6041614176432293,0.1763709386189778,-3.4447672764460244,-4.615954240163167
27,2.7,1.6887548010423247e+18,2.69932470703125,-0.5394264459609985,1.2598070621490478,-1.5174903869628906,1.6887548010423214e+18,2.6993213704427084,1.9745771785577138,-2.867897649606069,-10.14437166849772,1.6887548010423247e+18,2.69932470703125,2.361218309402466,-4.315045785903931,-8.467155838012696,1.6887548010423247e+18,2.69932470703125,-1.8941403865814208,-1.1700207352638246,-1.1159286379814148,1.6887548010379968e+18,2.6949967854817714,-1.7201456079880397,-1.2121093397339184,-1.0532080332438152,,,,,,,,,,,,1.6887548010430618e+18,2.700061669921875,6.66607985496521,34.68947982788086,36.2693790435791,1.6887548010430618e+18,2.700061669921875,-247.86251525878907,128.00727767944335,-95.73461837768555,1.6887548010423214e+18,2.6993213704427084,0.09484368811051046,0.5062854041655859,-0.3431456337372462,0.7845011949539185,1.2877346277236938,0.45917366941769916,-0.5871375302473704,1.6887548010423247e+18,2.69932470703125,1.8216558992862701,-3.055395209789276,-9.98477029800415
28,2.8000000000000003,1.6887548011374817e+18,2.794481730143229,-1.4277686675389607,-3.2367982864379883,-0.4998290538787841,1.6887548011461322e+18,2.803132120768229,0.14007983605066934,-9.977472066879272,-7.30439027150472,1.6887548011374817e+18,2.794481730143229,1.8681841095288594,-5.960556745529175,-7.552194197972615,1.6887548011374817e+18,2.794481730143229,-1.4354824026425679,0.2987385541200638,-0.625627820690473,1.6887548011418084e+18,2.798808349609375,-1.4105896949768066,0.28753937780857086,-0.5980370740095774,,,,,,,,,,,,1.688754801143062e+18,2.80006181640625,9.535519886016846,40.4429988861084,28.896919631958006,1.688754801143062e+18,2.80006181640625,-244.99307708740236,133.76080017089845,-103.10707778930664,1.6887548011461322e+18,2.803132120768229,0.04430020228028294,0.4672396332025528,-0.42734139660994214,0.7724706133206686,1.3163854877154033,0.6675240894158682,-0.6385654012362162,1.6887548011374817e+18,2.794481730143229,0.44027934471766156,-9.197511752446493,-8.052147388458252
29,2.9000000000000004,1.6887548012412908e+18,2.8982908935546874,-1.334274669488271,-0.4073948860168457,-0.6018007596333822,1.6887548012412943e+18,2.898294580078125,0.9579665184020996,-7.830033588409424,-6.3943400382995605,1.6887548012412908e+18,2.8982908935546874,2.4113802909851074,-7.2009265422821045,-6.15680193901062,1.6887548012412908e+18,2.8982908935546874,-2.0535253485043845,-1.3140983978907268,0.3427972048521042,1.6887548012456192e+18,2.902619344075521,-2.018604189157486,-1.3124694302678108,0.36595918486515683,,,,,,,,,,,,1.6887548012430653e+18,2.900065234375,7.323659801483155,44.782539749145506,22.382119369506835,1.6887548012430653e+18,2.900065234375,-247.2049362182617,138.10033569335937,-109.62187805175782,1.6887548012412943e+18,2.898294580078125,0.0013102985918521798,0.3916442334651947,-0.4647477328777313,0.7932401061058044,1.1716161966323853,0.8276248455047608,-0.569580364227295,1.6887548012412908e+18,2.8982908935546874,1.0769696334997814,-7.60847806930542,-6.758726994196574
30,3.0,1.688754801345103e+18,3.002103068033854,-0.2835720777511596,1.932031472524007,-1.0654550393422444,1.6887548013364462e+18,2.9934462890625,2.2473589380582175,-6.152644952138265,-6.09890604019165,1.688754801345103e+18,3.002103068033854,3.0004591147104898,-7.820212443669637,-5.10381539662679,1.688754801345103e+18,3.002103068033854,-0.3755294121801853,-0.7768169762566686,-0.23533583556612334,1.6887548013494326e+18,3.0064324544270833,-0.3942880593240261,-0.7738644493122896,-0.29746592106918496,,,,,,,,,,,,1.6887548013430676e+18,3.00006767578125,4.801919889450073,47.61903877258301,17.689999961853026,1.6887548013430676e+18,3.00006767578125,-249.72667541503907,140.93683929443358,-114.31399841308594,1.6887548013364462e+18,2.9934462890625,-0.0281682026882966,0.33714095254739124,-0.4780660917361577,0.8104582329591116,1.0250036815802257,0.9173977673053741,-0.47244460384051007,1.688754801345103e+18,3.002103068033854,2.7167510191599527,-5.888337691624959,-6.1693947315216064
31,3.1,1.688754801448913e+18,3.105913004557292,-1.4541875720024109,1.1880851586659749,-0.6334272225697836,1.6887548014402621e+18,3.097262084960937,1.8793627818425493,-7.494519849618276,-4.8674997091293335,1.688754801448913e+18,3.105913004557292,2.699987053871155,-8.508071263631185,-4.044017990430196,1.688754801448913e+18,3.105913004557292,-1.09080171585083,-1.0981829886635144,-0.9407070328791937,1.6887548014445914e+18,3.1015914062500003,-1.1353541523218156,-1.2776857428252697,-1.2126896947622299,,,,,,,,,,,,1.68875480144306e+18,3.1000598876953127,7.581079816818237,48.46571922302246,14.359399700164795,1.68875480144306e+18,3.1000598876953127,-246.94751892089843,141.78351745605468,-117.64459686279297,1.6887548014402621e+18,3.097262084960937,-0.0166687470239897,0.27014955629905063,-0.5305638561646143,0.8024943967660269,0.9625238180160522,1.0386068522930145,-0.5383314937353134,1.688754801448913e+18,3.105913004557292,1.2456635634104412,-7.320143004258473,-4.677569488684337
32,3.2,1.6887548015440748e+18,3.2010748535156246,-0.6440186023712159,3.8445944786071777,-0.8940596580505371,1.688754801544072e+18,3.201071736653646,2.1149561256170273,-4.471886436144511,-4.146063725153605,1.6887548015440748e+18,3.2010748535156246,2.70521240234375,-8.896404266357422,-3.1057780265808104,1.6887548015440748e+18,3.2010748535156246,-0.9682824969291687,-0.7153537392616272,-0.8714603632688522,1.688754801539747e+18,3.1967471110026042,-0.9510917464892069,-0.5918520619161427,-0.6891832649707794,,,,,,,,,,,,1.6887548015430607e+18,3.20006064453125,8.664439868927001,49.09157791137695,10.534699821472168,1.6887548015430607e+18,3.20006064453125,-245.8641555786133,142.4093765258789,-121.4692985534668,1.688754801544072e+18,3.201071736653646,-0.026252482707301714,0.21212224910656607,-0.5606690247853597,0.7995876769224802,0.8356518546740214,1.1390796502431233,-0.48858382801214856,1.6887548015440748e+18,3.2010748535156246,2.061057823896408,-5.051966381072998,-3.999961996078491
33,3.3000000000000003,1.6887548016392317e+18,3.2962317708333333,0.0787515640258789,-2.0542670885721845,-1.1009387771288555,1.6887548016478825e+18,3.304882527669271,1.8182461261749268,-12.386346658070883,-3.3889347910881042,1.6887548016392317e+18,3.2962317708333333,1.3047351042429605,-9.50789483388265,-1.952976365884145,1.6887548016392317e+18,3.2962317708333333,-1.4315881828467052,-0.7092400069038073,-1.1364129930734634,1.68875480164356e+18,3.3005600179036456,-1.4435764054457347,-0.7903832693894705,-1.0141126764938235,,,,,,,,,,,,1.6887548016430615e+18,3.3000614501953125,15.845359706878662,48.24245910644531,4.235839939117431,1.6887548016430615e+18,3.3000614501953125,-238.68323669433593,141.5602554321289,-127.76815719604492,1.6887548016478825e+18,3.304882527669271,-0.05560236920913055,0.1661412604153156,-0.6354774336020151,0.7511117458343506,0.9139315187931061,1.343345046043396,-0.596736008922259,1.6887548016392317e+18,3.2962317708333333,1.3833505511283875,-11.562318563461304,-3.0540392796198526
34,3.4000000000000004,1.6887548017430423e+18,3.400042195638021,-0.1859736442565918,-3.1615122159322104,-1.1585006713867188,1.688754801743042e+18,3.4000418945312503,0.8518448829650879,-12.611491394042968,-1.0884950041770936,1.6887548017430423e+18,3.400042195638021,1.6783336997032166,-9.646612167358398,-0.3877367766108364,1.6887548017430423e+18,3.400042195638021,-0.98160953912884,-2.0819050868352256,0.8266024986902872,1.6887548017473687e+18,3.4043688151041667,-0.9431504796569546,-2.0677533944447837,0.8513934339086214,,,,,,,,,,,,1.6887548017430615e+18,3.4000613769531247,14.708319759368896,48.66457824707031,0.37697998583316805,1.6887548017430615e+18,3.4000613769531247,-239.82027587890624,141.9823791503906,-131.62701873779298,1.688754801743042e+18,3.4000418945312503,-0.0420755252242088,0.05328264348208898,-0.6385055184364319,0.7659707903862,0.1696388794109225,1.3875043630599975,-0.03410818204283716,1.6887548017430423e+18,3.400042195638021,1.4922240376472473,-12.808280944824219,-1.5463616847991943
35,3.5,1.6887548018468516e+18,3.503851440429688,-0.09558514753977458,0.09274673461914062,-1.3728943566481273,1.688754801838202e+18,3.4952021891276046,2.8535406986872354,-9.499207019805908,-0.8005985915660858,1.6887548018468516e+18,3.503851440429688,2.649261752764384,-9.440051873524984,0.10691624771182733,1.6887548018468516e+18,3.503851440429688,0.4025347518424193,-0.9267844011386236,0.9301950732866923,1.6887548018425288e+18,3.4995289550781252,0.3731164999306202,-0.8694139420986176,0.9582948565483094,,,,,,,,,,,,1.6887548018430618e+18,3.5000616699218754,9.47939977645874,49.5710391998291,1.3944599777460098,1.6887548018430618e+18,3.5000616699218754,-245.0491973876953,142.88883514404296,-130.60953521728516,1.688754801838202e+18,3.4952021891276046,0.004555203883986301,-0.017224961600732,-0.6046311358610789,0.7960446079572042,-0.08566161617636676,1.2982860207557678,0.05451672190489865,1.6887548018468516e+18,3.503851440429688,2.553540507952372,-9.347462018330893,-1.2661023115118344
36,3.6,1.688754801942015e+18,3.5990149902343753,0.13337397575378415,2.1528717041015626,0.0763038039207458,1.6887548019420122e+18,3.5990122884114584,3.398705462614695,-7.178767045338948,-0.04067797710498178,1.688754801942015e+18,3.5990149902343753,3.3667436599731446,-9.212379264831544,-0.0812044990714639,1.688754801942015e+18,3.5990149902343753,0.33469306826591494,-1.3928032994270325,0.6124229490756988,1.6887548019376896e+18,3.5946896158854167,0.3978005473812421,-1.2918272614479065,0.6192900886138281,,,,,,,,,,,,1.688754801943059e+18,3.6000587158203126,4.9263598918914795,49.94069900512695,4.504239916801453,1.688754801943059e+18,3.6000587158203126,-249.60223388671875,143.25849456787108,-127.49975814819337,1.6887548019420122e+18,3.5990122884114584,0.06113094401856258,-0.04366367869079108,-0.5697706540425619,0.8180364271004995,-0.005319629485408449,1.2169648011525471,-0.1454832019905249,1.688754801942015e+18,3.5990149902343753,3.499981641769409,-7.059664249420166,-0.005024909973144531
37,3.7,1.688754802037172e+18,3.6941717936197915,1.2413950363794963,0.9300637245178223,-0.49989301959673565,1.6887548020458227e+18,3.702822672526042,4.866602500279744,-8.409176429112753,-0.509571502606074,1.688754802037172e+18,3.6941717936197915,3.537905693054199,-9.14885393778483,-0.10785944977154331,1.688754802037172e+18,3.6941717936197915,0.30790153145790095,-0.27985264112552005,-0.1352048392097155,1.6887548020414984e+18,3.6984982910156248,0.3071124951044718,-0.26648996273676545,-0.1553633933266004,,,,,,,,,,,,1.68875480204306e+18,3.700059912109375,3.4769999265670775,49.64545936584473,5.858439922332764,1.68875480204306e+18,3.700059912109375,-251.05159454345704,142.9632568359375,-126.14555740356445,1.6887548020458227e+18,3.702822672526042,0.09274002909660335,-0.06207646491626894,-0.5612078408400217,0.820086141427358,0.006632978057799217,1.1999138394991558,-0.2298573330044746,1.688754802037172e+18,3.6941717936197915,4.779164671897888,-8.218946854273478,-0.60787666340669
38,3.8000000000000003,1.688754802140984e+18,3.7979840901692707,3.3086090882619223,1.0848084290822346,-0.468462735414505,1.6887548021496333e+18,3.8066331787109378,6.749654134114583,-7.946165323257446,-0.7667999615271887,1.688754802140984e+18,3.7979840901692707,3.2596256732940674,-9.248364448547363,-0.24935963501532868,1.688754802140984e+18,3.7979840901692707,0.18267415960629782,-0.3073415781060854,-0.4521930019060771,1.6887548021453076e+18,3.802307779947917,0.1817069550355275,-0.32821280012528103,-0.45522187153498334,,,,,,,,,,,,1.6887548021430597e+18,3.8000598144531255,5.487559914588928,49.075718307495116,7.1674998760223385,1.6887548021430597e+18,3.8000598144531255,-249.0410354614258,142.39351806640624,-124.83649673461915,1.6887548021496333e+18,3.8066331787109378,0.10962897042433416,-0.06818212196230884,-0.5742505788803101,0.8083883126576742,0.047826910391449866,1.2328855792681377,-0.30361666282018024,1.688754802140984e+18,3.7979840901692707,6.568098704020183,-8.16371258099874,-0.7179465343554815
39,3.9000000000000004,1.688754802244792e+18,3.9017920735677083,-0.13907992839813232,-3.1757930914560952,-0.13288621107737222,1.6887548022447918e+18,3.901791845703125,2.164068815112114,-13.667443943023681,-0.2955136150121689,1.688754802244792e+18,3.9017920735677083,2.817282954851786,-9.384873867034912,-0.4329918871323268,1.688754802244792e+18,3.9017920735677083,0.28771752864122385,0.3569743682940801,-0.23879740511377653,1.6887548022491215e+18,3.9061214192708333,0.29461521655321116,0.40250928948322934,-0.18017980456352237,,,,,,,,,,,,1.6887548022430587e+18,3.9000586669921873,7.778719854354859,48.62187881469727,7.982459878921508,1.6887548022430587e+18,3.9000586669921873,-246.7498748779297,141.93967895507814,-124.02153778076172,1.6887548022447918e+18,3.901791845703125,0.12046330124139781,-0.06900344416499135,-0.5932375311851501,0.7928653597831726,0.1176367953419685,1.278040075302124,-0.38934722542762756,1.688754802244792e+18,3.9017920735677083,2.6780670086542764,-12.560823440551758,-0.5660022248824438
40,4.0,1.688754802348601e+18,4.005600992838541,-2.9449235995610556,2.7658491134643555,0.17115179697672525,1.6887548023399544e+18,3.9969542643229166,-0.09870394070943196,-6.696613272031148,-0.681854747235775,1.688754802348601e+18,4.005600992838541,2.253633658091227,-9.497400442759195,-0.8166909217834473,1.688754802348601e+18,4.005600992838541,-0.5023603017131487,2.4276802937189736,-1.163520097732544,1.68875480234428e+18,4.001279931640625,-0.42250493355095387,2.449294722080231,-1.252884604036808,,,,,,,,,,,,1.6887548023430618e+18,4.00006162109375,11.114199542999268,48.34737892150879,6.6916999340057375,1.6887548023430618e+18,4.00006162109375,-243.41439666748047,141.66517791748046,-125.31229782104492,1.6887548023399544e+18,3.9969542643229166,0.0850355842461188,-0.01869931035131835,-0.6134252647558848,0.7837064067522684,0.30356696496407193,1.3113587299982707,-0.45199727018674213,1.688754802348601e+18,4.005600992838541,-0.6914260188738505,-6.73170793056488,-0.6456632961829504
41,4.1000000000000005,1.6887548024437655e+18,4.1007655761718755,-1.478529381752014,0.589145278930664,-1.0065502047538757,1.688754802443765e+18,4.100765218098958,-0.853041261434555,-9.289436022440592,-0.9271190762519836,1.6887548024437655e+18,4.1007655761718755,0.8777080535888672,-9.754456329345704,0.13269590735435485,1.6887548024437655e+18,4.1007655761718755,-1.746066677570343,0.42394046783447265,-1.2968668937683105,1.6887548024394386e+18,4.0964384765625,-1.6446019510428111,0.7694356739521027,-1.3328061401844025,,,,,,,,,,,,1.6887548024430592e+18,4.1000591796875,18.547659587860107,46.978539276123044,-2.109379968047142,1.6887548024430592e+18,4.1000591796875,-235.9809356689453,140.296337890625,-134.11337890625,1.688754802443765e+18,4.100765218098958,-0.02952670647452273,0.013271019017944717,-0.673047403494517,0.7381116052468618,-0.34932944799462956,1.4575676719347637,0.40995841721693677,1.6887548024437655e+18,4.1007655761718755,-0.6009574174880982,-9.16546802520752,-0.8739784866571426
42,4.2,1.688754802538923e+18,4.195922932942708,0.14064298073450718,0.5028950373331705,-2.915375073750814,1.688754802547574e+18,4.204574015299479,-0.4012963076432546,-8.994620323181152,-2.0254246536642313,1.688754802538923e+18,4.195922932942708,-0.6664294116199017,-9.752493222554525,0.6892768243948618,1.688754802538923e+18,4.195922932942708,0.20364720312257611,1.7448856631914775,-1.7238617142041524,1.6887548025432507e+18,4.200250691731771,0.2387465005570751,1.7594701250394185,-1.6724726756413777,,,,,,,,,,,,1.6887548025430615e+18,4.20006142578125,25.613899421691894,43.34537925720215,-7.772619819641113,1.6887548025430615e+18,4.20006142578125,-228.9146957397461,136.66317596435547,-139.77662048339843,1.688754802547574e+18,4.204574015299479,-0.08920310561855628,0.04114338763368622,-0.7311392426490784,0.6741213699181875,-2.268102089564006,1.4573232134183247,2.45311705271403,1.688754802538923e+18,4.195922932942708,-0.5259224871794382,-9.249755144119263,-2.226222351193428
43,4.3,1.6887548026427318e+18,4.299731608072917,1.2348978718121846,0.22759278615315756,-1.618081087867419,1.6887548026427333e+18,4.299733203124999,-0.6579065918922424,-9.30843906402588,-0.5958128571510315,1.6887548026427318e+18,4.299731608072917,-1.7927880485852559,-9.609594027201334,0.7619736095269521,1.6887548026427318e+18,4.299731608072917,-0.4846706725656986,0.675591508547465,-0.8622108399868011,1.6887548026470584e+18,4.304058553059896,-0.5348888834317526,0.6541348745425543,-0.8367835779984792,,,,,,,,,,,,1.6887548026430605e+18,4.300060473632813,29.789959716796876,40.13189926147461,-10.915339851379395,1.6887548026430605e+18,4.300060473632813,-224.73863525390624,133.44969329833984,-142.9193374633789,1.6887548026427333e+18,4.299733203124999,-0.12235004901885982,0.08216833025217052,-0.7622945070266723,0.630038607120514,-2.7050902843475346,1.3748719930648803,2.996802043914795,1.6887548026427318e+18,4.299731608072917,-0.5580261641492447,-9.382157961527506,-0.8562316919366518
44,4.4,1.688754802746544e+18,4.403544230143229,1.5538283586502075,-4.32826026280721,-5.745212237040202,1.6887548027378895e+18,4.3948894856770835,-0.6171488463878632,-13.490235487620035,-4.5992045402526855,1.688754802746544e+18,4.403544230143229,-2.2735331853230796,-9.471788883209229,1.1477271517117817,1.688754802746544e+18,4.403544230143229,0.32330042123794556,0.25121833601345617,-0.015627962847550674,1.688754802742215e+18,4.39921484375,0.27956247329711914,0.31288517713546754,-0.24254404604434968,,,,,,,,,,,,1.6887548027430592e+18,4.400059301757812,31.771239280700684,37.71751861572265,-14.475299739837647,1.6887548027430592e+18,4.400059301757812,-222.75735473632812,131.03531799316406,-146.479296875,1.6887548027378895e+18,4.3948894856770835,-0.14682786911725992,0.08420188973347342,-0.7782144943873087,0.604679932196935,-2.63006583849589,1.3087057669957478,2.9611327250798545,1.688754802746544e+18,4.403544230143229,-0.7198408097028732,-13.800205707550049,-4.597609361012776
45,4.5,1.688754802841705e+18,4.498705126953125,-1.4709134578704834,-1.7698034286499023,-0.9354662418365478,1.6887548028417032e+18,4.4987032470703125,-2.2652054329713187,-11.77697483698527,-0.5306084124992291,1.688754802841705e+18,4.498705126953125,-0.9246445693075657,-9.733415031433106,0.42173179388046267,1.688754802841705e+18,4.498705126953125,0.43829582035541537,-1.439992645382881,2.7292237281799316,1.6887548028373804e+18,4.494380533854167,0.4320598927636941,-1.311807672182719,2.620051900545756,,,,,,,,,,,,1.6887548028430648e+18,4.50006474609375,27.32433948516846,41.972879028320314,-11.9352596282959,1.6887548028430648e+18,4.50006474609375,-227.20425567626953,135.29067840576172,-143.9392578125,1.6887548028417032e+18,4.4987032470703125,-0.11767431969443953,0.09038263248900569,-0.7309229671955109,0.6643501818180084,-2.3076174358526864,1.4555394252141316,2.6037468711535134,1.688754802841705e+18,4.498705126953125,-2.395694041252136,-11.503375053405762,-0.5138586521148681
46,4.6000000000000005,1.6887548029368627e+18,4.593862915039062,-2.357032616933187,-6.035444418589274,3.717193305492401,1.6887548029455155e+18,4.6025153808593755,-0.6980062648653984,-15.362419764200846,5.670291721820831,1.6887548029368627e+18,4.593862915039062,1.9118045667807262,-9.409770170847574,1.637669046719869,1.6887548029368627e+18,4.593862915039062,-1.6999361713727315,-0.870432054362027,3.4433964490890503,1.688754802941195e+18,4.5981948242187505,-1.5894713662564754,-0.7891360831757387,3.466736634572347,,,,,,,,,,,,1.6887548029430605e+18,4.600060522460938,12.762419748306275,47.12127914428711,-15.220719623565675,1.6887548029430605e+18,4.600060522460938,-241.76617584228515,140.43907318115234,-147.22471771240234,1.6887548029455155e+18,4.6025153808593755,-0.1231801571945349,-0.022440103193124134,-0.6191920936107635,0.7729622423648834,-0.7108887732028961,1.2683692574501038,0.8551609913508097,1.6887548029368627e+18,4.593862915039062,-0.4453641126553218,-15.44537099202474,5.354738334814708
47,4.7,1.6887548030406746e+18,4.697674641927083,-6.820860068003337,5.978703896204631,-1.2918719053268433,1.6887548030493248e+18,4.706324910481771,-1.0991031924883525,-1.5291134205957253,0.7892326563596725,1.6887548030406746e+18,4.697674641927083,4.749509612719218,-8.2785484790802,2.137958606084188,1.6887548030406746e+18,4.697674641927083,0.702265960474809,-2.0604993800322213,3.19945760567983,1.6887548030450012e+18,4.702001424153646,0.6317364747325579,-2.1332432428995767,3.1174235343933105,,,,,,,,,,,,1.6887548030430623e+18,4.700062109375,-2.1484199739992618,49.92239875793457,-14.64731960296631,1.6887548030430623e+18,4.700062109375,-256.67701416015626,143.24020080566407,-146.65131683349608,1.6887548030493248e+18,4.706324910481771,-0.06588667786369716,-0.09501511355241136,-0.4861210783322652,0.8643393814563751,-0.4303136318922043,0.9797281722227732,0.38621855278809863,1.6887548030406746e+18,4.697674641927083,-2.071486492951711,-2.3000009953975673,0.8459625045458475
48,4.800000000000001,1.688754803144486e+18,4.801485799153646,-2.490983486175537,5.0863955815633135,-0.5137805541356405,1.6887548031444833e+18,4.8014831054687495,2.388276243209839,-2.4516860485076903,2.7282963514328005,1.688754803144486e+18,4.801485799153646,5.472277482350667,-7.54167381922404,3.0478042364120483,1.688754803144486e+18,4.801485799153646,0.11850785526136558,-0.9714793562889099,-0.5893068114916483,1.688754803148811e+18,4.805811116536458,0.15070554489890733,-0.90227343638738,-0.7644215027491251,,,,,,,,,,,,1.6887548031430623e+18,4.8000623046875,-6.896659898757934,50.201779174804685,-15.295139598846436,1.6887548031430623e+18,4.8000623046875,-261.4252502441406,143.5195785522461,-147.29913787841798,1.6887548031444833e+18,4.8014831054687495,-0.021159978024661498,-0.17145200371742247,-0.4347887337207793,0.8836742281913758,-0.5193970263004303,0.8652771711349487,0.2924512386322021,1.688754803144486e+18,4.801485799153646,2.9811578591664634,-2.4554348985354104,2.533899486064911
49,4.9,1.6887548032482967e+18,4.905296590169271,7.146632830301921,-6.714870929718018,0.4801679253578186,1.6887548032396434e+18,4.896643513997396,10.893325010935465,-14.38824208577474,3.2253255446751914,1.6887548032482967e+18,4.905296590169271,4.043139457702637,-8.348488966623941,3.1768871545791626,1.6887548032482967e+18,4.905296590169271,0.36389751359820366,-1.0883582532405853,-0.6709082076946894,1.6887548032439736e+18,4.9009736328125,0.2948646485805511,-1.0654711365699767,-0.8103738307952881,,,,,,,,,,,,1.6887548032430592e+18,4.900059301757812,2.455860024690628,51.391279220581055,-14.389899730682373,1.6887548032430592e+18,4.900059301757812,-252.07273559570314,144.70907897949218,-146.3938980102539,1.6887548032396434e+18,4.896643513997396,-0.0029312622112532,-0.19494352738062537,-0.5013691782951355,0.8426179687182108,-0.6694031655788422,1.0049257179101307,0.38566769162813824,1.6887548032482967e+18,4.905296590169271,11.189636071523031,-15.063516616821289,3.6569308638572693
50,5.0,1.688754803343456e+18,5.0004560546875,-4.624373245239258,0.46207456588745116,1.2082797527313232,1.6887548033434542e+18,5.000454142252604,0.15184448162714634,-7.979564925034841,4.498905261357625,1.688754803343456e+18,5.0004560546875,3.9133623600006104,-8.41554069519043,3.1762134552001955,1.688754803343456e+18,5.0004560546875,0.0219300673343241,0.7149566605687141,-0.2276389345061034,1.6887548033391322e+18,4.9961322428385415,0.12326752083996934,0.5351179838180543,-0.15085827186703682,,,,,,,,,,,,1.6887548033430636e+18,5.000063305664062,3.7026999473571776,52.59663887023926,-13.495639610290528,1.6887548033430636e+18,5.000063305664062,-250.82589416503907,145.91443786621093,-145.4996353149414,1.6887548033434542e+18,5.000454142252604,0.023257333824100532,-0.21135000884532926,-0.5050443063179652,0.8362998366355896,-0.6895966132481893,1.0253181457519531,0.34326300024986267,1.688754803343456e+18,5.0004560546875,-0.711146879196167,-7.95362286567688,4.384368968009949
51,5.1000000000000005,1.6887548034386163e+18,5.095616292317708,-5.290458261966705,1.7198932965596516,-0.14790179332097372,1.688754803447267e+18,5.104266886393229,-3.2046874463558197,-7.922735611597697,2.2256241341431937,1.6887548034386163e+18,5.095616292317708,2.554501235485077,-9.070687135060629,2.5070499976476035,1.6887548034386163e+18,5.095616292317708,-0.30283644298712414,2.7437012990315757,-3.933972120285034,1.688754803442944e+18,5.099944091796875,-0.36710455392797786,2.717510441939036,-4.018347938855489,,,,,,,,,,,,1.6887548034430633e+18,5.100063427734375,10.509079933166504,52.12571907043457,-15.289039802551269,1.6887548034430633e+18,5.100063427734375,-244.01951446533204,145.44351959228516,-147.29303741455078,1.688754803447267e+18,5.104266886393229,-0.06332029945527512,-0.1141099631786346,-0.6042360464731852,0.7820207277933756,-0.8774708012739817,1.2001977761586506,0.8034654259681702,1.6887548034386163e+18,5.095616292317708,-2.7360929946104684,-7.350950479507446,2.3590239882469177
52,5.2,1.6887548035424243e+18,5.19942431640625,-1.0227812230587006,-1.693489074707031,-4.216600735982259,1.6887548035424233e+18,5.199423291015625,-0.4557130515575409,-11.296874809265137,-1.2927224159240722,1.6887548035424243e+18,5.19942431640625,0.014043450976411465,-9.325701395670572,3.0141322215398154,1.6887548035424243e+18,5.19942431640625,-0.639601357281208,0.6233879725138347,-1.8098410367965698,1.6887548035467512e+18,5.203751383463541,-0.5509495418518782,0.5855143368244171,-1.7345009644826253,,,,,,,,,,,,1.688754803543062e+18,5.200061889648437,23.919319725036623,45.61945915222168,-22.357719230651856,1.688754803543062e+18,5.200061889648437,-230.60927734375,138.9372573852539,-154.3617172241211,1.6887548035424233e+18,5.199423291015625,-0.15567058622837066,-0.07202927768230434,-0.6999456524848938,0.6930269122123718,-1.5385601997375489,1.2454712629318236,1.6585198879241942,1.6887548035424243e+18,5.19942431640625,-1.0088739295800526,-11.019346872965494,-1.2025927752256393
53,5.300000000000001,1.6887548036462385e+18,5.303238484700521,2.079697767893473,2.084836483001709,-0.5551506280899048,1.6887548036375857e+18,5.2945857340494795,0.8089734812577566,-7.3073813915252686,2.2288145646452904,1.6887548036462385e+18,5.303238484700521,-1.3690928717454274,-9.286677042643229,2.8338402112325034,1.6887548036462385e+18,5.303238484700521,0.1545743644237518,0.700178841749827,-1.344565322001775,1.6887548036419087e+18,5.298908935546875,0.2761110946536064,0.7222565114498138,-1.364306426048279,,,,,,,,,,,,1.6887548036430646e+18,5.300064599609375,31.000199699401854,42.31081924438477,-22.870119667053224,1.6887548036430646e+18,5.300064599609375,-223.5283950805664,135.6286178588867,-154.87411804199218,1.6887548036375857e+18,5.2945857340494795,-0.1687799965341886,-0.03311081572125352,-0.7486680547396342,0.6398250957330068,-1.9660092393557231,1.2429408431053162,2.1608261466026306,1.6887548036462385e+18,5.303238484700521,0.7104689578215281,-7.201997439066569,2.2785654266675315
54,5.4,1.6887548037413955e+18,5.3983953125,2.1181031227111817,-3.9491647720336913,-5.556824779510498,1.6887548037413952e+18,5.398395426432292,-0.32941190898418427,-12.875379721323648,-1.845464472969373,1.6887548037413955e+18,5.3983953125,-2.245145630836487,-8.953256797790527,3.3123616695404055,1.6887548037413955e+18,5.3983953125,-0.7131240844726563,-0.14672983214259147,-0.7120245233178139,1.6887548037370726e+18,5.3940727945963545,-0.6911685780311624,-0.06783149391412735,-0.704963947335879,,,,,,,,,,,,1.6887548037430612e+18,5.400061083984375,34.65409965515137,38.57273902893066,-26.20071964263916,1.6887548037430612e+18,5.400061083984375,-219.87449493408204,131.89053955078126,-158.2047149658203,1.6887548037413952e+18,5.398395426432292,-0.19624232997496918,-0.030062325298786136,-0.7799853881200155,0.593279629945755,-2.1384489933649697,1.1526470581690471,2.379286209742228,1.6887548037413955e+18,5.3983953125,-0.12717852592468262,-12.902578353881836,-2.2445872902870176
55,5.5,1.6887548038365563e+18,5.49355615234375,-0.014380196730295816,-5.575356324513753,-1.7154486179351807,1.6887548038452052e+18,5.50220528157552,-1.7795621454715729,-14.228620688120523,1.6733806331952412,1.6887548038365563e+18,5.49355615234375,-1.5411175737778346,-9.210436344146729,2.887357989947001,1.6887548038365563e+18,5.49355615234375,1.1112402280171711,0.1106175104699408,2.2003366152445474,1.6887548038408799e+18,5.497880126953125,1.1303807000319164,0.1037198243041833,2.341115598877271,,,,,,,,,,,,1.6887548038430612e+18,5.500061303710938,30.297479248046876,43.16237869262695,-25.011219596862794,1.6887548038430612e+18,5.500061303710938,-224.23111724853516,136.4801773071289,-157.0152160644531,1.6887548038452052e+18,5.50220528157552,-0.1808575515945752,-0.015580681307862167,-0.7510493298371633,0.6330631872018179,-1.9518661896387737,1.2379244764645894,2.189556062221527,1.6887548038365563e+18,5.49355615234375,-1.5556338379780452,-14.785949071248373,1.171785190701485
56,5.6000000000000005,1.6887548039403676e+18,5.5973677164713544,-3.298501670360565,-5.042930920918782,6.047829548517863,1.6887548039490153e+18,5.606015502929687,-1.1681959281365077,-14.361422379811605,8.12243644396464,1.6887548039403676e+18,5.5973677164713544,1.6036219398180644,-9.414745807647705,2.040034810702006,1.6887548039403676e+18,5.5973677164713544,0.7029022971789042,-0.5839617302020391,3.248988628387451,1.688754803944693e+18,5.6016929117838545,0.6909904082616171,-0.6512841507792473,3.2066862185796103,,,,,,,,,,,,1.6887548039430597e+18,5.600059619140625,13.069859790802003,52.61249961853027,-20.062899780273437,1.6887548039430597e+18,5.600059619140625,-241.45873565673827,145.9302963256836,-152.0668960571289,1.6887548039490153e+18,5.606015502929687,-0.1427507549524307,-0.018883994314819515,-0.633681466182073,0.7584892809391022,-0.867977519830068,1.2692899306615193,1.045376678307851,1.6887548039403676e+18,5.5973677164713544,-1.6950157657265663,-14.457833131154379,8.087740619977316
57,5.7,1.688754804044171e+18,5.701170735677084,-6.851059039433797,3.506354808807373,-1.3375497659047444,1.688754804044172e+18,5.701172216796875,-3.324468207359314,-5.3273803949356076,0.16977076530456545,1.688754804044171e+18,5.701170735677084,4.277814030647278,-8.63491439819336,1.6524298389752705,1.688754804044171e+18,5.701170735677084,0.8257880186041197,-1.58832598477602,3.1315752267837524,1.688754804048499e+18,5.705498982747396,0.7900269298503796,-1.6337082317719858,3.179986278216044,,,,,,,,,,,,1.6887548040430577e+18,5.7000578125,-3.1695598512887955,54.897558975219724,-14.855939674377442,1.6887548040430577e+18,5.7000578125,-257.69815521240236,148.2153564453125,-146.8599365234375,1.688754804044172e+18,5.701172216796875,-0.08429446220397946,-0.0478774011135101,-0.5247387051582336,0.8447338938713074,-0.3754884302616119,1.07387934923172,0.4283877074718475,1.688754804044171e+18,5.701170735677084,-2.5733811358610788,-5.128716280062993,0.3147558961063624
58,5.800000000000001,1.6887548041479816e+18,5.804981689453125,-3.013497471809387,7.364465395609538,-0.4980518420537312,1.6887548041393285e+18,5.796328572591146,1.8218353589375813,0.16460623592138288,2.0035901168982186,1.6887548041479816e+18,5.804981689453125,5.526994625727336,-7.608277082443237,2.7654751936594644,1.6887548041479816e+18,5.804981689453125,-0.08452848220864932,-1.7353917956352234,0.11713338891665141,1.6887548041436554e+18,5.800655419921875,-0.1729054033756256,-1.8268841922283172,0.31520646512508393,,,,,,,,,,,,1.6887548041430564e+18,5.800056469726562,-13.262619590759277,53.034619140625,-15.253659629821778,1.6887548041430564e+18,5.800056469726562,-267.7912170410156,146.3524154663086,-147.25765838623047,1.6887548041393285e+18,5.796328572591146,-0.015989870453874216,-0.1500469123323758,-0.4386046975851059,0.8853778342405955,-0.45627088844776154,0.8828437725702921,0.25427699834108347,1.6887548041479816e+18,5.804981689453125,2.513361096382141,-0.24396819869677225,2.2672991255919137
59,5.9,1.6887548042431485e+18,5.90014853515625,5.901435470581054,-6.160237503051758,0.1499186277389525,1.688754804243149e+18,5.900149169921875,9.714760303497314,-14.059926668802897,2.90877503156662,1.6887548042431485e+18,5.90014853515625,4.129532718658448,-8.407947731018066,2.8808351039886473,1.6887548042431485e+18,5.90014853515625,0.2994766891002655,-0.9580810457468033,-1.4887091755867004,1.6887548042388221e+18,5.8958219807942704,0.32126420860489213,-0.9537642896175385,-1.4546228696902592,,,,,,,,,,,,1.6887548042430605e+18,5.90006044921875,-4.8690199732780455,54.0960189819336,-14.627799797058106,1.6887548042430605e+18,5.90006044921875,-259.3976165771484,147.4138153076172,-146.63179626464844,1.688754804243149e+18,5.900149169921875,0.0029162716527935165,-0.18232959757248557,-0.5023414542277654,0.8447258969148,-0.6221758921941122,1.016450564066569,0.3489322712024053,1.6887548042431485e+18,5.90014853515625,10.030832099914551,-14.568342018127442,3.030629515647888
60,6.0,1.6887548043383073e+18,5.995307454427084,-1.0051414171854658,-2.3337175846099854,1.8811808029810588,1.6887548043469576e+18,6.003957356770833,1.6565310781200726,-9.263015270233154,4.680759827295939,1.6887548043383073e+18,5.995307454427084,3.8314003944396973,-8.424455801645914,3.2515477339426675,1.6887548043383073e+18,5.995307454427084,0.23317235708236694,-0.8813512977212669,0.2522873505949974,1.6887548043426335e+18,5.999633463541667,0.24134267990787825,-0.7037676572799683,0.13355042040348056,,,,,,,,,,,,1.68875480434306e+18,6.000060131835937,-3.4440599203109743,53.71049842834473,-13.754279708862304,1.68875480434306e+18,6.000060131835937,-257.9726531982422,147.0282974243164,-145.7582763671875,1.6887548043469576e+18,6.003957356770833,0.05244761394957697,-0.23535309731960294,-0.500136598944664,0.8316357533137003,-0.7172001699606577,1.0286864638328552,0.29154107471307117,1.6887548043383073e+18,5.995307454427084,2.8261228799819946,-10.75832986831665,5.132604618867238
61,6.1000000000000005,1.688754804442117e+18,6.0991171468098955,-4.720775008201599,1.712778091430664,-0.7928872108459473,1.6887548044421225e+18,6.09912236328125,-1.7639888167381286,-7.821778297424316,2.3804996013641357,1.688754804442117e+18,6.0991171468098955,2.6845192114512124,-9.051408290863037,2.4881268739700317,1.688754804442117e+18,6.0991171468098955,0.20911954591671625,3.6233981053034463,-3.450421452522278,1.6887548044464435e+18,6.103443603515625,0.15073099980751672,3.7038541634877524,-3.560529887676239,,,,,,,,,,,,1.688754804443065e+18,6.1000650634765625,3.3781800255179406,53.018759155273436,-11.985279750823974,1.688754804443065e+18,6.1000650634765625,-251.1504150390625,146.33655700683593,-143.98927612304686,1.6887548044421225e+18,6.09912236328125,-0.002692341804504421,-0.15684671700000757,-0.5752614259719848,0.799553382396698,-0.7528200268745422,1.1763952732086183,0.5286041319370269,1.688754804442117e+18,6.0991171468098955,-2.0363917549451194,-7.3387869993845625,1.6951154470443726
62,6.2,1.6887548045459261e+18,6.202926066080729,-2.55015700062116,-0.34781591097513836,-2.818439503510793,1.6887548045372762e+18,6.194276123046875,-2.946162839730581,-9.487641334533691,0.3068794906139374,1.6887548045459261e+18,6.202926066080729,0.1007405106599132,-9.407764593760172,2.7199594974517822,1.6887548045459261e+18,6.202926066080729,-1.0850239259501298,1.0793734192848206,-2.186592141787211,1.6887548045416067e+18,6.198606591796875,-1.267637038230896,1.2010832384228707,-2.119946765899658,,,,,,,,,,,,1.688754804543062e+18,6.200061987304688,16.960439682006836,48.38641891479492,-17.66559953689575,1.688754804543062e+18,6.200061987304688,-237.56815338134766,141.70421752929687,-149.6695983886719,1.6887548045372762e+18,6.194276123046875,-0.13421569888790444,-0.06257442819575465,-0.6920266052087148,0.7052494486172994,-1.431020200252533,1.2840684652328491,1.5335626602172852,1.6887548045459261e+18,6.202926066080729,-2.4495524714390435,-9.75573738416036,-0.09860424138605595
63,6.300000000000001,1.6887548046497395e+18,6.30673974609375,2.2341309785842896,0.9236697355906168,-1.5974822044372559,1.6887548046410898e+18,6.298089925130209,1.1264212615787983,-8.468797445297241,1.1872388621171315,1.6887548046497395e+18,6.30673974609375,-1.3917213877042134,-9.275461037953695,2.8607176542282104,1.6887548046497395e+18,6.30673974609375,0.1739947870373726,1.0807987848917644,-1.4414892693360646,1.688754804636764e+18,6.293763875325521,0.25226189196109766,0.8993718152244886,-1.5995251735051472,,,,,,,,,,,,1.6887548046430612e+18,6.3000611328125,24.40609951019287,43.976118850708005,-20.17879981994629,1.6887548046430612e+18,6.3000611328125,-230.12249755859375,137.29391784667968,-152.18279418945312,1.6887548046410898e+18,6.298089925130209,-0.1690127924084663,-0.0338460835628211,-0.7492910126845042,0.6387856503327688,-1.9697240988413494,1.240336835384369,2.163897395133972,1.6887548046497395e+18,6.30673974609375,0.842273568113645,-8.351948102315268,1.2631112486124039
64,6.4,1.6887548047449006e+18,6.401900732421875,1.8688523769378662,-1.5938440322875977,-3.7444145679473877,1.6887548047448968e+18,6.4018967285156245,-0.903789093097051,-10.770593166351318,-0.6344967981179556,1.6887548047449006e+18,6.401900732421875,-2.206104373931885,-8.988735961914063,3.2390550136566163,1.6887548047449006e+18,6.401900732421875,-0.6582072973251343,0.16178765296936035,-0.8605564117431641,1.688754804740576e+18,6.397576009114584,-0.6306929091612498,0.28440869475404423,-0.7918340812126795,1.688754804743e+18,6.4,0.0,0.0,14.486469268798828,38.99599838256836,2.547043561935425,84.22135162353516,328.1999816894531,-122.9172579,49.2791706,1.688754804743063e+18,6.400062866210938,27.942879486083985,39.83421936035156,-22.72005958557129,1.688754804743063e+18,6.400062866210938,-226.5857131958008,133.15201873779296,-154.72405700683595,1.6887548047448968e+18,6.4018967285156245,-0.20617317905028656,-0.011556403556217718,-0.7790726721286774,0.5917124549547831,-2.1379531224568686,1.161375383536021,2.4200275341669717,1.6887548047449006e+18,6.401900732421875,-0.3373880147933958,-10.582736778259278,-0.5054837852716446
65,6.5,1.6887548048400596e+18,6.497059366861979,0.9529999693234762,-6.486905097961426,-3.8980288902918496,1.6887548048487107e+18,6.505710815429687,-0.8624131896843513,-15.233207702636719,-0.1476571410894394,1.6887548048400596e+18,6.497059366861979,-1.9735024968783061,-9.08592700958252,3.07053542137146,1.6887548048400596e+18,6.497059366861979,0.87491175532341,-0.1048651933670044,1.4485905667146046,1.6887548048443873e+18,6.501387491861979,0.9341147728264332,-0.1327104767163595,1.5869769901037216,,,,,,,,,,,,1.688754804843058e+18,6.500057885742187,27.92091941833496,39.04365921020508,-21.56471977233887,1.688754804843058e+18,6.500057885742187,-226.60767669677733,132.36145782470703,-153.56871795654297,1.6887548048487107e+18,6.505710815429687,-0.19546719143788016,-0.007425015947471033,-0.7681641777356466,0.6085612078507742,-2.083795726299286,1.2013143301010132,2.355303486188253,1.6887548048400596e+18,6.497059366861979,-1.0206385056177776,-15.572988351186117,-0.8276175459225973
66,6.6000000000000005,1.688754804943869e+18,6.600869059244791,-2.1454875469207764,-4.053630510965983,5.905621290206909,1.6887548049438692e+18,6.60086923828125,-1.0290333770215512,-13.733485984802247,8.143613052368163,1.688754804943869e+18,6.600869059244791,0.9462212212383747,-9.480018138885498,2.102083742618561,1.688754804943869e+18,6.600869059244791,0.7829256355762482,-0.24210625886917114,3.586338996887207,1.6887548049481994e+18,6.605199381510417,0.7384597311417261,-0.2728022386630376,3.5491271018981934,,,,,,,,,,,,1.6887548049430618e+18,6.600061743164062,15.457399654388428,46.20627861022949,-17.103179740905762,1.6887548049430618e+18,6.600061743164062,-239.07119598388672,139.52407684326172,-149.1071762084961,1.6887548049438692e+18,6.60086923828125,-0.1587115734815597,-0.00421959406230592,-0.6690966725349426,0.7245987057685852,-1.1543324947357179,1.3112460851669312,1.3751247882843018,1.688754804943869e+18,6.600869059244791,-1.1994023621082306,-13.533804893493652,8.007580995559692
67,6.7,1.688754805047681e+18,6.70468086751302,-4.296896298726399,-0.26000531514485675,-0.08407669266064961,1.688754805039029e+18,6.696028889973959,-0.4357929130395255,-10.315458456675211,2.568894530336062,1.688754805047681e+18,6.70468086751302,3.656952222188314,-8.906741460164389,1.7319583694140117,1.688754805047681e+18,6.70468086751302,0.818712130188942,-1.0968849236766498,2.6383269627889,1.6887548050433539e+18,6.7003538574218755,0.8241488665342331,-0.9735970377922059,2.6642276287078857,,,,,,,,,,,,1.6887548050430592e+18,6.7000589843750005,2.5522399552166464,50.17493934631348,-13.433419799804687,1.6887548050430592e+18,6.7000589843750005,-251.97635650634766,143.49273681640625,-145.43741912841796,1.688754805039029e+18,6.696028889973959,-0.11237528920173641,-0.034946167375892366,-0.5638229250907898,0.8162501851717631,-0.4896175016959508,1.1507953802744548,0.6014726360638937,1.688754805047681e+18,6.70468086751302,-0.6400800744692486,-9.166903614997864,1.6477574532230694
68,6.800000000000001,1.688754805142841e+18,6.799841113281249,-6.603969383239746,8.825106525421143,-0.6011498451232911,1.6887548051428424e+18,6.799842203776041,-1.292223960161209,0.40737805205086874,1.7218352854251862,1.688754805142841e+18,6.799841113281249,5.342010974884033,-7.896774005889893,2.220257830619812,1.688754805142841e+18,6.799841113281249,-0.28677068650722504,-2.7443732023239136,1.973736149072647,1.6887548051385157e+18,6.795515706380208,-0.12125674386819203,-2.5625033577283225,1.9341266298045714,,,,,,,,,,,,1.6887548051430605e+18,6.800060400390625,-8.24719979763031,51.03991928100586,-11.741279697418213,1.6887548051430605e+18,6.800060400390625,-262.7757904052734,144.35771484375,-143.74527740478516,1.6887548051428424e+18,6.799842203776041,-0.03943038359284398,-0.11099384725093837,-0.4620193640391032,0.8774821062882742,-0.3986758788426717,0.9346453348795573,0.29110109806060785,1.688754805142841e+18,6.799841113281249,-1.2620942831039428,0.9281758904457093,1.6189837872982025
69,6.9,1.6887548052380037e+18,6.895003946940104,2.3938740491867065,2.592354893684387,-0.74041348695755,1.6887548052466542e+18,6.903654093424479,8.240183472633362,-7.452545523643494,2.249552369117737,1.6887548052380037e+18,6.895003946940104,4.626305262247722,-8.12360660235087,2.882014195124308,1.6887548052380037e+18,6.895003946940104,0.6039930048088232,-0.5601888777067264,-2.039017299811045,1.6887548052423304e+18,6.899330444335938,0.5868378840386868,-0.5661193747073412,-2.030592461427053,,,,,,,,,,,,1.6887548052430592e+18,6.900059155273437,-4.245599830150605,51.80973854064941,-12.457419681549073,1.6887548052430592e+18,6.900059155273437,-258.7741943359375,145.1275390625,-144.46141662597657,1.6887548052466542e+18,6.903654093424479,-0.008873788639903034,-0.1700695653756459,-0.4905094305674235,0.8538353443145752,-0.5809182226657867,0.9891613821188608,0.3423055062691371,1.6887548052380037e+18,6.895003946940104,7.020042975743611,-5.531408389409383,2.1414765119552612
70,7.0,1.688754805341812e+18,6.998812052408854,2.4114083449045816,-7.732463041941325,3.4005106488863626,1.6887548053418163e+18,6.9988164062500005,6.516972160339355,-16.271912002563475,7.707401514053345,1.688754805341812e+18,6.998812052408854,3.8875341415405273,-8.442363103230795,3.132318298021952,1.688754805341812e+18,6.998812052408854,0.2185115956235677,-1.6396895746390026,0.7570911099513372,1.6887548053461384e+18,7.003138509114584,0.2222022252778212,-1.5252032577991486,0.7503970563411713,,,,,,,,,,,,1.688754805343059e+18,7.000058911132813,0.7234599769115448,53.320098876953125,-10.843359851837159,1.688754805343059e+18,7.000058911132813,-253.8051330566406,146.63790130615234,-142.84735717773438,1.6887548053418163e+18,6.9988164062500005,0.039926456473767725,-0.22031482160091395,-0.5007290303707123,0.8356621026992798,-0.6868850588798523,1.0259660243988038,0.30214051604270936,1.688754805341812e+18,6.998812052408854,6.298806627591451,-16.174982865651447,6.532704830169678
71,7.1000000000000005,1.6887548054456246e+18,7.102624633789063,-4.296519875526428,1.1388277212778728,-1.1021246711413066,1.688754805436972e+18,7.093972127278646,-1.4857434233029683,-7.661519010861714,1.2457632819811504,1.6887548054456246e+18,7.102624633789063,3.360464096069336,-8.814945697784424,2.5885905623435974,1.6887548054456246e+18,7.102624633789063,0.26885706682999927,2.8671214977900186,-2.460590740044912,1.688754805441298e+18,7.098298046875,0.3119994267821312,2.9015488147735597,-2.1760547161102295,,,,,,,,,,,,1.6887548054430615e+18,7.100061572265625,3.4135599069297315,54.26925888061523,-9.650199699401856,1.6887548054430615e+18,7.100061572265625,-251.1150329589844,147.5870574951172,-141.6541976928711,1.688754805436972e+18,7.093972127278646,0.02791754435747858,-0.18765023847421006,-0.53179632127285,0.8233845829963684,-0.6627185940742493,1.095738450686137,0.3465481946865718,1.6887548054456246e+18,7.102624633789063,-0.9361918618281683,-7.6762746175130205,1.4863416751225789
72,7.2,1.6887548055494336e+18,7.2064333902994795,-5.075609842936198,0.5318585236867269,-1.874319593111674,1.6887548055407864e+18,7.1977864990234375,-4.858426968256633,-8.553942124048868,1.0317053347826004,1.6887548055494336e+18,7.2064333902994795,0.4432412801931302,-9.459522565205893,2.4237959583600364,1.6887548055494336e+18,7.2064333902994795,-1.3573426008224487,2.128839877744516,-2.9538134137789407,1.688754805536459e+18,7.193459025065104,-1.2583060661951702,2.5641068816184998,-3.4586426317691803,,,,,,,,,,,,1.688754805543064e+18,7.200063916015625,19.69323949813843,50.05537910461426,-14.602179718017577,1.688754805543064e+18,7.200063916015625,-234.83535766601562,143.37317657470703,-146.6061782836914,1.6887548055407864e+18,7.1977864990234375,-0.10011808636287844,-0.07188174873590465,-0.6761251787344614,0.7234745422999064,-1.2659713625907898,1.2995161215464275,1.3063662548859913,1.6887548055494336e+18,7.2064333902994795,-4.63250470161438,-8.927820761998495,0.5493521938721339
73,7.300000000000001,1.6887548056445919e+18,7.301591894531251,2.6622326135635377,0.7359850883483888,-2.914760422706604,1.6887548056445934e+18,7.3015934651692715,1.3484552521258593,-8.663214365641275,0.051944216092427574,1.6887548056445919e+18,7.301591894531251,-1.195296311378479,-9.271146392822265,2.9538875579833985,1.6887548056445919e+18,7.301591894531251,0.27504207491874694,0.6014884553849698,-1.855655884742737,1.688754805640271e+18,7.297271240234374,0.16737707851765057,0.5399539594848951,-1.723123590151469,,,,,,,,,,,,1.688754805643062e+18,7.300061987304687,27.989239311218263,44.82401885986328,-20.804659843444824,1.688754805643062e+18,7.300061987304687,-226.53935546875,138.14181671142578,-152.80865783691405,1.6887548056445934e+18,7.3015934651692715,-0.16644034534692762,-0.04456863521287835,-0.7437780201435089,0.6451267898082733,-1.9172993898391724,1.2360640962918599,2.092363119125366,1.6887548056445919e+18,7.301591894531251,1.4668002709746362,-8.53531789779663,0.03900300115346909
74,7.4,1.6887548057397558e+18,7.396755777994791,2.7200623154640198,0.18716335296630862,-1.5430776874224346,1.688754805748405e+18,7.4054048665364585,0.4431707014640172,-9.306185881296793,1.2484552264213562,1.6887548057397558e+18,7.396755777994791,-2.226705769697825,-9.05580441157023,3.023062984148661,1.6887548057397558e+18,7.396755777994791,-0.3473532522718112,0.22859086592992148,-1.2690979838371277,1.6887548057440788e+18,7.401078776041667,-0.3908773983518283,0.263613806416591,-1.2075533121824265,,,,,,,,,,,,1.6887548057430615e+18,7.4000615234375005,32.92779884338379,41.33359909057617,-22.79691963195801,1.6887548057430615e+18,7.4000615234375005,-221.60079345703124,134.65139617919922,-154.80091552734376,1.688754805748405e+18,7.4054048665364585,-0.19148358702659604,-0.01357180454457795,-0.7833259006341299,0.5909231901168823,-2.1918648878733316,1.1699082652727764,2.4493832190831504,1.6887548057397558e+18,7.396755777994791,0.49322056273619336,-8.868797620137533,1.4798611253499985
75,7.5,1.6887548058435666e+18,7.5005664469401045,1.1484578649202983,-7.013879140218099,-5.958832820256551,1.688754805843569e+18,7.500568896484376,-1.4702698707580568,-16.423736572265625,-3.2008788108825685,1.6887548058435666e+18,7.5005664469401045,-2.528182864189148,-8.907108783721924,3.229045550028483,1.6887548058435666e+18,7.5005664469401045,0.4872922996679942,0.4784347489476204,0.4104505230983098,1.688754805847888e+18,7.504887939453124,0.5804746945699056,0.48780134320259094,0.5306637423733871,,,,,,,,,,,,1.688754805843062e+18,7.500061962890625,34.37715950012207,39.804939651489256,-25.11003932952881,1.688754805843062e+18,7.500061962890625,-220.15143737792968,133.12273712158202,-157.1140365600586,1.688754805843569e+18,7.500568896484376,-0.2086308479309082,-0.00556294522248206,-0.7919001817703247,0.5737592220306397,-2.2186535358428956,1.1347851991653441,2.5138790130615236,1.6887548058435666e+18,7.5005664469401045,-1.3798610518376033,-15.921143690745035,-2.7299115334947905
76,7.6000000000000005,1.6887548059473743e+18,7.604374267578126,-1.6664653420448303,-4.680492560068767,4.157249530156453,1.6887548059387246e+18,7.595724609375,-1.960319956143697,-13.9359982808431,5.822834213574727,1.6887548059473743e+18,7.604374267578126,-0.2847454911097885,-9.477881908416748,2.2898367444674173,1.6887548059473743e+18,7.604374267578126,1.0406853059927623,0.31785354018211365,3.4809137185414634,1.688754805943051e+18,7.600050927734375,1.0090883016586303,0.18075501918792725,3.479244089126587,,,,,,,,,,,,1.688754805943064e+18,7.600064111328125,22.650519466400148,48.29125900268555,-21.532999420166014,1.688754805943064e+18,7.600064111328125,-231.8780746459961,141.60905914306642,-153.53699493408203,1.6887548059387246e+18,7.595724609375,-0.19148314247528708,0.0243824183320005,-0.7241101960341135,0.6599721312522888,-1.723227580388387,1.2991230090459187,2.0326919555664062,1.6887548059473743e+18,7.604374267578126,-1.9513468444347382,-14.158531030019125,6.446962118148804
77,7.7,1.6887548060425388e+18,7.699538867187501,-3.6848124980926515,-1.8873312950134278,3.410825753211975,1.6887548060425352e+18,7.699535034179687,-0.9458628296852112,-11.23838996887207,5.081856831908226,1.6887548060425388e+18,7.699538867187501,2.4768123865127563,-9.299077796936036,1.8249139070510865,1.6887548060425388e+18,7.699538867187501,0.5578421533107758,-1.7297260239720345,2.978426218032837,1.6887548060382118e+18,7.695212036132813,0.645582765340805,-1.3259338825785865,3.108998656272888,,,,,,,,,,,,1.6887548060430597e+18,7.700059643554686,4.058939909934997,54.181419372558594,-16.472439670562743,1.6887548060430597e+18,7.700059643554686,-250.46965637207032,147.49921722412108,-148.47643432617187,1.6887548060425352e+18,7.699535034179687,-0.14933865889906875,-0.0028288893712063497,-0.6070575515429179,0.7786206106344858,-0.6491530537605286,1.2405479351679485,0.8594856063524882,1.6887548060425388e+18,7.699538867187501,-1.2081362009048462,-11.18656520843506,5.235615563392639
78,7.800000000000001,1.688754806137698e+18,7.794697998046875,-6.708162824312846,7.365497907002767,-1.6289835770924885,1.688754806146347e+18,7.803346883138022,-1.9900308897097905,-0.2543371046582858,0.4240281234184901,1.688754806137698e+18,7.794697998046875,4.763033747673035,-8.370725711186727,1.7329961061477661,1.688754806137698e+18,7.794697998046875,0.6685665510594845,-2.117284340163072,2.794988473256429,1.688754806142026e+18,7.799026082356771,0.6170757183184227,-2.2182044138511023,2.676302433013916,,,,,,,,,,,,1.6887548061430628e+18,7.800062817382812,-11.134939765930175,53.6690185546875,-12.032859611511231,1.6887548061430628e+18,7.800062817382812,-265.6635345458984,146.9868179321289,-144.03685455322267,1.688754806146347e+18,7.803346883138022,-0.05887805484235283,-0.07380482709656157,-0.4899982114632924,0.8648567497730255,-0.354795441031456,1.0001165668169658,0.3319048732519149,1.688754806137698e+18,7.794697998046875,-1.9452650149663289,-1.0053843011458714,0.10388839244842529
79,7.9,1.6887548062415053e+18,7.898505330403645,-0.525297999382019,5.1453696091969805,0.08965359131495158,1.688754806241508e+18,7.8985081542968745,3.6287155389785766,-3.0965518236160277,2.605185627937317,1.6887548062415053e+18,7.898505330403645,4.850062131881714,-8.163958390553793,2.3716880877812705,1.6887548062415053e+18,7.898505330403645,0.7110726125538349,-0.7532732139031092,-1.7084119468927383,1.6887548062458345e+18,7.902834513346353,0.7293222105751435,-0.6700428202748299,-1.8549686471621196,,,,,,,,,,,,1.688754806243062e+18,7.900061962890625,-12.207319641113282,53.055359268188475,-12.224399662017822,1.688754806243062e+18,7.900061962890625,-266.7359191894531,146.37315979003907,-144.2283966064453,1.688754806241508e+18,7.8985081542968745,-0.005538902571424841,-0.14163131117820735,-0.4779271185398102,0.8663953065872192,-0.4641253471374512,0.9742295742034912,0.26243572831153866,1.6887548062415053e+18,7.898505330403645,4.324628174304962,-3.0187451019883156,2.46121746301651
80,8.0,1.6887548063453187e+18,8.002318806966146,7.102800687154134,-8.546842575073242,2.6688708066940308,1.688754806336668e+18,7.993668131510417,12.280165195465088,-16.63699706395467,4.159124543269475,1.6887548063453187e+18,8.002318806966146,3.721168835957845,-8.697176138559977,2.576121171315511,1.6887548063453187e+18,8.002318806966146,-0.08289950441879529,-1.6883042653401692,0.4528293013572693,1.6887548063496445e+18,8.00664461263021,-0.12222395837306976,-1.6400713622570038,0.48296534021695453,,,,,,,,,,,,1.6887548063430612e+18,8.000061352539063,-4.890979909896851,54.014278411865234,-11.087359809875489,1.6887548063430612e+18,8.000061352539063,-259.41957092285156,147.3320755004883,-143.09135894775392,1.688754806336668e+18,7.993668131510417,0.034996431476126084,-0.17982143163681027,-0.5250140130519867,0.8301692008972168,-0.6008181075255076,1.0882886449495952,0.2861334110299746,1.6887548063453187e+18,8.002318806966146,10.823833540081978,-17.24417535463969,5.24486776192983
81,8.1,1.6887548064491295e+18,8.106129516601563,-5.851407766342163,1.9351571400960286,-1.405055562655131,1.6887548064404795e+18,8.097479614257812,-2.6316064347823462,-7.4902325719594955,2.113360784947872,1.6887548064491295e+18,8.106129516601563,3.321632504463196,-8.882960001627604,2.430404623349508,1.6887548064491295e+18,8.106129516601563,0.30634891738494235,2.4569000005722046,-2.0402644962693253,1.688754806444804e+18,8.101804199218751,0.42565089762210845,2.1542468309402465,-1.6657378977164625,,,,,,,,,,,,1.6887548064430623e+18,8.100062231445312,-4.690899896621704,53.172479248046876,-11.194719696044922,1.6887548064430623e+18,8.100062231445312,-259.2194885253906,146.4902801513672,-143.19871673583984,1.6887548064404795e+18,8.097479614257812,0.0390413916514565,-0.18522359927495316,-0.5361969470977783,0.8214419881502787,-0.6375083923339844,1.1133490006128948,0.3096996595462163,1.6887548064491295e+18,8.106129516601563,-2.5299112200737,-6.947959343592326,1.0252248446146648
82,8.200000000000001,1.688754806544291e+18,8.20129111328125,-7.618380880355835,0.9005385398864746,0.502623724937439,1.6887548065442875e+18,8.201287475585938,-5.99770975112915,-8.803094943364462,2.617847661177317,1.688754806544291e+18,8.20129111328125,1.0134887099266052,-9.508082580566406,2.0590171337127687,1.688754806544291e+18,8.20129111328125,-1.5351348876953126,1.7689129948616027,-3.12176570892334,1.6887548065399626e+18,8.196962687174478,-1.363374873995781,2.08254145582517,-3.254562815030416,,,,,,,,,,,,1.6887548065430602e+18,8.20006025390625,7.853139859437943,51.38517875671387,-12.892959785461425,1.6887548065430602e+18,8.20006025390625,-246.6754577636719,144.7029769897461,-144.89695739746094,1.6887548065442875e+18,8.201287475585938,-0.08907634671777483,-0.06588547925154366,-0.6625191569328308,0.7385531763235728,-1.1010682086149852,1.3082047303517659,1.1340888738632202,1.688754806544291e+18,8.20129111328125,-6.6050280094146725,-8.607700824737549,2.561516618728638
83,8.3,1.6887548066394468e+18,8.296446655273437,2.503347555796305,-1.1476380030314128,-2.4669838349024453,1.688754806648102e+18,8.305101969401042,1.6456638152400653,-10.030313730239868,0.3569293903807799,1.6887548066394468e+18,8.296446655273437,-1.027637665470441,-9.33645741144816,2.7878459294637046,1.6887548066394468e+18,8.296446655273437,0.02321288362145423,0.6601926187674204,-1.949500024318695,1.6887548066437737e+18,8.30077372233073,0.08239045242468516,0.7498879960427681,-1.9167169332504272,,,,,,,,,,,,1.688754806643061e+18,8.300061010742187,19.915279483795167,46.52347869873047,-18.08039970397949,1.688754806643061e+18,8.300061010742187,-234.61331634521486,139.84127807617188,-150.0843994140625,1.688754806648102e+18,8.305101969401042,-0.13844067354996994,-0.06256806043287114,-0.7424759765466055,0.6515870789686838,-1.9349181254704793,1.2533982594807942,2.0436972181002298,1.6887548066394468e+18,8.296446655273437,1.4755739718675613,-10.484252134958902,0.32073794305324554
84,8.4,1.6887548067432584e+18,8.400258463541666,1.8579249382019043,0.4081753094991048,-1.586318830649058,1.6887548067432617e+18,8.40026181640625,-0.5979663789272309,-8.750911426544189,1.3585250854492188,1.6887548067432584e+18,8.400258463541666,-2.173741181691488,-9.124174118041992,2.849055767059326,1.6887548067432584e+18,8.400258463541666,-0.28916834667325025,0.5337689618269602,-1.4030810793240864,1.6887548067475886e+18,8.404588419596354,-0.33065626056243974,0.4629085858662923,-1.411225974559784,,,,,,,,,,,,1.6887548067430607e+18,8.400060668945311,24.285319709777834,43.45639877319336,-19.876239395141603,1.6887548067430607e+18,8.400060668945311,-230.24327545166017,136.77419738769532,-151.88023529052734,1.6887548067432617e+18,8.40026181640625,-0.17662984430789944,-0.015245112404227221,-0.778799545764923,0.6014115214347839,-2.1967147827148437,1.1985124588012694,2.4295459747314454,1.6887548067432584e+18,8.400258463541666,-0.31595228239893913,-8.716155687967936,1.262612760066986
85,8.5,1.6887548068470712e+18,8.504071329752604,2.715924620628357,-6.0656782786051435,-6.1197681824366255,1.6887548068384236e+18,8.49542354329427,-0.12203393379847205,-14.324732462565104,-2.725823769966761,1.6887548068470712e+18,8.504071329752604,-2.773714780807495,-8.849526405334473,3.190778295199076,1.6887548068470712e+18,8.504071329752604,0.13757194330294928,0.03922264277935023,0.3234785919388135,1.6887548068427466e+18,8.49974658203125,-0.07996224761009216,-0.009621125459671042,0.12507465928792955,,,,,,,,,,,,1.6887548068430623e+18,8.500062182617189,27.082779502868654,39.98549919128418,-21.72453956604004,1.6887548068430623e+18,8.500062182617189,-227.44581604003906,133.3032989501953,-153.7285400390625,1.6887548068384236e+18,8.49542354329427,-0.19111011674006775,-0.0221378107865651,-0.7997734149297079,0.5685806969801585,-2.2739555835723877,1.1221597790718079,2.519691745440165,1.6887548068470712e+18,8.504071329752604,-0.057926255743950605,-14.915360768636068,-2.929114063580831
86,8.6,1.688754806942228e+18,8.599228222656249,-1.0229996204376222,-3.8213401794433595,3.3072518825531008,1.6887548069422336e+18,8.599233642578126,-1.4897315104802449,-13.693326473236084,5.357829163471858,1.688754806942228e+18,8.599228222656249,-0.903206205368042,-9.477332878112794,2.2047393560409545,1.688754806942228e+18,8.599228222656249,1.3292427778244018,0.38148534297943115,3.3560630798339846,1.688754806937909e+18,8.594908935546874,1.3934854467709858,0.43893213135500747,3.2239686648050943,,,,,,,,,,,,1.688754806943062e+18,8.600061889648439,17.391099834442137,45.25955924987793,-17.303259468078615,1.688754806943062e+18,8.600061889648439,-237.1374984741211,138.57735748291014,-149.30725708007813,1.6887548069422336e+18,8.599233642578126,-0.16958365837732947,0.015374987618997651,-0.7357433338960012,0.6532901227474213,-1.849199612935384,1.3077563047409058,2.1139513651529946,1.688754806942228e+18,8.599228222656249,-1.9263418912887573,-13.29882984161377,5.511866903305053
87,8.700000000000001,1.6887548070373947e+18,8.694394734700522,-1.8010886112848918,-4.564159870147705,4.958690623442332,1.688754807046043e+18,8.703042765299479,0.1979063848654429,-13.581761042277018,5.832604875167211,1.6887548070373947e+18,8.694394734700522,2.121164878209432,-9.405480225880941,1.6261820395787556,1.6887548070373947e+18,8.694394734700522,0.49900055245961994,-0.8923468341430029,3.1641038258870444,1.6887548070417206e+18,8.698720743815104,0.49757519209136564,-0.8844056278467178,3.1360803842544556,,,,,,,,,,,,1.6887548070430636e+18,8.700063647460937,0.9247600495815277,48.60601921081543,-13.200399684906007,1.6887548070430636e+18,8.700063647460937,-253.6038345336914,141.92381744384767,-145.20439758300782,1.688754807046043e+18,8.703042765299479,-0.14387694622079528,0.0072462734145422834,-0.6128565967082977,0.7752082447210947,-0.6281257073084513,1.2654847900072734,0.8446966608365377,1.6887548070373947e+18,8.694394734700522,0.31994035343329114,-13.969797134399414,6.584748753656945
88,8.8,1.6887548071412042e+18,8.798204386393229,-8.766870021820068,7.349649429321289,-2.0786139567693076,1.6887548071412e+18,8.798199755859375,-5.54333263412118,-0.5782255768775939,-0.9046066105365753,1.6887548071412042e+18,8.798204386393229,4.561221281687419,-8.549393892288208,1.319016933441162,1.6887548071412042e+18,8.798204386393229,0.9413687984148661,-2.1194987694422402,2.7966428995132446,1.6887548071455304e+18,8.802530436197918,0.8712974830220143,-2.311463216940562,2.7281496127446494,,,,,,,,,,,,1.6887548071430628e+18,8.800062792968749,-11.499720001220703,47.00781898498535,-9.334219932556152,1.6887548071430628e+18,8.800062792968749,-266.0283142089844,140.32561798095702,-141.33821716308594,1.6887548071412e+18,8.798199755859375,-0.0686643928289413,-0.033952352590858895,-0.511652946472168,0.8540438890457154,-0.2709860593080521,1.0589273571968079,0.32104921340942383,1.6887548071412042e+18,8.798204386393229,-4.205784500576556,-1.1999008332689602,-0.7597211798032126
89,8.9,1.6887548072450117e+18,8.90201163736979,0.43482375144958496,5.8145865599314375,0.5869070688883463,1.688754807236362e+18,8.89336210123698,4.474678119023641,-1.4839488466580708,2.6689942677815757,1.6887548072450117e+18,8.90201163736979,4.910080353418986,-8.207651456197103,2.092679977416992,1.6887548072450117e+18,8.90201163736979,0.6729189739950622,-0.7804821875567237,-1.6270141402880351,1.6887548072493373e+18,8.906337239583333,0.682591013610363,-0.6482552997767925,-1.7847191492716472,,,,,,,,,,,,1.688754807243063e+18,8.900063012695313,-14.065379619598389,45.3669189453125,-9.541619777679443,1.688754807243063e+18,8.900063012695313,-268.59397583007814,138.684716796875,-141.54562072753907,1.688754807236362e+18,8.89336210123698,0.0022438797750510167,-0.12740800529718396,-0.47432586550712585,0.8705651164054871,-0.4028146018584569,0.9740815361340841,0.2107382367054621,1.6887548072450117e+18,8.90201163736979,5.344768246014913,-2.393221457799276,2.6794628500938416
90,9.0,1.6887548073488207e+18,9.005820638020834,6.141147494316101,-7.040579239527385,3.5634166995684304,1.6887548073401756e+18,8.997175740559896,11.516755104064941,-15.412270466486612,5.207878748575847,1.6887548073488207e+18,9.005820638020834,3.8480257590611777,-8.675024191538492,2.4434898495674133,1.6887548073488207e+18,9.005820638020834,-0.2273691420753797,-1.9429842016349237,0.5555819571018219,1.6887548073445015e+18,9.0015015625,-0.24410174340009688,-2.549782094359398,0.8995601773262024,,,,,,,,,,,,1.6887548073430605e+18,9.00006044921875,-6.354979848861694,45.95617942810058,-8.783999729156495,1.6887548073430605e+18,9.00006044921875,-260.8835754394531,139.27397918701172,-140.78799896240236,1.6887548073401756e+18,8.997175740559896,0.03816628425071635,-0.17088525618116057,-0.5218421518802643,0.833450843890508,-0.5548461377620697,1.0868851939837139,0.2483610535661379,1.6887548073488207e+18,9.005820638020834,9.989037354787191,-15.715759913126627,6.006782492001851
91,9.1,1.688754807443986e+18,9.10098603515625,-6.2926651477813715,0.6653846740722656,-2.6025102615356452,1.6887548074439857e+18,9.100985717773437,-1.8611174896359444,-8.266902988155683,1.228016550342242,1.688754807443986e+18,9.10098603515625,3.952381658554077,-8.639668464660645,2.413003134727478,1.688754807443986e+18,9.10098603515625,0.3414125829935074,1.93537380695343,-1.0553613379597664,1.6887548074396603e+18,9.096660481770833,0.2717841370516301,1.9804505904515584,-1.1153890093167622,,,,,,,,,,,,1.6887548074430623e+18,9.10006220703125,-6.790519905090332,45.12779922485352,-8.644919776916504,1.6887548074430623e+18,9.10006220703125,-261.31911315917966,138.44559478759766,-140.64891662597657,1.6887548074439857e+18,9.100985717773437,0.04104071451971923,-0.17364721000194547,-0.5182605783144633,0.83561110496521,-0.551665003101031,1.0791451930999756,0.23687238742907837,1.688754807443986e+18,9.10098603515625,-2.3404199123382567,-7.974440479278565,-0.1896312475204464
92,9.200000000000001,1.6887548075391424e+18,9.196142415364584,-7.69208304087321,-0.044516960779825844,1.91680508852005,1.6887548075477906e+18,9.204790649414063,-6.554140607515971,-10.109077453613281,3.5296127994855246,1.6887548075391424e+18,9.196142415364584,1.820830523967743,-9.431203206380207,1.6920943856239319,1.6887548075391424e+18,9.196142415364584,-1.4800755637697875,3.423161550735434,-3.7573812007904053,1.6887548075434662e+18,9.200466471354167,-1.5665893430511157,3.2237140809496245,-3.6582683324813843,,,,,,,,,,,,1.68875480754306e+18,9.200060009765625,4.826319932937622,43.85777893066406,-9.461099863052368,1.68875480754306e+18,9.200060009765625,-249.70227508544923,137.1755798339844,-141.46509704589843,1.6887548075477906e+18,9.204790649414063,-0.09621119576816754,-0.037494830787181785,-0.6448198755582174,0.7535959482192993,-0.8961067845424017,1.3028128743171692,0.9797135790189108,1.6887548075391424e+18,9.196142415364584,-5.871388673782349,-9.475876728693644,3.6087753971417746
93,9.3,1.6887548076429486e+18,9.299948649088542,2.1577381690343223,-0.34917720158894855,-3.055098275343577,1.6887548076429489e+18,9.299948681640625,2.4093332052230836,-9.604191780090332,-0.6750152945518494,1.6887548076429486e+18,9.299948649088542,-0.6785386039409786,-9.415775299072266,2.588821450869242,1.6887548076429486e+18,9.299948649088542,-0.08910997452524805,0.2545017575224241,-2.02328751484553,1.688754807647275e+18,9.304274983723959,0.0019853052993615097,0.35435277223587036,-2.027639885743459,,,,,,,,,,,,1.6887548076430566e+18,9.300056494140625,15.98565969467163,39.41331939697265,-14.664399814605712,1.6887548076430566e+18,9.300056494140625,-238.54293518066407,132.73111877441406,-146.66839599609375,1.6887548076429489e+18,9.299948681640625,-0.148134845495224,-0.03966144993901248,-0.7282346963882447,0.6671572089195251,-1.8001495361328126,1.2838974714279174,1.9553211212158204,1.6887548076429486e+18,9.299948649088542,1.479063553114732,-9.765109141667685,-0.46640100081761676
94,9.4,1.688754807746761e+18,9.403761149088542,2.7427726487318673,0.987534761428833,-0.9307129383087158,1.6887548077381097e+18,9.395109741210936,0.28664023677508044,-8.040083408355713,1.9560327927271526,1.688754807746761e+18,9.403761149088542,-2.16955558458964,-9.19077173868815,2.6307382186253867,1.688754807746761e+18,9.403761149088542,-0.3148501341541608,0.37486764291922253,-1.3155492146809895,1.6887548077424348e+18,9.399434814453125,-0.2866179794073105,0.29416215866804124,-1.3759739637374877,,,,,,,,,,,,1.6887548077430556e+18,9.400055639648437,22.277199745178223,35.51541976928711,-16.035679817199707,1.6887548077430556e+18,9.400055639648437,-232.25139617919922,128.8332176208496,-148.03967742919923,1.6887548077381097e+18,9.395109741210936,-0.1774682253599166,0.006151447383065966,-0.7765881419181824,0.6040827433268229,-2.2209747632344565,1.2242401242256165,2.4854376713434854,1.688754807746761e+18,9.403761149088542,0.5730810388922691,-8.203393459320068,1.6999010940392811
95,9.5,1.6887548078419205e+18,9.4989205078125,1.1252378225326538,-5.684996223449707,-7.850337791442871,1.6887548078419203e+18,9.498920247395832,-0.8658029958605766,-14.556238174438477,-4.383750796318054,1.6887548078419205e+18,9.4989205078125,-2.5453617095947267,-8.971604156494141,3.0413668155670166,1.6887548078419205e+18,9.4989205078125,0.038148540258407596,0.2506685495376587,-0.1054658830165863,1.6887548078375967e+18,9.494596720377604,-0.01160645360747973,0.24276803433895114,-0.12596550087134042,,,,,,,,,,,,1.6887548078430572e+18,9.500057006835938,24.92093982696533,32.21653995513916,-18.188979721069337,1.6887548078430572e+18,9.500057006835938,-229.60765533447267,125.53433761596679,-150.19297790527344,1.6887548078419203e+18,9.498920247395832,-0.20043971141179398,0.00779198548601315,-0.7920456230640411,0.5764784415562948,-2.2618713776270547,1.1588483055432637,2.563877065976461,1.6887548078419205e+18,9.4989205078125,-1.4202598571777343,-14.656756401062012,-4.809095001220703
96,9.600000000000001,1.6887548079370883e+18,9.594088094075522,-0.5587578813234965,-5.497896035512288,1.9782408277193706,1.6887548079457403e+18,9.602740152994793,-1.775075614452362,-14.977275053660074,5.233900745709737,1.6887548079370883e+18,9.594088094075522,-0.9812862277030945,-9.502253532409668,1.976620892683665,1.6887548079370883e+18,9.594088094075522,1.3837115863958995,0.09066258370876312,3.2236377398173013,1.688754807941413e+18,9.5984130859375,1.387707640727361,0.1394045385532081,3.3224451541900635,,,,,,,,,,,,1.688754807943062e+18,9.6000619140625,19.760339641571044,36.552418899536136,-15.278059577941894,1.688754807943062e+18,9.6000619140625,-234.76825714111328,129.8702178955078,-147.2820571899414,1.6887548079457403e+18,9.602740152994793,-0.16757859041293457,0.03842111149181918,-0.7284901042779287,0.6609320143858591,-1.7995392481486003,1.346036672592163,2.0939331452051797,1.6887548079370883e+18,9.594088094075522,-1.5401802049018443,-15.000306129455566,3.954737583796183
97,9.700000000000001,1.6887548080409004e+18,9.697900227864585,-2.8706603050231934,-3.9106698036193848,5.920776645342509,1.688754808049548e+18,9.706547973632814,-0.020737787087758086,-12.774283250172934,6.416453460852305,1.6887548080409004e+18,9.697900227864585,2.3745848735173545,-9.381802082061768,1.3907165328661601,1.6887548080409004e+18,9.697900227864585,0.3258457068974773,-2.013310025135676,3.3200525840123496,1.6887548080452232e+18,9.702223185221355,0.2800562682872017,-2.0194949905077615,3.308929761250814,,,,,,,,,,,,1.688754808043065e+18,9.700065112304689,7.867779779434204,42.97083854675293,-12.648959732055664,1.688754808043065e+18,9.700065112304689,-246.66081848144532,136.28863830566405,-144.65295867919923,1.688754808049548e+18,9.706547973632814,-0.12617847075064972,0.004366985832651466,-0.6016757984956106,0.7859161496162415,-0.513330469528834,1.2556179563204448,0.7003079950809479,1.6887548080409004e+18,9.697900227864585,-0.49621156851450604,-13.292628447214762,7.311369329690933
98,9.8,1.6887548081447084e+18,9.801708414713541,-7.6206047137578325,6.74538270632426,-2.8759434620539346,1.6887548081447084e+18,9.801708349609376,-3.789034676551819,-1.0473384648561477,-1.1468798875808717,1.6887548081447084e+18,9.801708414713541,4.856432557106018,-8.305545965830484,1.7762665748596191,1.6887548081447084e+18,9.801708414713541,0.6018549899260203,-2.123087594906489,2.8723647793134055,1.6887548081490388e+18,9.80603877766927,0.5817727892038723,-2.2653937141100564,2.756223976612091,,,,,,,,,,,,1.6887548081430615e+18,9.80006142578125,-3.239099958539009,45.55601844787598,-9.964959812164306,1.6887548081430615e+18,9.80006142578125,-257.76769561767577,138.87381744384766,-141.96895904541014,1.6887548081447084e+18,9.801708349609376,-0.04634718038141724,-0.07557814419269557,-0.49170448184013366,0.8647518277168273,-0.34099168777465816,1.007742428779602,0.29718520641326907,1.6887548081447084e+18,9.801708414713541,-2.7643083930015564,-1.5603197018305461,-1.0998011082410812
99,9.9,1.6887548082485207e+18,9.905520711263021,-1.0725951194763184,5.790032386779785,0.16149377822875977,1.688754808239872e+18,9.896871785481771,2.8961130380630493,-1.2211371461550395,3.004587709903717,1.6887548082485207e+18,9.905520711263021,4.940629243850708,-8.013705333073935,2.693866014480591,1.6887548082485207e+18,9.905520711263021,0.7285077081372341,-0.8717810492962599,-1.4869986871878307,1.6887548082441987e+18,9.9011986328125,0.7698734641075134,-0.905271714925766,-1.434800285100937,,,,,,,,,,,,1.6887548082430633e+18,9.900063134765626,-5.55465989112854,46.72843856811524,-9.208559799194337,1.6887548082430633e+18,9.900063134765626,-260.08325347900393,140.0462387084961,-141.21255645751953,1.688754808239872e+18,9.896871785481771,0.024482416454702585,-0.17378762612740192,-0.45862021048863727,0.8706314861774445,-0.4967964291572571,0.9403639535109202,0.2007991075515747,1.6887548082485207e+18,9.905520711263021,3.8678980668385825,-2.223829639454683,2.855235611399015
100,10.0,1.688754808343681e+18,10.000681103515625,8.10190372467041,-9.03763256072998,2.519627904891968,1.6887548083436838e+18,10.000683797200521,11.805090268452963,-16.228721618652344,5.384449228644371,1.688754808343681e+18,10.000681103515625,3.9413086414337157,-8.545269775390626,2.7472185611724855,1.688754808343681e+18,10.000681103515625,-0.07168503850698472,-2.3699128691107036,0.6860627651214599,1.688754808339359e+18,9.996359212239584,0.020463977009058016,-2.023872949182987,0.24648414055506396,,,,,,,,,,,,1.6887548083430607e+18,10.000060717773438,2.056919977068901,48.74997901916504,-7.2370398998260494,1.6887548083430607e+18,10.000060717773438,-252.4716781616211,142.06777648925782,-139.24103698730468,1.6887548083436838e+18,10.000683797200521,0.060266522690653766,-0.20747174570957813,-0.503347858786583,0.8354808986186981,-0.6142512559890747,1.051087478796641,0.21915413687626517,1.688754808343681e+18,10.000681103515625,12.043076133728027,-17.58305892944336,5.266722249984741
101,10.100000000000001,1.6887548084388416e+18,10.09584159342448,-5.403400699297587,1.062105496724447,-0.12496080001195302,1.6887548084474913e+18,10.104491617838542,-2.006481446325779,-7.395018378893535,2.322932163874308,1.6887548084388416e+18,10.09584159342448,3.9400264422098794,-8.46274995803833,2.992782990137736,1.6887548084388416e+18,10.09584159342448,0.3995058760046959,1.283504252632459,-0.8697448596358299,1.6887548084431698e+18,10.10016971842448,0.4341215677559376,1.5619569420814514,-0.9993500858545303,,,,,,,,,,,,1.6887548084430638e+18,10.100063916015625,0.4916599873453379,50.25423965454102,-6.795399856567383,1.6887548084430638e+18,10.100063916015625,-254.03693695068358,143.57203674316406,-138.79939880371094,1.6887548084474913e+18,10.104491617838542,0.08521636140843229,-0.23076422015825904,-0.49694062272707623,0.8314461509386698,-0.6434477269649506,1.048806091149648,0.17608869572480515,1.6887548084388416e+18,10.09584159342448,-1.4635101209084196,-7.400801022847493,2.86769829193751
102,10.200000000000001,1.6887548085426532e+18,10.19965311686198,-6.360763390858968,-0.6375509897867838,0.4772249658902486,1.6887548085426504e+18,10.199650341796875,-5.048257637023926,-9.693444061279298,2.7346373200416565,1.6887548085426532e+18,10.19965311686198,1.6587037642796834,-9.413343906402588,1.8936879634857178,1.6887548085426532e+18,10.19965311686198,-0.7626397882898649,3.9049052198727927,-4.24111008644104,1.6887548085469796e+18,10.203979329427083,-0.8282569112877051,3.7368663350741067,-4.188550313313802,,,,,,,,,,,,1.688754808543062e+18,10.200062036132813,14.155659580230713,48.26929969787598,-8.769359922409057,1.688754808543062e+18,10.200062036132813,-240.37293548583983,141.58709716796875,-140.7733581542969,1.6887548085426504e+18,10.199650341796875,-0.031077341479249298,-0.09558838382363316,-0.63474942445755,0.762287950515747,-0.8975039958953858,1.2991743564605713,0.8047511398792266,1.6887548085426532e+18,10.19965311686198,-4.7021955500046415,-10.051051616668701,2.3707887679338455
103,10.3,1.6887548086464663e+18,10.303466064453124,1.168639341990153,0.4785765012105307,-2.497057338555654,1.6887548086378145e+18,10.294814615885416,-0.08564306795597076,-9.526923576990763,-0.19361922393242517,1.6887548086464663e+18,10.303466064453124,-0.7583337053656578,-9.48550287882487,2.336264173189799,1.6887548086464663e+18,10.303466064453124,0.007126760979493431,0.5128213688731194,-1.7180075645446777,1.688754808642141e+18,10.299140966796875,-0.00901026353240012,0.19489651992917062,-1.719310736656189,,,,,,,,,,,,1.688754808643063e+18,10.300063037109375,25.688319587707518,43.017198944091795,-14.794939613342285,1.688754808643063e+18,10.300063037109375,-228.84027557373048,136.33499755859376,-146.79893646240234,1.6887548086378145e+18,10.294814615885416,-0.11041673645377158,-0.05994487802187597,-0.7252373496691386,0.6763886511325836,-1.8049708604812622,1.3146315614382427,1.87696506579717,1.6887548086464663e+18,10.303466064453124,0.41016971071561176,-9.007082859675089,-0.16091731935739517
104,10.4,1.6887548087416212e+18,10.398621142578126,1.7551917791366578,0.6702669143676758,-1.7396020889282227,1.6887548087416246e+18,10.398624348958334,-0.158225417137146,-8.61944572130839,0.7792625688016415,1.6887548087416212e+18,10.398621142578126,-2.1149362564086913,-9.263932800292968,2.403495264053345,1.6887548087416212e+18,10.398621142578126,-0.25207353197038174,0.6696304470300675,-1.7752355098724366,1.6887548087373015e+18,10.394301432291668,-0.18857919424772263,0.8731554994980494,-1.7382424871126811,,,,,,,,,,,,1.688754808743062e+18,10.400062133789062,31.33813934326172,38.881399154663086,-17.435019302368165,1.688754808743062e+18,10.400062133789062,-223.19045715332032,132.1991973876953,-149.43901519775392,1.6887548087416246e+18,10.398624348958334,-0.15303647021452582,-0.008287037528740833,-0.7779970765113831,0.608638177315394,-2.265107274055481,1.2368150154749553,2.473189433415731,1.6887548087416212e+18,10.398621142578126,-0.35988051891326905,-8.593822383880616,0.6637690007686615
105,10.5,1.6887548088367844e+18,10.493784423828124,2.6535272200902305,-4.889540036519368,-4.648222744464874,1.6887548088454377e+18,10.502437540690105,-0.5308078328768411,-14.458431402842203,-2.128615160783132,1.6887548088367844e+18,10.493784423828124,-2.858675400416056,-8.963251431783041,2.775464653968811,1.6887548088367844e+18,10.493784423828124,-0.03176500151554743,0.39454258780460805,-0.2519564476485054,1.6887548088411108e+18,10.498110921223958,0.04716389734918871,0.4076507439215978,-0.15136731840902937,,,,,,,,,,,,1.6887548088430628e+18,10.500062939453127,34.588219451904294,35.33485908508301,-20.18733959197998,1.6887548088430628e+18,10.500062939453127,-219.94037475585938,128.65265808105468,-152.19133758544922,1.6887548088454377e+18,10.502437540690105,-0.1760058651367823,-0.0025434665149077665,-0.8018961548805237,0.57082466284434,-2.358374317487081,1.1547458569208782,2.6097643772761026,1.6887548088367844e+18,10.493784423828124,-0.2052842477957407,-13.852947552998861,-1.872882201646765
106,10.600000000000001,1.688754808940599e+18,10.597599080403645,0.4862785538037618,-4.476656277974446,1.1037999590237935,1.6887548089492447e+18,10.60624471028646,-0.7882356426368157,-13.788939634958902,3.9663029859463372,1.688754808940599e+18,10.597599080403645,-1.1818557381629944,-9.487102190653482,1.8954283396402996,1.688754808940599e+18,10.597599080403645,1.1060987909634907,0.29563332162797457,3.2562172015508017,1.688754808944923e+18,10.601923014322916,1.0743083419899147,0.36005415208637714,3.376328627268473,,,,,,,,,,,,1.6887548089430625e+18,10.600062402343749,27.454879188537596,41.90699844360351,-17.188579940795897,1.6887548089430625e+18,10.600062402343749,-227.07371673583984,135.22479858398438,-149.1925796508789,1.6887548089492447e+18,10.60624471028646,-0.157390480240186,0.033098399639129604,-0.7353109419345856,0.6558079222838084,-1.890558163324992,1.3404834270477295,2.1627187530199685,1.688754808940599e+18,10.597599080403645,-0.6957131984333197,-13.963914553324381,2.999104082584381
107,10.700000000000001,1.6887548090444083e+18,10.701408406575522,-3.2798195282618203,-3.891746679941813,5.566569626331329,1.6887548090444083e+18,10.70140830078125,-1.3661821365356446,-13.191152572631836,7.6426756381988525,1.6887548090444083e+18,10.701408406575522,2.369785706202189,-9.369717915852865,1.4550928473472595,1.6887548090444083e+18,10.701408406575522,0.3317761893073718,-1.2303589632113774,3.2363131841023765,1.688754809048733e+18,10.705733154296874,0.3235295054813226,-1.325195809205373,3.202995538711548,,,,,,,,,,,,1.6887548090430638e+18,10.7000638671875,7.6091399669647215,49.74183883666992,-14.161759757995606,1.6887548090430638e+18,10.7000638671875,-246.9194549560547,143.05963592529298,-146.16575775146484,1.6887548090444083e+18,10.70140830078125,-0.15057397782802578,0.0251341853290796,-0.6109690546989441,0.7754277586936951,-0.5514475166797638,1.2749820709228517,0.803319251537323,1.6887548090444083e+18,10.701408406575522,-0.910169929265976,-13.261621475219727,7.021538535753886
108,10.8,1.6887548091482194e+18,10.80521952311198,-7.978745420773824,5.385249773661296,-3.8889013528823853,1.6887548091395668e+18,10.796567016601562,-3.192823112010956,-3.9588254193464913,-2.09352038304011,1.6887548091482194e+18,10.80521952311198,4.835809032122294,-8.265154361724854,1.940470278263092,1.6887548091482194e+18,10.80521952311198,0.6406449303030968,-2.7195975681145987,3.327866554260254,1.6887548091438945e+18,10.800894482421874,0.7243029151111842,-2.7298041224479674,3.555357885360718,,,,,,,,,,,,1.6887548091430623e+18,10.800062231445313,-6.686819869279861,49.89799842834473,-11.647339916229248,1.6887548091430623e+18,10.800062231445313,-261.2154113769531,143.2157974243164,-143.65133819580078,1.6887548091395668e+18,10.796567016601562,-0.0660055583963791,-0.07214938787122564,-0.5035838931798935,0.855598529179891,-0.39019199709097546,1.0274461209774017,0.37984809776147205,1.6887548091482194e+18,10.80521952311198,-3.1430722077687583,-2.8800612092018127,-1.9485552310943604
109,10.9,1.6887548092433818e+18,10.900381787109374,-1.4261219501495361,6.5517322540283205,1.8259517192840575,1.6887548092433797e+18,10.900379638671874,4.078067700068156,-1.3565309991439183,4.462315122286479,1.6887548092433818e+18,10.900381787109374,5.316508960723877,-7.757558441162109,2.7463778972625734,1.6887548092433818e+18,10.900381787109374,1.1283902823925018,-0.8938180420547723,-1.3203852355480195,1.6887548092390556e+18,10.896055704752603,1.032336803774039,-1.0847185055414834,-0.983085831006368,,,,,,,,,,,,1.6887548092430636e+18,10.900063500976563,-11.7498197555542,49.21357879638672,-11.172759914398194,1.6887548092430636e+18,10.900063500976563,-266.2784149169922,142.53137817382813,-143.1767578125,1.6887548092433797e+18,10.900379638671874,0.02497529547690643,-0.1716095060110092,-0.4473707179228465,0.8767394324143728,-0.47616300483544666,0.917282243569692,0.1815412864089012,1.6887548092433818e+18,10.900381787109374,3.890251088142395,-1.2059825837612153,4.572205543518066
110,11.0,1.6887548093385377e+18,10.99553759765625,6.7552956740061445,-7.605932950973511,1.705703596274058,1.68875480934719e+18,11.004190226236979,10.77527928352356,-16.475780089696247,4.62761922677358,1.6887548093385377e+18,10.99553759765625,4.012343009312947,-8.644566218058268,2.296815196673075,1.6887548093385377e+18,10.99553759765625,0.43488515354692936,-1.9495255301396053,-0.10608692467212677,1.6887548093428664e+18,10.999866333007814,0.3726278003305197,-2.0416643818219504,0.03153592348098755,,,,,,,,,,,,1.6887548093430623e+18,11.000062133789061,-3.154919946193695,50.75809898376465,-6.67217984199524,1.6887548093430623e+18,11.000062133789061,-257.6835174560547,144.07589569091797,-138.67617492675782,1.68875480934719e+18,11.004190226236979,0.07820192910730835,-0.1929376348853111,-0.5078326761722565,0.8347309033075968,-0.5367994159460068,1.0757124821345012,0.13796367123723027,1.6887548093385377e+18,10.99553759765625,10.767502466837565,-16.25065525372823,4.002394735813141
111,11.100000000000001,1.688754809442351e+18,11.099351033528643,-5.57899006207784,1.6480111281077068,0.5910935401916504,1.6887548094423508e+18,11.099350927734374,-3.116771173477173,-6.520322096347809,2.424168574810028,1.688754809442351e+18,11.099351033528643,3.7950774431228638,-8.703191757202148,2.435751656691233,1.688754809442351e+18,11.099351033528643,0.4422409888356924,1.3544409237802029,-1.202819117034475,1.6887548094466737e+18,11.103673868815106,0.4452443988993764,1.6400713864713907,-1.3582079547146957,1.6887548094634376e+18,11.1204375,0.0,5.596656799316406,14.532773971557615,185.3350067138672,2.222398281097412,80.45785522460938,328.1999816894531,-122.9171361,49.2791982,1.6887548094430623e+18,11.100062353515625,-3.874719834327698,50.07245864868164,-6.25005989074707,1.6887548094430623e+18,11.100062353515625,-258.4033142089844,143.3902572631836,-138.25405731201172,1.6887548094423508e+18,11.099350927734374,0.10659420192241664,-0.21947101652622222,-0.5064840972423553,0.8267823576927185,-0.5783887505531311,1.0857220888137817,0.09859173595905299,1.688754809442351e+18,11.099351033528643,-1.7840488354365032,-7.055337210496266,3.0267212986946106
112,11.200000000000001,1.6887548095461573e+18,11.203157348632812,-6.905057271321614,0.3007811705271403,0.1176793177922566,1.6887548095375114e+18,11.194511393229165,-4.632803658644359,-8.81326421101888,1.9209380845228832,1.6887548095461573e+18,11.203157348632812,1.5027979165315628,-9.496840159098307,1.6449581782023113,1.6887548095461573e+18,11.203157348632812,-1.3513611853122711,4.0456587473551435,-3.749363581339518,1.6887548095418353e+18,11.19883515625,-1.3240198493003845,4.296703958511353,-3.964515447616577,1.688754809589e+18,11.246,0.0,5.596656799316406,6.074400424957275,185.4290008544922,2.1289663314819336,80.28321838378906,332.8999938964844,-122.917142,49.279198,1.6887548095430638e+18,11.200063745117188,7.736019867658615,48.74387893676758,-7.406619930267334,1.6887548095430638e+18,11.200063745117188,-246.79257507324218,142.06167449951172,-139.41061553955078,1.6887548095375114e+18,11.194511393229165,-0.0133841343728515,-0.0928112287074327,-0.6295287807782491,0.7658557593822479,-0.8024327655633291,1.3059297601381938,0.6880319093664488,1.6887548095461573e+18,11.203157348632812,-5.402395327885945,-9.196215709050497,1.762513279914856
113,11.3,1.6887548096413222e+18,11.29832236328125,1.4144994139671325,-1.2770989418029786,-3.2961949348449706,1.6887548096413176e+18,11.29831766764323,0.2712862739960351,-10.80479065577189,-0.5072784175475439,1.6887548096413222e+18,11.29832236328125,-0.6561975024640561,-9.465082168579102,2.4485421657562254,1.6887548096413222e+18,11.29832236328125,0.03371976912021637,0.7502341613173484,-1.9636262893676757,1.688754809636998e+18,11.29399776204427,-0.2118175343299905,0.9560295691092809,-1.9875263969103496,,,,,,,,,,,,1.6887548096430628e+18,11.300062915039062,20.54235973358154,43.0574592590332,-15.794119739532471,1.6887548096430628e+18,11.300062915039062,-233.98623657226562,136.37525634765626,-147.7981201171875,1.6887548096413176e+18,11.29831766764323,-0.13236140459775922,-0.04216214409098026,-0.7273203035195669,0.6713095406691233,-1.8114222089449565,1.3045178254445393,1.9402389923731487,1.6887548096413222e+18,11.29832236328125,0.7581658482551574,-10.74233798980713,-0.8477770820260048
114,11.4,1.6887548097364805e+18,11.393480387369792,2.173132747411728,1.3403673966725667,-1.0025050640106201,1.6887548097451328e+18,11.402132771809896,0.4831507857888937,-8.253942012786865,1.2564313014348347,1.6887548097364805e+18,11.393480387369792,-1.9118799567222595,-9.342108726501465,2.274613897005717,1.6887548097364805e+18,11.393480387369792,-0.07668904835979146,0.6382778150339922,-1.3359877566496532,1.6887548097408074e+18,11.39780753580729,-0.1353830217073361,0.5420919929941496,-1.319112588961919,,,,,,,,,,,,1.6887548097430615e+18,11.400061474609377,25.70051975250244,39.61827850341797,-17.353279495239256,1.6887548097430615e+18,11.400061474609377,-228.828076171875,132.9360794067383,-149.3572769165039,1.6887548097451328e+18,11.402132771809896,-0.16180954873561854,0.011903359089046666,-0.774565319220225,0.6109802027543386,-2.2682746251424155,1.254819671312968,2.5177478790283203,1.6887548097364805e+18,11.393480387369792,0.2611167685439189,-8.001897970835367,1.2719846268494923
115,11.5,1.6887548098402895e+18,11.497289469401041,2.1117822329203286,-4.4553453127543134,-4.829203923543294,1.688754809848945e+18,11.505945149739583,-0.2964109182357788,-14.05095354715983,-2.317149646424999,1.6887548098402895e+18,11.497289469401041,-2.5910083055496216,-9.075611114501953,2.6723979711532593,1.6887548098402895e+18,11.497289469401041,-0.17890715847412744,-0.033673944572607674,-0.2708423708875974,1.6887548098446203e+18,11.501620239257813,-0.09692395230134328,-0.014686221877733857,-0.2138028254266828,,,,,,,,,,,,1.6887548098430612e+18,11.500061328125,28.85299949645996,36.62073936462402,-19.54927978515625,1.6887548098430612e+18,11.500061328125,-225.67559661865235,129.93853607177735,-151.55327911376952,1.688754809848945e+18,11.505945149739583,-0.1766144211093584,0.005462013767100818,-0.7941361566384634,0.5814406375090281,-2.3328580061594644,1.1821563641230266,2.5960607131322226,1.6887548098402895e+18,11.497289469401041,-0.47936212023099284,-13.531112988789877,-2.1569302131732306
116,11.600000000000001,1.6887548099441016e+18,11.601101399739584,0.5571539402008057,-4.091435432434082,1.533485194047292,1.6887548099441044e+18,11.601104345703124,-0.6436692953109742,-13.363555717468262,3.6600615203380586,1.6887548099441016e+18,11.601101399739584,-1.10896231730779,-9.487078348795572,1.9478967984517415,1.6887548099441016e+18,11.601101399739584,1.0917179981867473,0.5257258849839369,3.115667233864466,1.6887548099484316e+18,11.605431803385416,1.072679380575816,0.5399794342617193,3.2526537775993347,,,,,,,,,,,,1.688754809943061e+18,11.600061059570312,23.50207939147949,41.01883888244629,-17.681459617614745,1.688754809943061e+18,11.600061059570312,-231.02651672363282,134.33663940429688,-149.68545837402343,1.6887548099441044e+18,11.601104345703124,-0.1671995401382446,0.03770811855792992,-0.7439915180206299,0.6440089344978333,-2.001966857910156,1.3271015405654907,2.2950647592544557,1.6887548099441016e+18,11.601101399739584,-0.5519444259504477,-13.578670183817545,3.4812578161557517
117,11.700000000000001,1.6887548100479142e+18,11.70491426595052,-3.5776312748591104,-3.9293662707010903,5.471517324447632,1.688754810039264e+18,11.696263793945313,-1.631007730960846,-13.872189998626709,7.5443704922993975,1.6887548100479142e+18,11.70491426595052,2.248853385448456,-9.405577977498373,1.4506437381108601,1.6887548100479142e+18,11.70491426595052,0.260126772026221,-1.5017358163992565,3.0499992767969766,1.688754810043591e+18,11.700590869140624,0.2942537903785706,-1.3363898515701294,3.063000535964966,,,,,,,,,,,,1.6887548100430628e+18,11.700062939453124,7.171159827709198,47.97527923583984,-14.90473976135254,1.6887548100430628e+18,11.700062939453124,-247.35743408203126,141.29307861328124,-146.9087356567383,1.688754810039264e+18,11.696263793945313,-0.1488759766022364,0.02655851080392795,-0.6268125375111898,0.7626966536045074,-0.6600333799918493,1.305405040582021,0.9109875162442526,1.6887548100479142e+18,11.70491426595052,-1.32891383767128,-13.335100968678793,6.922037025292714
118,11.8,1.6887548101430735e+18,11.80007353515625,-7.2872740745544435,3.8065211296081545,-3.743326997756958,1.6887548101430743e+18,11.800074137369792,-1.860220233599345,-4.586741964022319,-1.7571294109026592,1.6887548101430735e+18,11.80007353515625,4.378216361999511,-8.60540943145752,1.642552924156189,1.6887548101430735e+18,11.80007353515625,0.9206350147724152,-1.7441729426383972,2.8154779434204102,1.688754810138751e+18,11.795750854492185,0.7319947307308515,-2.0061832716067634,2.814841628074646,1.6887548101523054e+18,11.809305419921875,0.0,0.0,6.084230422973633,67.25199890136719,0.1641517281532287,75.29579162597656,332.8999938964844,-122.9172715,49.2791877,1.6887548101430625e+18,11.800062280273437,-4.823880036175251,49.08181877136231,-12.622119617462157,1.6887548101430625e+18,11.800062280273437,-259.3524765014648,142.39961700439454,-144.6261184692383,1.6887548101430743e+18,11.800074137369792,-0.07806410267949099,-0.05403532460331911,-0.521918922662735,0.8462028304735819,-0.38006896277268726,1.0680479407310486,0.41467106342315674,1.6887548101430735e+18,11.80007353515625,-2.9091938376426696,-4.799045133590698,-2.100898265838623
119,11.9,1.6887548102382333e+18,11.895233479817707,-2.049955169359843,7.314667463302612,0.07333966096242268,1.6887548102468856e+18,11.903885579427083,3.571885995566845,-1.3836497018734615,2.9539395024379096,1.6887548102382333e+18,11.895233479817707,5.085885127385457,-8.028868198394775,2.3971744775772095,1.6887548102382333e+18,11.895233479817707,0.7664831640819708,-1.8365154763062794,-0.28911744989454746,1.6887548102425628e+18,11.899562866210937,0.8456411138176918,-1.665982226530711,-0.5238932967185974,,,,,,,,,,,,1.6887548102430615e+18,11.900061596679688,-10.448079681396484,48.621879196166994,-11.380159664154053,1.6887548102430615e+18,11.900061596679688,-264.97667236328124,141.9396759033203,-143.3841567993164,1.6887548102468856e+18,11.903885579427083,0.00986430118791755,-0.1488959540923436,-0.47058577835559845,0.8690454463164011,-0.4534807652235031,0.9645516177018484,0.21779558062553403,1.6887548102382333e+18,11.895233479817707,3.0357940743366876,-0.7143572767575582,2.470389942328135
