seconds_elapsed_rounded,accelerometer_time,accelerometer_seconds_elapsed,accelerometer_z,accelerometer_y,accelerometer_x,accelerometeruncalibrated_time,accelerometeruncalibrated_seconds_elapsed,accelerometeruncalibrated_z,accelerometeruncalibrated_y,accelerometeruncalibrated_x,gravity_time,gravity_seconds_elapsed,gravity_z,gravity_y,gravity_x,gyroscope_time,gyroscope_seconds_elapsed,gyroscope_z,gyroscope_y,gyroscope_x,gyroscopeuncalibrated_time,gyroscopeuncalibrated_seconds_elapsed,gyroscopeuncalibrated_z,gyroscopeuncalibrated_y,gyroscopeuncalibrated_x,location_time,location_seconds_elapsed,location_bearingAccuracy,location_speedAccuracy,location_verticalAccuracy,location_horizontalAccuracy,location_speed,location_bearing,location_altitude,location_longitude,location_latitude,magnetometer_time,magnetometer_seconds_elapsed,magnetometer_z,magnetometer_y,magnetometer_x,magnetometeruncalibrated_time,magnetometeruncalibrated_seconds_elapsed,magnetometeruncalibrated_z,magnetometeruncalibrated_y,magnetometeruncalibrated_x,orientation_time,orientation_seconds_elapsed,orientation_qz,orientation_qy,orientation_qx,orientation_qw,orientation_roll,orientation_pitch,orientation_yaw
0.0,1.688875827664323e+18,149.99432316080728,-4.535757263501485,-5.288236935933431,-0.3581790924072265,1.6888758276729756e+18,150.0029757486979,-7.6440714200337725,-14.537194887797035,1.8925233806173007,1.688875827664323e+18,149.99432316080728,-1.52254056930542,-9.581767717997232,1.3760184049606323,1.6888758276729756e+18,150.0029757486979,1.22391939163208,1.0282898247241974,3.1035009225209556,1.6888758276729756e+18,150.0029757486979,1.223308563232422,1.032973090807597,3.10589337348938,,,,,,,,,,,,1.6888758276659922e+18,149.99599213867185,27.510998916625976,42.96595916748047,-9.750239753723145,1.6888758276659922e+18,149.99599213867185,-228.1155975341797,137.82095642089843,-142.87663879394532,1.688875827664323e+18,149.99432316080728,-0.0844055687387784,-0.0096623329445719,-0.759558916091919,0.6443788011868795,-2.385107437769572,1.359185775121053,2.491441011428833
0.05,1.6888758277162263e+18,150.04622623697915,-3.4167327086130777,-6.268313090006511,5.525693575541179,1.6888758277248768e+18,150.05487679036457,-1.8307086825370789,-16.70309861501058,6.798208554585774,1.6888758277162263e+18,150.04622623697915,0.0972198843955993,-9.76759433746338,0.7396057645479838,1.6888758277248768e+18,150.05487679036457,1.1269954641660054,-2.4572563966115317,3.852625211079915,1.6888758277248768e+18,150.05487679036457,1.126282811164856,-2.452624003092448,3.855017900466919,,,,,,,,,,,,1.6888758277159974e+18,150.04599746093749,20.16903953552246,47.38479919433594,-6.705119800567627,1.6888758277159974e+18,150.04599746093749,-235.45755615234376,142.23979797363282,-139.8315185546875,1.6888758277162263e+18,150.04622623697915,-0.049764497205615,-0.0031384583174561,-0.7031227151552836,0.7085504531860352,-1.3873143593470256,1.4789226452509563,1.453352987766266
0.1,1.6888758277681244e+18,150.09812451171874,-1.719690481821696,-9.097057978312174,8.603487014770508,1.6888758277767762e+18,150.10677628580729,0.2703889459371567,-17.73520278930664,8.086942990620932,1.6888758277681244e+18,150.09812451171874,1.9750547806421916,-9.568959871927897,0.7274168928464254,1.6888758277767762e+18,150.10677628580729,-0.250505656003952,-2.499304254849752,3.4274121125539145,1.6888758277767762e+18,150.10677628580729,-0.2512183487415313,-2.494671861330668,3.42975385983785,,,,,,,,,,,,1.6888758277659963e+18,150.09599643554688,10.750639724731446,50.64707946777344,-3.635599851608277,1.6888758277659963e+18,150.09599643554688,-244.8759582519531,145.5020751953125,-136.76199340820312,1.6888758277681244e+18,150.09812451171874,-0.0015609830152243,-0.0461668999244769,-0.6295772393544515,0.7750142812728882,-0.3563125232855479,1.353730082511902,0.292739525437355
0.15,1.688875827820026e+18,150.15002596028646,-0.5014661947886149,-0.5969314575195312,-3.199176549911499,1.6888758278200264e+18,150.15002624511715,4.134498357772827,-9.946963787078856,-2.83878493309021,1.688875827820026e+18,150.15002596028646,3.29242475827535,-9.183539390563965,0.9647711316744486,1.6888758278200264e+18,150.15002624511715,1.0819187462329865,-2.878626048564911,2.851824402809143,1.6888758278200264e+18,150.15002624511715,1.0812314748764038,-2.8739683032035828,2.8542678356170654,,,,,,,,,,,,1.6888758278159962e+18,150.14599614257813,3.157359904050827,51.671878814697266,-1.8397599816322328,1.6888758278159962e+18,150.14599614257813,-252.4692352294922,146.5268768310547,-134.96615600585938,1.688875827820026e+18,150.15002596028646,0.0587874191502729,-0.1008528172969817,-0.5669452746709188,0.814958910147349,-0.2887151092290878,1.2124154170354209,0.0585724872847398
0.2,1.6888758278719263e+18,150.20192659505207,-10.417998313903809,8.56510925292969,-1.6507463057835896,1.6888758278632758e+18,150.19327579752607,-4.8121657371521,-1.33559387922287,-1.118843995034695,1.6888758278719263e+18,150.20192659505207,4.193199793497722,-8.807788848876953,1.0099607507387798,1.6888758278632758e+18,150.19327579752607,0.6007859570284685,-2.509179870287577,1.9994128147761028,1.6888758278632758e+18,150.19327579752607,0.6000223867595196,-2.5045474767684937,2.0018563270568848,,,,,,,,,,,,1.6888758278659978e+18,150.19599765625,-3.5501999378204347,51.64504013061523,0.7685999810695648,1.6888758278659978e+18,150.19599765625,-259.1767944335937,146.50003662109376,-132.35780029296876,1.6888758278719263e+18,150.20192659505207,0.1167680645982424,-0.1336408853530883,-0.5174187819163004,0.8367392222086588,-0.2354108293851216,1.1145858367284138,-0.1304031113783518
0.25,1.688875827923826e+18,150.253826171875,-9.748568058013916,10.287981986999512,-1.0317991375923157,1.688875827915175e+18,150.2451747233073,-6.706882476806641,1.9306090275446577,0.6636094649632772,1.688875827923826e+18,150.253826171875,4.4627532958984375,-8.500750541687012,1.9912137587865193,1.688875827915175e+18,150.2451747233073,-0.3904956181844075,-3.935651938120524,1.3859005371729534,1.688875827915175e+18,150.2451747233073,-0.3912082811196645,-3.930917819341024,1.3882421652475994,,,,,,,,,,,,1.6888758279159977e+18,150.24599750976563,-7.446879863739014,51.33027877807617,-0.3049999922513962,1.6888758279159977e+18,150.24599750976563,-263.07347412109374,146.18527526855468,-133.43140258789063,1.688875827923826e+18,150.253826171875,0.1660222510496774,-0.2155159612496694,-0.4745777448018392,0.8366595506668091,-0.4183024863402048,1.0478994846343994,-0.1481530169645945
0.3,1.6888758279757292e+18,150.30572924804687,-3.6300713221232095,7.720010121663411,0.4338966210683186,1.6888758279670764e+18,150.2970762532552,0.3357927997907002,-0.2594218750794729,2.9222346941630044,1.6888758279757292e+18,150.30572924804687,4.549244244893392,-8.343547185262045,2.431401252746582,1.6888758279670764e+18,150.2970762532552,0.6489934374888738,-1.5384132464726763,0.3877976238727569,1.6888758279670764e+18,150.2970762532552,0.6482807298501333,-1.5337807734807332,0.3902410666147868,,,,,,,,,,,,1.688875827965996e+18,150.29599594726562,-10.716479682922364,50.76907958984375,-1.67139995098114,1.688875827965996e+18,150.29599594726562,-266.34307861328125,145.62407836914062,-134.79779968261718,1.6888758279757292e+18,150.30572924804687,0.2004854281743367,-0.2575010408957799,-0.4489676654338836,0.8317215840021769,-0.4911608199278514,1.016435702641805,-0.1956796050071716
0.35,1.6888758280276242e+18,150.35762434895832,11.757750988006592,0.5158494313557943,2.050995111465454,1.6888758280189706e+18,150.34897086588543,13.48874028523763,-5.576872110366821,2.90588370958964,1.6888758280276242e+18,150.35762434895832,3.668905814488729,-8.881962458292643,1.9269651969273884,1.6888758280189706e+18,150.34897086588543,1.7987436453501384,-0.2684244116147359,-2.5181901852289834,1.6888758280189706e+18,150.34897086588543,1.798030932744344,-0.2637919584910075,-2.5157466729482016,,,,,,,,,,,,1.6888758280160015e+18,150.3460015136719,-7.932439804077148,51.21071929931641,0.522160005569458,1.6888758280160015e+18,150.3460015136719,-263.559033203125,146.0657165527344,-132.60423583984374,1.6888758280276242e+18,150.35762434895832,0.2309208462635676,-0.2661174337069193,-0.4915415247281392,0.7960826357205709,-0.4830930133660634,1.1336670716603596,-0.253735010822614
0.4,1.6888758280708695e+18,150.40086950683593,2.340751528739929,-18.447442054748535,11.571040153503418,1.6888758280708677e+18,150.40086767578126,6.501099745432536,-24.488744735717773,13.582459131876629,1.6888758280708695e+18,150.40086950683593,3.3762303590774536,-8.896645545959473,2.361660122871399,1.6888758280708677e+18,150.40086767578126,-1.5379550854365032,-2.7903814365466437,1.3554590344429016,1.6888758280708677e+18,150.40086767578126,-1.5386168360710144,-2.785749110082785,1.3579025566577911,1.6888758280795226e+18,150.4095224609375,0.0,0.0,0.9899170398712158,6.670000076293945,1.7764561176300049,7.413959503173828,39.10000228881836,-122.7499518,49.1910035,1.6888758280659914e+18,150.39599140625,-2.740119957923889,52.06715927124024,1.5689199566841123,1.6888758280659914e+18,150.39599140625,-258.36671142578126,146.92215576171876,-131.55747680664064,1.6888758280708695e+18,150.40086950683593,0.224497266113758,-0.2926968485116958,-0.491499200463295,0.7885722815990448,-0.6076788008213043,1.136033296585083,-0.1603809520602226
0.45,1.6888758281141266e+18,150.44412646484375,0.1298669179280599,-5.246743520100911,8.31808090209961,1.6888758281227756e+18,150.4527753092448,1.5659027099609375,-11.669397195180258,9.554141839345297,1.6888758281141266e+18,150.44412646484375,3.8858180046081543,-8.406909624735514,3.2200029691060386,1.6888758281227756e+18,150.4527753092448,-1.3686944742997489,0.4801909923553467,1.513622264067332,1.6888758281227756e+18,150.4527753092448,-1.3694071968396504,0.4849251508712767,1.516065736611684,,,,,,,,,,,,1.6888758281159923e+18,150.44599228515625,-7.639639949798584,51.383958435058595,-2.559559941291809,1.6888758281159923e+18,150.44599228515625,-263.2662353515625,146.23895874023438,-135.68595275878906,1.6888758281141266e+18,150.44412646484375,0.2500843554735183,-0.3411634465058644,-0.4303670724232991,0.7971920172373453,-0.6922165552775065,1.0296349326769512,-0.2054814100265502
0.5,1.6888758281660234e+18,150.4960234375,-7.810103336970012,2.2605457305908203,-6.634555538495381,1.6888758281746706e+18,150.5046706542969,0.4099704424540196,-5.938985983530681,-4.7208395799001055,1.6888758281660234e+18,150.4960234375,4.093980550765991,-8.253178278605143,3.358474334081014,1.6888758281746706e+18,150.5046706542969,0.7428630590438843,1.8324939211209617,-1.8555031617482505,1.6888758281746706e+18,150.5046706542969,0.74215034643809,1.837075412273407,-1.853059728940328,,,,,,,,,,,,1.6888758281659927e+18,150.495992578125,-9.60871992111206,50.78615875244141,-4.221199941635132,1.6888758281659927e+18,150.495992578125,-265.2353088378906,145.6411560058594,-137.34759521484375,1.6888758281660234e+18,150.4960234375,0.2123316228389739,-0.3228356738885243,-0.4320712983608246,0.8146767020225525,-0.6869576374689738,0.9997278650601704,-0.1240541438261667
0.55,1.6888758282179174e+18,150.54791731770834,-7.305305322011312,-2.0911327997843423,-3.715743819872538,1.6888758282265736e+18,150.55657381184895,-6.171887159347534,-12.758131663004557,-0.3828516354163487,1.6888758282179174e+18,150.54791731770834,3.040627400080363,-9.077573776245115,2.0023755629857383,1.6888758282265736e+18,150.55657381184895,0.853531445066134,5.511531670888265,-5.649129072825114,1.6888758282265736e+18,150.55657381184895,0.8528696993986765,5.516163984934489,-5.646685600280762,,,,,,,,,,,,1.6888758282159977e+18,150.54599755859377,-1.6860400199890138,51.54255905151367,-0.1415199875831603,1.6888758282159977e+18,150.54599755859377,-257.31263122558596,146.39755859375,-133.267919921875,1.6888758282179174e+18,150.54791731770834,0.173197641968727,-0.2441916515429814,-0.5317647556463877,0.790196418762207,-0.5851010084152222,1.1886176665623982,-0.0271597777803739
0.6,1.6888758282698232e+18,150.5998234049479,-6.045738538106282,-3.3922382990519204,-0.7454461852709452,1.6888758282698235e+18,150.59982373046876,-4.33489727973938,-12.850654125213625,0.8608179539442062,1.6888758282698232e+18,150.5998234049479,1.0977104902267456,-9.655232747395834,1.3226073582967122,1.6888758282698235e+18,150.59982373046876,-0.4725042805075645,6.609485626220703,-2.8264734745025635,1.6888758282698235e+18,150.59982373046876,-0.4731914773583412,6.614067077636719,-2.8240299820899963,,,,,,,,,,,,1.6888758282660006e+18,150.59600053710938,12.158519744873049,50.32011947631836,-1.1687599886208773,1.6888758282660006e+18,150.59600053710938,-243.46807556152345,145.17511596679688,-134.29515991210937,1.6888758282698232e+18,150.5998234049479,0.0564758821080128,-0.1394389569759368,-0.6505709091822306,0.7429237167040507,-0.8845961292584738,1.393173058827718,0.6051675081253052
0.65,1.6888758283217244e+18,150.6517245279948,-0.6176770677169164,1.2063042322794597,-1.2004479765892029,1.6888758283130624e+18,150.6430624186198,-2.603590488433838,-9.797810872395834,0.1661017686128616,1.6888758283217244e+18,150.6517245279948,-0.0880759358406066,-9.695049603780111,1.440620024998983,1.6888758283130624e+18,150.6430624186198,-0.3249803197880586,-0.4978551864624023,-2.59098490079244,1.6888758283130624e+18,150.6430624186198,-0.325642076631387,-0.493273655573527,-2.5885923703511557,,,,,,,,,,,,1.6888758283159977e+18,150.64599775390624,18.12431945800781,48.42179870605469,-4.123599910736084,1.6888758283159977e+18,150.64599775390624,-237.5022766113281,143.27679748535155,-137.25,1.6888758283217244e+18,150.6517245279948,0.0151012217005093,-0.1197272017598151,-0.6996803681055704,0.7038529912630717,-1.6237895488739014,1.4174573024113972,1.4322492678960164
0.7,1.68887582837362e+18,150.70361995442707,5.573038736979167,4.732651233673096,-0.6555041869481405,1.6888758283649738e+18,150.69497371419268,5.06939419110616,-4.405585289001465,1.0656036933263142,1.68887582837362e+18,150.70361995442707,-1.2056087255477903,-9.617406845092772,1.492884834607442,1.6888758283649738e+18,150.69497371419268,-0.0458657989899317,0.969748596350352,-2.25765609741211,1.6888758283649738e+18,150.69497371419268,-0.0465784743428229,0.9743809898694358,-2.2552127043406167,,,,,,,,,,,,1.6888758283659976e+18,150.69599750976562,24.622039794921875,46.03791961669922,-4.0577198505401615,1.6888758283659976e+18,150.69599750976562,-231.00455627441409,140.892919921875,-137.18411560058593,1.68887582837362e+18,150.70361995442707,0.0044805160723626,-0.1196983481446901,-0.739338219165802,0.6622740228970846,-2.239284038543701,1.3735104004542034,2.0625810623168945
0.75,1.6888758284255237e+18,150.7555234375,1.991298794746399,0.9625689188639324,-3.2273429234822593,1.6888758284168714e+18,150.74687141927083,-0.1786640956997871,-8.04327392578125,-0.8821539481480917,1.6888758284255237e+18,150.7555234375,-1.9297533830006917,-9.451912562052408,1.76980717976888,1.6888758284168714e+18,150.74687141927083,-0.4166610141595204,1.6140078107515972,-1.665167768796285,1.6888758284168714e+18,150.74687141927083,-0.4173227647940318,1.618691047032674,-1.662724256515503,,,,,,,,,,,,1.6888758284159954e+18,150.74599536132814,28.37475929260254,43.534480285644534,-6.8515198707580565,1.6888758284159954e+18,150.74599536132814,-227.25184020996093,138.38947448730468,-139.97791748046876,1.6888758284255237e+18,150.7555234375,-0.0414004952957232,-0.0923166622718174,-0.7677800258000692,0.6325457096099854,-2.39611291885376,1.300904353459676,2.3234431743621826
0.8,1.6888758284774228e+18,150.80742277018228,5.694931348164876,-0.7776581446329752,-2.2677824099858603,1.6888758284687716e+18,150.79877132161457,2.8350960413614907,-9.952746391296388,-0.7268198728561401,1.6888758284774228e+18,150.80742277018228,-2.576754411061605,-9.244886716206867,2.02221143245697,1.6888758284687716e+18,150.79877132161457,-0.3974187423785527,0.2954042504231135,-1.5444200833638508,1.6888758284687716e+18,150.79877132161457,-0.3980296129981677,0.3000366389751434,-1.5419765710830688,,,,,,,,,,,,1.6888758284659973e+18,150.79599731445313,31.11487922668457,40.80899887084961,-8.847439765930176,1.6888758284659973e+18,150.79599731445313,-224.51171264648437,135.66399536132812,-141.9738342285156,1.6888758284774228e+18,150.80742277018228,-0.0609680352111657,-0.0909564271569251,-0.7891398866971334,0.6042808095614115,-2.4736503760019937,1.230608304341634,2.430621782938639
0.85,1.6888758285206784e+18,150.85067846679686,2.9983391761779785,-2.711427688598633,-5.484927654266357,1.6888758285206694e+18,150.85066951497396,-0.4669991508126259,-12.242677370707192,-3.0999016960461936,1.6888758285206784e+18,150.85067846679686,-2.8560359477996826,-9.119991302490234,2.212934732437134,1.6888758285206694e+18,150.85066951497396,-0.3983350346485774,0.9603819698095322,-0.1762855313718319,1.6888758285206694e+18,150.85066951497396,-0.3989968200524648,0.9650652805964152,-0.1738929711282253,,,,,,,,,,,,1.6888758285159954e+18,150.8459953613281,34.00871963500977,39.130278778076175,-10.021080017089844,1.6888758285159954e+18,150.8459953613281,-221.6178741455078,133.9852783203125,-143.14747314453126,1.6888758285206784e+18,150.85067846679686,-0.0753861181437968,-0.0891005583107471,-0.7983515858650208,0.5907403230667114,-2.4814586639404297,1.193910539150238,2.4617135524749756
0.9,1.6888758285639227e+18,150.89392252604168,2.100855827331543,-5.382795015970866,-6.903833707173665,1.6888758285725683e+18,150.90256819661457,1.373480200767517,-13.695120811462402,-3.7988053957621255,1.6888758285639227e+18,150.89392252604168,-2.6518731117248535,-9.190699259440104,2.17072327931722,1.6888758285725683e+18,150.90256819661457,1.0151562492052717,0.1381064454714457,0.0653625826040903,1.6888758285725683e+18,150.90256819661457,1.0144944389661152,0.1427388489246368,0.0677551329135894,,,,,,,,,,,,1.688875828565995e+18,150.89599501953126,33.04979934692383,39.21323928833008,-11.37039966583252,1.688875828565995e+18,150.89599501953126,-222.57679748535156,134.0682373046875,-144.49679260253907,1.6888758285639227e+18,150.89392252604168,-0.0858598003784815,-0.071083607772986,-0.7936028043429056,0.5980803569157919,-2.455517371495565,1.2140971819559734,2.476748466491699
0.95,1.688875828615822e+18,150.94582210286458,-0.9416893323262532,-5.46376355489095,-1.682979663213094,1.6888758286244708e+18,150.95447086588544,-4.462016145388286,-15.454244295756022,0.76430743932724,1.688875828615822e+18,150.94582210286458,-2.021890958150228,-9.445522944132486,1.652363936106364,1.6888758286244708e+18,150.95447086588544,1.050230085849762,0.3599014480908711,2.969874143600464,1.6888758286244708e+18,150.95447086588544,1.0495173732439678,0.3644829268256823,2.9723175366719565,1.688875828598522e+18,150.92852221679686,0.0,0.0,0.9899170398712158,6.626999855041504,1.7799495458602903,6.236143589019775,39.10000228881836,-122.7499564,49.1910092,1.6888758286159946e+18,150.94599458007812,30.875759506225585,41.21159896850586,-9.967399787902831,1.6888758286159946e+18,150.94599458007812,-224.7508331298828,136.06659851074218,-143.0937957763672,1.688875828615822e+18,150.94582210286458,-0.0686418563127517,-0.0496865871051946,-0.7746766408284506,0.6262383063634237,-2.44414750734965,1.300800323486328,2.471192995707194
1.0,1.68887582866772e+18,150.9977198893229,-4.111304998397827,-6.293984095255534,5.141142209370931,1.6888758286763725e+18,151.00637231445313,-3.4863425691922507,-16.60279909769694,6.983452796936035,1.68887582866772e+18,150.9977198893229,-0.4462941214442253,-9.737935384114582,0.987367590268453,1.6888758286763725e+18,151.00637231445313,1.3279192050298054,-2.157168706258138,3.516445795694987,1.6888758286763725e+18,151.00637231445313,1.3272065718968709,-2.152485489845276,3.5188892682393393,,,,,,,,,,,,1.6888758286659968e+18,150.99599663085937,23.416679763793944,45.85735931396484,-7.1394397735595705,1.6888758286659968e+18,150.99599663085937,-232.2099182128906,140.7123565673828,-140.26583862304688,1.68887582866772e+18,150.9977198893229,-0.0331251003469029,-0.0377889933685461,-0.7216586470603943,0.6897706190745035,-1.894059141476949,1.4547359148661296,1.887481490770976
1.05,1.6888758287196224e+18,151.04962247721355,-1.113280196984609,-8.607876777648926,9.562880516052246,1.6888758287196268e+18,151.04962658691406,0.9714859873056412,-19.496121406555176,11.426326274871826,1.6888758287196224e+18,151.04962247721355,1.3724329074223836,-9.673495292663574,0.7046145995457967,1.6888758287196268e+18,151.04962658691406,0.0154243484139442,-1.1798098385334015,3.96902060508728,1.6888758287196268e+18,151.04962658691406,0.0147371217608451,-1.175075650215149,3.971311330795288,,,,,,,,,,,,1.6888758287159954e+18,151.0459953125,14.481399726867677,49.600318908691406,-3.14271993637085,1.6888758287159954e+18,151.0459953125,-241.14519348144532,144.45531311035157,-136.2691162109375,1.6888758287196224e+18,151.04962247721355,0.0194987334931889,-0.0641830911238987,-0.6520732045173645,0.7546423673629761,-0.5193963746229807,1.4106056690216064,0.4005278050899505
1.1,1.6888758287715187e+18,151.10151879882812,-2.3055825233459473,-2.1664692560831704,-0.9566154082616172,1.6888758287628685e+18,151.09286848958334,-0.104087750116984,-12.322837193806969,1.984846353530884,1.6888758287715187e+18,151.10151879882812,2.6851741472880044,-9.384291648864744,0.9473356604576112,1.6888758287628685e+18,151.09286848958334,0.4619159226616223,-3.6214637756347656,2.526233196258545,1.6888758287628685e+18,151.09286848958334,0.461203267176946,-3.616780440012614,2.528625806172689,,,,,,,,,,,,1.688875828765993e+18,151.09599287109376,5.20207986831665,51.16923904418945,-1.4371599316596986,1.688875828765993e+18,151.09599287109376,-250.4245178222656,146.02423400878905,-134.5635559082031,1.6888758287715187e+18,151.10151879882812,0.0737340648969014,-0.1151825363437334,-0.5908451676368713,0.7943777243296305,-0.3405543665091197,1.2755903800328572,0.0693545925120512
1.15,1.6888758288234127e+18,151.15341292317706,-8.672602812449137,7.080665270487468,-2.5389084815979004,1.688875828814773e+18,151.14477311197916,-3.685744434595108,-3.4859437545140586,-2.1788644790649414,1.6888758288234127e+18,151.15341292317706,3.759669462839762,-9.026436487833658,0.7284314632415771,1.688875828814773e+18,151.14477311197916,1.1774427493413289,-1.700597922007243,2.6672921975453696,1.688875828814773e+18,151.14477311197916,1.1767300764719646,-1.695965568224589,2.6697356700897217,,,,,,,,,,,,1.6888758288159962e+18,151.14599609375,-1.2663599848747251,51.535238647460936,2.4302399277687075,1.6888758288159962e+18,151.14599609375,-256.89295959472656,146.39024047851564,-130.69615478515624,1.6888758288234127e+18,151.15341292317706,0.1429528295993804,-0.1389179974794387,-0.5371999541918436,0.8192623853683472,-0.1930780410766601,1.1688753366470337,-0.2167789886395136
1.2,1.688875828875322e+18,151.2053221028646,-8.388814926147461,10.1148894627889,-0.6781265536944071,1.6888758288666683e+18,151.19666813151042,-4.74576473236084,1.191426247358322,0.450448860724767,1.688875828875322e+18,151.2053221028646,4.474087079366048,-8.633540471394857,1.2672518491744995,1.6888758288666683e+18,151.19666813151042,0.0379754559447368,-3.4155003229777017,1.841809630393982,1.6888758288666683e+18,151.19666813151042,0.0372118751207987,-3.410867929458618,1.8442530234654744,,,,,,,,,,,,1.6888758288659955e+18,151.19599555664064,-8.047119903564454,51.16435928344727,2.862119960784912,1.6888758288659955e+18,151.19599555664064,-263.67371826171876,146.01935424804688,-130.26427612304687,1.688875828875322e+18,151.2053221028646,0.1951305866241454,-0.1914908538262049,-0.4842680792013804,0.8306616346041361,-0.274970531463623,1.0757853984832764,-0.2970958252747853
1.25,1.6888758289272205e+18,151.2572205403646,-2.5526525179545083,9.013228098551432,1.1317700147628784,1.688875828918563e+18,151.24856315104168,1.139182964960734,1.053440198302269,2.430509646733602,1.6888758289272205e+18,151.2572205403646,4.679802258809407,-8.435368855794271,1.781783143679301,1.688875828918563e+18,151.24856315104168,0.6510296165943146,-2.2612195014953613,0.5331326425075531,1.688875828918563e+18,151.24856315104168,0.6503169536590576,-2.2565361658732095,0.5354742805163065,,,,,,,,,,,,1.688875828915998e+18,151.2459978515625,-12.063359642028807,50.295719909667966,2.003239941596985,1.688875828915998e+18,151.2459978515625,-267.68995361328126,145.15071716308594,-131.12315673828124,1.6888758289272205e+18,151.2572205403646,0.2406895607709884,-0.2417089293400446,-0.4503338634967804,0.8250253796577454,-0.3642622828483581,1.034481684366862,-0.3589484989643097
1.3,1.6888758289704704e+18,151.30047033691406,0.0270562171936035,7.244386434555054,1.31702721118927,1.68887582897047e+18,151.30046988932293,4.496313095092773,-1.7491533756256104,3.115654468536377,1.6888758289704704e+18,151.30047033691406,4.121430516242981,-8.758851051330566,1.5718997716903689,1.68887582897047e+18,151.30046988932293,1.2782864570617676,-0.6689992547035217,-2.42696762084961,1.68887582897047e+18,151.30046988932293,1.2776246468226116,-0.6643668711185455,-2.4246259530385337,,,,,,,,,,,,1.6888758289659978e+18,151.29599780273438,-9.537959671020507,50.72271881103516,3.945479965209961,1.6888758289659978e+18,151.29599780273438,-265.1645568847656,145.57771911621094,-129.18092041015626,1.6888758289704704e+18,151.30047033691406,0.2624602913856506,-0.2555535435676574,-0.4736625403165817,0.8008031249046326,-0.3647985607385635,1.1037750840187073,-0.4073066562414169
1.35,1.6888758290137203e+18,151.3437204589844,10.394672393798828,-11.94610071182251,5.6386895179748535,1.6888758290223667e+18,151.35236669921875,14.249059359232584,-25.02094841003418,8.887741247812906,1.6888758290137203e+18,151.3437204589844,3.432183742523194,-9.02679761250814,1.693808635075887,1.6888758290223667e+18,151.35236669921875,-1.1704178129633267,-2.5933775305747986,0.5712608098983765,1.6888758290223667e+18,151.35236669921875,-1.1711813633640606,-2.5887450575828552,0.5737043221791585,,,,,,,,,,,,1.688875829015995e+18,151.345994921875,-4.474959754943848,51.39127883911133,4.330999851226807,1.688875829015995e+18,151.345994921875,-260.1015563964844,146.24627685546875,-128.79539947509767,1.6888758290137203e+18,151.3437204589844,0.2673087219397227,-0.2816241681575774,-0.4951878686745961,0.7769284049669901,-0.4559365212917328,1.168751835823059,-0.3588791886965434
1.4,1.6888758290656197e+18,151.39561987304683,6.0130674839019775,-3.0244458516438804,7.820374170939128,1.688875829074266e+18,151.40426627604168,7.265008211135864,-8.549156347910563,10.180662790934244,1.6888758290656197e+18,151.39561987304683,3.566528081893921,-8.74386215209961,2.6556952794392905,1.688875829074266e+18,151.40426627604168,0.0061086515585581,-1.798590938250224,0.2618066271146138,1.688875829074266e+18,151.40426627604168,0.0053450614213943,-1.79395854473114,0.2642501393953959,,,,,,,,,,,,1.6888758290659937e+18,151.3959937011719,-7.40295991897583,51.2351188659668,1.0491999864578248,1.6888758290659937e+18,151.3959937011719,-263.02955322265626,146.09011840820312,-132.077197265625,1.6888758290656197e+18,151.39561987304683,0.3022751013437906,-0.3501755197842915,-0.4418940643469493,0.7683324217796326,-0.6401945551236471,1.0998547871907551,-0.3487238188584645
1.45,1.68887582911751e+18,151.44751009114583,-14.82840665181478,-3.0085179011027017,0.3010024229685465,1.6888758291261647e+18,151.45616487630207,-11.498908599217732,-11.915658632914225,0.9844470818837484,1.68887582911751e+18,151.44751009114583,3.4024091561635337,-8.73107624053955,2.9022817611694336,1.6888758291261647e+18,151.45616487630207,-0.3295618096987406,2.1251492897669473,-1.0961467623710632,1.6888758291261647e+18,151.45616487630207,-0.3302744626998901,2.129832625389099,-1.093754231929779,1.6888758291175194e+18,151.44751928710937,0.0,0.0,0.9848334193229676,6.610000133514404,1.7859045267105105,4.3603363037109375,37.39407028344243,-122.7499609,49.1910194,1.6888758291159954e+18,151.44599541015626,-7.57131986618042,51.11799850463867,-0.1488400042057037,1.6888758291159954e+18,151.44599541015626,-263.1979125976562,145.972998046875,-133.27523803710938,1.68887582911751e+18,151.44751009114583,0.2747936546802521,-0.3514942526817322,-0.4503547350565591,0.7731887102127075,-0.7063814600308737,1.0969880024592082,-0.2398162633180618
1.5,1.6888758291694177e+18,151.49941739908854,-1.1200409730275471,0.8736124038696289,-6.7470574378967285,1.6888758291694095e+18,151.4994096679687,4.454538404941559,-8.245068550109863,-5.916852235794067,1.6888758291694177e+18,151.49941739908854,2.7582573095957437,-9.21659501393636,1.8075660467147827,1.6888758291694095e+18,151.4994096679687,2.4187209606170654,4.13739025592804,-3.205897092819214,1.6888758291694095e+18,151.4994096679687,2.418033719062805,4.142048239707947,-3.203529953956604,,,,,,,,,,,,1.6888758291659894e+18,151.49598959960937,-2.925559902191162,51.337599182128905,2.8816399812698363,1.6888758291659894e+18,151.49598959960937,-258.5521484375,146.19259338378907,-130.24475708007813,1.6888758291694177e+18,151.49941739908854,0.2494094868501027,-0.291732241710027,-0.521886795759201,0.7604781786600748,-0.5695603589216868,1.2260184288024902,-0.2294107029835382
1.55,1.688875829221319e+18,151.55131909179687,-8.324353535970053,-0.3807048797607422,0.274836758772532,1.688875829212669e+18,151.5426689453125,-7.239684263865153,-9.716455141703287,0.7804589966932932,1.688875829221319e+18,151.55131909179687,0.7631639093160629,-9.710832595825195,1.022763431072235,1.688875829212669e+18,151.5426689453125,-0.2372702360153198,5.640373229980469,-4.837848981221517,1.688875829212669e+18,151.5426689453125,-0.2379320363203684,5.645107587178548,-4.835405667622884,,,,,,,,,,,,1.6888758292159992e+18,151.5459990722656,10.023519802093508,50.00535888671875,4.792159938812256,1.6888758292159992e+18,151.5459990722656,-245.603076171875,144.8603546142578,-128.33423919677733,1.688875829221319e+18,151.55131909179687,0.1505105172594388,-0.2065962105989456,-0.6458337903022766,0.7176287372907003,-0.9896029233932496,1.430709958076477,0.477211390932401
1.6,1.688875829273213e+18,151.60321256510417,-2.8785157998402915,-0.9407413800557456,-1.2173600594202678,1.6888758292645683e+18,151.5945684407552,-3.7744783560434976,-11.323036193847656,1.0520443518956502,1.688875829273213e+18,151.60321256510417,-0.5732004245122274,-9.693368593851725,1.3612209558486938,1.6888758292645683e+18,151.5945684407552,-0.4685845573743185,2.1478022262454033,-2.4015658696492515,1.6888758292645683e+18,151.5945684407552,-0.4692972203095754,2.1524854972958565,-2.3991223176320395,,,,,,,,,,,,1.688875829265999e+18,151.5959990234375,19.38579978942871,47.69223861694336,-0.6173199832439422,1.688875829265999e+18,151.5959990234375,-236.2407958984375,142.54723510742187,-133.74371643066405,1.688875829273213e+18,151.60321256510417,0.0637713447213172,-0.1676194022099176,-0.707592229048411,0.6832741896311442,-1.9550745089848836,1.416688402493795,1.625368356704712
1.65,1.688875829316471e+18,151.64647106933592,3.257335901260376,3.96138858795166,-2.014323800802231,1.6888758293164603e+18,151.64646053059894,1.7026927471160889,-6.06919527053833,-0.4402793645858764,1.688875829316471e+18,151.64647106933592,-1.5414525270462036,-9.619624137878418,1.1390416026115415,1.6888758293164603e+18,151.64646053059894,0.4965825378894806,0.3472259988387425,-2.109317700068156,1.6888758293164603e+18,151.64646053059894,0.4959207574526469,0.351858377456665,-2.106874148050944,,,,,,,,,,,,1.6888758293159951e+18,151.64599501953126,24.851399230957032,45.34983901977539,-0.5246000066399574,1.6888758293159951e+18,151.64599501953126,-230.77519836425785,140.2048370361328,-133.65099487304687,1.688875829316471e+18,151.64647106933592,0.063897032290697,-0.1634148880839347,-0.7426524460315704,0.6462255716323853,-2.4991636276245117,1.3740769028663635,2.1747106313705444
1.7,1.688875829368359e+18,151.6983586425781,3.7314453125,1.7402556737263997,-0.3709546724955241,1.688875829368359e+18,151.6983586425781,1.666600952545802,-7.786444346110026,0.8793622950712839,1.688875829368359e+18,151.6983586425781,-2.0876458485921225,-9.51095485687256,1.1856034994125366,1.688875829368359e+18,151.6983586425781,0.3502803146839142,3.1753284136454263,-1.283478816350301,1.688875829368359e+18,151.6983586425781,0.3496185491482416,3.1799099445343018,-1.281035304069519,,,,,,,,,,,,1.68887582936599e+18,151.69598969726562,28.872519302368165,43.090399169921874,-1.8641599774360655,1.68887582936599e+18,151.69598969726562,-226.7540771484375,137.94539794921874,-134.9905578613281,1.688875829368359e+18,151.6983586425781,0.0149754211306572,-0.1145726988712946,-0.7698719104131063,0.6271653374036154,-2.623369296391805,1.3239620526631672,2.438471794128418
1.75,1.6888758294202655e+18,151.7502652994792,1.596360683441162,1.0235910415649414,-2.5652159055074057,1.6888758294202655e+18,151.7502652994792,-0.8444670060804734,-8.372486432393393,-1.0348957975705464,1.6888758294202655e+18,151.7502652994792,-2.463629166285197,-9.380332310994469,1.4656065305074055,1.6888758294202655e+18,151.7502652994792,-0.3968587939937909,1.797471006711324,-1.10027011235555,1.6888758294202655e+18,151.7502652994792,-0.3976223766803741,1.8021033604939776,-1.0978266795476277,,,,,,,,,,,,1.6888758294159923e+18,151.74599223632814,30.80987892150879,41.21403884887695,-5.387519836425781,1.6888758294159923e+18,151.74599223632814,-224.81671447753905,136.06903686523438,-138.5139190673828,1.6888758294202655e+18,151.7502652994792,-0.0355425731589396,-0.0764007444183031,-0.7870347301165262,0.6109489401181539,-2.60477622350057,1.274617115656535,2.5463698705037436
1.8,1.688875829472168e+18,151.80216796875,4.820123712221782,-1.225920995076497,-1.8177583614985149,1.688875829472168e+18,151.80216796875,1.827717701594035,-10.406385739644367,0.0117646952470143,1.688875829472168e+18,151.80216796875,-3.015207529067993,-9.164719581604006,1.7648095687230427,1.688875829472168e+18,151.80216796875,-0.5173010428746542,-0.1359684293468793,-1.329904576142629,1.688875829472168e+18,151.80216796875,-0.518013725678126,-0.1313360234101613,-1.327461043993632,,,,,,,,,,,,1.6888758294659958e+18,151.7959955078125,33.90135955810547,38.949720001220705,-8.378959846496581,1.6888758294659958e+18,151.7959955078125,-221.72523803710936,133.80472106933593,-141.50535583496094,1.688875829472168e+18,151.80216796875,-0.05734384059906,-0.0748387972513834,-0.804854154586792,0.5858464241027832,-2.61045503616333,1.2069770495096843,2.5852864583333335
1.85,1.6888758295240676e+18,151.8540674641927,1.1980053583780923,-5.123183250427246,-6.960210641225179,1.6888758295240676e+18,151.8540674641927,-1.8673986891905467,-14.222538948059082,-4.851447979609172,1.6888758295240676e+18,151.8540674641927,-3.0882054964701333,-9.083610534667969,2.0440494219462075,1.6888758295240676e+18,151.8540674641927,-0.0401643762985865,1.0113382910688715,0.2352849304055174,1.6888758295240676e+18,151.8540674641927,-0.040826159218947,1.0159707367420197,0.2377283925501009,,,,,,,,,,,,1.688875829515995e+18,151.8459948730469,34.92127914428711,37.63211898803711,-10.367559814453124,1.688875829515995e+18,151.8459948730469,-220.70531311035157,132.48711547851562,-143.49395751953125,1.6888758295240676e+18,151.8540674641927,-0.0776417031884192,-0.0715451265374818,-0.807481586933136,0.5803122917811075,-2.55603305498759,1.1840089956919353,2.5648109118143716
1.9,1.6888758295759636e+18,151.90596370442708,4.062031666437785,-6.509951273600261,-5.317301154136658,1.6888758295759636e+18,151.90596370442708,1.472184136509895,-15.842280705769856,-3.6849468946456914,1.6888758295759636e+18,151.90596370442708,-2.6126490434010825,-9.316584269205729,1.567640741666158,1.6888758295759636e+18,151.90596370442708,1.2234612703323364,-0.142993410428365,1.9510526259740193,1.6888758295759636e+18,151.90596370442708,1.22279949982961,-0.1383609573046366,1.9534451961517336,,,,,,,,,,,,1.6888758295659955e+18,151.8959955078125,33.440199279785155,38.76427993774414,-9.159759712219238,1.6888758295659955e+18,151.8959955078125,-222.18639221191407,133.61927795410156,-142.2861572265625,1.6888758295759636e+18,151.90596370442708,-0.0577167359491188,-0.05662069718043,-0.7934677998224894,0.6028741995493571,-2.599352518717448,1.2550761699676514,2.600924809773763
1.95,1.6888758296192236e+18,151.9492236328125,-5.462949275970459,-7.347346305847168,4.9630632400512695,1.6888758296192236e+18,151.9492236328125,-6.766005277633667,-17.028522491455078,6.014060735702515,1.6888758296192236e+18,151.9492236328125,-1.325857400894165,-9.665431022644045,0.9862839877605438,1.6888758296192236e+18,151.9492236328125,1.686446189880371,0.4163810312747955,3.1949015855789185,1.6888758296192236e+18,151.9492236328125,1.6857590079307556,0.4210388660430909,3.197192430496216,1.6888758296365146e+18,151.9665146484375,0.0,0.0,0.9848334193229676,6.617000102996826,1.7900614738464355,3.439222574234009,37.39407028344243,-122.7499634,49.1910254,1.6888758296159908e+18,151.9459908203125,27.45731964111328,43.4173583984375,-7.107719898223877,1.6888758296159908e+18,151.9459908203125,-228.16927490234377,138.27235717773436,-140.23411560058594,1.6888758296192236e+18,151.9492236328125,-0.0472881793975829,-0.0223423447459935,-0.7528403103351593,0.6559526324272156,-2.4948261976242065,1.4017471671104431,2.530239701271057
2.0,1.688875829662467e+18,151.99246712239582,-1.8621931672096252,-9.455526034037272,7.388461112976074,1.688875829662467e+18,151.99246712239582,-1.8520447351038456,-19.258633295694988,7.878169218699138,1.688875829662467e+18,151.99246712239582,-0.0126530701915422,-9.787362098693848,0.424994836250941,1.688875829662467e+18,151.99246712239582,0.8953757335742315,-1.7804176410039263,3.512322425842285,1.688875829662467e+18,151.99246712239582,0.8947648530205091,-1.775785247484843,3.514765898386637,,,,,,,,,,,,1.6888758296659942e+18,151.99599438476562,20.010439682006837,47.33355941772461,-2.879199981689453,1.6888758296659942e+18,151.99599438476562,-235.61615600585935,142.18855895996094,-136.00559692382814,1.688875829662467e+18,151.99246712239582,-0.0020921668813874,-0.0281280210862556,-0.7065911889076233,0.7064510782559713,-1.5175120830535889,1.506098469098409,1.4806696673234303
2.05,1.6888758297143672e+18,152.0443671875,-5.056314150492351,-6.052754084269206,6.596103191375732,1.6888758297143672e+18,152.0443671875,-3.34855580329895,-15.708082834879557,7.261219660441081,1.6888758297143672e+18,152.0443671875,1.6849568287531536,-9.639583587646484,0.6004031499226888,1.6888758297143672e+18,152.0443671875,-0.1218167046705881,-3.383837103843689,2.916474382082621,1.6888758297143672e+18,152.0443671875,-0.1225293825070063,-3.3791538079579673,2.918917735417684,,,,,,,,,,,,1.6888758297159967e+18,152.04599658203125,10.91167984008789,49.92727890014648,-1.466439926624298,1.6888758297159967e+18,152.04599658203125,-244.7149200439453,144.782275390625,-134.59283752441405,1.6888758297143672e+18,152.0443671875,0.0336156062160928,-0.0675622783601283,-0.6392215490341187,0.7645276784896851,-0.3418180545171101,1.386848251024882,0.1978203753630319
2.1,1.6888758297662666e+18,152.09626660156252,-1.2709213892618816,4.229141394297282,-2.7204414208730063,1.6888758297662666e+18,152.09626660156252,1.629911017914613,-5.130211730798085,-1.9635103543599448,1.6888758297662666e+18,152.09626660156252,2.8780309359232583,-9.343607902526855,0.6922175288200378,1.6888758297662666e+18,152.09626660156252,1.001411775747935,-2.192293564478556,2.9823458989461265,1.6888758297662666e+18,152.09626660156252,1.0006481607755024,-2.187712053457896,2.98473850886027,,,,,,,,,,,,1.688875829766e+18,152.096,3.9674399852752686,50.56167907714844,1.6201599478721618,1.688875829766e+18,152.096,-251.6591552734375,145.4166748046875,-131.50623779296876,1.6888758297662666e+18,152.09626660156252,0.1126113608479499,-0.1261627624432245,-0.5804153482119242,0.7961633006731669,-0.2437989761432012,1.2629358371098836,-0.0997656344746549
2.15,1.6888758298181663e+18,152.14816617838542,-10.253255844116213,11.880522727966309,-0.6750404437383016,1.6888758298181663e+18,152.14816617838542,-6.302296161651611,2.9096723794937134,0.1178465137879053,1.6888758298181663e+18,152.14816617838542,3.9281583627065024,-8.955105145772299,0.7281734546025594,1.6888758298181663e+18,152.14816617838542,0.0282016098499298,-2.7783170143763223,1.8996381759643557,1.6888758298181663e+18,152.14816617838542,0.0274380296468735,-2.773633599281311,1.902081648508708,,,,,,,,,,,,1.688875829815994e+18,152.14599375,-2.9694799214601515,50.913038635253905,3.586799955368042,1.688875829815994e+18,152.14599375,-258.5960754394531,145.76803588867188,-129.5395965576172,1.6888758298181663e+18,152.14816617838542,0.1599689871072769,-0.1476263205210367,-0.5265792409578959,0.8213890393575033,-0.181531677643458,1.150294264157613,-0.2672800223032633
2.2,1.6888758298700667e+18,152.20006656901043,-7.11834700902303,9.02466328938802,-0.8921939531962076,1.6888758298700667e+18,152.20006656901043,-2.7904299894968667,0.3262215045591195,0.6855436762173971,1.6888758298700667e+18,152.20006656901043,4.305115540822347,-8.682696660359701,1.513024131457011,1.6888758298700667e+18,152.20006656901043,0.1561269660790761,-2.732502063115438,1.1284208297729492,1.6888758298700667e+18,152.20006656901043,0.155465210477511,-2.727818727493286,1.1308133602142334,,,,,,,,,,,,1.688875829866001e+18,152.1960010253906,-7.512759876251221,50.507998657226565,2.2569999933242797,1.688875829866001e+18,152.1960010253906,-263.13934936523435,145.36299743652344,-130.86939697265626,1.6888758298700667e+18,152.20006656901043,0.2059793521960576,-0.2148907234271367,-0.4836910764376321,0.8228479623794556,-0.3378385007381439,1.086250940958659,-0.2854752838611602
2.25,1.6888758299219658e+18,152.2519658203125,-0.6646196842193601,6.786690553029378,0.3536962668100993,1.6888758299219658e+18,152.2519658203125,3.546362559000651,-1.9517457286516824,2.0195422967274985,1.6888758299219658e+18,152.2519658203125,4.188180843989055,-8.722691218058268,1.6011325518290205,1.6888758299219658e+18,152.2519658203125,1.2501866420110066,-1.3388638893763225,-0.9316204196463028,1.6888758299219658e+18,152.2519658203125,1.2495757738749187,-1.3342314958572388,-0.929227860023578,,,,,,,,,,,,1.688875829915995e+18,152.24599497070312,-9.291519737243652,50.220079040527345,2.893839979171753,1.688875829915995e+18,152.24599497070312,-264.9181213378906,145.07507934570313,-130.23255310058593,1.6888758299219658e+18,152.2519658203125,0.2418547173341115,-0.2435401926438013,-0.4764219919840495,0.8093098799387614,-0.3653057118256886,1.0954675674438477,-0.356604794661204
2.3,1.688875829973855e+18,152.30385506184896,11.0744997660319,-6.276264508565267,3.874037822087606,1.688875829973855e+18,152.30385506184896,14.57647705078125,-15.352150599161783,5.351348320643107,1.688875829973855e+18,152.30385506184896,3.479175647099813,-9.06014092763265,1.4125969807306926,1.688875829973855e+18,152.30385506184896,-0.4331034421920776,-0.9380853772163392,-0.6845254500706991,1.688875829973855e+18,152.30385506184896,-0.4338161299626032,-0.9334530234336852,-0.6820819775263468,,,,,,,,,,,,1.68887582996599e+18,152.29598984375,-5.353359794616699,50.81787948608398,4.965399980545044,1.68887582996599e+18,152.29598984375,-260.97996215820314,145.67287902832032,-128.16099853515624,1.688875829973855e+18,152.30385506184896,0.2587649722894032,-0.2595776319503784,-0.5049886802832285,0.7813496390978495,-0.3853108485539754,1.177116870880127,-0.3808116416136424
2.35,1.6888758300257554e+18,152.35575528971353,4.970702648162842,-4.888528188069661,9.323280811309816,1.6888758300257554e+18,152.35575528971353,8.677571296691895,-13.576078057289124,12.10728391011556,1.6888758300257554e+18,152.35575528971353,3.684067249298096,-8.671804428100586,2.719289541244507,1.6888758300257554e+18,152.35575528971353,-0.676227847735087,-3.943593422571818,1.5234470168749492,1.6888758300257554e+18,152.35575528971353,-0.6768895983695984,-3.938910007476806,1.5258904894193013,,,,,,,,,,,,1.6888758300159892e+18,152.3459892578125,-6.314719820022583,50.581199645996094,1.4859600067138672,1.6888758300159892e+18,152.3459892578125,-261.9413146972656,145.4361999511719,-131.64044189453125,1.6888758300257554e+18,152.35575528971353,0.2826874951521555,-0.3386491735776265,-0.4436211089293162,0.7796019911766052,-0.6346525549888611,1.084243853886922,-0.3054539064566294
2.4,1.688875830077655e+18,152.40765511067707,-10.237082719802856,-6.848360697428386,2.004542827606201,1.688875830077655e+18,152.40765511067707,-6.442475398381551,-15.419548670450846,5.037290573120117,1.688875830077655e+18,152.40765511067707,3.77180552482605,-8.555442810058594,2.968034108479818,1.688875830077655e+18,152.40765511067707,-0.7549785176912943,2.03708287080129,-0.4456261992454529,1.688875830077655e+18,152.40765511067707,-0.7556912253300349,2.0417153040568032,-0.4431827416022618,,,,,,,,,,,,1.68887583006599e+18,152.395990234375,-8.744959831237793,50.47871856689453,-0.9833199948072432,1.68887583006599e+18,152.395990234375,-264.3715576171875,145.3337188720703,-134.109716796875,1.688875830077655e+18,152.40765511067707,0.2747389078140259,-0.3447727064291636,-0.434293101231257,0.7852427760759989,-0.6669313907623291,1.0591059923171997,-0.2730953842401504
2.45,1.6888758301209057e+18,152.45090563964845,-1.088853359222412,-0.338841438293457,-8.017846584320068,1.6888758301209057e+18,152.45090563964845,2.321935325860977,-9.22134017944336,-5.4951170682907104,1.6888758301209057e+18,152.45090563964845,3.38798725605011,-8.866753578186035,2.458016037940979,1.6888758301209057e+18,152.45090563964845,1.5541175603866575,2.238439381122589,-2.6933047771453857,1.6888758301209057e+18,152.45090563964845,1.553430259227753,2.2430208325386047,-2.6909377574920654,,,,,,,,,,,,1.6888758301159892e+18,152.44598935546873,-6.517239761352539,50.22495880126953,0.5636399745941162,1.6888758301159892e+18,152.44598935546873,-262.1438415527344,145.0799591064453,-132.56275939941406,1.6888758301209057e+18,152.45090563964845,0.2517602741718292,-0.3145347535610198,-0.4773918688297272,0.7806496322154999,-0.6264205873012543,1.1291792392730713,-0.2196011394262313
2.5,1.6888758301641551e+18,152.49415494791666,-7.734217166900635,0.8123229344685873,-1.100599745909373,1.6888758301641551e+18,152.49415494791666,-5.57427978515625,-8.674979209899902,0.1898305937647819,1.6888758301641551e+18,152.49415494791666,2.1371360222498574,-9.471556981404625,1.225716869036357,1.6888758301641551e+18,152.49415494791666,1.1900163913766544,5.0028336842854815,-4.51108702023824,1.6888758301641551e+18,152.49415494791666,1.1893037433425586,5.007466157277425,-4.508643627166748,1.688875830155508e+18,152.4855080566406,0.0,0.0,0.9843204617500304,6.611000061035156,1.7992819547653198,1.973043441772461,39.10000228881836,-122.7499678,49.1910352,1.688875830165991e+18,152.4959908203125,3.533119869232178,50.34207992553711,4.35051999092102,1.688875830165991e+18,152.4959908203125,-252.09347534179688,145.19707641601562,-128.7758758544922,1.6888758301641551e+18,152.49415494791666,0.2073161701361338,-0.2404354860385259,-0.5755295753479004,0.7519399523735046,-0.5272402664025625,1.3156246344248457,-0.1237104007353385
2.55,1.688875830216059e+18,152.54605900065104,-4.443098227183024,-0.5383208592732748,0.3979899088541667,1.688875830216059e+18,152.54605900065104,-4.188835461934407,-10.266804377237955,1.7569300333658855,1.688875830216059e+18,152.54605900065104,0.2314611971378326,-9.712738355000814,1.2942266464233398,1.688875830216059e+18,152.54605900065104,-1.6059647003809612,4.874450127283732,-3.3657148679097495,1.688875830216059e+18,152.54605900065104,-1.6066774129867554,4.879082600275676,-3.363373200098674,,,,,,,,,,,,1.6888758302159918e+18,152.54599165039062,15.85267963409424,48.21195831298828,0.3855200171470643,1.6888758302159918e+18,152.54599165039062,-239.7739135742187,143.06695861816405,-132.74088134765626,1.688875830216059e+18,152.54605900065104,0.086540438234806,-0.1746343473593393,-0.676012913386027,0.7093486189842224,-1.3573127388954165,1.430611292521159,0.9846768379211426
2.6,1.6888758302679575e+18,152.59795768229165,-1.9958891073862712,2.3749283154805503,-2.708484967549642,1.6888758302679575e+18,152.59795768229165,-2.9946175813674927,-7.277969519297282,-1.177069365978241,1.6888758302679575e+18,152.59795768229165,-1.0215298334757488,-9.637152671813965,1.466702143351237,1.6888758302679575e+18,152.59795768229165,0.4806491335233052,0.08653923869133,-2.688774267832438,1.6888758302679575e+18,152.59795768229165,0.4799364606539408,0.0912225246429444,-2.686330874760946,,,,,,,,,,,,1.688875830265998e+18,152.59599814453128,22.70663948059082,45.86955947875977,-2.705959987640381,1.688875830265998e+18,152.59599814453128,-232.91995544433593,140.72455749511718,-135.83235778808594,1.6888758302679575e+18,152.59795768229165,0.0328118409961461,-0.1477109988530476,-0.7278441588083903,0.6685160795847574,-2.1598744789759317,1.3835503657658894,1.9027369419733684
2.65,1.6888758303198605e+18,152.6498602701823,6.1292946338653564,2.455794175465902,0.4951119422912597,1.6888758303198605e+18,152.6498602701823,4.17866591612498,-7.073582490285237,1.9064814647038777,1.6888758303198605e+18,152.6498602701823,-1.9734301169713335,-9.513631502787272,1.346656044324239,1.6888758303198605e+18,152.6498602701823,0.3657555729150771,2.7080674171447754,-1.6617062091827393,1.6888758303198605e+18,152.6498602701823,0.3649919827779134,2.712750713030497,-1.6592626969019573,,,,,,,,,,,,1.6888758303159936e+18,152.645993359375,27.754999542236327,43.26363906860352,-2.9182398557662963,1.6888758303159936e+18,152.645993359375,-227.8715942382813,138.11863708496094,-136.04463806152344,1.6888758303198605e+18,152.6498602701823,0.0105291844035188,-0.121165486673514,-0.765054444471995,0.6318536003430685,-2.540388027826945,1.3251198927561445,2.352433919906616
2.7,1.688875830371765e+18,152.7017648111979,1.435793439547221,0.0482161839803059,-3.7746194998423257,1.688875830371765e+18,152.7017648111979,-0.9122636318206788,-9.337791124979654,-2.039283136526743,1.688875830371765e+18,152.7017648111979,-2.370858589808146,-9.370262145996094,1.670622706413269,1.688875830371765e+18,152.7017648111979,-0.3159700483083724,2.185370405515035,-1.1833477814992268,1.688875830371765e+18,152.7017648111979,-0.3166827211777369,2.1899518569310508,-1.1809043486913045,,,,,,,,,,,,1.6888758303659963e+18,152.69599643554687,30.448759841918942,41.15792007446289,-6.941799926757812,1.6888758303659963e+18,152.69599643554687,-225.17783813476564,136.0129150390625,-140.06819763183594,1.688875830371765e+18,152.7017648111979,-0.051184086749951,-0.0732233747839927,-0.7843159437179565,0.6136943300565084,-2.5270272890726724,1.271035075187683,2.4955314795176187
2.75,1.6888758304236644e+18,152.75366438802084,5.799855629603068,-1.0367453893025715,-2.7624220848083496,1.6888758304236644e+18,152.75366438802084,2.9324041604995728,-10.210174242655436,-0.702293465534846,1.6888758304236644e+18,152.75366438802084,-2.8902529080708823,-9.157683690388998,1.995415210723877,1.6888758304236644e+18,152.75366438802084,-0.4748968283335368,0.3405064617594083,-1.4298828442891438,1.6888758304236644e+18,152.75366438802084,-0.475558598836263,0.3451388602455457,-1.4274393717447915,,,,,,,,,,,,1.6888758304159954e+18,152.74599541015624,32.08355979919433,38.88139953613281,-9.864919853210449,1.6888758304159954e+18,152.74599541015624,-223.54303894042968,133.73639831542968,-142.99131469726564,1.6888758304236644e+18,152.75366438802084,-0.0796680822968482,-0.0642443920175234,-0.8018188079198202,0.5886502663294474,-2.5357200304667153,1.2049452861150105,2.5579097270965576
2.8,1.688875830475563e+18,152.8055631510417,0.8524620532989502,-4.65550422668457,-6.850306669871013,1.688875830475563e+18,152.8055631510417,-2.1248265504837036,-13.737194697062174,-4.541976133982341,1.688875830475563e+18,152.8055631510417,-3.0000900427500405,-9.065945307413736,2.2436168988545737,1.688875830475563e+18,152.8055631510417,-0.104457954565684,1.060512940088908,0.1858048389355341,1.688875830475563e+18,152.8055631510417,-0.1051706175009409,1.0651962955792744,0.1882483114798863,,,,,,,,,,,,1.6888758304659955e+18,152.79599555664063,34.379598999023436,37.27588043212891,-11.514360046386718,1.6888758304659955e+18,152.79599555664063,-221.2469970703125,132.13087768554686,-144.64075622558593,1.688875830475563e+18,152.8055631510417,-0.0993651971220969,-0.0590795576572418,-0.80570916334788,0.5808585484822592,-2.498550017674764,1.1792441209157307,2.5566338698069253
2.85,1.688875830527461e+18,152.8574610188802,5.182246764500936,-4.468959808349609,-4.564733823140462,1.688875830527461e+18,152.8574610188802,2.392623325188955,-13.678770065307615,-2.5629125237464905,1.688875830527461e+18,152.8574610188802,-2.812424739201864,-9.19406509399414,1.937107841173808,1.688875830527461e+18,152.8574610188802,0.8741990923881531,0.2297871429473161,0.7315620084603628,1.688875830527461e+18,152.8574610188802,0.873537282148997,0.2343686409294605,0.7340055008729299,,,,,,,,,,,,1.6888758305159954e+18,152.8459954589844,33.352359771728516,37.44179916381836,-12.334199905395508,1.6888758305159954e+18,152.8459954589844,-222.27423706054688,132.2967956542969,-145.46059875488282,1.688875830527461e+18,152.8574610188802,-0.0968150173624356,-0.0359440259635448,-0.8011160492897034,0.5894327362378439,-2.5376675128936768,1.2154916524887085,2.625152905782064
2.9,1.688875830570714e+18,152.9007138671875,-3.797973155975342,-7.2073140144348145,0.9477470517158508,1.688875830570714e+18,152.9007138671875,-5.530710458755493,-16.732410430908203,2.635993242263794,1.688875830570714e+18,152.9007138671875,-1.7555387020111084,-9.50935125350952,1.6235327124595642,1.688875830570714e+18,152.9007138671875,1.232649713754654,0.5416847541928291,3.2535446882247925,1.688875830570714e+18,152.9007138671875,1.2319624423980713,0.5463426038622856,3.255988121032715,,,,,,,,,,,,1.6888758305659958e+18,152.89599555664063,30.102279663085938,40.38199996948242,-11.189839744567871,1.6888758305659958e+18,152.89599555664063,-225.5243133544922,135.23699951171875,-144.3162353515625,1.688875830570714e+18,152.9007138671875,-0.0928975641727447,-0.0180984358303248,-0.7673574984073639,0.6340099573135376,-2.389352560043335,1.3245865106582642,2.495997428894043
2.95,1.6888758306139535e+18,152.94395361328125,-3.722210248311361,-6.901649792989095,3.214207410812378,1.6888758306139535e+18,152.94395361328125,-4.277768691380818,-16.66202195485433,4.129413604736328,1.6888758306139535e+18,152.94395361328125,-0.5783599217732748,-9.744626998901367,0.8504928549130758,1.6888758306139535e+18,152.94395361328125,1.8747454484303792,-1.8130989074707031,2.9949704806009927,1.6888758306139535e+18,152.94395361328125,1.8740327755610149,-1.808415691057841,2.997363011042277,,,,,,,,,,,,1.6888758306160023e+18,152.94600234374997,23.028719329833983,45.23027877807617,-7.234600019454956,1.6888758306160023e+18,152.94600234374997,-232.5978759765625,140.0852783203125,-140.36099548339843,1.6888758306139535e+18,152.94395361328125,-0.0516059355189402,-0.0080610167545576,-0.7273323734601339,0.6836966872215271,-2.0748291412989297,1.4640059073766072,2.1365644534428916
3.0,1.6888758306658634e+18,152.99586352539063,-4.119863400856654,-8.518941879272461,8.378494421641031,1.6888758306658634e+18,152.99586352539063,-3.0109684815009436,-18.256240208943684,9.027122815450031,1.6888758306658634e+18,152.99586352539063,1.086093505223592,-9.721553166707356,0.5839148759841919,1.6888758306658634e+18,152.99586352539063,-0.3990477422873179,-2.0609575510025024,3.33089542388916,1.6888758306658634e+18,152.99586352539063,-0.3997603952884674,-2.056325117746989,3.333288033803304,1.6888758306745032e+18,153.0045031738281,0.0,0.0,0.9843204617500304,6.605000019073486,1.806705117225647,1.3591920137405396,39.10000228881836,-122.7499707,49.1910427,1.6888758306659968e+18,152.99599663085937,14.252039527893066,48.79999923706055,-3.6282799243927,1.6888758306659968e+18,152.99599663085937,-241.3745574951172,143.65499572753907,-136.75467834472656,1.6888758306658634e+18,152.99586352539063,-0.003502228607734,-0.0364716183394193,-0.6652874747912089,0.7452101310094198,-0.5145183205604553,1.4440269470214844,0.4677411516507466
3.05,1.688875830717763e+18,153.04776326497395,-0.2538520495096842,0.9807634353637696,0.1492054263750712,1.688875830717763e+18,153.04776326497395,2.008176326751709,-8.526823361714682,1.202592710653941,1.688875830717763e+18,153.04776326497395,2.239227056503296,-9.491841634114584,0.9886738459269204,1.688875830717763e+18,153.04776326497395,0.4766785005728404,-4.548451741536458,2.8620053927103677,1.688875830717763e+18,153.04776326497395,0.476016749938329,-4.543819268544515,2.8644489447275796,,,,,,,,,,,,1.6888758307159946e+18,153.04599458007812,7.412719821929931,50.31767959594727,-1.0565199613571168,1.6888758307159946e+18,153.04599458007812,-248.21387634277343,145.17267761230468,-134.18291625976562,1.688875830717763e+18,153.04776326497395,0.070110686123371,-0.1185676629344621,-0.6089631120363871,0.780224064985911,-0.4210865994294484,1.3177831570307414,0.15095483760039
3.1,1.6888758307696632e+18,153.0996632486979,-8.136310259501139,8.206032276153564,-1.4483027855555215,1.6888758307696632e+18,153.0996632486979,-4.678965210914612,-0.9403793017069498,-0.3746761282285054,1.6888758307696632e+18,153.0996632486979,3.4345436890920005,-9.130666414896648,1.0089131991068525,1.6888758307696632e+18,153.0996632486979,0.591470276316007,-2.154267191886902,2.2446751991907754,1.6888758307696632e+18,153.0996632486979,0.5908084909121195,-2.1496857007344565,2.2471187512079873,,,,,,,,,,,,1.6888758307659948e+18,153.09599477539064,-0.1366400063037872,50.90571899414063,1.385919988155365,1.6888758307659948e+18,153.09599477539064,-255.7632293701172,145.76071472167968,-131.740478515625,1.6888758307696632e+18,153.0996632486979,0.1295812204480171,-0.1509663313627242,-0.5492742657661438,0.8113230665524801,-0.2862966358661651,1.1966468493143718,-0.1204699824253718
3.15,1.6888758308215634e+18,153.1515633138021,-9.94842783610026,10.257689476013184,-1.6069451371828716,1.6888758308215634e+18,153.1515633138021,-6.016353766123454,1.3950155973434448,0.0783649503719061,1.6888758308215634e+18,153.1515633138021,3.9092725912729898,-8.846928596496582,1.6205966472625732,1.6888758308215634e+18,153.1515633138021,-0.1602503136576463,-3.4396804173787436,1.505070169766744,1.6888758308215634e+18,153.1515633138021,-0.1608611841220408,-3.4350479443868003,1.5075136025746665,,,,,,,,,,,,1.6888758308159946e+18,153.14599477539065,-4.9727198600769045,50.791038513183594,1.222439980506897,1.6888758308159946e+18,153.14599477539065,-260.59931640625,145.64603576660156,-131.90395812988282,1.6888758308215634e+18,153.1515633138021,0.1812198758125305,-0.2131657401720682,-0.5045808653036753,0.8163525660832723,-0.391759177049001,1.1238047281901042,-0.188626691699028
3.2,1.6888758308734548e+18,153.2034549967448,-2.524789015452067,6.891234397888184,-0.415635625521342,1.6888758308734548e+18,153.2034549967448,1.6129618883132937,-1.769891122976939,1.7838492741187413,1.6888758308734548e+18,153.2034549967448,4.114949385325114,-8.645380338033041,2.1347714265187583,1.6888758308734548e+18,153.2034549967448,0.4182390781740348,-1.6982053518295288,0.5365433146556218,1.6888758308734548e+18,153.2034549967448,0.4175773151218891,-1.693573037783305,0.5389358550310135,,,,,,,,,,,,1.6888758308659973e+18,153.1959971191406,-8.322839832305908,50.64952011108399,0.0756400018930435,1.6888758308659973e+18,153.1959971191406,-263.9494384765625,145.5045196533203,-133.0507568359375,1.6888758308734548e+18,153.2034549967448,0.2207470089197158,-0.2617750465869903,-0.4706352055072784,0.8130898873011271,-0.4787762562433879,1.0780477126439412,-0.2403097500403722
3.25,1.688875830925363e+18,153.25536287434895,6.684887091318767,4.035901705423991,2.8409045537312827,1.688875830925363e+18,153.25536287434895,10.308279991149902,-4.942574501037598,4.573681116104126,1.688875830925363e+18,153.25536287434895,3.600591500600179,-8.96273104349772,1.6680631240208943,1.688875830925363e+18,153.25536287434895,1.5665639241536458,0.0641408512989679,-2.161037604014078,1.688875830925363e+18,153.25536287434895,1.5659021536509197,0.0688241521517435,-2.158695936203003,,,,,,,,,,,,1.6888758309159972e+18,153.24599716796874,-6.749039936065674,50.48359985351563,2.503439950942993,1.6888758309159972e+18,153.24599716796874,-262.37562866210936,145.3385986328125,-130.62295837402343,1.688875830925363e+18,153.25536287434895,0.246014321843783,-0.2628434201081593,-0.4969394604365031,0.7893210053443909,-0.4327220022678375,1.153453787167867,-0.3207163910071055
3.3,1.6888758309772608e+18,153.3072608235677,10.539567152659098,-16.203031539916992,6.276910781860352,1.6888758309772608e+18,153.3072608235677,14.059229214986166,-25.143182118733723,8.38126007715861,1.6888758309772608e+18,153.3072608235677,3.49686050415039,-8.924404462178549,2.03963573773702,1.6888758309772608e+18,153.3072608235677,-0.9570222099622092,-3.659693638483683,2.0256800254185996,1.6888758309772608e+18,153.3072608235677,-0.9576840003331504,-3.655010461807251,2.028072635332743,,,,,,,,,,,,1.6888758309659978e+18,153.29599765625,-3.3476799964904784,50.86911849975586,3.628279876708985,1.6888758309659978e+18,153.29599765625,-258.974267578125,145.7241180419922,-129.49811706542968,1.6888758309772608e+18,153.3072608235677,0.2677615682284037,-0.2985359032948811,-0.480915645758311,0.778749942779541,-0.5234690407911936,1.1439265012741089,-0.3217906753222148
3.35,1.6888758310205074e+18,153.35050744628907,0.7709815502166748,8.314183712005615,3.182811737060547,1.6888758310205074e+18,153.35050744628907,4.441677093505859,-0.3918246924877167,5.968596935272217,1.6888758310205074e+18,153.35050744628907,3.647894144058227,-8.690262794494629,2.7210716009140015,1.6888758310205074e+18,153.35050744628907,0.3762166202068329,-2.4139867424964905,0.0388663113117218,1.6888758310205074e+18,153.35050744628907,0.3754530549049377,-2.409405291080475,0.0413097590208053,,,,,,,,,,,,1.688875831016e+18,153.34599980468752,-7.703079795837402,50.41039886474609,1.1858399868011475,1.688875831016e+18,153.34599980468752,-263.3296752929688,145.26539611816406,-131.94055786132813,1.6888758310205074e+18,153.35050744628907,0.3071901500225067,-0.3539864718914032,-0.4342987388372421,0.7691697776317596,-0.6412328481674194,1.08793443441391,-0.3635168373584747
3.4,1.6888758310637588e+18,153.3937590332031,-15.374576886494957,-7.917978604634603,0.7904035250345866,1.6888758310637588e+18,153.3937590332031,-11.99980608622233,-16.79243055979411,3.4000016848246255,1.6888758310637588e+18,153.3937590332031,3.3519694010416665,-8.858706792195639,2.54488468170166,1.6888758310637588e+18,153.3937590332031,-0.083179493745168,3.4693074226379395,-1.2213741441567738,1.6888758310637588e+18,153.3937590332031,-0.0838921467463175,3.473990678787231,-1.218930721282959,,,,,,,,,,,,1.6888758310659937e+18,153.3959937011719,-6.541639804840088,50.78615951538086,0.7881200015544891,1.6888758310659937e+18,153.3959937011719,-262.1682373046875,145.6411560058594,-132.3382781982422,1.6888758310637588e+18,153.3937590332031,0.2755231161912282,-0.334545483191808,-0.4653015832106272,0.7712082068125407,-0.6486894090970358,1.1264577309290569,-0.2680543313423792
3.45,1.6888758311156626e+18,153.44566251627606,-2.9365710417429605,2.136704603830973,-2.725507974624634,1.6888758311156626e+18,153.44566251627606,-0.1657029191652933,-7.171289602915446,-1.240877985954285,1.6888758311156626e+18,153.44566251627606,2.7480665842692056,-9.292249043782553,1.4199165900548298,1.6888758311156626e+18,153.44566251627606,1.6991726160049438,3.5065701802571616,-3.106860637664795,1.6888758311156626e+18,153.44566251627606,1.6984599033991497,3.5112024943033853,-3.104417165120443,,,,,,,,,,,,1.688875831115993e+18,153.44599331054687,-1.810479974746704,50.56167984008789,4.187039947509765,1.688875831115993e+18,153.44599331054687,-257.43707580566405,145.4166748046875,-128.93936157226562,1.6888758311156626e+18,153.44566251627606,0.2429300546646117,-0.2655039131641388,-0.53664231300354,0.7622397343317667,-0.4674785137176513,1.2484827041625977,-0.2789689699808756
3.5,1.6888758311675625e+18,153.4975623372396,-5.281473636627197,1.996586799621582,0.1189353466033936,1.6888758311675625e+18,153.4975623372396,-4.475176652272542,-7.741379419962565,0.9958130170901616,1.6888758311675625e+18,153.4975623372396,0.7834955503543218,-9.72222105662028,0.8121641874313354,1.6888758311675625e+18,153.4975623372396,-1.2494230270385742,5.564676920572917,-4.74194320042928,1.6888758311675625e+18,153.4975623372396,-1.2500848472118378,5.569360256195068,-4.739499727884929,1.6888758311935096e+18,153.5235095214844,0.0,0.0,1.0032739639282229,6.613999843597412,1.816105842590332,0.1561987400054931,37.62081125906246,-122.7499748,49.1910533,1.6888758311659955e+18,153.4959953613281,10.682319831848144,49.463679504394534,5.199639940261841,1.6888758311659955e+18,153.4959953613281,-244.94427490234375,144.3186798095703,-127.9267578125,1.6888758311675625e+18,153.4975623372396,0.1468981678287187,-0.1887228041887283,-0.6504889925320944,0.7187989354133606,-0.8949134151140848,1.44027574857076,0.4141011287768681
3.55,1.688875831219462e+18,153.5494622395833,-8.72083568572998,-2.5615386962890625,-1.809917688369751,1.688875831219462e+18,153.5494622395833,-9.554740269978842,-12.21775245666504,-0.1844467955331007,1.688875831219462e+18,153.5494622395833,-0.8567062119642893,-9.64046859741211,1.5607574780782063,1.688875831219462e+18,153.5494622395833,-0.5445354531208674,1.42637038230896,-2.7140233516693115,1.688875831219462e+18,153.5494622395833,-0.545197255909443,1.4311045010884602,-2.711579958597819,,,,,,,,,,,,1.6888758312159974e+18,153.54599755859377,21.27191925048828,46.40879898071289,-2.1642799735069276,1.6888758312159974e+18,153.54599755859377,-234.35467529296875,141.2637969970703,-135.29067687988282,1.688875831219462e+18,153.5494622395833,0.0358433375755945,-0.1561758915583292,-0.7203020652135214,0.6746060450871786,-2.0548161268234253,1.3854498465855916,1.7812291383743286
3.6,1.6888758312713585e+18,153.60135847981772,8.551279862721762,2.967450936635335,-0.9172082344690958,1.6888758312713585e+18,153.60135847981772,6.5062841574351,-6.540581226348877,0.4897310336430867,1.6888758312713585e+18,153.60135847981772,-2.067797303199768,-9.492287000020346,1.342225710550944,1.6888758312713585e+18,153.60135847981772,0.3452915847301483,0.4041891495386759,-2.116037209828695,1.6888758312713585e+18,153.60135847981772,0.3446298042933146,0.4088724553585052,-2.1135937770207724,,,,,,,,,,,,1.6888758312659953e+18,153.59599521484375,27.25479927062988,43.28315963745117,-2.1447599649429323,1.6888758312659953e+18,153.59599521484375,-228.37178955078124,138.13815612792968,-135.27115478515626,1.6888758312713585e+18,153.60135847981772,0.0403940541048844,-0.1581603735685348,-0.7615752021471659,0.6269820928573608,-2.55992857615153,1.3166846831639607,2.2758870124816895
3.65,1.6888758313232543e+18,153.65325439453125,3.296334902445475,1.4617815017700195,-1.3736100991566975,1.6888758313232543e+18,153.65325439453125,0.8259226481119791,-7.914460182189941,0.2362912396589915,1.6888758313232543e+18,153.65325439453125,-2.493213733037313,-9.360496520996094,1.5451879103978474,1.6888758313232543e+18,153.65325439453125,0.1724167217810948,3.5070791244506836,-1.0149526198705037,1.6888758313232543e+18,153.65325439453125,0.1717040414611498,3.5118134021759033,-1.0125091274579363,,,,,,,,,,,,1.6888758313159964e+18,153.6459964355469,31.17099952697754,40.855359649658205,-4.765319967269898,1.6888758313159964e+18,153.6459964355469,-224.45559692382812,135.71035461425782,-137.89171447753907,1.6888758313232543e+18,153.65325439453125,-0.0177591374764839,-0.1061029856403668,-0.7844234704971313,0.6102937062581381,-2.586477518081665,1.2674270073572795,2.4599992434183755
3.7,1.6888758313751665e+18,153.70516658528643,1.4937792619069417,-0.432629903157552,-3.2257156372070312,1.6888758313751665e+18,153.70516658528643,-1.1579267779986064,-9.69771162668864,-1.2875379920005798,1.6888758313751665e+18,153.70516658528643,-2.67450745900472,-9.24933656056722,1.8734642267227173,1.6888758313751665e+18,153.70516658528643,-0.2895501305659612,0.8198320468266805,-0.987209141254425,1.6888758313751665e+18,153.70516658528643,-0.2902119010686874,0.8245153824488322,-0.9847656885782876,,,,,,,,,,,,1.6888758313659978e+18,153.69599760742187,31.66143913269043,39.657318878173825,-8.83279972076416,1.6888758313659978e+18,153.69599760742187,-223.96515502929688,134.51231689453124,-141.95919799804688,1.6888758313751665e+18,153.70516658528643,-0.0659787009159723,-0.0718376512328783,-0.7942943175633749,0.5995804270108541,-2.529241959253947,1.2317615747451782,2.5208417574564614
3.75,1.6888758314270646e+18,153.75706469726563,5.031778653462728,-2.0525035858154297,-5.112468560536702,1.6888758314270646e+18,153.75706469726563,1.888136386871338,-11.12901814778646,-3.023132006327311,1.6888758314270646e+18,153.75706469726563,-3.1664435863494873,-9.060769399007164,2.0246228774388633,1.6888758314270646e+18,153.75706469726563,-0.5097161332766215,0.3997095028559367,-0.6337726811567942,1.6888758314270646e+18,153.75706469726563,-0.5104288260142008,0.4042909741401672,-0.6313292235136032,,,,,,,,,,,,1.6888758314159964e+18,153.74599638671876,34.28199996948242,37.556478881835936,-9.71851978302002,1.6888758314159964e+18,153.74599638671876,-221.34459533691407,132.411474609375,-142.84491577148438,1.6888758314270646e+18,153.75706469726563,-0.0703644876678784,-0.0800661295652389,-0.8091790874799093,0.5777580340703329,-2.572425603866577,1.1778744061787922,2.558442989985148
3.8,1.6888758314703086e+18,153.80030859375,0.6526365280151367,-6.151110649108887,-7.443026542663574,1.6888758314703086e+18,153.80030859375,-2.3306092619895935,-15.26710557937622,-5.286343574523926,1.6888758314703086e+18,153.80030859375,-3.006047248840332,-9.100249767303469,2.0919694900512695,1.6888758314703086e+18,153.80030859375,0.701655074954033,0.338953860104084,0.3950007408857345,1.6888758314703086e+18,153.80030859375,0.7010442167520523,0.3436880707740783,0.3973678350448608,,,,,,,,,,,,1.6888758314659996e+18,153.79599956054687,33.986758422851565,37.29295959472656,-11.053199768066406,1.6888758314659996e+18,153.79599956054687,-221.63983459472655,132.14795532226563,-144.17959594726562,1.6888758314703086e+18,153.80030859375,-0.0833297334611415,-0.0677821747958659,-0.8052382469177246,0.5831197500228882,-2.5333056449890137,1.1885038018226624,2.5557007789611816
3.85,1.6888758315135578e+18,153.84355761718749,4.858250061670939,-4.329049428304036,-0.7379504839579264,1.6888758315135578e+18,153.84355761718749,2.3942185640335083,-13.683954238891602,0.956730286280314,1.6888758315135578e+18,153.84355761718749,-2.486832857131958,-9.339159647623696,1.629967252413432,1.6888758315135578e+18,153.84355761718749,1.0265081524848938,0.3714569509029388,2.160783072312673,1.6888758315135578e+18,153.84355761718749,1.0258463621139526,0.3761402815580367,2.163226584593455,,,,,,,,,,,,1.6888758315159956e+18,153.8459955078125,31.900559616088863,39.689038848876955,-9.39887981414795,1.6888758315159956e+18,153.8459955078125,-223.72603759765624,134.54403686523438,-142.52527465820313,1.6888758315135578e+18,153.84355761718749,-0.0669357726971307,-0.0498790591955184,-0.7898675998051962,0.6071893771489462,-2.554880221684774,1.2625843286514282,2.5792764027913413
3.9,1.6888758315654582e+18,153.89545817057294,-6.885165214538574,-10.112910270690918,0.652459998925527,1.6888758315654582e+18,153.89545817057294,-7.756533781687419,-19.839889526367188,1.6506488025188446,1.6888758315654582e+18,153.89545817057294,-0.8941698173681895,-9.711234092712402,0.9334752957026164,1.6888758315654582e+18,153.89545817057294,1.938377300898234,-0.8477791547775269,3.200679302215576,1.6888758315654582e+18,153.89545817057294,1.9377663135528564,-0.8430958191553751,3.203122854232788,,,,,,,,,,,,1.688875831565992e+18,153.895991796875,25.01731948852539,44.26891860961914,-6.797839736938476,1.688875831565992e+18,153.895991796875,-230.6092742919922,139.12391662597656,-139.9242370605469,1.6888758315654582e+18,153.89545817057294,-0.0441450600822766,-0.0220193086812893,-0.7380317052205404,0.6723831097284952,-2.2987612883249917,1.4383360544840496,2.330164353052775
3.95,1.6888758316173606e+18,153.9473604329427,-1.5837485392888386,-9.084652264912924,8.19869295756022,1.6888758316173606e+18,153.9473604329427,-0.8193423748016357,-18.861026128133137,8.656235376993815,1.6888758316173606e+18,153.9473604329427,0.7416046510140101,-9.760628700256348,0.3928291300932566,1.6888758316173606e+18,153.9473604329427,-0.1166243851184845,-2.6604199409484863,3.569336493810018,1.6888758316173606e+18,153.9473604329427,-0.1173370281855265,-2.655685782432556,3.5717291037241616,,,,,,,,,,,,1.6888758316160013e+18,153.946001171875,16.875039482116698,48.30711822509765,-1.8299999713897703,1.6888758316160013e+18,153.946001171875,-238.75155334472657,143.16211547851563,-134.956396484375,1.6888758316173606e+18,153.9473604329427,0.0220772934456666,-0.0471412738164265,-0.6776079932848612,0.7328870296478271,-0.6321583688259126,1.4824386437733967,0.534051368633906
4.0,1.6888758316692603e+18,153.9992607421875,-3.76193642616272,-3.6304651896158857,3.311264753341675,1.6888758316692603e+18,153.9992607421875,-1.5649060507615409,-13.171491622924805,4.185844600200654,1.6888758316692603e+18,153.9992607421875,2.17422886689504,-9.525281270345053,0.8098663886388143,1.6888758316692603e+18,153.9992607421875,0.5377141286929449,-3.985844850540161,2.9017625649770102,1.6888758316692603e+18,153.9992607421875,0.5370523631572723,-3.9812124570210776,2.904206116994222,,,,,,,,,,,,1.6888758316659958e+18,153.9959957519531,8.966999912261963,50.161519622802736,-0.8417999684810639,1.6888758316659958e+18,153.9959957519531,-246.65959777832032,145.01651916503906,-133.96819763183595,1.6888758316692603e+18,153.9992607421875,0.0769347138702869,-0.1130452205737431,-0.6128488779067993,0.7774233420689901,-0.3624521295229594,1.3312565485636394,0.0907069183886051
4.05,1.688875831721159e+18,154.0511588541667,-5.925419807434082,7.707639376322429,-1.7268633842468262,1.688875831721159e+18,154.0511588541667,-2.37946280837059,-1.423131247361501,-0.8859425932168961,1.688875831721159e+18,154.0511588541667,3.523155450820923,-9.115025202433268,0.7762073079744974,1.688875831721159e+18,154.0511588541667,0.8071057200431824,-2.0230838855107627,3.0336077213287354,1.688875831721159e+18,154.0511588541667,0.806393027305603,-2.018451531728109,3.036051114400228,1.688875831712512e+18,154.0425119628906,0.0,0.0,1.0032739639282229,6.625999927520752,1.8212461471557615,359.49755859375,37.62081125906246,-122.7499774,49.1910601,1.6888758317159972e+18,154.04599702148437,1.149239921569824,50.808119201660155,2.5619999408721923,1.6888758317159972e+18,154.04599702148437,-254.47735900878905,145.66311645507812,-130.56439819335938,1.688875831721159e+18,154.0511588541667,0.151433487733205,-0.1504980127016703,-0.5452449917793274,0.8102738261222839,-0.2198221335808436,1.1933356126149497,-0.2186035513877868
4.1,1.688875831773059e+18,154.10305908203122,-10.281356811523438,11.9181489944458,-0.9852926929791768,1.688875831773059e+18,154.10305908203122,-5.821338574091594,3.2486554781595864,0.3222334484259287,1.688875831773059e+18,154.10305908203122,4.437216917673747,-8.653748512268066,1.2428126732508342,1.688875831773059e+18,154.10305908203122,-0.1697696298360824,-3.3514612515767417,2.066658894220988,1.688875831773059e+18,154.10305908203122,-0.1704314077893892,-3.34677791595459,2.06910240650177,,,,,,,,,,,,1.6888758317659963e+18,154.0959965332031,-6.236639881134034,50.732479095458984,3.706360006332398,1.6888758317659963e+18,154.0959965332031,-261.863232421875,145.5874786376953,-129.42003784179687,1.688875831773059e+18,154.10305908203122,0.2019166350364684,-0.1946124633153279,-0.4848960638046264,0.8278795083363851,-0.2711127350727717,1.0806119839350383,-0.3157465159893036
4.15,1.6888758318249615e+18,154.15496142578124,-4.680397987365723,8.957402547200521,-0.143813411394755,1.6888758318249615e+18,154.15496142578124,0.1332004417975743,0.6047859191894532,1.861017813285192,1.6888758318249615e+18,154.15496142578124,4.790797074635823,-8.336871147155762,1.9401177565256755,1.6888758318249615e+18,154.15496142578124,0.1203913614153862,-1.7994054158528645,0.4148283998171488,1.6888758318249615e+18,154.15496142578124,0.1196786786119143,-1.7947221199671428,0.4172718822956085,,,,,,,,,,,,1.688875831815998e+18,154.14599799804688,-11.71443977355957,49.919959259033206,1.9812799453735352,1.688875831815998e+18,154.14599799804688,-267.3410339355469,144.77496032714845,-131.14511413574218,1.6888758318249615e+18,154.15496142578124,0.2357554733753204,-0.2449493755896886,-0.4422042866547902,0.8298837145169576,-0.3849647839864095,1.01522954305013,-0.337643285592397
4.2,1.6888758318768576e+18,154.2068575032552,4.287283261617024,3.9096878369649257,1.3400452534357707,1.6888758318768576e+18,154.2068575032552,8.492127577463785,-4.7700919310251875,3.2827532291412354,1.6888758318768576e+18,154.2068575032552,4.182042916615804,-8.664034525553385,1.8779944976170857,1.6888758318768576e+18,154.2068575032552,1.5155057509740193,-0.6907358678678671,-2.1710659662882485,1.6888758318768576e+18,154.2068575032552,1.5148439804712932,-0.6860525788118442,-2.168622533480326,,,,,,,,,,,,1.688875831865994e+18,154.19599394531252,-11.02879981994629,49.96144027709961,2.0642399311065676,1.688875831865994e+18,154.19599394531252,-266.6553955078125,144.81643676757812,-131.06216125488282,1.6888758318768576e+18,154.2068575032552,0.2597517271836598,-0.2690365413824717,-0.462700217962265,0.8035062948862711,-0.4218601981798808,1.0837156772613523,-0.3692883650461833
4.25,1.688875831920111e+18,154.25011120605467,7.17653751373291,-10.533607006072998,6.76042366027832,1.688875831920111e+18,154.25011120605467,10.672587394714355,-19.580467700958252,8.434700012207031,1.688875831920111e+18,154.25011120605467,3.473248600959778,-9.031116008758543,1.6095631122589111,1.688875831920111e+18,154.25011120605467,-0.460286945104599,-1.0426706224679945,-0.2942843437194824,1.688875831920111e+18,154.25011120605467,-0.4610505700111389,-1.038089156150818,-0.2918408513069153,,,,,,,,,,,,1.6888758319159964e+18,154.24599624023438,-5.275279998779297,50.64463882446289,4.096759939193726,1.6888758319159964e+18,154.24599624023438,-260.9018798828125,145.4996337890625,-129.0296417236328,1.688875831920111e+18,154.25011120605467,0.2669811397790909,-0.2758898735046386,-0.496641606092453,0.7783767282962799,-0.4336199015378952,1.1693742871284485,-0.3714470118284225
4.3,1.688875831963357e+18,154.29335685221355,8.702529271443685,-4.582654635111491,4.2317525545756025,1.688875831963357e+18,154.29335685221355,12.528420766194662,-13.256835579872131,6.894120693206787,1.688875831963357e+18,154.29335685221355,3.80308985710144,-8.658435821533203,2.5976547400156655,1.688875831963357e+18,154.29335685221355,-0.211410280317068,-4.176740328470866,1.6969836155573528,1.688875831963357e+18,154.29335685221355,-0.212173850586017,-4.1720569133758545,1.6994271477063496,,,,,,,,,,,,1.6888758319659945e+18,154.2959943359375,-8.198399925231934,50.549478912353514,1.9471199750900268,1.6888758319659945e+18,154.2959943359375,-263.8249938964844,145.40447998046875,-131.1792785644531,1.688875831963357e+18,154.29335685221355,0.303470492362976,-0.3408279220263163,-0.4350315034389496,0.7755752205848694,-0.5983890493710836,1.0814108848571775,-0.3799182077248891
4.35,1.6888758320152538e+18,154.3452538248698,-11.042823553085327,-5.916417598724365,4.907461802164714,1.6888758320152538e+18,154.3452538248698,-7.24008305867513,-14.525630156199137,7.816554069519043,1.6888758320152538e+18,154.3452538248698,3.7799387772878017,-8.593467394510904,2.844378709793091,1.6888758320152538e+18,154.3452538248698,-0.7185302426417669,2.3836981058120728,-0.5613342523574829,1.6888758320152538e+18,154.3452538248698,-0.7191411058108012,2.3882795572280884,-0.5588907897472382,,,,,,,,,,,,1.688875832015997e+18,154.34599667968752,-8.886479949951172,50.36159896850586,0.5611999958753586,1.688875832015997e+18,154.34599667968752,-264.51307373046876,145.2165985107422,-132.56519775390626,1.6888758320152538e+18,154.3452538248698,0.3067840735117594,-0.3559727768103282,-0.4245352347691853,0.7734261552492777,-0.645363450050354,1.067171335220337,-0.3652748167514801
4.4,1.688875832067161e+18,154.39716105143228,-6.262673457463582,1.8250303268432615,-2.254462997118632,1.688875832067161e+18,154.39716105143228,-2.7635107040405273,-7.126822789510091,-0.189431793987751,1.688875832067161e+18,154.39716105143228,3.4763614336649575,-8.936107953389486,2.000317692756653,1.688875832067161e+18,154.39716105143228,1.632028341293335,2.947679360707601,-2.6531404654184976,1.688875832067161e+18,154.39716105143228,1.6313156684239705,2.9523626963297525,-2.650747855504354,,,,,,,,,,,,1.68887583206599e+18,154.3959900390625,-6.143919897079468,50.63243942260742,2.9499599933624268,1.68887583206599e+18,154.3959900390625,-261.7705139160156,145.48743591308593,-130.1764358520508,1.688875832067161e+18,154.39716105143228,0.2650852700074513,-0.29545858502388,-0.4842062294483185,0.7790614366531372,-0.5168908834457397,1.1481569210688274,-0.3185608088970184
4.45,1.6888758321190564e+18,154.44905655924478,-9.0187881787618,-0.4595640500386556,-2.005815386772156,1.6888758321190564e+18,154.44905655924478,-7.616952737172444,-10.11366351445516,-1.0975079735120137,1.6888758321190564e+18,154.44905655924478,1.3790339628855388,-9.638354301452637,0.8435939153035482,1.6888758321190564e+18,154.44905655924478,-0.2347758809725443,6.589810848236084,-6.087323029836019,1.6888758321190564e+18,154.44905655924478,-0.2354885637760162,6.5943922996521,-6.084930578867595,,,,,,,,,,,,1.6888758321159995e+18,154.4459996582031,7.088199859857559,49.86871871948242,5.736439895629883,1.6888758321159995e+18,154.4459996582031,-248.53839416503905,144.72371826171874,-127.38995819091797,1.6888758321190564e+18,154.44905655924478,0.1808421164751052,-0.2088343898455301,-0.6193035244941711,0.7318176627159119,-0.6801889638106028,1.3967636426289876,0.1182860458890597
4.5,1.68887583217096e+18,154.50096020507812,-6.025387446085612,-3.841606775919596,-4.188770254453023,1.68887583217096e+18,154.50096020507812,-6.641279160976409,-13.5595277150472,-2.850051204363505,1.68887583217096e+18,154.50096020507812,-0.638693243265152,-9.702175776163736,1.2740055322647097,1.68887583217096e+18,154.50096020507812,-0.7347690959771475,1.731701135635376,-2.5028167168299356,1.68887583217096e+18,154.50096020507812,-0.7354817489782969,1.7363334894180298,-2.5003732442855835,,,,,,,,,,,,1.6888758321659914e+18,154.49599135742187,20.49599952697754,46.82847900390625,-0.0878399789333343,1.6888758321659914e+18,154.49599135742187,-235.1305938720703,141.68347778320313,-133.21423950195313,1.68887583217096e+18,154.50096020507812,0.0643781051039695,-0.1626354853312174,-0.7111745675404867,0.6807134548823038,-2.01605757077535,1.4232991139094036,1.6927173535029094
4.55,1.688875832222862e+18,154.55286189778644,6.539771715799968,3.326090176900228,-0.8421321908632914,1.688875832222862e+18,154.55286189778644,4.76829727490743,-6.2683976491292315,0.2987040877342226,1.688875832222862e+18,154.55286189778644,-1.794275959332784,-9.578742663065592,1.076122760772705,1.688875832222862e+18,154.55286189778644,0.6139704783757528,0.056555966536204,-2.47400426864624,1.688875832222862e+18,154.55286189778644,0.6132578055063883,0.0612391928831736,-2.471611658732096,1.6888758322315113e+18,154.56151123046874,0.0,0.0,0.9990381002426147,6.63700008392334,1.828165292739868,358.1601257324219,37.60029146346555,-122.7499817,49.1910705,1.688875832215999e+18,154.54599916992188,26.261719512939457,44.32259826660156,0.0146399974822997,1.688875832215999e+18,154.54599916992188,-229.36487731933593,139.17759704589844,-133.11175537109375,1.688875832222862e+18,154.55286189778644,0.068106452624003,-0.1667274932066599,-0.7505123019218445,0.6355809768040975,-2.587586720784506,1.3548165559768677,2.2519427140553794
4.6,1.688875832274758e+18,154.60475789388022,3.234118382136027,4.0283379554748535,0.9206099907557168,1.688875832274758e+18,154.60475789388022,0.8315058673421541,-5.436692396799724,2.012563268343607,1.688875832274758e+18,154.60475789388022,-2.4254139264424643,-9.449285189310707,1.0272397994995115,1.688875832274758e+18,154.60475789388022,0.7117598156134287,3.690593322118123,-1.1608985265096028,1.688875832274758e+18,154.60475789388022,0.7109962503115336,3.695276498794556,-1.158505956331889,,,,,,,,,,,,1.6888758322659958e+18,154.59599560546877,30.7952392578125,41.74107971191406,-0.8613199830055237,1.6888758322659958e+18,154.59599560546877,-224.8313537597656,136.59607849121093,-133.9877166748047,1.688875832274758e+18,154.60475789388022,0.0176439847176273,-0.1077127158641815,-0.7819246451059977,0.6130971511205038,-2.7403717835744223,1.2992855310440063,2.561168114344279
4.65,1.6888758323266578e+18,154.65665763346354,1.8673930962880452,1.145654519399007,-2.1014203230539956,1.6888758323266578e+18,154.65665763346354,-0.8005985816319784,-8.2059858640035,-0.6889335413773855,1.6888758323266578e+18,154.65665763346354,-2.69079319636027,-9.33589522043864,1.3477733135223389,1.6888758323266578e+18,154.65665763346354,-0.5056946178277334,1.553888479868571,-0.6420702735582987,1.6888758323266578e+18,154.65665763346354,-0.5063563833634058,1.5584699710210164,-0.6396268208821615,,,,,,,,,,,,1.6888758323159956e+18,154.64599565429688,32.22263946533203,39.913519287109374,-4.677479887008667,1.6888758323159956e+18,154.64599565429688,-223.4039581298828,134.76851806640624,-137.8038757324219,1.6888758323266578e+18,154.65665763346354,-0.0314939667781193,-0.0725629702210425,-0.7947857777277628,0.6015922824541727,-2.677687644958496,1.2591094573338826,2.6188982327779136
4.7,1.688875832369911e+18,154.6999110107422,2.3491105437278748,-2.1975722312927246,-1.9216328263282776,1.688875832369911e+18,154.6999110107422,-0.5168497115373611,-11.436495780944824,-0.1788634886033833,1.688875832369911e+18,154.6999110107422,-2.8887617588043213,-9.223178386688232,1.6780558228492737,1.688875832369911e+18,154.6999110107422,-0.4061490297317505,0.7170794606208801,-0.996932089328766,1.688875832369911e+18,154.6999110107422,-0.4069126099348068,0.721737265586853,-0.9944885969161988,,,,,,,,,,,,1.6888758323659963e+18,154.69599628906252,33.715918731689456,38.93995971679688,-7.751879787445068,1.6888758323659963e+18,154.69599628906252,-221.91067810058593,133.79495544433593,-140.87827758789064,1.688875832369911e+18,154.6999110107422,-0.0590135045349596,-0.064631700515747,-0.801797091960907,0.5911293625831604,-2.614792227745056,1.2235963940620422,2.606729507446289
4.75,1.6888758324131607e+18,154.7431608886719,3.1742255687713623,-4.465327262878418,-5.056676387786865,1.6888758324131607e+18,154.7431608886719,0.1347956756750742,-13.605789184570312,-3.09651189049085,1.6888758324131607e+18,154.7431608886719,-3.0622313022613525,-9.124716758728027,1.8954508701960249,1.6888758324131607e+18,154.7431608886719,-0.1647808998823165,1.1551970839500427,-0.2707151224215825,1.6888758324131607e+18,154.7431608886719,-0.1654935739934444,1.1598294774691265,-0.268271654844284,,,,,,,,,,,,1.6888758324159954e+18,154.74599555664062,34.562599182128906,37.512559509277345,-9.808799743652344,1.6888758324159954e+18,154.74599555664062,-221.06399536132812,132.36755981445313,-142.93519897460936,1.6888758324131607e+18,154.7431608886719,-0.0795052175720532,-0.0557133692006269,-0.8079537947972616,0.5811217824618021,-2.586903731028239,1.1951075792312622,2.6211565335591636
4.8,1.6888758324650555e+18,154.7950558268229,3.8844730059305825,-5.355733871459961,-8.389915625254313,1.6888758324650555e+18,154.7950558268229,1.2113664969801905,-14.626527468363443,-6.521837472915649,1.6888758324650555e+18,154.7950558268229,-2.6959079106648765,-9.255048433939615,1.8033645550409951,1.6888758324650555e+18,154.7950558268229,0.5883650382359823,0.2378811041514078,1.2902492086092632,1.6888758324650555e+18,154.7950558268229,0.5877541601657867,0.242513507604599,1.292641748984655,,,,,,,,,,,,1.6888758324659976e+18,154.79599765625,33.36211929321289,38.25675888061524,-10.801879692077636,1.6888758324659976e+18,154.79599765625,-222.2644775390625,133.11175842285155,-143.92827453613282,1.6888758324650555e+18,154.7950558268229,-0.0859364767869313,-0.0392754425605137,-0.7972806096076965,0.5960360964139303,-2.5506786505381265,1.2339611450831096,2.6176281770070395
4.85,1.688875832516961e+18,154.8469608561198,-2.527887980143229,-6.688189506530762,2.08652683099111,1.688875832516961e+18,154.8469608561198,-3.912863334019979,-16.32144323984782,3.3860434691111245,1.688875832516961e+18,154.8469608561198,-1.4077767332394917,-9.61750857035319,1.2348031600316365,1.688875832516961e+18,154.8469608561198,1.4213306903839111,-0.9004662682612737,3.1655546029408774,1.688875832516961e+18,154.8469608561198,1.4206689596176147,-0.8957829823096594,3.1679980754852295,,,,,,,,,,,,1.6888758325159923e+18,154.84599223632813,28.2210391998291,42.190040588378906,-8.691279983520507,1.6888758325159923e+18,154.84599223632813,-227.40555419921876,137.0450408935547,-141.81767883300782,1.688875832516961e+18,154.8469608561198,-0.0597339322169621,-0.0270810568084319,-0.7554302414258321,0.6514090696970621,-2.405983845392863,1.378434459368388,2.452434857686361
4.9,1.688875832568861e+18,154.89886100260415,-1.0607189138730366,-8.740217844645182,5.418314297993978,1.688875832568861e+18,154.89886100260415,-0.8725826740264894,-18.534406026204422,6.070989767710368,1.688875832568861e+18,154.89886100260415,0.1653347313404083,-9.778443018595375,0.5879620313644409,1.688875832568861e+18,154.89886100260415,0.6726644386847814,-1.4053972959518433,3.4802521069844565,1.688875832568861e+18,154.89886100260415,0.6720026731491089,-1.400764932235082,3.4826954205830893,,,,,,,,,,,,1.6888758325659976e+18,154.89599750976564,19.854279708862304,47.12371978759766,-3.5599599838256837,1.6888758325659976e+18,154.89599750976564,-235.7723175048828,141.9787170410156,-136.6863586425781,1.688875832568861e+18,154.89886100260415,-0.0064932210758948,-0.0353199740250904,-0.6998822291692098,0.7128220796585083,-1.3366584777832031,1.4922877550125122,1.295852820078532
4.95,1.6888758326207567e+18,154.95075659179687,-5.5380557378133135,-6.8317000071207685,6.61359182993571,1.6888758326207567e+18,154.95075659179687,-3.764109253883362,-16.466209411621094,7.437690258026123,1.6888758326207567e+18,154.95075659179687,1.7511449257532756,-9.61876424153646,0.7593847314516703,1.6888758326207567e+18,154.95075659179687,0.0912734394272168,-2.5499551445245743,2.526029626528422,1.6888758326207567e+18,154.95075659179687,0.0905607938766479,-2.545322773357233,2.5284730593363443,,,,,,,,,,,,1.688875832615994e+18,154.9459939453125,11.311839866638184,49.69791870117187,-3.1085598945617674,1.688875832615994e+18,154.9459939453125,-244.31475524902345,144.55291442871095,-136.23495483398438,1.6888758326207567e+18,154.95075659179687,0.0145849177303413,-0.0621678940951823,-0.6374139189720154,0.7673259973526001,-0.4130571285883586,1.374515215555827,0.3038300772507985
5.0,1.6888758326726533e+18,155.0026533203125,-3.518324375152588,3.407447655995687,-0.5853107770284017,1.6888758326726533e+18,155.0026533203125,-0.769491990407308,-5.999803463617961,0.1629113430778185,1.6888758326726533e+18,155.0026533203125,2.7260309060414634,-9.39150587717692,0.6835086544354757,1.6888758326726533e+18,155.0026533203125,1.0287988781929016,-2.485508839289347,2.749351739883423,1.6888758326726533e+18,155.0026533203125,1.0281371275583904,-2.4808764457702637,2.751795212427775,,,,,,,,,,,,1.6888758326659876e+18,154.99598740234376,5.599799871444702,50.568999481201175,0.3684399858117103,1.6888758326659876e+18,154.99598740234376,-250.02679138183595,145.4239959716797,-132.7579559326172,1.6888758326726533e+18,155.0026533203125,0.0933651228745778,-0.1129267687598863,-0.5897982915242513,0.7937377095222473,-0.2517151037851969,1.279328187306722,-0.0443949835995832
5.05,1.688875832724558e+18,155.05455818684894,-9.285391171773275,11.423880894978842,-0.6535720229148865,1.688875832724558e+18,155.05455818684894,-5.380660533905029,2.4390838543574014,0.2033899202942848,1.688875832724558e+18,155.05455818684894,3.881929079691569,-8.969051996866861,0.7922484676043192,1.688875832724558e+18,155.05455818684894,0.3893247718612353,-2.8883235454559326,2.4652485052744546,1.688875832724558e+18,155.05455818684894,0.3886120965083439,-2.8836912314097085,2.467641115188598,,,,,,,,,,,,1.6888758327159967e+18,155.04599653320312,-1.6616399824619292,51.1057991027832,3.3232799053192137,1.6888758327159967e+18,155.04599653320312,-257.2882354736328,145.9607940673828,-129.80311584472656,1.688875832724558e+18,155.05455818684894,0.1506388882795969,-0.1459171722332636,-0.5293725331624349,0.8216270804405212,-0.2002408504486083,1.154375672340393,-0.2320655186971028
5.1,1.688875832776461e+18,155.1064609375,-6.864537239074707,10.007705052693684,-1.4090290466944375,1.688875832776461e+18,155.1064609375,-2.3776681323846183,1.3698910077412922,0.0458624338110287,1.688875832776461e+18,155.1064609375,4.464067618052165,-8.622068723042807,1.3901780049006145,1.688875832776461e+18,155.1064609375,0.278198222319285,-3.0597731272379556,1.2793554266293845,1.688875832776461e+18,155.1064609375,0.2775873392820357,-3.055140733718872,1.2817988991737366,1.6888758327505065e+18,155.08050659179688,0.0,0.0,0.997012495994568,6.749000072479248,1.832204818725586,356.73809814453125,37.94503064050083,-122.7499859,49.1910782,1.6888758327659955e+18,155.09599565429687,-8.010519790649415,50.42015838623047,2.9865599155426024,1.6888758327659955e+18,155.09599565429687,-263.6371154785156,145.27515869140626,-130.13983764648438,1.688875832776461e+18,155.1064609375,0.2036043306191761,-0.2035573025544484,-0.4801343480745951,0.8282741904258728,-0.3014522095521291,1.0733198722203572,-0.3020065824190775
5.15,1.688875832819711e+18,155.1497109375,-0.5955713987350464,7.547107219696045,1.9132804870605469,1.688875832819711e+18,155.1497109375,3.910171389579773,-1.0384850427508354,3.6185460090637207,1.688875832819711e+18,155.1497109375,4.482941389083862,-8.569847106933594,1.64055198431015,1.688875832819711e+18,155.1497109375,1.0389290750026705,-1.508608102798462,-0.4042400829494,1.688875832819711e+18,155.1497109375,1.0382418036460876,-1.5040265917778015,-0.401796605437994,,,,,,,,,,,,1.6888758328159977e+18,155.14599760742186,-10.023519706726074,49.92727890014648,3.191519927978516,1.6888758328159977e+18,155.14599760742186,-265.6501098632813,144.78227844238282,-129.93487548828125,1.688875832819711e+18,155.1497109375,0.2393249869346618,-0.2376347184181213,-0.4635713547468185,0.8193279206752777,-0.3510792553424835,1.062192976474762,-0.3608019948005676
5.2,1.68887583286295e+18,155.19294995117187,9.717037518819174,1.4009814262390137,2.640820066134135,1.68887583286295e+18,155.19294995117187,13.477773348490397,-7.578866879145305,4.0386857986450195,1.68887583286295e+18,155.19294995117187,3.737934192021688,-8.964103062947592,1.3331522544225056,1.68887583286295e+18,155.19294995117187,0.9797260488073032,-0.3997094929218292,-2.302860220273336,1.68887583286295e+18,155.19294995117187,0.9790133610367774,-0.3950261771678924,-2.3004167079925537,,,,,,,,,,,,1.6888758328659894e+18,155.19598930664063,-5.407039856910705,50.29815826416016,5.184999942779541,1.6888758328659894e+18,155.19598930664063,-261.033642578125,145.15315856933594,-127.94139709472655,1.68887583286295e+18,155.19294995117187,0.258877952893575,-0.2492094784975052,-0.4970243275165558,0.7896167437235514,-0.3433039983113606,1.1536850531895957,-0.4088761309782664
5.25,1.6888758329148526e+18,155.2448525390625,5.81396238009135,-13.989408175150553,7.945047219594319,1.6888758329148526e+18,155.2448525390625,9.455039342244469,-22.868604342142746,10.101300875345864,1.6888758329148526e+18,155.2448525390625,3.6182754834493,-8.863450686136881,2.091540058453878,1.6888758329148526e+18,155.2448525390625,-1.26652729511261,-3.9125919342041016,1.96830956141154,1.6888758329148526e+18,155.2448525390625,-1.2671890358130138,-3.907959540685018,1.9707530736923216,,,,,,,,,,,,1.688875832915992e+18,155.24599208984375,-4.867799949645996,50.747119140625,3.1622399568557737,1.688875832915992e+18,155.24599208984375,-260.49439697265626,145.60211791992188,-129.9641571044922,1.6888758329148526e+18,155.2448525390625,0.2720770239830017,-0.3009004394213359,-0.4729681412378947,0.7812189857165018,-0.519113024075826,1.1290192206700642,-0.3382328152656555
5.3,1.6888758329667622e+18,155.29676204427085,-4.2592066923777265,3.1948208808898926,4.9093077182769775,1.6888758329667622e+18,155.29676204427085,-0.3846462567647292,-5.439683596293132,7.641080538431804,1.6888758329667622e+18,155.29676204427085,3.851759115854899,-8.618759473164877,2.667059342066447,1.6888758329667622e+18,155.29676204427085,-0.3305799265702565,0.785063624382019,-0.4086179335912068,1.6888758329667622e+18,155.29676204427085,-0.3312416772047679,0.7896451751391091,-0.4061745007832845,,,,,,,,,,,,1.6888758329659955e+18,155.29599545898435,-8.542439842224121,50.43479843139649,1.127279984951019,1.6888758329659955e+18,155.29599545898435,-264.1690368652344,145.2897979736328,-131.99911804199218,1.6888758329667622e+18,155.29676204427085,0.2964502076307932,-0.3392993013064067,-0.4340541859467824,0.7799658377965292,-0.6058759888013204,1.0726186831792195,-0.3589557508627574
5.35,1.688875833018663e+18,155.34866276041666,-8.579599777857462,-6.581142107645671,-3.601221799850464,1.688875833018663e+18,155.34866276041666,-4.951148966948192,-15.442479769388838,-1.3337992827097576,1.688875833018663e+18,155.34866276041666,3.605649391810099,-8.845592498779297,2.2027089993158975,1.688875833018663e+18,155.34866276041666,0.6645704706509908,2.690199613571167,-1.8575393954912824,1.688875833018663e+18,155.34866276041666,0.6639087200164795,2.6948829094568887,-1.8550959527492523,,,,,,,,,,,,1.6888758330159951e+18,155.3459950683594,-6.895439910888672,50.261559295654294,1.2175599575042724,1.6888758330159951e+18,155.3459950683594,-262.52203979492185,145.11655883789064,-131.9088348388672,1.688875833018663e+18,155.34866276041666,0.2478957772254943,-0.2928782006104787,-0.4794230461120605,0.7888836065928141,-0.5470256606737772,1.1247862577438354,-0.2591657787561416
5.4,1.6888758330705572e+18,155.40055721028645,-6.582074324289958,1.2800755500793457,-1.4656136830647786,1.6888758330705572e+18,155.40055721028645,-4.525425831476848,-8.260422547658285,-0.4530410865942637,1.6888758330705572e+18,155.40055721028645,2.033846974372864,-9.524752934773764,0.9478590885798136,1.6888758330705572e+18,155.40055721028645,1.220050570865472,4.756298700968425,-4.610607226689656,1.6888758330705572e+18,155.40055721028645,1.2193888251980145,4.760931015014648,-4.608163833618164,,,,,,,,,,,,1.6888758330659945e+18,155.39599448242188,1.615279996395111,50.59583969116211,5.062999963760376,1.6888758330659945e+18,155.39599448242188,-254.01131896972657,145.45083923339843,-128.06339569091796,1.6888758330705572e+18,155.40055721028645,0.2074764867623646,-0.2255959957838058,-0.5860503315925598,0.7483218510945638,-0.4388634363810221,1.3389406601587932,-0.1890896148979663
5.45,1.6888758331224614e+18,155.45246134440103,-6.477523008982341,-1.2350770632425945,-0.8454699317614237,1.6888758331224614e+18,155.45246134440103,-6.479763666788737,-10.972288290659586,0.4309074680010478,1.6888758331224614e+18,155.45246134440103,-0.0250421265761057,-9.721466064453123,1.2116639415423076,1.6888758331224614e+18,155.45246134440103,-2.18857741355896,4.818963130315145,-3.5176166693369546,1.6888758331224614e+18,155.45246134440103,-2.189188321431478,4.823595444361369,-3.5151731173197427,,,,,,,,,,,,1.688875833115996e+18,155.44599599609376,14.94011993408203,48.392520141601565,2.927999973297119,1.688875833115996e+18,155.44599599609376,-240.6864715576172,143.2475158691406,-130.19840087890626,1.6888758331224614e+18,155.45246134440103,0.079351412753264,-0.1651524156332015,-0.6880976756413778,0.7007362246513367,-1.5052242676417034,1.4403986930847168,1.1567672888437908
5.5,1.688875833174355e+18,155.50435489908855,-0.3559330701828003,1.3199981053670249,-3.2885175546010337,1.688875833174355e+18,155.50435489908855,-1.541575908660889,-8.29511833190918,-1.6504494349161785,1.688875833174355e+18,155.50435489908855,-1.2084441979726157,-9.599371274312338,1.5733546415964763,1.688875833174355e+18,155.50435489908855,0.4095851456125577,-0.2889392574628194,-2.487748702367147,1.688875833174355e+18,155.50435489908855,0.4088724801937739,-0.2842050592104594,-2.4853052298227944,,,,,,,,,,,,1.6888758331659942e+18,155.495994140625,22.84571990966797,45.58163909912109,-3.286679983139038,1.6888758331659942e+18,155.495994140625,-232.78087768554687,140.43663635253907,-136.41307678222657,1.688875833174355e+18,155.50435489908855,0.0282328737278778,-0.1526392598946888,-0.7334654927253723,0.6614621877670288,-2.2120227813720703,1.3639077345530193,1.954127351442973
5.55,1.6888758332262612e+18,155.55626114908853,7.962116241455078,2.233228842417399,1.2630457878112793,1.6888758332262612e+18,155.55626114908853,5.715256929397583,-7.229315280914307,2.674776871999105,1.6888758332262612e+18,155.55626114908853,-2.269660472869873,-9.446798960367838,1.3470176060994463,1.6888758332262612e+18,155.55626114908853,0.7115052938461304,2.6034568349520364,-1.9521216948827107,1.6888758332262612e+18,155.55626114908853,0.7108435233434042,2.6081401308377585,-1.9496782223383584,,,,,,,,,,,,1.6888758332159992e+18,155.54599912109376,29.19216003417969,42.294959259033206,-2.915799951553345,1.6888758332159992e+18,155.54599912109376,-226.43443908691407,137.14995422363282,-136.04219665527344,1.6888758332262612e+18,155.55626114908853,0.014256346039474,-0.1281841844320296,-0.7737899621327718,0.6195915738741556,-2.6041794617970786,1.2984340190887451,2.4004855950673423
5.6,1.688875833269514e+18,155.5995139160156,3.186194062232971,2.8140957355499268,-1.0653390288352966,1.688875833269514e+18,155.5995139160156,0.6912266314029694,-6.547361135482788,0.5958128422498702,1.688875833269514e+18,155.5995139160156,-2.517768979072571,-9.345711708068848,1.5964383482933044,1.688875833269514e+18,155.5995139160156,-0.0920115746557712,3.065169095993042,-0.8792641758918763,1.688875833269514e+18,155.5995139160156,-0.0926987975835799,3.0698269605636597,-0.8768206834793091,1.6888758332695096e+18,155.59950952148438,0.0,0.0,0.997012495994568,6.755000114440918,1.829928636550903,356.0901184082031,37.94503064050083,-122.7499875,49.1910853,1.6888758332659963e+18,155.595996484375,31.719999313354492,40.323439025878905,-6.8027198791503904,1.6888758332659963e+18,155.595996484375,-223.906591796875,135.17843933105468,-139.9291198730469,1.688875833269514e+18,155.5995139160156,-0.0444035958498716,-0.0761007480323314,-0.7889559864997864,0.6079757511615753,-2.5769277811050415,1.2620773911476135,2.5315659046173096
5.65,1.6888758333127598e+18,155.6427598470052,1.1046208540598552,0.0807603200276692,-3.639893134435018,1.6888758333127598e+18,155.6427598470052,-1.5742778778076172,-9.156933466593424,-1.6095720529556274,1.6888758333127598e+18,155.6427598470052,-2.701700131098429,-9.221948623657228,1.965607682863871,1.6888758333127598e+18,155.6427598470052,-0.7768678863843282,0.6289366682370504,-0.8879435261090597,1.6888758333127598e+18,155.6427598470052,-0.7775805592536926,0.6335181494553884,-0.8855509757995605,,,,,,,,,,,,1.6888758333160005e+18,155.64600058593751,32.36171989440918,39.00827865600586,-10.16747989654541,1.6888758333160005e+18,155.64600058593751,-223.2648773193359,133.8632781982422,-143.29387512207032,1.6888758333127598e+18,155.6427598470052,-0.0765615552663802,-0.0656695912281671,-0.7958294351895651,0.5969903270403544,-2.513115962346395,1.223289132118225,2.5287631352742515
5.7,1.6888758333646623e+18,155.69466251627605,4.596208254496257,-4.583703358968099,-6.587198893229167,1.6888758333646623e+18,155.69466251627605,1.4239288568496704,-13.591631571451822,-4.251447677612305,1.6888758333646623e+18,155.69466251627605,-3.195080836613973,-8.992183049519857,2.2710378964742026,1.6888758333646623e+18,155.69466251627605,-0.5459099113941193,0.1796452899773915,-0.7944302471975485,1.6888758333646623e+18,155.69466251627605,-0.546571671962738,0.1842776735623677,-0.7920377105474472,,,,,,,,,,,,1.6888758333659996e+18,155.69599960937498,34.8431999206543,36.55851821899414,-11.704679679870605,1.6888758333659996e+18,155.69599960937498,-220.7833923339844,131.41351623535155,-144.8310760498047,1.6888758333646623e+18,155.69466251627605,-0.0887197256088256,-0.0763132447997728,-0.8105732798576355,0.5737963716189066,-2.5239917437235513,1.1597330172856648,2.541919549306234
5.75,1.6888758334165568e+18,155.74655696614585,3.305371046066284,-6.895749092102051,-7.684556484222412,1.6888758334165568e+18,155.74655696614585,0.2795614004135132,-15.999808311462402,-5.5503515402476,1.6888758334165568e+18,155.74655696614585,-3.0486111640930176,-9.088314056396484,2.069491187731425,1.6888758334165568e+18,155.74655696614585,1.0586803952852886,-0.0094684138894081,0.9461284627517064,1.6888758334165568e+18,155.74655696614585,1.0579677025477092,-0.0047851068278153,0.9485719253619512,,,,,,,,,,,,1.6888758334159936e+18,155.7459935546875,34.49427947998047,36.84887924194336,-11.519239616394042,1.6888758334159936e+18,155.7459935546875,-221.13231506347657,131.70387573242186,-144.64563903808593,1.6888758334165568e+18,155.74655696614585,-0.0838173180818557,-0.0651101532081762,-0.8069170514742533,0.5809121529261271,-2.546465317408244,1.18555756409963,2.5734213987986245
5.8,1.688875833468453e+18,155.7984532877604,-2.618065595626831,-6.982911427815755,3.9110899368921914,1.688875833468453e+18,155.7984532877604,-4.378466606140137,-16.540386199951172,5.2903315623601275,1.688875833468453e+18,155.7984532877604,-1.7832024494806926,-9.541729609171549,1.314528187115987,1.688875833468453e+18,155.7984532877604,1.825570782025655,0.5726861845081052,3.2592714627583823,1.688875833468453e+18,155.7984532877604,1.8248581091562908,0.577420378724734,3.2617149353027344,,,,,,,,,,,,1.6888758334659914e+18,155.79599135742188,29.82899932861328,41.26771926879883,-9.10607967376709,1.6888758334659914e+18,155.79599135742188,-225.79759826660157,136.12271423339843,-142.23247985839845,1.688875833468453e+18,155.7984532877604,-0.063550175478061,-0.0287804873660206,-0.7679436008135477,0.6361106435457865,-2.4971391359965005,1.3424545526504517,2.5466254552205405
5.85,1.6888758335203533e+18,155.85035310872397,-2.7441213528315225,-8.99671459197998,8.602439085642496,1.6888758335203533e+18,155.85035310872397,-2.857030212879181,-18.788243611653645,9.286544481913248,1.6888758335203533e+18,155.85035310872397,-0.1357103586196899,-9.7757838567098,0.619391679763794,1.6888758335203533e+18,155.85035310872397,1.0868310729662578,-1.9236146608988445,3.606752077738444,1.6888758335203533e+18,155.85035310872397,1.0861184000968933,-1.9189313650131223,3.609195550282797,,,,,,,,,,,,1.6888758335159905e+18,155.8459906738281,22.11615982055664,46.03547897338867,-5.641279840469361,1.6888758335159905e+18,155.8459906738281,-233.51043701171875,140.8904815673828,-138.7676788330078,1.6888758335203533e+18,155.85035310872397,-0.0206492941942996,-0.0234332134326298,-0.7113677064577738,0.7014384071032206,-1.6317148208618164,1.4901066621144612,1.6277865370114644
5.9,1.688875833572255e+18,155.90225512695312,-3.506265342235565,-7.85753599802653,7.372899532318115,1.688875833572255e+18,155.90225512695312,-1.80717929204305,-17.511074701944988,8.062815348307291,1.688875833572255e+18,155.90225512695312,1.6762845516204834,-9.63779354095459,0.625202496846517,1.688875833572255e+18,155.90225512695312,-0.0514144798119862,-2.508823573589325,3.227659304936727,1.688875833572255e+18,155.90225512695312,-0.0521271725495656,-2.504191259543101,3.23010261853536,,,,,,,,,,,,1.6888758335659912e+18,155.89599111328124,13.014960098266602,49.27091827392578,-2.7645199298858643,1.6888758335659912e+18,155.89599111328124,-242.61163330078125,144.12591552734375,-135.89091796875,1.688875833572255e+18,155.90225512695312,0.0167978706303983,-0.055159468203783,-0.6410823464393616,0.764711062113444,-0.3624637524286906,1.3872394959131875,0.2601038068532943
5.95,1.688875833624154e+18,155.95415413411456,-1.8560668627421064,3.181247552235922,-2.518667777379354,1.688875833624154e+18,155.95415413411456,1.1228320201237996,-6.159125447273254,-1.845065673192342,1.688875833624154e+18,155.95415413411456,2.956097443898519,-9.324627876281738,0.6088886260986328,1.688875833624154e+18,155.95415413411456,1.0533352891604106,-1.9565504590670268,3.015129009882609,1.688875833624154e+18,155.95415413411456,1.052571694056193,-1.95186714331309,3.0175724824269614,,,,,,,,,,,,1.6888758336159872e+18,155.94598735351562,6.058519744873047,50.415279388427734,-0.2488799750804901,1.6888758336159872e+18,155.94598735351562,-249.56807861328124,145.27027587890626,-133.37527770996093,1.688875833624154e+18,155.95415413411456,0.0859444066882133,-0.1007219602664311,-0.5821231603622437,0.8018550276756287,-0.2102465977271398,1.257186810175578,-0.0579570904374122
6.0,1.6888758336760553e+18,156.00605533854167,-10.22186279296875,12.095006942749023,-1.106061538060506,1.6888758336760553e+18,156.00605533854167,-6.1158552169799805,3.1886355876922607,-0.3922235121329624,1.6888758336760553e+18,156.00605533854167,4.083206335703532,-8.890626271565756,0.6491245726744334,1.6888758336760553e+18,156.00605533854167,-0.0537561277548471,-2.489530404408773,2.1514673233032227,1.6888758336760553e+18,156.00605533854167,-0.0544688130418459,-2.4849489529927573,2.1539108753204346,,,,,,,,,,,,1.6888758336659904e+18,155.9959904785156,-1.071159952878952,50.659278869628906,2.7083999633789064,1.6888758336659904e+18,155.9959904785156,-256.6977569580078,145.51427612304687,-130.41799621582032,1.6888758336760553e+18,156.00605533854167,0.1295777261257171,-0.1214666441082954,-0.5259300470352173,0.8314264416694641,-0.1552649165193239,1.135040561358134,-0.2106243620316187
6.05,1.6888758337193073e+18,156.04930737304687,-9.585007667541504,11.559206485748293,-1.6027891635894775,1.6888758337193073e+18,156.04930737304687,-4.992923617362976,2.984448075294494,-0.0999003481119871,1.6888758337193073e+18,156.04930737304687,4.56928277015686,-8.55901288986206,1.4381753206253052,1.6888758337193073e+18,156.04930737304687,-0.5388595163822174,-3.0998356342315674,1.560378909111023,1.6888758337193073e+18,156.04930737304687,-0.5396230965852737,-3.095101475715637,1.56282240152359,,,,,,,,,,,,1.6888758337159936e+18,156.04599350585937,-6.544079875946045,50.17859878540039,1.856839942932129,1.6888758337159936e+18,156.04599350585937,-262.1706787109375,145.03359680175782,-131.26955871582032,1.6888758337193073e+18,156.04930737304687,0.1600404903292655,-0.179284855723381,-0.4844372421503067,0.8410444259643555,-0.3042083531618118,1.0601553916931152,-0.1970738917589187
6.1,1.6888758337625618e+18,156.09256176757813,-3.645357211430868,7.728524843851726,0.3777913649876912,1.6888758337625618e+18,156.09256176757813,1.0404790043830872,-0.715254545211792,2.3008983929951987,1.6888758337625618e+18,156.09256176757813,4.663034756978353,-8.428034146626791,1.8583935499191284,1.6888758337625618e+18,156.09256176757813,0.6838127374649048,-1.623119831085205,0.0655662169059117,1.6888758337625618e+18,156.09256176757813,0.6831509545445442,-1.618436574935913,0.0679587523142496,1.6888758337885105e+18,156.11851049804687,0.0,0.0,0.9957023859024048,6.698999881744385,1.827964425086975,354.9311828613281,38.00300155557014,-122.7499901,49.1910906,1.6888758337659955e+18,156.0959954589844,-10.018639945983889,50.10783920288086,-0.1024799987673759,1.6888758337659955e+18,156.0959954589844,-265.6452331542969,144.96283874511718,-133.2288787841797,1.6888758337625618e+18,156.09256176757813,0.1857996483643849,-0.2158791720867156,-0.4642968674500783,0.8385405341784159,-0.3791598578294118,1.033367117245992,-0.2189502567052841
6.15,1.6888758338144617e+18,156.14446183268228,9.189148108164469,2.178544203440348,1.3354466756184895,1.6888758338144617e+18,156.14446183268228,13.11984634399414,-6.720840533574422,2.762513756752014,1.6888758338144617e+18,156.14446183268228,3.9078965187072754,-8.883639653523764,1.3623536427815754,1.6888758338144617e+18,156.14446183268228,1.771203835805257,-0.2963714599609375,-2.459699789683024,1.6888758338144617e+18,156.14446183268228,1.770491123199463,-0.2917899489402771,-2.45730729897817,,,,,,,,,,,,1.688875833815996e+18,156.145995703125,-5.314319801330567,50.507998657226565,3.423319864273071,1.688875833815996e+18,156.145995703125,-260.9409118652344,145.36300048828124,-129.703076171875,1.6888758338144617e+18,156.14446183268228,0.2214161902666091,-0.2236670355002085,-0.5004169444243113,0.8062370419502258,-0.3332440455754598,1.1346051295598347,-0.3233328362305959
6.2,1.6888758338663626e+18,156.19636246744793,5.503465016682942,-14.869944254557293,7.03172238667806,1.6888758338663626e+18,156.19636246744793,9.222137928009031,-23.782463391621903,8.888737678527832,1.6888758338663626e+18,156.19636246744793,3.6958715120951338,-8.896773974100748,1.792301893234253,1.6888758338663626e+18,156.19636246744793,-0.9810495873292288,-4.0163371960322065,1.8194621801376345,1.6888758338663626e+18,156.19636246744793,-0.9816604256629944,-4.011653860410054,1.8219055732091267,,,,,,,,,,,,1.6888758338659955e+18,156.19599550781248,-4.5579197883605955,50.659278869628906,2.7401199340820312,1.6888758338659955e+18,156.19599550781248,-260.18450927734375,145.51427612304687,-130.3862762451172,1.6888758338663626e+18,156.19636246744793,0.2448595066865284,-0.2659727533658345,-0.4893400867780049,0.7926088770230612,-0.445635179678599,1.137021541595459,-0.3130252361297607
6.25,1.6888758339182623e+18,156.24826236979166,-4.803509712219238,0.4501946767171224,10.265309969584148,1.6888758339182623e+18,156.24826236979166,-0.7001002629597982,-8.146763851245245,12.768301169077557,1.6888758339182623e+18,156.24826236979166,4.080607732137044,-8.581213315327963,2.4382783571879068,1.6888758339182623e+18,156.24826236979166,-0.7522805531819662,1.6203200022379558,0.0454585353533426,1.6888758339182623e+18,156.24826236979166,-0.7530441035827002,1.6249524752298992,0.0479020476341247,,,,,,,,,,,,1.6888758339159974e+18,156.24599731445312,-8.220359992980956,50.37623901367188,0.3269599854946136,1.6888758339159974e+18,156.24599731445312,-263.8469543457031,145.23123474121093,-132.7994384765625,1.6888758339182623e+18,156.24826236979166,0.2628154059251149,-0.3025853236516316,-0.4475023448467254,0.7991143266359965,-0.5383685231208801,1.0649023453394573,-0.3132256567478179
6.3,1.6888758339701594e+18,156.3001591796875,-6.004071036974589,-3.139715830485026,-5.379583915074666,1.6888758339701594e+18,156.3001591796875,-2.1463619073232016,-11.929816563924154,-3.225126028060913,1.6888758339701594e+18,156.3001591796875,3.8349074522654214,-8.77435557047526,2.0897444089253745,1.6888758339701594e+18,156.3001591796875,0.7733045021692911,1.6946419676144917,-1.9039651205142336,1.6888758339701594e+18,156.3001591796875,0.7726427316665649,1.6993761857350669,-1.901572619875272,,,,,,,,,,,,1.6888758339659996e+18,156.29599970703126,-6.753920078277588,50.33475875854492,0.2391200006008147,1.6888758339659996e+18,156.29599970703126,-262.380517578125,145.18975830078125,-132.88727416992188,1.6888758339701594e+18,156.3001591796875,0.2193114906549453,-0.2641395330429077,-0.4840003252029419,0.8045738736788431,-0.4969712595144908,1.1087947686513264,-0.2209896594285964
6.35,1.688875834022058e+18,156.35205794270834,-8.479262510935465,0.0129884084065755,-1.893294374148051,1.688875834022058e+18,156.35205794270834,-6.312266190846761,-9.51246706644694,-1.052642544110616,1.688875834022058e+18,156.35205794270834,2.144195040067037,-9.509710311889648,0.7759383817513784,1.688875834022058e+18,156.35205794270834,1.1944960951805117,4.797379334767659,-5.004360834757487,1.688875834022058e+18,156.35205794270834,1.1937834123770397,4.802011807759603,-5.001917362213135,,,,,,,,,,,,1.6888758340159954e+18,156.34599560546877,2.559559893980622,50.53971786499024,4.365159940719605,1.6888758340159954e+18,156.34599560546877,-253.0670379638672,145.39471740722655,-128.76123504638673,1.688875834022058e+18,156.35205794270834,0.1794262578090031,-0.1906991253296533,-0.5935248732566833,0.7591848373413086,-0.3431822260220845,1.3351351022720337,-0.1913085555036862
6.4,1.6888758340739625e+18,156.40396240234375,-4.952136834462483,-2.7735465367635093,-0.3417565623919169,1.6888758340739625e+18,156.40396240234375,-4.962116003036499,-12.53998565673828,0.6813562711079916,1.6888758340739625e+18,156.40396240234375,-0.0327806348601977,-9.750693957010904,0.9583993752797444,1.6888758340739625e+18,156.40396240234375,-1.9871955315272016,5.598580042521159,-3.5426111221313477,1.6888758340739625e+18,156.40396240234375,-1.987806399663289,5.603212356567383,-3.540167729059855,,,,,,,,,,,,1.688875834065997e+18,156.39599692382814,16.17963981628418,48.08995971679688,1.6909199893474578,1.688875834065997e+18,156.39599692382814,-239.44695129394532,142.94495544433593,-131.43547668457032,1.6888758340739625e+18,156.40396240234375,0.0488562521835168,-0.1167884618043899,-0.6981198986371359,0.7029922207196554,-1.4844565391540527,1.4650214115778606,1.2491631905237834
6.45,1.6888758341258588e+18,156.45585872395836,0.065787394841512,1.2140347162882488,-2.065195401509603,1.6888758341258588e+18,156.45585872395836,-1.203589876492818,-8.426923116048178,-0.6638088723023732,1.6888758341258588e+18,156.45585872395836,-1.292178730169932,-9.62521266937256,1.336673100789388,1.6888758341258588e+18,156.45585872395836,0.2798780848582585,-0.1866702437400818,-2.502664009730021,1.6888758341258588e+18,156.45585872395836,0.2791145145893097,-0.1820378502209981,-2.500220537185669,,,,,,,,,,,,1.6888758341159951e+18,156.44599501953127,23.66799964904785,45.29615936279297,-4.9995598793029785,1.6888758341159951e+18,156.44599501953127,-231.95859375,140.15115966796876,-138.12595825195314,1.6888758341258588e+18,156.45585872395836,-0.0091588424208263,-0.093090330561002,-0.7462420066197714,0.6588013966878256,-2.3211814562479653,1.377620816230774,2.201845367749532
6.5,1.688875834169112e+18,156.49911218261718,7.54377555847168,4.689935684204102,1.3328673243522644,1.688875834169112e+18,156.49911218261718,5.471189022064209,-4.84606409072876,2.4936203956604004,1.688875834169112e+18,156.49911218261718,-2.095387816429138,-9.520254611968994,1.096039593219757,1.688875834169112e+18,156.49911218261718,0.7893905937671661,1.3950634747743609,-1.6010777950286863,1.688875834169112e+18,156.49911218261718,0.7887034118175507,1.3996449410915377,-1.5986343622207642,,,,,,,,,,,,1.688875834166e+18,156.49599985351563,28.518719482421876,42.49504013061524,-4.135799980163574,1.688875834166e+18,156.49599985351563,-227.10787658691407,137.35003967285155,-137.26219787597657,1.688875834169112e+18,156.49911218261718,-0.0077362895244732,-0.0794049464166164,-0.7747870981693268,0.6270810663700104,-2.658616781234741,1.3274977207183838,2.556465983390808
6.55,1.6888758342123622e+18,156.5423623046875,2.01650063196818,3.3504786491394043,-1.9967363675435383,1.6888758342123622e+18,156.5423623046875,-0.3427718877792358,-6.075974941253662,-0.529412011305491,1.6888758342123622e+18,156.5423623046875,-2.382073958714803,-9.4107084274292,1.4026108582814534,1.6888758342123622e+18,156.5423623046875,-0.2745330225055416,3.4317901134490967,-1.1445069313049316,1.6888758342123622e+18,156.5423623046875,-0.2751947883516549,3.43642250696818,-1.1420634786287944,,,,,,,,,,,,1.688875834215996e+18,156.54599575195311,30.95383949279785,40.75531997680664,-7.868999767303467,1.688875834215996e+18,156.54599575195311,-224.67275695800785,135.61031799316407,-140.99539794921876,1.6888758342123622e+18,156.5423623046875,-0.0652515068650245,-0.0325703117996453,-0.7874620954195658,0.6115226348241171,-2.6112945874532065,1.2851155201594036,2.6580611864725747
6.6,1.6888758342642624e+18,156.59426228841144,4.173299630482991,-0.6473112106323242,-4.2221732934316,1.6888758342642624e+18,156.59426228841144,1.3808581034342449,-9.890533129374186,-2.3898316423098245,1.6888758342642624e+18,156.59426228841144,-2.8152430057525635,-9.227476755777994,1.767628272374471,1.6888758342642624e+18,156.59426228841144,-0.3661628067493438,0.720668246348699,-1.4436272780100503,1.6888758342642624e+18,156.59426228841144,-0.3668754895528157,0.7253006796042124,-1.4411838452021282,,,,,,,,,,,,1.6888758342659948e+18,156.59599462890623,31.954238510131837,38.81551971435547,-11.14347972869873,1.6888758342659948e+18,156.59599462890623,-223.67235717773437,133.67051696777344,-144.2698760986328,1.6888758342642624e+18,156.59426228841144,-0.1054048687219619,-0.0092925550416111,-0.8020681738853455,0.5876768628756205,-2.5803133646647134,1.2251513799031577,2.7184249560038247
