seconds_elapsed_rounded,accelerometer_time,accelerometer_seconds_elapsed,accelerometer_z,accelerometer_y,accelerometer_x,accelerometeruncalibrated_time,accelerometeruncalibrated_seconds_elapsed,accelerometeruncalibrated_z,accelerometeruncalibrated_y,accelerometeruncalibrated_x,gravity_time,gravity_seconds_elapsed,gravity_z,gravity_y,gravity_x,gyroscope_time,gyroscope_seconds_elapsed,gyroscope_z,gyroscope_y,gyroscope_x,gyroscopeuncalibrated_time,gyroscopeuncalibrated_seconds_elapsed,gyroscopeuncalibrated_z,gyroscopeuncalibrated_y,gyroscopeuncalibrated_x,location_time,location_seconds_elapsed,location_bearingAccuracy,location_speedAccuracy,location_verticalAccuracy,location_horizontalAccuracy,location_speed,location_bearing,location_altitude,location_longitude,location_latitude,magnetometer_time,magnetometer_seconds_elapsed,magnetometer_z,magnetometer_y,magnetometer_x,magnetometeruncalibrated_time,magnetometeruncalibrated_seconds_elapsed,magnetometeruncalibrated_z,magnetometeruncalibrated_y,magnetometeruncalibrated_x,orientation_time,orientation_seconds_elapsed,orientation_qz,orientation_qy,orientation_qx,orientation_qw,orientation_roll,orientation_pitch,orientation_yaw
0.0,1.6887549183483052e+18,120.00530501302084,-1.2410639921824138,-0.3394020398457845,-4.793451309204102,1.6887549183396544e+18,119.9966544596354,-0.5274179776509604,-9.101300398508709,-1.8342979202667873,1.6887549183483052e+18,120.00530501302084,3.99314546585083,-8.74678643544515,1.9199949900309248,1.6887549183483052e+18,120.00530501302084,0.3828598026496669,2.1349740425745645,-1.3405437469482422,1.6887549183353252e+18,119.99232527669272,0.1002328023314476,1.8043432235717771,-0.5702936351299286,,,,,,,,,,,,1.688754918338064e+18,119.99506420898436,-25.910359191894532,39.901319122314455,7.52983980178833,1.688754918338064e+18,119.99506420898436,-280.4389587402344,133.2191131591797,-124.47415924072266,1.6887549183483052e+18,120.00530501302084,0.6159782807032267,-0.4659234285354614,-0.2791062692801158,0.570169985294342,-0.4289591709772746,1.1033832629521687,-1.3817139466603596
0.05,1.6887549184002007e+18,120.05720076497396,-6.955623626708984,-0.1378348668416341,1.476271390914917,1.6887549183915592e+18,120.04855908203125,-2.607777754465739,-9.34118111928304,1.9846470020711424,1.6887549184002007e+18,120.05720076497396,2.7124876976013184,-9.36530303955078,0.9218598008155824,1.6887549184002007e+18,120.05720076497396,0.4683300331234932,5.205997149149577,-3.846822023391723,1.6887549183872348e+18,120.04423486328126,0.7563020785649618,4.569679260253906,-3.5541158517201743,,,,,,,,,,,,1.688754918388066e+18,120.04506606445312,-18.636719512939457,41.702039337158205,11.882799911499024,1.688754918388066e+18,120.04506606445312,-273.1653198242187,135.01983642578125,-120.12119750976562,1.6887549184002007e+18,120.05720076497396,0.5549157460530599,-0.453164945046107,-0.3932815293471018,0.5742980639139811,-0.2941808303197225,1.2759286959966023,-1.317931373914083
0.1,1.6887549184434657e+18,120.10046545410157,-4.408084869384766,0.7859177589416504,-1.2134300470352173,1.6887549184434644e+18,120.10046419270832,-4.147958040237427,-9.31027348836263,-0.2061815559864044,1.6887549184434657e+18,120.10046545410157,1.33015376329422,-9.688257694244388,0.7409717440605164,1.6887549184434657e+18,120.10046545410157,-1.5747342705726624,3.8959457874298096,-2.952311635017395,1.6887549184391365e+18,120.09613639322916,-1.3121894399325054,4.121813217798869,-3.1949779192606607,,,,,,,,,,,,1.688754918438065e+18,120.09506479492188,-6.012159895896912,43.67111892700195,14.583879852294922,1.688754918438065e+18,120.09506479492188,-260.5407470703125,136.988916015625,-117.4201171875,1.6887549184434657e+18,120.10046545410157,0.4696494191884994,-0.4444006383419037,-0.4850251376628876,0.5884179174900055,-0.4794005900621414,1.4184372425079346,-0.9313607811927794
0.15,1.6887549184867185e+18,120.14371842447918,-5.426748077074687,-3.0248632431030273,-3.1927228768666587,1.6887549184953628e+18,120.15236279296874,-3.2857443491617837,-12.483156204223633,-1.9334007501602173,1.6887549184867185e+18,120.14371842447918,0.2653661072254181,-9.694427490234377,1.4169737895329793,1.6887549184867185e+18,120.14371842447918,-1.321810598174731,-0.2819143335024515,-2.5761205355326333,1.688754918491044e+18,120.14804418945312,-1.101135494808356,-0.6230316559473674,-2.5949556032816568,,,,,,,,,,,,1.6887549184880689e+18,120.14506884765623,1.9471199989318848,45.43279876708984,11.28011989593506,1.6887549184880689e+18,120.14506884765623,-252.58147888183595,138.75059509277344,-120.723876953125,1.6887549184867185e+18,120.14371842447918,0.4060986240704854,-0.4713788727919261,-0.5145781834920248,0.5895849863688151,-1.3757286469141643,1.4240047931671145,0.0327253776292006
0.2,1.688754918538624e+18,120.1956240234375,4.360881964365642,1.6170878410339355,-2.295566817124685,1.6887549185472745e+18,120.20427425130208,2.627917498350143,-7.512466112772624,-0.2933201665679614,1.688754918538624e+18,120.1956240234375,-1.0514724055926006,-9.65123176574707,1.3736567497253418,1.688754918538624e+18,120.1956240234375,0.741335908571879,1.1724031170209248,-2.5505659580230713,1.6887549185429473e+18,120.1999473470052,0.834492822488149,1.556484694282214,-2.527505954106649,,,,,,,,,,,,1.6887549185380677e+18,120.195067578125,8.11299991607666,44.44459915161133,10.85067958831787,1.6887549185380677e+18,120.195067578125,-246.41559753417968,137.76239929199218,-121.1533187866211,1.688754918538624e+18,120.1956240234375,0.3783679107824961,-0.5004448791344961,-0.5509236057599386,0.549878716468811,-2.2405852476755777,1.3949206670125325,0.8931467334429423
0.25,1.6887549185905285e+18,120.24752848307293,3.316474199295044,3.6099316279093423,1.31855571269989,1.68875491859918e+18,120.25617993164065,1.38723889986674,-5.9290157953898115,2.5625136295954385,1.6887549185905285e+18,120.24752848307293,-1.9935059944788616,-9.539986928304035,1.092935562133789,1.6887549185905285e+18,120.24752848307293,0.8101091285546621,2.5280657609303794,-2.0988311767578125,1.688754918594855e+18,120.25185498046876,0.6803002487868071,2.384156107902527,-2.029039820035299,,,,,,,,,,,,1.6887549185880648e+18,120.24506469726562,15.27683982849121,42.624359130859375,10.994639778137207,1.6887549185880648e+18,120.24506469726562,-239.2517547607422,135.94215393066406,-121.00935821533204,1.6887549185905285e+18,120.24752848307293,0.3247724274794261,-0.4690010050932566,-0.618543803691864,0.5398460825284322,-2.6643791993459067,1.337218205134074,1.4629230499267578
0.3,1.6887549186424292e+18,120.29942911783854,2.092707554499308,0.0602434476216634,-1.6742122968037922,1.6887549186424325e+18,120.2994326171875,-0.625723123550415,-9.31585693359375,-0.4812564551830292,1.6887549186424292e+18,120.29942911783854,-2.545811971028646,-9.368764877319336,1.395772099494934,1.6887549186424292e+18,120.29942911783854,-0.8221737146377563,1.1172216534614563,-0.9327911933263144,1.6887549186467533e+18,120.30375333658854,-0.8631016810735067,1.0437650481859844,-0.9362019101778666,,,,,,,,,,,,1.6887549186380603e+18,120.29506015625,20.24223976135254,41.05299911499024,9.337879848480224,1.6887549186380603e+18,120.29506015625,-234.2863555908203,134.37079467773438,-122.66611785888672,1.6887549186424292e+18,120.29942911783854,0.2798230747381846,-0.4618322352568308,-0.6466378569602966,0.5386457641919454,-2.666885932286581,1.2702231407165527,1.5486695766448977
0.35,1.688754918694339e+18,120.35133919270834,4.295669953028361,-3.0326512654622397,-4.538925409317017,1.6887549186856876e+18,120.34268758138022,0.519242525100708,-12.102697372436523,-2.063011884689331,1.688754918694339e+18,120.35133919270834,-3.0787835915883384,-9.145861625671388,1.757193883260091,1.688754918694339e+18,120.35133919270834,-0.6289875706036886,-0.2076941778262456,-1.064229041337967,1.6887549186986606e+18,120.35566048177084,-0.6090835730234782,-0.1540398597717285,-0.9057095249493916,1.6887549186727027e+18,120.32970263671876,0.0,0.0,2.4605202674865723,7.361999988555908,1.002313256263733,265.92724609375,333.29998779296875,-122.9161343,49.2790103,1.688754918688064e+18,120.34506406249996,23.394719696044923,40.296599578857425,6.836879920959473,1.688754918688064e+18,120.34506406249996,-231.13387756347657,133.61439514160156,-125.1671157836914,1.688754918694339e+18,120.35133919270834,0.252527763446172,-0.4783279697100321,-0.6555384596188863,0.5269102851549784,-2.642085711161295,1.2011664311091106,1.534852425257365
0.4,1.688754918746239e+18,120.40323909505209,2.6203866402308145,-7.46954345703125,-5.496108055114746,1.688754918737589e+18,120.39458902994792,-0.1134596665700276,-16.46720600128174,-3.8017964363098145,1.688754918746239e+18,120.40323909505209,-3.0834612051645913,-9.129111925760904,1.8380051851272583,1.688754918746239e+18,120.40323909505209,0.5040656328201294,0.6102034784853458,0.003105233112971,1.6887549187505664e+18,120.40756648763022,0.6177883942921957,0.5563455298542976,0.0563523173332214,,,,,,,,,,,,1.688754918738065e+18,120.39506499023436,24.907519912719728,39.83300018310547,5.636399936676026,1.688754918738065e+18,120.39506499023436,-229.6210754394531,133.15079650878906,-126.36759490966796,1.688754918746239e+18,120.40323909505209,0.2429266422986984,-0.4727174540360768,-0.659715453783671,0.5312589009602865,-2.621937990188598,1.1961559057235718,1.5397863785425825
0.45,1.6887549187981394e+18,120.45513932291668,0.850254495938619,-5.154330253601074,-0.1831781069437662,1.6887549187894874e+18,120.4464872233073,-0.1330010294914244,-14.4955202738444,0.5040879646937052,1.6887549187981394e+18,120.45513932291668,-2.293987592061361,-9.412020047505695,1.449903090794881,1.6887549187981394e+18,120.45513932291668,0.9334020813306172,0.6420193612575531,3.135825832684835,1.688754918793814e+18,120.45081384277344,0.8596401214599609,0.6588181555271149,2.9587258100509644,,,,,,,,,,,,1.6887549187880586e+18,120.4450587890625,24.299959182739254,41.38971939086914,6.08779993057251,1.6887549187880586e+18,120.4450587890625,-230.2286376953125,134.7075164794922,-125.91619720458984,1.6887549187981394e+18,120.45513932291668,0.2615302652120589,-0.4342398246129353,-0.6554484168688456,0.5591515898704529,-2.5880819161732993,1.289599021275838,1.547614614168803
0.5,1.6887549188500462e+18,120.50704638671874,-2.5090635617574057,-3.6790246963500977,0.6284093459447225,1.6887549188414024e+18,120.49840234375,-3.311068375905355,-13.564512888590494,1.405583878358205,1.6887549188500462e+18,120.50704638671874,-0.3556072761615118,-9.75053596496582,0.8839788238207499,1.6887549188500462e+18,120.50704638671874,1.2098186413447063,-0.9846638639767964,3.7424150307973223,1.6887549188370772e+18,120.49407747395831,1.242499907811483,-0.602771282196045,3.981059710184733,,,,,,,,,,,,1.688754918838066e+18,120.49506582031248,15.881959533691406,45.87931900024414,8.120319843292236,1.688754918838066e+18,120.49506582031248,-238.64663696289065,139.19711608886718,-123.88367614746092,1.6887549188500462e+18,120.50704638671874,0.3196201125780741,-0.3852859735488891,-0.6089667280515035,0.6146621306737264,-1.8641008536020915,1.4691393772761028,0.8188259154558182
0.55,1.6887549188933076e+18,120.55030773925782,-2.971744179725647,-7.10133695602417,5.182620286941528,1.6887549188933076e+18,120.55030753580728,-1.8901305198669431,-16.643476804097492,6.09890611966451,1.6887549188933076e+18,120.55030773925782,1.0980010032653809,-9.724835872650146,0.6048445701599121,1.6887549188933076e+18,120.55030773925782,0.0826195180416106,0.1511127911508083,3.5647804737091064,1.6887549188889833e+18,120.54598307291668,0.2597195456425349,-0.0517708286643028,3.52917218208313,,,,,,,,,,,,1.6887549188880663e+18,120.54506621093748,6.41719970703125,48.17779922485352,10.91655979156494,1.6887549188880663e+18,120.54506621093748,-248.11139526367188,141.49559631347657,-121.08743743896484,1.6887549188933076e+18,120.55030773925782,0.3598773777484893,-0.3549760282039642,-0.5650192201137543,0.6519147753715515,-0.4991441369056701,1.446943283081055,-0.5630922764539719
0.6,1.6887549189365583e+18,120.59355826822916,-5.8422354857126875,-5.043145815531413,7.103083848953247,1.688754918945208e+18,120.60220800781252,-2.1172491709391275,-13.597015062967936,6.443073908487956,1.6887549189365583e+18,120.59355826822916,2.461113611857096,-9.439456303914389,0.9429062008857728,1.6887549189365583e+18,120.59355826822916,-0.2717332268754641,-3.358740826447805,3.4172820250193277,1.6887549189408873e+18,120.59788745117189,-0.2706132953365643,-3.7513743241628017,3.411376953125,,,,,,,,,,,,1.6887549189380636e+18,120.59506357421874,-3.767359900474548,49.29044036865234,10.548119926452635,1.6887549189380636e+18,120.59506357421874,-258.29595336914065,142.6082336425781,-121.45587768554688,1.6887549189365583e+18,120.59355826822916,0.3956407904624939,-0.3539646069208781,-0.4994158645470937,0.6835455099741617,-0.3447168668111165,1.3029187122980754,-0.7850942413012186
0.65,1.688754918988466e+18,120.64546573893227,-0.8490664958953857,0.1587249437967936,-2.157118638356527,1.688754918997114e+18,120.65411409505208,1.1256235440572102,-7.22592560450236,-1.0719845195611315,1.688754918988466e+18,120.64546573893227,3.91261370976766,-8.877614974975586,1.389146725336711,1.688754918988466e+18,120.64546573893227,0.3082324067751567,-0.8487972666819891,3.2421673933664956,1.6887549189927867e+18,120.6497870279948,0.45733442902565,-0.5288565854231517,3.109813133875529,,,,,,,,,,,,1.688754918988062e+18,120.6450619140625,-14.4179594039917,47.80203857421875,9.735599899291993,1.688754918988062e+18,120.6450619140625,-268.94655151367186,141.11983947753907,-122.26839752197266,1.688754918988466e+18,120.64546573893227,0.4620179235935211,-0.3672556777795155,-0.4073377549648285,0.6965882976849874,-0.3319834073384602,1.136345346768697,-0.9565775195757548
0.7,1.6887549190403717e+18,120.69737141927084,-11.424442768096924,10.929108301798502,-3.388331890106201,1.6887549190490232e+18,120.70602311197916,-6.174080779155095,3.4143584792812667,-2.3106691241264343,1.6887549190403717e+18,120.69737141927084,4.804236729939778,-8.445999145507812,1.3150752385457356,1.6887549190403717e+18,120.69737141927084,0.5162320335706075,-2.7261388301849365,2.1009182929992676,1.688754919044698e+18,120.70169816080728,0.3296127120653788,-2.8817567825317383,2.1571688652038574,,,,,,,,,,,,1.6887549190380623e+18,120.69506240234377,-21.16699943542481,45.51087951660156,10.889719772338866,1.6887549190380623e+18,120.69506240234377,-275.6955932617187,138.82867736816405,-121.11427764892578,1.6887549190403717e+18,120.69737141927084,0.5104781289895376,-0.3553091684977214,-0.3584875365098317,0.6955927411715189,-0.256255234281222,1.0396827856699626,-1.1192078987757366
0.75,1.6887549190922732e+18,120.7492732747396,-5.548374652862549,8.977188110351562,-0.4719490210215251,1.6887549190922767e+18,120.74927661132811,-0.130408838391304,0.9227322041988374,2.5154547691345215,1.6887549190922732e+18,120.7492732747396,5.380215485890706,-7.886901378631592,2.2411667505900064,1.6887549190922732e+18,120.7492732747396,-0.4156429022550583,-2.2837196985880532,1.161407547692458,1.6887549190965965e+18,120.75359659830728,-0.3093014458815257,-2.1863375902175903,0.8894707361857096,,,,,,,,,,,,1.688754919088065e+18,120.74506494140624,-28.228359603881835,42.91959915161133,7.0515998840332035,1.688754919088065e+18,120.74506494140624,-282.7569580078125,136.23739624023438,-124.95239715576172,1.6887549190922732e+18,120.7492732747396,0.5460861126581827,-0.3830528358618418,-0.2801103095213572,0.69012983640035,-0.384970873594284,0.9360676606496176,-1.1426267226537068
0.8,1.6887549191441784e+18,120.80117805989585,-1.599040428797404,4.774063269297282,0.718956708908081,1.688754919135526e+18,120.79252579752604,2.4051855007807412,-2.665205637613932,3.3515469233194985,1.6887549191441784e+18,120.80117805989585,4.95211919148763,-8.095543225606283,2.464618682861328,1.6887549191441784e+18,120.80117805989585,1.13717653354009,-0.3828597863515218,-1.691536784172058,1.688754919148504e+18,120.80550415039065,1.2542590498924255,-0.2017382557193437,-1.8686367670694988,,,,,,,,,,,,1.6887549191380598e+18,120.79505981445314,-28.225920104980467,42.96107940673828,4.587199974060058,1.6887549191380598e+18,120.79505981445314,-282.7545104980469,136.27887573242188,-127.4167984008789,1.6887549191441784e+18,120.80117805989585,0.5554647644360861,-0.4129977623621623,-0.2762023111184438,0.6665848890940348,-0.448528508345286,0.974196990331014,-1.149119774500529
0.85,1.6887549191960763e+18,120.85307633463542,7.611356258392334,-4.415024280548097,0.9930081367492676,1.688754919187426e+18,120.84442610677084,10.77488056818644,-9.705288569132486,2.6490540504455566,1.6887549191960763e+18,120.85307633463542,4.005335728327434,-8.76169490814209,1.8332391182581584,1.6887549191960763e+18,120.85307633463542,0.8583674629529319,-0.1084285974502563,-1.7678439641992252,1.6887549192004032e+18,120.85740307617188,0.627918561299642,-0.4583016733328501,-1.4158329168955486,1.6887549191917578e+18,120.8487578125,0.0,0.0,2.4700958728790283,7.117000102996826,1.0481336116790771,269.3687438964844,333.29998779296875,-122.9161502,49.2790141,1.6887549191880594e+18,120.84505947265625,-23.80463981628418,44.73495864868164,7.37855978012085,1.6887549191880594e+18,120.84505947265625,-278.33323364257814,138.0527587890625,-124.6254379272461,1.6887549191960763e+18,120.85307633463542,0.5544755657513937,-0.4320750832557678,-0.3296276430288949,0.6301090319951376,-0.4122200608253479,1.107772986094157,-1.1861181259155271
0.9,1.688754919247984e+18,120.90498404947918,7.629977385203044,-8.734814325968424,0.6131614049275717,1.6887549192393357e+18,120.89633553059896,11.766107241312662,-22.05763753255208,3.1176485617955527,1.688754919247984e+18,120.90498404947918,3.964182138442993,-8.679194768269857,2.275299151738485,1.688754919247984e+18,120.90498404947918,0.3180571595827738,-3.19889760017395,1.2407691478729248,1.6887549192436588e+18,120.90065881347655,0.1597412675619125,-3.446501612663269,1.4094188213348389,,,,,,,,,,,,1.6887549192380585e+18,120.89505859375,-22.345519256591796,45.22295913696289,6.8393199920654295,1.6887549192380585e+18,120.89505859375,-276.8741149902344,138.54075927734374,-125.16467590332032,1.688754919247984e+18,120.90498404947918,0.5812848806381226,-0.4625789821147918,-0.2878211140632629,0.6039350628852844,-0.5049140254656473,1.0885405540466309,-1.2227925459543865
0.95,1.688754919299892e+18,120.95689192708336,-7.5574391682942705,-1.592384656270345,6.894306500752767,1.688754919291238e+18,120.94823811848958,-1.3002997239430745,-8.815358320871988,9.24088176091512,1.688754919299892e+18,120.95689192708336,3.8229772249857583,-8.761401494344076,2.19774595896403,1.688754919299892e+18,120.95689192708336,0.6505205817520618,0.0770708123842874,-0.6973535766204199,1.6887549192869125e+18,120.94391243489584,0.957327663898468,-0.8314894040425619,-0.4621704419453938,,,,,,,,,,,,1.6887549192880625e+18,120.94506245117186,-24.612279891967773,43.96635971069336,5.053239917755127,1.6887549192880625e+18,120.94506245117186,-279.1408752441406,137.2841583251953,-126.9507583618164,1.688754919299892e+18,120.95689192708336,0.6051147182782491,-0.4777079820632934,-0.2750446299711863,0.5743534167607626,-0.5031925638516744,1.106582085291545,-1.3080686330795288
1.0,1.688754919343143e+18,121.00014282226564,0.1466355323791504,1.5682151317596436,-4.588661193847656,1.688754919343143e+18,121.00014265950522,0.5954140226046244,-7.703692436218262,-1.012562741835912,1.688754919343143e+18,121.00014282226564,3.6796239614486694,-8.868261337280273,2.0117154121398926,1.688754919343143e+18,121.00014282226564,-0.143400615430437,1.312749445438385,-0.5057964101433754,1.6887549193388216e+18,120.99582177734376,-0.083434011787176,1.351132074991862,-0.4983642250299453,,,,,,,,,,,,1.6887549193380582e+18,120.99505815429688,-22.953079605102538,43.624759674072266,6.304959869384765,1.6887549193380582e+18,120.99505815429688,-277.48167724609374,136.94255981445312,-125.69903869628908,1.688754919343143e+18,121.00014282226564,0.5928146541118622,-0.4724983870983124,-0.2968362718820572,0.5806525945663452,-0.4807965755462646,1.1313121914863586,-1.2827609181404114
1.05,1.688754919386395e+18,121.04339501953125,-3.9479403495788574,0.4162858327229817,-0.6464853684107462,1.6887549193950474e+18,121.05204744466144,-2.4821547667185464,-8.640083948771158,1.100100244084994,1.688754919386395e+18,121.04339501953125,2.9811765352884927,-9.222912788391112,1.4188930590947468,1.688754919386395e+18,121.04339501953125,0.6136650343736013,4.145331700642903,-3.297094186147054,1.6887549193907238e+18,121.04772371419271,0.6212499539057413,4.3963972727457685,-3.5228090286254883,,,,,,,,,,,,1.688754919388059e+18,121.0450587890625,-17.15807971954346,45.03263931274414,9.679479789733886,1.688754919388059e+18,121.0450587890625,-271.6866821289062,138.35043334960938,-122.32451629638672,1.688754919386395e+18,121.04339501953125,0.553882360458374,-0.460517297188441,-0.3663074672222137,0.5875016649564108,-0.4170437455177307,1.229484597841899,-1.2156033118565877
1.1,1.688754919438304e+18,121.09530403645834,-7.823586940765381,3.274430433909098,-0.3336806893348694,1.688754919446951e+18,121.1039510091146,-7.284749190012614,-7.147161960601807,0.206380953391393,1.688754919438304e+18,121.09530403645834,1.2358834743499756,-9.667496999104818,1.0113725066184998,1.688754919438304e+18,121.09530403645834,-1.3141747936606407,3.9863030910491943,-3.5937201976776123,1.6887549194426278e+18,121.09962784830728,-1.595732718706131,3.7727037270863857,-3.4079662958780923,,,,,,,,,,,,1.6887549194380603e+18,121.09506035156252,-4.611600011587143,46.71135940551758,11.753479957580566,1.6887549194380603e+18,121.09506035156252,-259.14019775390625,140.02915649414064,-120.25051727294922,1.688754919438304e+18,121.09530403645834,0.45552725593249,-0.4499410291512807,-0.484340637922287,0.5949573715527853,-0.6891521612803141,1.4075104395548503,-0.7069864372412363
1.15,1.6887549194902075e+18,121.14720776367189,-3.617953618367513,-5.269484519958496,-3.314522902170817,1.6887549194988593e+18,121.15585921223958,-0.0119641025861098,-14.858032862345375,-1.474377602338791,1.6887549194902075e+18,121.14720776367189,0.1636512478192647,-9.604942321777342,1.9688838322957356,1.6887549194902075e+18,121.14720776367189,-1.5423838272690773,-0.4894048770268758,-1.5708909034729004,1.688754919494532e+18,121.1515320638021,-1.2317079802354178,-0.7324274281660715,-1.6562084356943767,,,,,,,,,,,,1.6887549194880596e+18,121.14505952148438,1.7226399540901185,47.611717987060544,7.110159873962402,1.6887549194880596e+18,121.14505952148438,-252.80595703125,140.9295196533203,-124.89383697509766,1.6887549194902075e+18,121.14720776367189,0.3767088055610657,-0.4797180195649465,-0.5119106968243917,0.6047021150588989,-1.483479380607605,1.373175581296285,0.1749014916519323
1.2,1.6887549195421125e+18,121.19911246744792,4.903515338897705,0.8782105445861816,-2.9976117610931396,1.6887549195421094e+18,121.199109375,3.5533417463302612,-8.775377750396729,-1.3316057473421097,1.6887549195421125e+18,121.19911246744792,-1.0599079529444375,-9.58055051167806,1.7921521266301472,1.6887549195421125e+18,121.19911246744792,1.163291037082672,1.5382095873355863,-2.82128111521403,1.6887549195464384e+18,121.2034384765625,1.2311479647954304,1.8352428873380024,-2.6826656262079873,,,,,,,,,,,,1.6887549195380585e+18,121.19505830078126,7.67623987197876,46.967559051513675,6.846639823913574,1.6887549195380585e+18,121.19505830078126,-246.85235595703125,140.2853576660156,-125.15735778808592,1.6887549195421125e+18,121.19911246744792,0.3495252827803294,-0.4964348971843719,-0.554806133111318,0.56827445824941,-2.121707797050476,1.3583494822184246,0.8305591344833374
1.25,1.688754919594022e+18,121.25102229817708,2.224900325139364,4.200652440388997,0.9626647631327312,1.688754919585367e+18,121.2423669433594,0.318444806151092,-5.402993679046631,2.099303126335144,1.688754919594022e+18,121.25102229817708,-1.802032272020976,-9.54685910542806,1.3447386423746746,1.688754919594022e+18,121.25102229817708,0.9966266453266144,1.9492710034052532,-1.6074918905893962,1.688754919598352e+18,121.25535213216146,0.8607600331306458,1.798794507980347,-1.5887587070465088,,,,,,,,,,,,1.6887549195880653e+18,121.24506518554688,13.951919746398923,45.32299957275391,8.38139991760254,1.6887549195880653e+18,121.24506518554688,-240.57667541503903,138.6407958984375,-123.62259826660156,1.688754919594022e+18,121.25102229817708,0.3092103004455566,-0.4596042434374491,-0.6177105108896891,0.5579201181729635,-2.524264097213745,1.3405404885609944,1.3659738699595134
1.3,1.6887549196459295e+18,121.3029296875,1.9677429993947344,0.6371337572733561,-0.1747524738311767,1.6887549196372785e+18,121.2942783203125,-0.0735792915026346,-7.753543059031169,1.7667007446289062,1.6887549196459295e+18,121.3029296875,-2.3510568141937256,-9.3994935353597,1.5242292086283369,1.6887549196459295e+18,121.3029296875,-0.8205447296301523,0.4910847420493762,-1.0256427526474,1.688754919650248e+18,121.3072478841146,-0.9106473724047344,0.3703879565000534,-0.9876163999239604,,,,,,,,,,,,1.688754919638066e+18,121.29506591796874,18.063319396972656,43.729678344726565,7.837279796600342,1.688754919638066e+18,121.29506591796874,-236.46527404785155,137.04747924804687,-124.16671752929688,1.6887549196459295e+18,121.3029296875,0.2754047711690267,-0.4568218290805816,-0.6423856814702352,0.5501913825670878,-2.5929017861684165,1.2819260358810425,1.491626779238383
1.35,1.6887549196978348e+18,121.35483479817708,4.770096302032471,-3.514087994893392,-5.051758925120036,1.688754919689185e+18,121.34618505859376,1.5776677131652832,-12.54437255859375,-2.0496519804000854,1.6887549196978348e+18,121.35483479817708,-2.8112356662750244,-9.195631663004557,1.9378239313761392,1.6887549196978348e+18,121.35483479817708,-0.7992153763771057,-0.3304271797339121,-0.8210537930329641,1.688754919693511e+18,121.35051049804687,-0.8755226135253906,-0.632398247718811,-1.0446559488773346,1.6887549197108132e+18,121.36781323242188,0.0,0.0,2.4700958728790283,6.84499979019165,1.0717779397964478,270.8533630371094,333.29998779296875,-122.9161583,49.2790162,1.6887549196880635e+18,121.34506328125,20.039719772338863,43.00499877929688,6.131719875335693,1.6887549196880635e+18,121.34506328125,-234.48887634277344,136.3227966308594,-125.87227783203124,1.6887549196978348e+18,121.35483479817708,0.2554309169451395,-0.4821596940358479,-0.6420538226763407,0.5385042031606039,-2.557753245035807,1.2164329687754314,1.4408620198567708
1.4,1.6887549197497357e+18,121.40673559570313,1.009123166402181,-6.946312586466472,-6.6329193115234375,1.688754919741088e+18,121.39808813476562,-1.3238291442394257,-15.337394714355469,-5.041477998097737,1.6887549197497357e+18,121.40673559570313,-2.818958044052124,-9.185742378234863,1.974417249361674,1.6887549197497357e+18,121.40673559570313,0.4676173428694407,0.0607301692167917,0.2290235608816146,1.688754919736765e+18,121.39376464843753,0.0854702331125736,0.3851505294442177,0.0570649902025858,,,,,,,,,,,,1.6887549197380682e+18,121.39506806640624,21.054759979248047,42.260799407958984,4.770199966430664,1.6887549197380682e+18,121.39506806640624,-233.47383728027344,135.57859802246094,-127.23379821777344,1.6887549197497357e+18,121.40673559570313,0.2513158172369003,-0.4806093374888102,-0.6433883309364319,0.5402507185935974,-2.547824064890544,1.2132394711176555,1.4401917060216267
1.45,1.6887549197929928e+18,121.44999267578126,3.005521655082702,-6.654343605041504,-0.4480180740356445,1.6887549197929915e+18,121.44999161783852,0.2464607382814089,-15.93639850616455,0.8524430195490518,1.6887549197929928e+18,121.44999267578126,-2.2977083921432495,-9.413004875183104,1.5078635811805725,1.6887549197929928e+18,121.44999267578126,1.10375714302063,-0.4360050596296787,2.668870210647583,1.688754919788666e+18,121.44566585286458,1.0938560565312705,-0.4434881607691447,2.255772650241852,,,,,,,,,,,,1.6887549197880617e+18,121.44506166992188,19.244279861450195,42.531639099121094,6.4196398735046385,1.6887549197880617e+18,121.44506166992188,-235.28431396484376,135.8494384765625,-125.58435974121092,1.6887549197929928e+18,121.44999267578126,0.2840389162302017,-0.4640746712684631,-0.6346607208251953,0.5485931932926178,-2.578675866127014,1.287566065788269,1.4510896801948547
1.5,1.688754919836249e+18,121.49324934895832,-0.1067741115887959,-2.9679718017578125,2.3846425215403237,1.6887549198448947e+18,121.50189477539062,-1.4550355573495228,-12.941182454427084,3.4664023717244468,1.688754919836249e+18,121.49324934895832,-0.6875069650510945,-9.70884641011556,1.0994314352671306,1.688754919836249e+18,121.49324934895832,0.9031133453051248,0.5725843509038289,3.852879842122396,1.6887549198405747e+18,121.49757462565104,0.8595891992251078,0.6327545940876007,3.7873645623524985,,,,,,,,,,,,1.6887549198380687e+18,121.49506870117187,12.063359642028807,44.349439239501955,8.808399963378907,1.6887549198380687e+18,121.49506870117187,-242.465234375,137.667236328125,-123.19559783935549,1.688754919836249e+18,121.49324934895832,0.3280913333098093,-0.419610728820165,-0.5998356540997823,0.596414844195048,-2.0803415377934775,1.435243050257365,0.9630775451660156
1.55,1.6887549198881464e+18,121.54514624023436,-5.198732693990071,-6.521730422973633,4.101537783940633,1.688754919896804e+18,121.55380403645836,-4.493720928827922,-16.39322789510091,5.702893892923991,1.6887549198881464e+18,121.54514624023436,1.1418378750483196,-9.69566853841146,0.8076615730921427,1.6887549198881464e+18,121.54514624023436,0.3338887691497803,0.2796235779921213,3.712940772374471,1.6887549198924813e+18,121.5494814453125,0.2253074546655019,0.0455094675223033,3.7441967328389487,,,,,,,,,,,,1.6887549198880645e+18,121.54506459960938,4.523759913444519,45.05459823608398,10.104039764404297,1.6887549198880645e+18,121.54506459960938,-250.004833984375,138.37239685058594,-121.89995727539062,1.6887549198881464e+18,121.54514624023436,0.3626947502295176,-0.3675034542878468,-0.5546169479688009,0.6519786516825358,-0.6674747963746389,1.428424874941508,-0.4209561223785082
1.6,1.6887549199400548e+18,121.5970546875,-4.49075452486674,-4.572778701782227,4.906983216603597,1.6887549199487089e+18,121.60570882161458,1.1028920809427898,-13.065808614095053,5.204189817110698,1.6887549199400548e+18,121.5970546875,2.6617770989735923,-9.347709019978842,1.2736026048660278,1.6887549199400548e+18,121.5970546875,-0.3353141037126382,-4.717966874440511,3.0749429066975913,1.6887549199443845e+18,121.6013846842448,-0.3085378656784693,-4.86783242225647,3.072295904159546,,,,,,,,,,,,1.688754919938064e+18,121.59506391601562,-4.66040005683899,45.27663955688477,9.745359802246094,1.688754919938064e+18,121.59506391601562,-259.1890045166016,138.5944396972656,-122.25863800048828,1.6887549199400548e+18,121.5970546875,0.4196128149827321,-0.3806888659795125,-0.4678744971752167,0.6768484910329183,-0.4264336625734965,1.268980542818705,-0.7940781911214193
1.65,1.6887549199919636e+18,121.64896346028644,-0.251855452855428,-0.6058510144551595,-1.675237735112508,1.6887549200006106e+18,121.65761067708333,0.2987039635578791,-7.857032537460327,-0.1497508113582928,1.6887549199919636e+18,121.64896346028644,3.967247486114502,-8.819918950398764,1.5826400518417358,1.6887549199919636e+18,121.64896346028644,0.5318090915679932,0.2290744582811991,3.0424652099609375,1.6887549199962908e+18,121.65329077148438,0.627053161462148,0.4943935871124267,2.8975883324941,,,,,,,,,,,,1.6887549199880648e+18,121.64506489257812,-14.20567970275879,44.381158447265626,8.313079929351806,1.6887549199880648e+18,121.64506489257812,-268.73427124023436,137.69895935058594,-123.69091796875,1.6887549199919636e+18,121.64896346028644,0.484209010998408,-0.3865951200326283,-0.3850717345873515,0.6835785508155823,-0.3725344240665436,1.1219114065170288,-0.9949015776316324
1.7,1.688754920043868e+18,121.70086791992188,-12.751161257425943,9.706135272979736,-2.208526611328125,1.6887549200438682e+18,121.70086828613282,-9.197113037109377,1.4530415534973145,-0.3361915796995162,1.688754920043868e+18,121.70086791992188,4.816697279612224,-8.393914540608725,1.571761171023051,1.688754920043868e+18,121.70086791992188,0.319329818089803,-2.967736085255941,2.235105037689209,1.6887549200481969e+18,121.7051971028646,0.2209805101156234,-3.1370983918507895,2.338646650314331,,,,,,,,,,,,1.6887549200380667e+18,121.695066796875,-19.527319717407227,43.07087860107422,9.167079734802249,1.6887549200380667e+18,121.695066796875,-274.0559143066406,136.3886749267578,-122.8369155883789,1.688754920043868e+18,121.70086791992188,0.5266148646672567,-0.3732638458410899,-0.3384806712468465,0.6840105652809143,-0.3039413789908091,1.0295335054397583,-1.1396886905034382
1.75,1.688754920095773e+18,121.75277303059896,-5.467254002888997,10.818380991617838,-0.3551709651947021,1.6887549200871242e+18,121.74412418619792,-0.4636093856145938,3.4717862606048584,1.3397812843322754,1.688754920095773e+18,121.75277303059896,5.424917380015056,-7.80605951944987,2.412923256556193,1.688754920095773e+18,121.75277303059896,-0.0973821034034093,-2.28158171971639,1.219490682085355,1.688754920100096e+18,121.75709619140626,-0.0226529240608214,-2.156150738398234,0.9093746940294904,,,,,,,,,,,,1.6887549200880645e+18,121.74506416015625,-26.24951934814453,41.20671844482422,5.6266398429870605,1.6887549200880645e+18,121.74506416015625,-280.7781188964844,134.52451782226564,-126.37735748291016,1.688754920095773e+18,121.75277303059896,0.5678491393725077,-0.3951904376347859,-0.2580590099096297,0.6741451223691305,-0.4081468184789021,0.9223496516545614,-1.1952589750289917
1.8,1.688754920147677e+18,121.80467683919272,-0.9931703408559164,5.2834092775980634,-0.038352092107137,1.6887549201390277e+18,121.7960274251302,3.0747770071029663,-1.8225332200527191,2.828914483388265,1.688754920147677e+18,121.80467683919272,4.969180583953857,-8.064111391703287,2.528008778889974,1.688754920147677e+18,121.80467683919272,1.3239995042483013,-0.3686571617921193,-1.9156224727630615,1.688754920143354e+18,121.80035388183596,1.2302826344966888,-0.4697553664445876,-1.6688838601112366,,,,,,,,,,,,1.6887549201380623e+18,121.79506235351562,-25.798119354248048,41.44095993041992,4.257799959182739,1.6887549201380623e+18,121.79506235351562,-280.32672119140625,134.75875854492188,-127.74619750976562,1.688754920147677e+18,121.80467683919272,0.5783026417096456,-0.4233682453632355,-0.2578982313474019,0.6476787527402242,-0.4569203356901803,0.9684343139330546,-1.2145392894744873
1.85,1.688754920199583e+18,121.8565831705729,6.981122255325317,-6.80494737625122,1.9154884020487468,1.688754920190932e+18,121.84793196614582,11.528220812479654,-11.07517989476522,2.9475586811701455,1.688754920199583e+18,121.8565831705729,3.9103449980417886,-8.755023320515951,2.059512972831726,1.688754920199583e+18,121.8565831705729,0.4448626240094502,-0.7534513970216113,-1.689449628194173,1.6887549201866028e+18,121.84360270182292,1.0829622919360795,-0.070300410191218,-2.6619470914204917,,,,,,,,,,,,1.6887549201880658e+18,121.8450658203125,-19.556599807739257,43.69552001953125,6.553839874267578,1.6887549201880658e+18,121.8450658203125,-274.0851989746094,137.01331787109376,-125.45015716552734,1.688754920199583e+18,121.8565831705729,0.5722277561823527,-0.4535038570562998,-0.3069812258084615,0.6103295087814331,-0.4687438209851582,1.1058191855748494,-1.2135261297225952
1.9,1.6887549202428372e+18,121.89983728027345,7.880971431732178,-12.844810485839844,1.1237449645996094,1.6887549202428283e+18,121.89982853190104,10.644272168477375,-21.216959317525227,4.866403102874756,1.6887549202428372e+18,121.89983728027345,3.912191510200501,-8.622540950775146,2.562522530555725,1.6887549202428372e+18,121.89983728027345,0.2028836160898208,-3.946189522743225,1.9609537720680237,1.688754920238513e+18,121.8955128580729,0.011911854147911,-3.5032613277435303,1.6432275374730427,,,,,,,,,,,,1.6887549202380657e+18,121.89506572265626,-18.726999473571777,44.90087966918945,5.304559755325317,1.6887549202380657e+18,121.89506572265626,-273.2555908203125,138.21867980957032,-126.6994369506836,1.6887549202428372e+18,121.89983728027345,0.5941839814186096,-0.4799120128154754,-0.262587733566761,0.589411586523056,-0.5640749931335449,1.0761049389839172,-1.2363762855529783
1.95,1.688754920286088e+18,121.9430878092448,-1.0491016705830891,-3.5720532735188804,6.439347664515178,1.6887549202947425e+18,121.95174235026042,0.8097709019978842,-12.051849842071531,8.169296006361643,1.688754920286088e+18,121.9430878092448,3.979049444198608,-8.565183321634928,2.651906887690226,1.688754920286088e+18,121.9430878092448,0.6397795379161835,-0.5681556264559428,0.2294817169507344,1.688754920290418e+18,121.94741796875,0.5441282192866007,-0.3032946387926738,0.1753183305263519,,,,,,,,,,,,1.6887549202880689e+18,121.94506865234376,-21.684278869628905,44.70568008422852,3.5233599185943603,1.6887549202880689e+18,121.94506865234376,-276.21287231445314,138.02347717285156,-128.4806335449219,1.688754920286088e+18,121.9430878092448,0.6174659530321757,-0.4891543885072072,-0.2373936573664346,0.5683934887250265,-0.5714894731839498,1.0632882912953694,-1.3113608757654829
2.0,1.6887549203379963e+18,121.99499658203126,-6.7209451993306475,4.761607011159261,-2.9059595664342246,1.6887549203466473e+18,122.00364721679688,-1.725025733311971,-4.035295883814494,-0.3016950686772663,1.6887549203379963e+18,121.99499658203126,3.874818722407023,-8.724961598714193,2.234896938006083,1.6887549203379963e+18,121.99499658203126,0.6131050836605331,1.9875518878300984,-1.2945253004630406,1.688754920342322e+18,121.99932185872396,0.7143051127592722,2.1991148789723716,-1.5934419731299083,,,,,,,,,,,,1.6887549203380687e+18,121.99506860351562,-21.645239639282227,44.92771911621094,5.06299991607666,1.6887549203380687e+18,121.99506860351562,-276.1738342285156,138.24551696777343,-126.9409957885742,1.6887549203379963e+18,121.99499658203126,0.6083786487579346,-0.4775841832160949,-0.2694053798913955,0.5733292897542318,-0.5038271248340607,1.098411480585734,-1.3179858922958374
2.05,1.6887549203898982e+18,122.04689827473958,-5.823650519053142,-0.0965223312377929,1.069380243619283,1.68875492039855e+18,122.05554996744792,-4.930012325445811,-9.65105120340983,2.6777679920196533,1.6887549203898982e+18,122.04689827473958,2.637543718020121,-9.3434050877889,1.276308298110962,1.6887549203898982e+18,122.04689827473958,0.3322597841421763,4.515515963236491,-4.198731342951457,1.6887549203942277e+18,122.05122786458332,0.1864157120386759,4.5908559163411455,-4.340859413146973,,,,,,,,,,,,1.688754920388064e+18,122.04506411132812,-14.474079704284668,47.17495956420898,8.964559841156007,1.688754920388064e+18,122.04506411132812,-269.00267333984374,140.4927551269531,-123.03943634033205,1.6887549203898982e+18,122.04689827473958,0.547706147034963,-0.4659543832143147,-0.3825716873009999,0.5781853397687277,-0.4265168805917104,1.2693281173706057,-1.1981877088546753
2.1,1.6887549204418028e+18,122.098802734375,-8.402894814809164,0.8503344853719076,-0.6145691275596619,1.688754920450457e+18,122.1074571940104,-7.292725245157878,-9.612167676289875,0.3513461351394653,1.6887549204418028e+18,122.098802734375,0.7286504010359446,-9.690062204996744,1.2665380636850994,1.6887549204418028e+18,122.098802734375,-1.404684603214264,2.9107219775517783,-3.430415630340576,1.688754920446133e+18,122.1031328938802,-1.5240578452746074,2.644028425216675,-3.1699325243631997,,,,,,,,,,,,1.688754920438066e+18,122.09506586914064,-1.7567999839782715,49.10988006591797,9.698999786376952,1.688754920438066e+18,122.09506586914064,-256.2853973388672,142.42767639160155,-122.30499725341797,1.6887549204418028e+18,122.098802734375,0.4410021503766377,-0.4720877011617024,-0.489823579788208,0.5845281879107157,-1.0340312520662944,1.4216843446095784,-0.3748502222200234
2.15,1.6887549204937114e+18,122.15071142578124,1.3082318305969238,-1.9837500254313152,-3.673133770624797,1.6887549204937006e+18,122.15070068359375,2.2328027486801147,-11.562716960906982,-2.1254247426986694,1.6887549204937114e+18,122.15071142578124,-0.3013157074650128,-9.6137056350708,1.906357804934184,1.6887549204937114e+18,122.15071142578124,-0.7693338779111704,-0.2277509321769078,-1.9159279664357505,1.688754920498033e+18,122.1550331217448,-0.5751296281814575,-0.2382374396547674,-2.0035362243652344,,,,,,,,,,,,1.6887549204880594e+18,122.14505942382814,5.69007978439331,49.612519073486325,6.1512397766113285,1.6887549204880594e+18,122.14505942382814,-248.83851318359376,142.93031311035156,-125.8527572631836,1.6887549204937114e+18,122.15071142578124,0.3824225763479869,-0.4999975860118866,-0.5153893232345581,0.5812914570172628,-1.7299425601959229,1.3778317769368489,0.3748270869255066
2.2,1.688754920545613e+18,122.20261295572918,2.9636979500452676,1.0530088742574055,-2.3351287047068277,1.6887549205369644e+18,122.1939645996094,2.4799612760543823,-8.945567607879639,-0.7276174699266752,1.688754920545613e+18,122.20261295572918,-1.2879879077275591,-9.554750442504885,1.8030492464701335,1.688754920545613e+18,122.20261295572918,0.6509278416633606,1.7871881127357483,-1.878563364346822,1.6887549205499405e+18,122.20694051106771,0.688903292020162,1.9541069666544597,-1.7599536577860515,,,,,,,,,,,,1.688754920538067e+18,122.195066796875,10.726239776611328,48.91223983764648,5.265520095825195,1.688754920538067e+18,122.195066796875,-243.80235900878907,142.23003540039062,-126.7384765625,1.688754920545613e+18,122.20261295572918,0.34810138742129,-0.5052171647548676,-0.5573745171229044,0.5590451757113138,-2.2104682127634683,1.3470775286356609,0.9052529136339824
2.25,1.688754920597519e+18,122.25451888020832,1.37521489461263,2.573063055674235,-1.6670475403467817,1.6887549205888714e+18,122.24587141927084,-0.2418744812409083,-6.8929243087768555,0.0077766704683502,1.688754920597519e+18,122.25451888020832,-1.7834539810816448,-9.508702278137209,1.6189164717992146,1.688754920597519e+18,122.25451888020832,0.4532620211442311,1.62047278881073,-1.2650001049041748,1.6887549205931914e+18,122.2501915283203,0.5607742816209793,1.8011361956596377,-1.2760974764823914,,,,,,,,,,,,1.6887549205880676e+18,122.24506752929688,16.077159881591797,47.81911849975586,5.309439849853516,1.6887549205880676e+18,122.24506752929688,-238.45143432617184,141.1369171142578,-126.6945587158203,1.688754920597519e+18,122.25451888020832,0.3100531001885732,-0.4769669075806935,-0.6034328738848368,0.5586101611455282,-2.426389137903849,1.3253990014394124,1.2357832590738933
2.3,1.6887549206494262e+18,122.30642626953124,2.246237595876058,-0.3428599039713542,-0.8071935971577963,1.688754920640773e+18,122.29777303059898,-0.1904287909468014,-9.2566343943278,0.8017949809630712,1.6887549206494262e+18,122.30642626953124,-2.282193342844645,-9.386000951131184,1.7042274872461955,1.6887549206494262e+18,122.30642626953124,-0.2654209434986114,0.3793982267379761,-1.2151637077331543,1.6887549206364516e+18,122.29345166015624,-0.1808670189542074,0.5751805305480957,-1.144914150238037,,,,,,,,,,,,1.6887549206380692e+18,122.29506928710938,19.210119247436523,47.24815902709961,4.448119831085205,1.6887549206380692e+18,122.29506928710938,-235.31847229003907,140.56595458984376,-127.55587768554688,1.6887549206494262e+18,122.30642626953124,0.2832445502281189,-0.4748986363410949,-0.6258747776349386,0.5499502023061117,-2.5196011861165366,1.278152306874593,1.3742204507191975
2.35,1.688754920692675e+18,122.3496749267578,4.189189314842224,-1.1259713172912598,-1.9327154159545896,1.6887549206926764e+18,122.34967635091144,1.1531410769869883,-10.659825642903646,-0.3992025752862294,1.688754920692675e+18,122.3496749267578,-2.806599974632263,-9.214455127716064,1.8547737598419187,1.688754920692675e+18,122.3496749267578,-0.5100724697113037,-0.0399353152606635,-1.360625982284546,1.6887549206883553e+18,122.34535530598956,-0.4781038661797841,0.0329358180363973,-1.333976984024048,,,,,,,,,,,,1.688754920688064e+18,122.34506381835936,22.074679565429687,46.46247863769531,3.3671998977661133,1.688754920688064e+18,122.34506381835936,-232.45391540527345,139.7802764892578,-128.63680114746094,1.688754920692675e+18,122.3496749267578,0.2641201168298721,-0.4863769710063934,-0.6383336782455444,0.5349532961845398,-2.575050592422486,1.2223684787750244,1.436915934085846
2.4,1.6887549207359352e+18,122.39293513997396,2.568936824798584,-6.168515205383301,-6.4491071701049805,1.6887549207445844e+18,122.40158447265624,-0.333998143672943,-16.245272000630695,-4.4741794268290205,1.6887549207359352e+18,122.39293513997396,-2.9107750256856284,-9.14419682820638,2.035869280497233,1.6887549207359352e+18,122.39293513997396,-0.2877175311247508,-0.1309796919425328,0.0875064507126808,1.688754920740263e+18,122.39726310221351,-0.1621338129043579,-0.1575014193852742,0.1178460894152522,1.688754920748913e+18,122.40591284179688,0.0,0.0,2.4805033206939697,6.813000202178955,1.121698975563049,272.9886169433594,333.29998779296875,-122.9161843,49.2790194,1.6887549207380628e+18,122.39506293945313,23.24343948364258,46.347798919677736,1.97883996963501,1.6887549207380628e+18,122.39506293945313,-231.2851531982422,139.66559448242188,-130.02515869140626,1.6887549207359352e+18,122.39293513997396,0.2553955018520355,-0.4936029414335887,-0.6368591785430908,0.5343471566836039,-2.54610546429952,1.2019359668095906,1.4081756273905437
2.45,1.688754920787839e+18,122.44483878580728,4.105635325113933,-6.057657241821289,-1.4508816401163738,1.688754920796487e+18,122.45348665364584,1.6047863562901814,-14.78425407409668,1.7585252324740093,1.688754920787839e+18,122.44483878580728,-2.551560401916504,-9.312482833862305,1.694475531578064,1.688754920787839e+18,122.44483878580728,1.192816197872162,0.7639378805955251,1.6275995280593634,1.688754920792165e+18,122.44916503906248,1.211243987083435,0.8589274485905966,1.990911602973938,,,,,,,,,,,,1.6887549207880684e+18,122.445068359375,21.811159515380854,47.06515960693359,3.1963999271392822,1.6887549207880684e+18,122.445068359375,-232.71743774414065,140.38296203613282,-128.80759887695314,1.688754920787839e+18,122.44483878580728,0.2698337733745575,-0.4713744521141052,-0.6390872399012247,0.5442067782084147,-2.5691185792287192,1.2543562253316245,1.449870228767395
2.5,1.6887549208397366e+18,122.49673649088544,-1.497297962506612,-2.946326573689779,1.69763445854187,1.6887549208483955e+18,122.50539550781248,-3.1784660816192627,-13.182259241739908,2.7148567040761313,1.6887549208397366e+18,122.49673649088544,-0.76657501856486,-9.682037035624186,1.2731791337331135,1.6887549208397366e+18,122.49673649088544,0.772948145866394,0.2520328064759572,3.891313393910726,1.6887549208440717e+18,122.50107161458334,0.7397578159968058,0.1426879360030094,3.829310655593872,,,,,,,,,,,,1.6887549208380662e+18,122.49506616210938,13.236999893188475,49.82967834472656,5.477799892425537,1.6887549208380662e+18,122.49506616210938,-241.29159851074215,143.14747619628906,-126.5261978149414,1.6887549208397366e+18,122.49673649088544,0.3097843329111734,-0.4148433307806651,-0.6062469681104025,0.6030390659968058,-2.0766722758611045,1.416517337163289,0.9969802101453146
2.55,1.6887549208916493e+18,122.54864916992187,-3.286184390385946,-6.69618574778239,3.87381378809611,1.6887549209002967e+18,122.55729679361978,-1.6869399348894756,-16.32822322845459,5.646862188975017,1.6887549208916493e+18,122.54864916992187,0.9896093904972076,-9.68871053059896,1.0674890677134197,1.6887549208916493e+18,122.54864916992187,0.1422297855218251,-0.5590944190820059,3.634800910949707,1.6887549208959736e+18,122.5529736328125,0.0447458823521931,-0.6628396908442179,3.716962337493897,,,,,,,,,,,,1.6887549208880627e+18,122.54506264648435,3.967439962923527,51.19851913452148,7.005239868164063,1.6887549208880627e+18,122.54506264648435,-250.56115112304687,144.51632080078124,-124.99875946044922,1.6887549208916493e+18,122.54864916992187,0.3552551666895548,-0.3810246487458547,-0.5520831147829691,0.6504908204078674,-0.8656018575032552,1.4218173424402871,-0.2331728339195251
2.6,1.6887549209435546e+18,122.6005546061198,-0.7267441749572754,-4.631218592325847,4.339438199996948,1.6887549209435494e+18,122.60054943847656,1.7150556445121763,-13.786247730255129,6.5512495040893555,1.6887549209435546e+18,122.6005546061198,2.7936808268229165,-9.275909105936687,1.47165580590566,1.6887549209435546e+18,122.6005546061198,-0.4972443034251531,-1.9321667750676472,3.66814390818278,1.6887549209478807e+18,122.60488077799478,-0.4183408891161282,-1.8476637601852417,3.52443790435791,,,,,,,,,,,,1.688754920938066e+18,122.59506591796874,-6.4196398735046385,51.07163925170899,6.861279773712158,1.688754920938066e+18,122.59506591796874,-260.94822998046874,144.38943786621093,-125.14271697998046,1.6887549209435546e+18,122.6005546061198,0.4040202995141347,-0.3756480813026428,-0.4652551611264546,0.6916284561157227,-0.4736183981100718,1.2464438279469807,-0.7125434676806132
2.65,1.6887549209954522e+18,122.65245198567708,-5.487038850784302,-0.0953555107116699,-1.1328806082407634,1.6887549209868045e+18,122.6438045247396,-0.9160523414611816,-10.342975616455078,0.5595216751098633,1.6887549209954522e+18,122.65245198567708,3.9497861862182617,-8.86002508799235,1.4362950722376506,1.6887549209954522e+18,122.65245198567708,1.033329466978709,-0.4649702742074928,2.1230112314224243,1.6887549209997855e+18,122.6567859700521,1.1088731686274211,-0.5612324575583141,2.1035144329071045,,,,,,,,,,,,1.6887549209880684e+18,122.64506816406252,-14.578999519348145,49.95655822753906,7.005239868164063,1.6887549209880684e+18,122.64506816406252,-269.1075927734375,143.27435913085938,-124.9987564086914,1.6887549209954522e+18,122.65245198567708,0.4455770154794057,-0.3586984872817993,-0.4125927885373433,0.7087279160817465,-0.3390965461730957,1.130165179570516,-0.9053581158320108
2.7,1.6887549210473644e+18,122.70436442057292,-11.64710553487142,9.063437143961588,-3.6571707725524902,1.6887549210387136e+18,122.69571346028648,-6.965506871541341,-0.6538388331731161,-1.6833507418632507,1.6887549210473644e+18,122.70436442057292,4.845045407613118,-8.385912577311197,1.5081414381663003,1.6887549210473644e+18,122.70436442057292,0.5674428939819336,-3.294752518335978,3.022510290145874,1.6887549210430408e+18,122.70004077148435,0.7102072238922119,-3.5099552869796753,3.100064754486084,,,,,,,,,,,,1.688754921038064e+18,122.6950638183594,-21.076719665527342,47.51899948120117,9.149999809265136,1.688754921038064e+18,122.6950638183594,-275.6053161621094,140.83680114746093,-122.85399780273436,1.6887549210473644e+18,122.70436442057292,0.5087954898675283,-0.3606532017389933,-0.3494324684143066,0.6984440883000692,-0.292039006948471,1.0278142889340718,-1.0934815406799316
2.75,1.6887549210992694e+18,122.75626936848958,-4.173071066538493,10.612491289774576,0.3417048454284667,1.6887549210906191e+18,122.7476189778646,0.4765705267588297,3.4079777002334595,1.696511189142863,1.6887549210992694e+18,122.75626936848958,5.451971371968587,-7.839651425679524,2.241670767466227,1.6887549210992694e+18,122.75626936848958,0.2054034322500229,-2.186083118120829,0.646906316280365,1.688754921086294e+18,122.74329394531247,-0.011962778866291,-2.584825356801351,1.6401731967926023,,,,,,,,,,,,1.6887549210880689e+18,122.74506870117187,-28.81151924133301,44.46411972045898,6.666079807281494,1.6887549210880689e+18,122.74506870117187,-283.3401123046875,137.78191528320312,-125.33791809082032,1.6887549210992694e+18,122.75626936848958,0.5527528325716654,-0.3826835056145986,-0.2738267183303832,0.6876074473063151,-0.3816815217336018,0.9270365039507548,-1.1617261171340942
2.8,1.6887549211425272e+18,122.79952722167972,-1.885352611541748,6.803702354431152,-0.0482635498046875,1.6887549211425167e+18,122.79951668294272,3.514059543609619,-1.481356660525004,2.2093729178110757,1.6887549211425272e+18,122.79952722167972,4.9752209186553955,-8.132160663604736,2.303323984146118,1.6887549211425272e+18,122.79952722167972,1.4306464195251467,-0.8859836757183074,-2.015244424343109,1.6887549211381988e+18,122.79519897460938,1.3207924763361614,-1.0317005117734273,-1.7996090253194172,,,,,,,,,,,,1.688754921138066e+18,122.79506591796876,-30.36335983276367,44.320159149169925,5.155719852447509,1.688754921138066e+18,122.79506591796876,-284.89195556640624,137.63795471191406,-126.84827728271485,1.6887549211425272e+18,122.79952722167972,0.565553218126297,-0.4109545052051544,-0.2769672274589538,0.6590978503227234,-0.4219037145376205,0.9791988730430604,-1.1911439895629885
2.85,1.6887549211857777e+18,122.84277758789062,8.971302350362143,-0.6361319224039713,-0.0225138664245606,1.6887549211944256e+18,122.8514258626302,12.39462184906006,-14.267404397328695,3.192424158255259,1.6887549211857777e+18,122.84277758789062,4.009697198867798,-8.744573275248209,1.891432523727417,1.6887549211857777e+18,122.84277758789062,1.0025316526492436,-0.5293656488259634,-2.297158757845561,1.6887549211900997e+18,122.847099609375,0.7887288530667623,-0.6097962260246277,-1.937460978825887,,,,,,,,,,,,1.688754921188064e+18,122.84506391601562,-23.04579963684082,47.26035766601562,7.864119911193848,1.688754921188064e+18,122.84506391601562,-277.57440185546875,140.57815551757812,-124.13987884521484,1.6887549211857777e+18,122.84277758789062,0.5677053729693095,-0.4410857955614726,-0.3163967331250508,0.618664542833964,-0.4271210531393687,1.1029914220174153,-1.219473123550415
2.9,1.6887549212376837e+18,122.8946836751302,5.39576268196106,-11.492087682088217,3.1209474404652915,1.6887549212463296e+18,122.90332950846351,10.820942242940268,-15.957135677337646,6.494120677312215,1.6887549212376837e+18,122.8946836751302,3.9652949968973794,-8.631792704264322,2.4337156613667807,1.6887549212376837e+18,122.8946836751302,-0.0157297855863968,-4.101705551147461,2.0056233406066895,1.6887549212420096e+18,122.89900984700522,0.1431969950596491,-4.096716960271199,1.9813414812088013,,,,,,,,,,,,1.6887549212380646e+18,122.89506484375,-25.77127914428711,46.39415893554688,5.1044799327850345,1.6887549212380646e+18,122.89506484375,-280.29987182617185,139.7119567871094,-126.89951934814454,1.6887549212376837e+18,122.8946836751302,0.5947679678599039,-0.4735881984233856,-0.2675473242998122,0.5908642609914144,-0.5356110135714213,1.0774523417154949,-1.252469023068746
2.95,1.6887549212895864e+18,122.94658626302083,-6.576492468516032,-3.811398983001709,7.886279026667277,1.6887549212982385e+18,122.95523844401042,-2.9078776041666665,-14.056038538614908,7.893523057301839,1.6887549212895864e+18,122.94658626302083,4.097265402475993,-8.534612019856771,2.5668906370798745,1.6887549212895864e+18,122.94658626302083,0.6167193551858267,0.314290165901184,0.0577776730060577,1.688754921293909e+18,122.95090901692708,0.5540547867616018,0.523206094900767,0.0397062394768,,,,,,,,,,,,1.6887549212880627e+18,122.94506269531249,-28.513839721679688,44.966758728027344,4.309039974212647,1.6887549212880627e+18,122.94506269531249,-283.042431640625,138.28456115722656,-127.69495697021485,1.6887549212895864e+18,122.94658626302083,0.6249828735987345,-0.4844013849894205,-0.2341714402039845,0.5655338764190674,-0.5447953542073568,1.056005557378133,-1.347637375195821
3.0,1.68875492134149e+18,122.99848990885418,-2.152094999949137,2.106130599975586,-4.69560166200002,1.68875492135014e+18,123.00713972981772,-0.0368893345197041,-6.26421046257019,-1.0237292846043904,1.68875492134149e+18,122.99848990885418,3.9628001848856607,-8.725917180379232,2.072394847869873,1.68875492134149e+18,122.99848990885418,0.6219626267751058,1.6677639484405518,-1.4242831977705162,1.6887549213458153e+18,123.00281542968747,0.6594290335973104,2.0808106064796448,-1.7220291296641033,,,,,,,,,,,,1.6887549213380654e+18,122.99506538085936,-27.53783950805664,44.74715881347656,7.578639698028565,1.6887549213380654e+18,122.99506538085936,-282.0664367675781,138.06495971679686,-124.42535858154297,1.68875492134149e+18,122.99848990885418,0.6193504532178243,-0.4740542868773142,-0.2675073146820068,0.565409243106842,-0.4657533268133799,1.0975982348124187,-1.3739662567774455
3.05,1.688754921393396e+18,123.05039615885416,-8.398476441701254,0.3811572392781575,0.9730061690012614,1.6887549213933975e+18,123.0503975830078,-6.438786506652832,-8.973982334136963,2.2190438508987427,1.688754921393396e+18,123.05039615885416,2.8121692339579263,-9.318392435709637,1.0849454800287883,1.688754921393396e+18,123.05039615885416,0.228310892979304,4.7704503536224365,-3.858530282974243,1.688754921397724e+18,123.05472379557293,0.0733038236697514,4.5881578127543134,-4.010584910710652,,,,,,,,,,,,1.6887549213880622e+18,123.0450623046875,-19.166199684143063,47.28231964111328,12.746559715270996,1.6887549213880622e+18,123.0450623046875,-273.6947937011719,140.6001190185547,-119.25743713378908,1.688754921393396e+18,123.05039615885416,0.5561449527740479,-0.4564185241858164,-0.3826100826263428,0.5779820680618286,-0.3449465334415436,1.2590545813242595,-1.2788185278574626
3.1,1.688754921445299e+18,123.102298828125,-5.346975008646647,-0.1185878117879231,-1.5325998763243358,1.6887549214366515e+18,123.09365169270832,-4.224328994750977,-9.073383967081703,0.2149552206198374,1.688754921445299e+18,123.102298828125,0.8655535380045573,-9.682257016499838,1.2238505283991497,1.688754921445299e+18,123.102298828125,-1.6700546741485596,3.087618350982666,-3.753614266713461,1.6887549214496248e+18,123.10662508138022,-1.6993762254714966,3.0241901874542236,-3.549636125564575,,,,,,,,,,,,1.688754921438063e+18,123.09506313476564,-5.324079895019532,49.92239837646484,13.91531982421875,1.688754921438063e+18,123.09506313476564,-259.85267944335936,143.24019775390624,-118.08867797851562,1.688754921445299e+18,123.102298828125,0.4521776934464772,-0.4738072057565053,-0.4806189437707265,0.5820252497990926,-0.9496179421742758,1.414885640144348,-0.4839726326366265
3.15,1.688754921497207e+18,123.1542071126302,0.0587931623061498,-2.2589187622070312,-3.2853355407714844,1.688754921488553e+18,123.14555289713542,-2.53399920463562,-12.339387575785318,-1.7954145868619282,1.688754921497207e+18,123.1542071126302,-0.2748088290294011,-9.646612803141275,1.7406933705012004,1.688754921497207e+18,123.1542071126302,-0.5221879755457243,-0.1066978176434834,-1.897703766822815,1.688754921492883e+18,123.14988293457031,-0.6650795191526413,0.0633772909641265,-1.7867044806480408,,,,,,,,,,,,1.688754921488064e+18,123.14506386718752,3.7136799812316896,50.89107894897461,10.355359840393067,1.688754921488064e+18,123.14506386718752,-250.8149169921875,144.20887756347656,-121.64863891601564,1.688754921497207e+18,123.1542071126302,0.3844089905420939,-0.4924475948015849,-0.5211550196011862,0.5813077092170715,-1.7278014024098711,1.393815239270528,0.3839858621358871
3.2,1.688754921549108e+18,123.20610774739583,3.68096911907196,2.2401955922444663,-1.7295799652735393,1.6887549215404557e+18,123.19745589192708,3.765106568733851,-7.95274543762207,-0.0414755990107854,1.688754921549108e+18,123.20610774739583,-1.1639824310938518,-9.611727078755695,1.5685874223709106,1.688754921549108e+18,123.20610774739583,0.7657704750696818,2.0680333971977234,-1.830050468444824,1.6887549215361372e+18,123.19313712565103,0.6179410914580027,0.8787805835405985,-1.9637790123621623,,,,,,,,,,,,1.6887549215380636e+18,123.19506352539062,8.576599884033204,50.37379913330078,10.206519889831544,1.6887549215380636e+18,123.19506352539062,-245.95199584960935,143.69159545898438,-121.79747772216795,1.688754921549108e+18,123.20610774739583,0.3593140244483948,-0.4977038304011027,-0.5581623315811157,0.557760496934255,-2.2253332138061523,1.3734732866287231,0.9155137340227762
3.25,1.6887549215923663e+18,123.2493663330078,0.5283336043357849,3.123657703399658,-0.7365060448646545,1.688754921592365e+18,123.2493653157552,-1.3048859635988872,-6.600401878356934,0.6386842528978983,1.6887549215923663e+18,123.2493663330078,-1.6187264919281006,-9.563783168792725,1.4622536897659302,1.6887549215923663e+18,123.2493663330078,0.4419610053300857,2.5388323068618774,-1.5487724542617798,1.6887549215880364e+18,123.2450361328125,0.4786129146814346,2.661489049593607,-1.5696691672007244,,,,,,,,,,,,1.6887549215880668e+18,123.24506694335938,15.06455955505371,49.07327880859375,10.31875991821289,1.6887549215880668e+18,123.24506694335938,-239.4640380859375,142.39107360839844,-121.68523559570312,1.6887549215923663e+18,123.2493663330078,0.3148580938577651,-0.4656618982553481,-0.605134904384613,0.5636364221572876,-2.4264732599258423,1.3489434719085691,1.248892605304718
3.3,1.6887549216356175e+18,123.2926173502604,1.2139707803726196,0.8682875633239746,-0.5527316133181254,1.6887549216442675e+18,123.30126757812502,-0.4807579318682353,-9.204989274342855,1.3116656144460042,1.6887549216356175e+18,123.2926173502604,-2.2678731282552085,-9.412700970967611,1.5640227794647217,1.6887549216356175e+18,123.2926173502604,-0.306807075937589,0.1230893457929293,-1.6475544770558674,1.68875492163995e+18,123.29695003255208,-0.3356195539236069,-0.0394517108798026,-1.622814416885376,,,,,,,,,,,,1.688754921638064e+18,123.29506391601562,20.061679458618165,47.35307922363281,9.093879890441894,1.688754921638064e+18,123.29506391601562,-234.4669158935547,140.67088012695314,-122.91011657714844,1.6887549216356175e+18,123.2926173502604,0.28499702612559,-0.4673860371112823,-0.6307042638460795,0.5499213933944702,-2.5530101458231607,1.287614107131958,1.4182545741399128
3.35,1.6887549216875254e+18,123.34452555338542,7.14299472173055,-2.589442253112793,-2.48949126402537,1.688754921696176e+18,123.35317610677085,3.6556349247694016,-12.411969820658364,-1.8542380730311077,1.6887549216875254e+18,123.34452555338542,-2.9508329232533774,-9.191662470499676,1.7372721433639526,1.6887549216875254e+18,123.34452555338542,-0.6155994633833567,0.1101084450880686,-0.9796751389900844,1.6887549216918518e+18,123.34885188802085,-0.6410012642542521,0.3315980335076649,-0.7761042614777883,,,,,,,,,,,,1.6887549216880704e+18,123.3450703125,23.64603958129883,46.172119140625,8.259399700164796,1.6887549216880704e+18,123.3450703125,-230.8825531005859,139.4899169921875,-123.74459838867188,1.6887549216875254e+18,123.34452555338542,0.2674992581208547,-0.4892791012922922,-0.6416531006495158,0.5265546441078186,-2.6245344479878745,1.2155055205027263,1.4748656749725342
3.4,1.6887549217394317e+18,123.396431640625,-0.6261560122172037,-7.341638565063477,-7.755495389302571,1.6887549217480753e+18,123.4050751139323,-3.221736272176107,-16.841882069905598,-5.314459005991618,1.6887549217394317e+18,123.396431640625,-2.7723137537638345,-9.196000099182127,1.9943010807037351,1.6887549217394317e+18,123.396431640625,0.1673770695924758,0.4146247804164886,0.3342959955334663,1.6887549217437532e+18,123.40075309244791,0.321925977865855,0.189673651009798,0.2858340359913806,,,,,,,,,,,,1.6887549217380613e+18,123.39506152343748,24.17307929992676,46.38684005737305,5.804759979248047,1.6887549217380613e+18,123.39506152343748,-230.3555114746094,139.704638671875,-126.19923706054688,1.6887549217394317e+18,123.396431640625,0.2524306277434031,-0.481402039527893,-0.6404773394266764,0.5424948732058207,-2.5305325984954834,1.2166916926701865,1.4200645287831624
3.45,1.6887549217913344e+18,123.44833455403646,3.0127333799997964,-4.848650614420573,-0.9169763127962748,1.688754921799986e+18,123.45698583984375,0.5110670328140259,-13.250055948893229,1.8681962490081787,1.6887549217913344e+18,123.44833455403646,-2.291959047317505,-9.418198585510252,1.448107639948527,1.6887549217913344e+18,123.44833455403646,1.056135098139445,-0.4114686548709869,2.322916825612386,1.6887549217956585e+18,123.45265836588544,0.9985610246658326,-0.3508402779698372,2.686330795288086,1.6887549217870118e+18,123.44401171875,0.0,0.0,2.490079164505005,6.877999782562256,1.1702831983566284,274.6612854003906,333.29998779296875,-122.9162109,49.2790224,1.6887549217880663e+18,123.44506616210938,22.172279357910156,47.46775894165039,8.115439796447754,1.6887549217880663e+18,123.44506616210938,-232.35631408691407,140.78555603027343,-123.88855743408205,1.6887549217913344e+18,123.44833455403646,0.287015934785207,-0.4635521074136098,-0.6342334151268005,0.547726054986318,-2.5869259039560952,1.2916174332300825,1.4553935130437214
3.5,1.688754921843239e+18,123.50023868815104,-1.6965076526006062,-3.095736503601074,2.6124225854873657,1.6887549218432402e+18,123.50024011230472,-2.136491596698761,-12.607483386993408,3.464208960533142,1.688754921843239e+18,123.50023868815104,-0.3986713389555613,-9.721660296122232,1.1424392859141033,1.688754921843239e+18,123.50023868815104,0.3737477163473764,-0.4295400778452555,3.9418625831604,1.6887549218475697e+18,123.50456990559898,0.3516547580560047,-0.4299473216136296,3.833739360173543,,,,,,,,,,,,1.688754921838063e+18,123.49506298828123,12.404959678649902,50.51043853759766,9.515999794006348,1.688754921838063e+18,123.49506298828123,-242.1236328125,143.82823791503907,-122.48799591064451,1.688754921843239e+18,123.50023868815104,0.3434705734252929,-0.4261327087879181,-0.5821443994839987,0.6007009347279867,-1.863507350285848,1.4417407512664795,0.709866464138031
3.55,1.6887549218951406e+18,123.55214078776042,-3.767385641733805,-6.1097822189331055,5.413448810577393,1.688754921886491e+18,123.54349080403648,-2.597807844479879,-16.065211296081543,6.053243160247803,1.6887549218951406e+18,123.55214078776042,1.2957359552383425,-9.66015879313151,1.0171869397163391,1.6887549218951406e+18,123.55214078776042,0.1639155000448226,-0.2717841317256291,3.348356088002523,1.688754921899468e+18,123.55646809895836,0.098705639441808,-0.3774638126293817,3.3766086101531982,,,,,,,,,,,,1.6887549218880645e+18,123.54506430664064,2.552239936590195,52.108639526367185,10.182119750976565,1.6887549218880645e+18,123.54506430664064,-251.97635803222656,145.4264404296875,-121.8218765258789,1.6887549218951406e+18,123.55214078776042,0.3865098853905995,-0.3935030202070872,-0.5284602244695028,0.6449421246846517,-0.6853555540243784,1.4028794765472412,-0.4879951973756154
3.6,1.688754921947054e+18,123.60405428059896,-1.8905785878499348,-2.796330451965332,3.0975257555643716,1.6887549219383995e+18,123.59539949544268,-0.2071785926818847,-12.376675287882486,5.531009515126546,1.688754921947054e+18,123.60405428059896,2.7762584686279297,-9.290058771769203,1.431812842686971,1.688754921947054e+18,123.60405428059896,-0.3821980307499568,-3.002860943476359,3.2816699345906577,1.6887549219427256e+18,123.59972583007811,-0.4552473276853561,-3.5724927186965942,3.2090277671813965,,,,,,,,,,,,1.688754921938064e+18,123.59506376953124,-7.312679815292358,52.154998779296875,9.271999931335449,1.688754921938064e+18,123.59506376953124,-261.8412780761719,145.47279663085936,-122.73199615478516,1.688754921947054e+18,123.60405428059896,0.4383078714211781,-0.3971747954686482,-0.4474101364612579,0.6699517369270325,-0.4621335168679555,1.2492119868596394,-0.8221351106961569
3.65,1.6887549219989553e+18,123.65595524088542,-7.161282142003377,1.4235890706380208,-2.1104297637939453,1.6887549219903007e+18,123.64730061848957,-0.4729812542597453,-8.999605496724447,-0.3365903794765472,1.6887549219989553e+18,123.65595524088542,4.038784742355347,-8.812668164571127,1.4730661710103352,1.6887549219989553e+18,123.65595524088542,0.8465574185053507,-0.4688899616400401,2.532545487085978,1.688754921985976e+18,123.64297591145832,0.5500841389099757,-0.3858632246653239,2.8196520805358887,,,,,,,,,,,,1.6887549219880635e+18,123.64506386718752,-16.738399696350097,50.5128791809082,8.505839824676514,1.6887549219880635e+18,123.64506386718752,-271.2669982910156,143.83067626953124,-123.49815673828124,1.6887549219989553e+18,123.65595524088542,0.4870302776495616,-0.3807773292064667,-0.3859673142433166,0.6844848394393921,-0.3419190247853597,1.1182198127110798,-1.0205671389897664
3.7,1.6887549220422093e+18,123.69920935058592,-10.11195707321167,8.27532434463501,-3.2829716205596924,1.6887549220422052e+18,123.699205078125,-5.504688660303752,0.0737787286440531,-1.5104693174362185,1.6887549220422093e+18,123.69920935058592,4.776696681976318,-8.40587568283081,1.6449096202850342,1.6887549220422093e+18,123.69920935058592,0.2481640074402093,-3.250719428062439,2.8971811532974243,1.688754922037885e+18,123.6948848470052,0.4090251859743148,-2.9728266398111978,2.728684186935425,,,,,,,,,,,,1.688754922038063e+18,123.69506318359376,-24.370719528198244,47.902078247070314,8.888919734954834,1.688754922038063e+18,123.69506318359376,-278.89931640625,141.21987609863282,-123.11507873535156,1.6887549220422093e+18,123.69920935058592,0.5346137285232544,-0.382455974817276,-0.3312325030565262,0.6766483783721924,-0.3235033750534057,1.0304204821586609,-1.1531085968017578
3.75,1.688754922085456e+18,123.74245629882812,-5.382177829742432,10.748467127482096,-0.2898639043172201,1.6887549220941135e+18,123.7511135253906,0.6496513485908508,2.2221346770723662,2.6646074453989663,1.688754922085456e+18,123.74245629882812,5.3001604080200195,-7.934749762217204,2.2664596239725747,1.688754922085456e+18,123.74245629882812,0.0533998012542725,-2.4222333431243896,1.235474944114685,1.688754922089789e+18,123.74678865559896,0.1090394485120972,-2.310852328936259,0.9357437094052632,,,,,,,,,,,,1.688754922088063e+18,123.74506284179688,-30.79767951965332,45.14487915039062,5.306999969482422,1.688754922088063e+18,123.74506284179688,-285.32626953125,138.46267700195312,-126.6969955444336,1.688754922085456e+18,123.74245629882812,0.5695276061693827,-0.3971711496512095,-0.266928493976593,0.6680566867192587,-0.3960795203844706,0.9430617292722068,-1.2081445058186848
3.8,1.6887549221373642e+18,123.79436409505207,0.2775653998057047,5.730000019073486,0.6734373569488525,1.6887549221460173e+18,123.80301725260416,6.712864637374878,-3.296312610308329,2.9936205546061196,1.6887549221373642e+18,123.79436409505207,4.836032708485921,-8.194650173187256,2.35978897412618,1.6887549221373642e+18,123.79436409505207,1.3771957159042358,-0.4130976075927416,-1.9877046346664429,1.6887549221416863e+18,123.79868636067708,1.4786502520243328,-0.2566652251019453,-2.1943297386169434,,,,,,,,,,,,1.6887549221380616e+18,123.79506166992186,-30.319439697265626,45.92567825317383,4.372479963302612,1.6887549221380616e+18,123.79506166992186,-284.8480285644531,139.24347839355468,-127.6315170288086,1.6887549221373642e+18,123.79436409505207,0.5817997058232626,-0.4260978599389394,-0.2662374476591746,0.6393182277679443,-0.4428794980049133,0.9908637205759684,-1.2347677946090698
3.85,1.6887549221892705e+18,123.84627058919271,5.888815402984619,-6.423386573791504,3.178129076957702,1.6887549221979249e+18,123.8549248860677,8.691130638122559,-19.943777402242024,5.42432959874471,1.6887549221892705e+18,123.84627058919271,3.7555922667185464,-8.88912582397461,1.747221867243449,1.6887549221892705e+18,123.84627058919271,0.8166250089804331,-0.4281147209306558,-1.726763387521108,1.688754922193597e+18,123.85059692382812,0.5999205907185873,-0.8084801236788431,-1.2450960874557495,,,,,,,,,,,,1.6887549221880622e+18,123.84506215820312,-23.799759292602538,48.83659896850586,7.671359920501709,1.6887549221880622e+18,123.84506215820312,-278.32835083007814,142.15440063476564,-124.33263702392578,1.6887549221892705e+18,123.84627058919271,0.5778374075889587,-0.4529542624950409,-0.3201401233673095,0.5985600352287292,-0.4213784833749135,1.1357906262079875,-1.264278570810954
3.9,1.6887549222411745e+18,123.89817415364584,9.889306863149008,-5.323009173075358,-0.4602133433024089,1.6887549222498214e+18,123.90682153320311,14.728421529134112,-10.35234745343526,2.956731304526329,1.6887549222411745e+18,123.89817415364584,4.00973908106486,-8.641746520996094,2.329530874888102,1.6887549222411745e+18,123.89817415364584,0.2253583669662475,-3.9188024202982583,2.0076595147450766,1.6887549222455002e+18,123.90250048828123,0.3184135109186172,-3.624467213948568,1.7648914555708568,,,,,,,,,,,,1.68875492223806e+18,123.89506015625,-25.754199981689453,48.119239044189456,5.414359855651855,1.68875492223806e+18,123.89506015625,-280.2828002929688,141.43703918457032,-126.58963775634766,1.6887549222411745e+18,123.89817415364584,0.6184002757072449,-0.4793206652005513,-0.2531695266564687,0.5681922634442648,-0.5132352213064829,1.0787888765335083,-1.3437593777974446
3.95,1.6887549222930772e+18,123.95007722981772,-8.8788526058197,-5.013854026794434,5.690427859624227,1.6887549222930742e+18,123.95007421875,-10.84008502960205,-14.059030055999756,9.58325457572937,1.6887549222930772e+18,123.95007722981772,4.044290383656819,-8.675127983093262,2.140606681505839,1.6887549222930772e+18,123.95007722981772,0.5154175460338593,1.7967583139737446,-0.272242267926534,1.688754922297405e+18,123.95440462239584,0.4838561912377675,1.971720298131307,-0.2201150891681512,,,,,,,,,,,,1.6887549222880625e+18,123.94506245117188,-29.09211959838867,46.96267852783203,3.891799974441528,1.6887549222880625e+18,123.94506245117188,-283.62071533203124,140.28047790527344,-128.11219787597656,1.6887549222930772e+18,123.95007722981772,0.6301842927932739,-0.4775024950504303,-0.2534913569688796,0.557053287823995,-0.4727394084135691,1.0853606065114338,-1.4054523706436155
4.0,1.688754922344988e+18,124.00198787434896,-3.648944616317749,2.6304966608683267,-2.0233949224154153,1.688754922336339e+18,123.99333894856773,0.6755735079447428,-6.570292154947917,-1.0979068020824343,1.688754922344988e+18,124.00198787434896,3.78427521387736,-8.916484514872232,1.501684347788493,1.688754922344988e+18,124.00198787434896,0.6305656532446543,2.203696370124817,-2.1553362011909485,1.688754922349314e+18,124.00631388346352,0.6627378761768341,2.4304800828297934,-2.4909048477808633,,,,,,,,,,,,1.6887549223380603e+18,123.995060546875,-27.33043975830078,46.88947982788086,8.14227991104126,1.6887549223380603e+18,123.995060546875,-281.859033203125,140.207275390625,-123.8617172241211,1.688754922344988e+18,124.00198787434896,0.612113336722056,-0.4608023762702941,-0.3053509493668874,0.5649240811665853,-0.36081396540006,1.1425260305404663,-1.4179219007492063
4.05,1.6887549223968922e+18,124.05389200846356,-8.249144236246744,1.1062884330749512,1.9010517994562783,1.6887549223882424e+18,124.04524218750002,-4.351347943147023,-9.033703168233236,2.753740151723226,1.6887549223968922e+18,124.05389200846356,2.2080010970433555,-9.517501513163248,0.689302921295166,1.6887549223968922e+18,124.05389200846356,-0.0148134728272756,4.673017263412476,-4.013791958491008,1.6887549223925688e+18,124.0495686035156,0.2251038551330566,5.042158126831055,-3.9983421564102177,,,,,,,,,,,,1.688754922388066e+18,124.04506606445312,-17.43135986328125,49.39779815673828,12.997879600524902,1.688754922388066e+18,124.04506606445312,-271.95994873046874,142.71559448242186,-119.00611724853516,1.6887549223968922e+18,124.05389200846356,0.5416421294212341,-0.4577570855617523,-0.4199809531370799,0.5646483103434244,-0.2788307021061579,1.333361546198527,-1.3070758978525798
4.1,1.6887549224487954e+18,124.10579516601562,-5.780296881993611,-0.6159922281901041,-2.007648905118306,1.6887549224401436e+18,124.09714363606771,-5.231308539708455,-8.97388251622518,-0.2342972159385682,1.6887549224487954e+18,124.10579516601562,0.4161232312520345,-9.716856956481934,1.1758683522542317,1.6887549224487954e+18,124.10579516601562,-2.26681915918986,2.638632376988729,-3.2295427322387695,1.6887549224358195e+18,124.09281933593752,-1.9896899064381917,3.2531627813975015,-3.6250778834025064,,,,,,,,,,,,1.6887549224380616e+18,124.09506147460937,-3.5062799572944643,51.96223907470703,12.907599639892576,1.6887549224380616e+18,124.09506147460937,-258.0348693847656,145.28003845214843,-119.09639739990234,1.6887549224487954e+18,124.10579516601562,0.4333703120549519,-0.475636750459671,-0.5025089383125305,0.576450248559316,-1.171194116274516,1.439384857813517,-0.2290175308783849
4.15,1.6887549225006927e+18,124.15769278971352,2.206162452697754,-1.6112486521402996,-4.339490969975789,1.6887549224920522e+18,124.14905216471352,-0.5465606153011322,-11.885947545369469,-2.8171498775482178,1.6887549225006927e+18,124.15769278971352,-0.7896747688452402,-9.607144355773926,1.7980387210845947,1.6887549225006927e+18,124.15769278971352,-0.4247549722592036,-0.250658373037974,-2.1103358268737793,1.6887549224877274e+18,124.14472745768228,-0.9886853794256846,-0.0692314108212788,-2.229301850001017,,,,,,,,,,,,1.688754922488064e+18,124.1450640625,4.37003984451294,52.716199493408205,8.269159889221191,1.688754922488064e+18,124.1450640625,-250.15855102539064,146.03399963378905,-123.7348373413086,1.6887549225006927e+18,124.15769278971352,0.3748073279857635,-0.5095035036404928,-0.5298579533894857,0.5647649566332499,-1.987490932146708,1.3720652262369792,0.6284477015336355
4.2,1.6887549225439636e+18,124.20096374511718,3.101829171180725,0.5872349739074707,-2.054319977760315,1.6887549225439567e+18,124.20095686848958,2.025125523408254,-9.014161745707192,-0.3154537876447041,1.6887549225439636e+18,124.20096374511718,-1.5272159576416016,-9.54281520843506,1.6793692111968994,1.6887549225439636e+18,124.20096374511718,0.8168031871318817,1.759597361087799,-1.9120846390724184,1.6887549225396244e+18,124.19662451171877,0.6736316482226054,1.4717779755592346,-1.9030488729476929,,,,,,,,,,,,1.6887549225380618e+18,124.19506166992188,10.050359725952148,51.94272003173828,8.017839717864991,1.6887549225380618e+18,124.19506166992188,-244.47823486328124,145.26051635742186,-123.9861587524414,1.6887549225439636e+18,124.20096374511718,0.3481954038143158,-0.5099273920059204,-0.5638940334320068,0.548281341791153,-2.3228148221969604,1.3400049209594729,1.0084910094738009
4.25,1.688754922587211e+18,124.24421085611978,2.706067164738973,2.7988648414611816,-1.0680113236109416,1.6887549225958556e+18,124.25285563151044,0.5046861767768859,-6.864609400431315,0.50588259100914,1.688754922587211e+18,124.24421085611978,-2.020586927731832,-9.48485279083252,1.471924344698588,1.688754922587211e+18,124.24421085611978,0.6292930046717325,1.392365535100301,-1.3861550490061445,1.6887549225915364e+18,124.24853637695314,0.5679519573847452,1.322166919708252,-1.3516411781311035,,,,,,,,,,,,1.6887549225880645e+18,124.24506411132812,15.237799644470217,50.14931945800781,8.923079872131348,1.6887549225880645e+18,124.24506411132812,-239.29079895019532,143.4671173095703,-123.08091735839844,1.688754922587211e+18,124.24421085611978,0.3213171462217966,-0.491220086812973,-0.6016682386398315,0.5415389140446981,-2.526545683542887,1.3147566715876262,1.290747086207072
4.3,1.688754922639111e+18,124.29611100260418,2.8507436911265054,0.6045538584391276,-0.4397448499997456,1.6887549226477637e+18,124.3047635904948,0.4841477771600087,-8.87896696726481,1.100698451201121,1.688754922639111e+18,124.29611100260418,-2.5164101123809814,-9.365118980407717,1.475761850674947,1.688754922639111e+18,124.29611100260418,-0.0489201272527377,0.5649994413057963,-1.1426743666330974,1.6887549226434388e+18,124.30043888346354,-0.0821104687638581,0.5151121218999227,-1.1303552389144895,,,,,,,,,,,,1.688754922638058e+18,124.29505815429688,18.868519592285157,49.12695846557617,8.8693998336792,1.688754922638058e+18,124.29505815429688,-235.66007385253903,142.44476013183595,-123.13459777832033,1.688754922639111e+18,124.29611100260418,0.2954656779766083,-0.4848711192607879,-0.6274719635645548,0.5327346920967102,-2.6257994969685874,1.2701054414113362,1.4416314760843914
4.35,1.6887549226910106e+18,124.34801057942708,2.0574302673339844,-1.3996006647745765,-3.4960104624430337,1.6887549226996636e+18,124.35666365559896,-1.3306088050206502,-11.684551556905111,-2.5635106364885965,1.6887549226910106e+18,124.34801057942708,-2.7731471061706543,-9.254883766174316,1.697330117225647,1.6887549226910106e+18,124.34801057942708,-0.5299765169620514,0.5927429099877676,-0.1035416647791862,1.688754922695336e+18,124.35233601888022,-0.5309437115987142,0.5560400933027267,0.0072794755299886,,,,,,,,,,,,1.6887549226880617e+18,124.34506166992188,21.223119735717773,48.341278839111325,7.917799854278565,1.6887549226880617e+18,124.34506166992188,-233.30547790527345,141.65907592773436,-124.08619842529296,1.6887549226910106e+18,124.34801057942708,0.2749194800853729,-0.4875632623831431,-0.6358234484990438,0.5313985347747803,-2.606059948603312,1.2340383529663086,1.4487544695536296
4.4,1.6887549227429174e+18,124.39991739908857,0.6577770312627157,-7.70254389444987,-5.832000255584717,1.6887549227429156e+18,124.3999157714844,-2.235195517539978,-17.7960205078125,-4.383950114250183,1.6887549227429174e+18,124.39991739908857,-2.7278314431508384,-9.276171366373696,1.6508662303288777,1.6887549227429174e+18,124.39991739908857,0.6645704650630554,-0.4485787252585093,-0.0481565420826276,1.6887549227472448e+18,124.40424495442709,0.7983499566713969,-0.4842634300390879,0.0127263590693473,,,,,,,,,,,,1.688754922738058e+18,124.39505795898438,21.34023971557617,48.175358581542966,7.300479793548584,1.688754922738058e+18,124.39505795898438,-233.1883575439453,141.49315795898437,-124.70351715087892,1.6887549227429174e+18,124.39991739908857,0.2776857614517212,-0.4859599967797597,-0.6350728670756022,0.5323141018549601,-2.609079122543335,1.2405771414438884,1.4505072434743245
4.45,1.6887549227948209e+18,124.45182096354166,1.826943635940552,-4.768755594889323,-0.4774100383122762,1.6887549227861696e+18,124.44316959635417,0.5393821001052858,-15.117853482564293,-0.2622135182221731,1.6887549227948209e+18,124.45182096354166,-1.9929094314575195,-9.5313933690389,1.0827188889185586,1.6887549227948209e+18,124.45182096354166,0.7850127518177032,-0.5551237761974335,3.052493691444397,1.6887549227991473e+18,124.45614729817709,0.7002551853656769,-0.59330286582311,3.321325302124023,,,,,,,,,,,,1.688754922788058e+18,124.4450578125,19.085679626464845,48.3339599609375,9.972279930114746,1.688754922788058e+18,124.4450578125,-235.4429168701172,141.6517547607422,-122.03171997070312,1.6887549227948209e+18,124.45182096354166,0.3192663689454396,-0.4634109437465668,-0.6220271786053976,0.5438215335210165,-2.6450047492980957,1.337781310081482,1.4625690778096516
4.5,1.688754922846727e+18,124.5037266438802,-1.1806930303573608,-4.145923614501953,2.373368978500366,1.6887549228380746e+18,124.49507478841146,-1.4821541905403135,-13.294123649597168,2.810769001642863,1.688754922846727e+18,124.5037266438802,-0.0833788762489954,-9.761403719584148,0.822768767674764,1.688754922846727e+18,124.5037266438802,0.349923978249232,-0.5609779308239619,3.865198850631714,1.6887549228424013e+18,124.49940124511718,0.3830125033855438,-0.8091673702001572,3.894876718521118,1.688754922825101e+18,124.48210107421876,0.0,0.0,2.5100619792938232,6.90500020980835,1.2130088806152344,275.9612121582031,333.29998779296875,-122.9162367,49.279025,1.6887549228380575e+18,124.49505761718753,9.503799629211423,50.2810791015625,12.099959754943848,1.6887549228380575e+18,124.49505761718753,-245.02479553222656,143.5988739013672,-119.90403594970704,1.688754922846727e+18,124.5037266438802,0.3819589118162791,-0.4320310254891713,-0.5634938279787699,0.590938131014506,-1.6292724013328552,1.4751342137654622,0.4009937345981597
4.55,1.6887549228986314e+18,124.55563126627604,-5.549673080444336,-5.819341659545898,8.129091103871664,1.68875492288998e+18,124.54698014322916,-3.531208078066508,-15.8418820699056,8.39820941289266,1.6887549228986314e+18,124.55563126627604,1.7069361607233684,-9.615803082784018,0.8154039184252421,1.6887549228986314e+18,124.55563126627604,-0.1881464906036853,-0.4072943826516469,3.3541083335876465,1.6887549228856556e+18,124.54265551757813,-0.0377209290357617,0.3960951964060465,3.5304957230885825,,,,,,,,,,,,1.688754922888058e+18,124.5450578125,-0.3562399744987489,51.35955963134766,12.96615982055664,1.688754922888058e+18,124.5450578125,-254.88483276367188,144.67735595703124,-119.03783874511718,1.6887549228986314e+18,124.55563126627604,0.4183030525843302,-0.3930697540442148,-0.5084192057450613,0.6414584120114645,-0.4437361756960551,1.378448526064555,-0.7852569222450256
4.6,1.688754922950535e+18,124.60753483072916,-2.017402013142904,-0.0494413375854492,1.5753101110458374,1.6887549229418857e+18,124.59888582356773,-0.0831506053606669,-9.776873906453451,4.686741868654887,1.688754922950535e+18,124.60753483072916,3.014547268549601,-9.195271809895834,1.5362810293833415,1.688754922950535e+18,124.60753483072916,-0.7705556054910024,-3.730808695157369,3.306308190027873,1.688754922937561e+18,124.5945615234375,-0.6242533723513285,-4.096004088719686,3.119994242986043,,,,,,,,,,,,1.68875492293806e+18,124.59506005859376,-10.111359882354735,50.78859939575195,11.326479721069337,1.68875492293806e+18,124.59506005859376,-264.63995361328125,144.106396484375,-120.67751770019532,1.688754922950535e+18,124.60753483072916,0.4783490896224975,-0.4186709821224212,-0.4123814900716145,0.6515666047732035,-0.456578532854716,1.2202612161636353,-0.9445989727973938
4.65,1.688754922993791e+18,124.650791015625,-5.225983738899231,1.0195999145507812,-3.444546699523926,1.6887549229937925e+18,124.65079239908852,-1.154337485631307,-7.5030943552653,-1.4849459131558735,1.688754922993791e+18,124.650791015625,4.2615132331848145,-8.62532901763916,1.900702118873596,1.688754922993791e+18,124.650791015625,0.0807869359850883,-0.2218968048691749,3.3839643001556396,1.6887549229894697e+18,124.64646956380209,-0.1212567600111166,-0.6114761096735796,3.4144312540690103,,,,,,,,,,,,1.688754922988062e+18,124.64506196289062,-22.357719802856444,47.9728385925293,8.449720001220703,1.688754922988062e+18,124.64506196289062,-276.8863098144531,141.29063720703124,-123.55427856445311,1.688754922993791e+18,124.650791015625,0.5160232186317444,-0.4053103476762771,-0.3437749594449997,0.6716212630271912,-0.412457600235939,1.076192557811737,-1.0612927675247192
4.7,1.688754923037053e+18,124.694052734375,-8.296966552734375,7.302143573760986,-4.829914410909017,1.6887549230457057e+18,124.70270540364584,-2.9164520700772605,-0.080558364590009,-2.3373889525731406,1.688754923037053e+18,124.694052734375,5.0043792724609375,-8.175765991210938,2.0699177185694375,1.688754923037053e+18,124.694052734375,0.3263038657605647,-2.470084547996521,2.220647851626078,1.6887549230413765e+18,124.69837622070312,0.2615521449285249,-2.566448529561361,2.114000995953878,,,,,,,,,,,,1.6887549230380654e+18,124.69506538085936,-29.660639572143555,44.47875900268555,6.729519844055176,1.6887549230380654e+18,124.69506538085936,-284.1892333984375,137.7965576171875,-125.27447814941408,1.688754923037053e+18,124.694052734375,0.5562712351481119,-0.3987184464931488,-0.29190727074941,0.6676834424336752,-0.386308709780375,0.9862042665481568,-1.1798406044642131
4.75,1.6887549230889605e+18,124.74596061197916,-4.43963638941447,8.513901551564535,0.0222615400950113,1.6887549230976044e+18,124.75460449218748,1.734995812177658,0.5714858000477154,3.3046875,1.6887549230889605e+18,124.74596061197916,5.205874601999919,-7.891411781311035,2.6169466177622476,1.6887549230889605e+18,124.74596061197916,0.4705189516146977,-1.8085683584213257,0.2596177260080973,1.6887549230932815e+18,124.75028165690104,0.5609779184063276,-1.6224071979522705,0.0351756624877452,,,,,,,,,,,,1.688754923088064e+18,124.74506391601562,-33.70859985351562,42.61703948974609,3.6795199871063233,1.688754923088064e+18,124.74506391601562,-288.23720092773436,135.9348388671875,-128.32447814941406,1.6887549230889605e+18,124.74596061197916,0.5884838501612345,-0.4206216136614482,-0.2388849953810373,0.6477093895276388,-0.4603182872136434,0.9351396163304648,-1.2395445903142293
4.8,1.6887549231408635e+18,124.79786360677085,1.244434118270874,6.229754130045573,0.0594677925109863,1.688754923149513e+18,124.80651310221354,7.313861687978108,-3.2789645195007324,2.29651149113973,1.6887549231408635e+18,124.79786360677085,4.600968837738037,-8.322320302327475,2.3753534158070884,1.6887549231408635e+18,124.79786360677085,1.1758137941360474,0.4236859486748774,-2.49518092473348,1.6887549231451914e+18,124.8021913248698,1.1604912281036377,0.5321145256360372,-2.6876543362935386,,,,,,,,,,,,1.6887549231380644e+18,124.79506430664064,-31.17343864440918,43.895598602294925,4.504239892959594,1.6887549231380644e+18,124.79506430664064,-285.70203857421876,137.21339416503906,-127.499755859375,1.6887549231408635e+18,124.79786360677085,0.5944615801175436,-0.4432816902796427,-0.2606657147407532,0.6178497870763143,-0.4676976303259532,1.0150336821873982,-1.268932302792867
4.85,1.6887549231927644e+18,124.84976424153643,4.73197070757548,-11.439085642496744,3.442751963933309,1.6887549231927706e+18,124.84977050781252,8.356334924697876,-20.47209358215332,5.4469616413116455,1.6887549231927644e+18,124.84976424153643,3.5269927978515625,-8.891574541727701,2.1613624890645347,1.6887549231927644e+18,124.84976424153643,-0.5343543887138367,-1.1352421442667644,-1.0675888061523438,1.6887549231970918e+18,124.8540918782552,-0.6904813349246979,-1.6347262461980183,-0.5171992381413778,,,,,,,,,,,,1.6887549231880596e+18,124.84505966796874,-24.417079544067384,46.98951950073242,5.9926399230957035,1.6887549231880596e+18,124.84505966796874,-278.9456787109375,140.30731506347655,-126.01135864257812,1.6887549231927644e+18,124.84976424153643,0.5754499236742655,-0.4773218234380086,-0.3025095363457997,0.5909709731737772,-0.5392536620299021,1.136107325553894,-1.1948895454406738
4.9,1.688754923244674e+18,124.90167407226562,9.076784133911133,-1.9662979443868,1.4620997111002605,1.6887549232360223e+18,124.89302270507812,12.49212964375814,-15.288541158040363,5.39043116569519,1.688754923244674e+18,124.90167407226562,3.8416031201680503,-8.495764096577963,3.042911926905314,1.688754923244674e+18,124.90167407226562,-0.1900300023456415,-2.8818077643712363,1.853874246279399,1.688754923248997e+18,124.9059970703125,-0.1144863255321979,-2.438421308994293,1.538973182439804,,,,,,,,,,,,1.688754923238063e+18,124.89506313476564,-27.008359527587892,45.43036041259766,0.8637600004673004,1.688754923238063e+18,124.89506313476564,-281.5369506835938,138.74815673828124,-131.14024047851564,1.688754923244674e+18,124.90167407226562,0.6092781821886698,-0.5041164557139078,-0.220886285106341,0.5704641739527384,-0.6612691680590311,1.0485410292943318,-1.2446069717407229
4.95,1.6887549232965783e+18,124.9535782063802,-7.930893739064534,-1.723598798116048,1.0109535853068037,1.6887549232879296e+18,124.9449296875,-4.610570589701335,-9.438688596089682,5.985247254371643,1.6887549232965783e+18,124.9535782063802,3.910489320755005,-8.453118324279785,3.0789031187693277,1.6887549232965783e+18,124.9535782063802,-0.185346696525812,1.572519858678182,-0.3023782881597678,1.6887549232922478e+18,124.94924780273436,-0.1962404660880565,1.7194329500198364,-0.3069597929716111,,,,,,,,,,,,1.6887549232880655e+18,124.94506533203123,-28.872519302368165,44.137158966064455,-0.9198799848556518,1.6887549232880655e+18,124.94506533203123,-283.401123046875,137.4549560546875,-132.923876953125,1.6887549232965783e+18,124.9535782063802,0.6102457443873087,-0.5021550258000692,-0.2176432957251866,0.5726497769355774,-0.657543420791626,1.0397545496622722,-1.2486528952916462
5.0,1.6887549233484795e+18,125.00547973632813,-2.993343194325765,0.0038080215454101,-3.533099969228109,1.6887549233398316e+18,124.99683154296876,0.977069248755773,-8.60877768198649,-1.8346967697143557,1.6887549233484795e+18,125.00547973632813,3.5739381313323975,-8.77534039815267,2.5041109720865884,1.6887549233484795e+18,125.00547973632813,0.7444411218166351,2.4782803455988565,-2.681647499402364,1.6887549233355046e+18,124.99250472005208,0.5071199561158817,2.049401958783468,-1.7040086189905803,,,,,,,,,,,,1.688754923338066e+18,124.995066015625,-27.08887939453125,44.13227844238281,2.3936399936676027,1.688754923338066e+18,124.995066015625,-281.6174682617187,137.4500762939453,-129.61035766601563,1.6887549233484795e+18,125.00547973632813,0.5878572463989258,-0.4919974307219187,-0.2726970463991165,0.5806676944096884,-0.6013795932133993,1.1104565461476643,-1.2028572956720989
5.05,1.6887549234003884e+18,125.05738834635416,-9.734590530395508,-0.2460333506266276,-0.6252094904581705,1.688754923391737e+18,125.04873706054688,-6.3312093416849775,-9.55633544921875,1.7022939523061116,1.6887549234003884e+18,125.05738834635416,2.1474847396214805,-9.362588246663412,1.9531508286794024,1.6887549234003884e+18,125.05738834635416,-0.7950411091248194,3.459228038787842,-3.4623332818349204,1.6887549233874127e+18,125.04441300455728,-0.1586213546494642,3.735746383666992,-3.9248600800832114,,,,,,,,,,,,1.6887549233880645e+18,125.04506435546875,-18.365879440307616,46.89923934936523,6.158559894561767,1.6887549233880645e+18,125.04506435546875,-272.89447631835935,140.21703491210937,-125.84543914794922,1.6887549234003884e+18,125.05738834635416,0.5162317752838135,-0.4979545573393504,-0.3765506545702616,0.5853595932324728,-0.7351784308751425,1.271039605140686,-0.888618528842926
5.1,1.6887549234436424e+18,125.10064245605469,-7.132789134979248,-6.7211012840271,-3.142880082130432,1.6887549234436431e+18,125.10064298502604,-5.0199423631032305,-15.11506207784017,-0.4679962297280629,1.6887549234436424e+18,125.10064245605469,1.4822741746902466,-9.387523174285889,2.4272512197494507,1.6887549234436424e+18,125.10064245605469,-1.3800209462642667,-1.2483031153678894,-0.6811147630214691,1.688754923439318e+18,125.09631811523438,-1.3996959328651428,-0.5736533999443053,-1.0942632555961609,,,,,,,,,,,,1.688754923438062e+18,125.09506186523438,-10.49687976837158,48.885399627685544,5.733999824523925,1.688754923438062e+18,125.09506186523438,-265.0254760742188,142.2031982421875,-126.2699966430664,1.6887549234436424e+18,125.10064245605469,0.4698511809110641,-0.5171729624271393,-0.3958578258752823,0.5957805514335632,-1.014703243970871,1.278978168964386,-0.5514366626739502
5.15,1.688754923486896e+18,125.14389583333332,6.670106728871663,-0.5045782725016276,-1.600016673405965,1.6887549234955436e+18,125.15254361979169,8.00797971089681,-8.367900212605795,1.3070793946584065,1.688754923486896e+18,125.14389583333332,0.33342245221138,-9.47054354349772,2.4950565497080484,1.688754923486896e+18,125.14389583333332,0.8359690755605698,-3.0712267756462097,-2.436894178390503,1.6887549234912207e+18,125.14822094726564,0.9685777823130288,-2.5555548121531806,-2.4854071140289307,,,,,,,,,,,,1.6887549234880635e+18,125.1450634765625,-7.158959770202637,49.66131820678711,3.557519960403442,1.6887549234880635e+18,125.1450634765625,-261.687548828125,142.97911376953124,-128.44647979736328,1.688754923486896e+18,125.14389583333332,0.4805326660474141,-0.5797920823097229,-0.3823473850886027,0.534748395284017,-1.4458586772282918,1.310052712758382,-0.2695030619700749
5.2,1.688754923538802e+18,125.19580216471354,3.775892734527588,5.223199844360352,0.2497218052546183,1.6887549235474496e+18,125.20444962565104,1.866800526777903,-4.439483642578125,2.277368942896525,1.688754923538802e+18,125.19580216471354,-0.5970911979675293,-9.5787779490153,2.0259766976038613,1.688754923538802e+18,125.19580216471354,0.8075129588445028,2.154674450556437,-1.6490816672643025,1.6887549235431288e+18,125.2001285807292,0.6907867789268494,2.194482445716858,-1.555161078770955,,,,,,,,,,,,1.6887549235380634e+18,125.19506342773438,-1.0833599328994752,49.27579956054687,5.546119689941406,1.6887549235380634e+18,125.19506342773438,-255.61195678710936,142.59360046386718,-126.45787658691408,1.688754923538802e+18,125.19580216471354,0.4589434762795766,-0.58748726050059,-0.429825762907664,0.5090139508247375,-1.859585523605347,1.3560618162155151,0.1804991103708743
5.25,1.6887549235907062e+18,125.24770629882812,-1.1576816240946453,2.6923375129699707,-1.196043888727824,1.6887549235993577e+18,125.25635766601562,-2.5684957106908164,-7.493722279866536,0.8366903265317281,1.6887549235907062e+18,125.24770629882812,-1.0060916741689043,-9.53226375579834,2.0833071072896323,1.6887549235907062e+18,125.24770629882812,-0.3609195401271184,1.0761918624242146,-1.0535898605982463,1.6887549235950292e+18,125.25202897135416,-0.4044946034749349,0.9335548281669616,-1.059393088022868,,,,,,,,,,,,1.688754923588064e+18,125.24506391601562,3.11343994140625,49.024479675292966,5.834039878845215,1.688754923588064e+18,125.24506391601562,-251.41515197753907,142.34227600097657,-126.16995697021484,1.6887549235907062e+18,125.24770629882812,0.4223974645137787,-0.5788518389066061,-0.4648073116938273,0.5199529131253561,-2.0235041777292886,1.3354392449061077,0.4361130098501841
5.3,1.6887549236426097e+18,125.2996096191406,0.4385682344436646,-0.8551689783732096,-1.5975197553634644,1.6887549236426112e+18,125.29961108398436,-1.4383854866027832,-10.424930095672607,1.0764710903167725,1.6887549236426097e+18,125.2996096191406,-1.678711970647176,-9.381767590840658,2.3069164752960205,1.6887549236426097e+18,125.2996096191406,-0.6114761233329773,-1.4055499931176505,-1.5449800491333008,1.688754923646937e+18,125.3039374186198,-0.6153449217478434,-1.6226617495218914,-1.6102407773335774,,,,,,,,,,,,1.688754923638066e+18,125.29506586914064,6.636799907684326,48.189998626708984,4.1821599960327145,1.688754923638066e+18,125.29506586914064,-247.89179382324215,141.50780029296874,-127.82183685302736,1.6887549236426097e+18,125.2996096191406,0.399165799220403,-0.6028731465339661,-0.4709524512290954,0.5050892432530721,-2.1993425687154136,1.2771260738372805,0.6022285024325053
5.35,1.6887549236945162e+18,125.35151603190104,7.4950166543324785,-5.193648020426433,-6.449244340260823,1.6887549236858614e+18,125.3428614908854,5.704888105392456,-13.181661287943522,-3.095315416653951,1.6887549236945162e+18,125.35151603190104,-2.333761215209961,-9.212981859842936,2.427631934483846,1.6887549236945162e+18,125.35151603190104,-0.7825692892074585,-0.9196067452430724,0.0856738686561583,1.688754923698843e+18,125.35584309895832,-0.7654650608698527,-0.6412558257579803,0.3479386965433756,,,,,,,,,,,,1.6887549236880614e+18,125.34506137695313,9.032879829406738,47.387238311767575,3.081719923019409,1.6887549236880614e+18,125.34506137695313,-245.49571228027344,140.7050354003906,-128.92227783203126,1.6887549236945162e+18,125.35151603190104,0.3974027534325917,-0.6422914067904154,-0.4540028870105743,0.4725755751132965,-2.3378793398539224,1.2214017709096272,0.6521512269973755
5.4,1.688754923746418e+18,125.40341796875,-1.1405900319417317,-5.569940567016602,-7.2424899737040205,1.6887549237377702e+18,125.39477026367187,-3.4847474098205566,-16.707884152730305,-5.46680227915446,1.688754923746418e+18,125.40341796875,-1.8985575040181475,-9.308673858642578,2.440219004948934,1.688754923746418e+18,125.40341796875,0.3517565776904424,-0.938085397084554,1.0495683153470357,1.6887549237420966e+18,125.39909655761718,0.3835470159538089,-0.5822309069335461,0.8240571916103363,,,,,,,,,,,,1.6887549237380603e+18,125.3950603515625,7.646959781646728,47.12615966796875,1.8787999391555783,1.6887549237380603e+18,125.3950603515625,-246.8816345214844,140.44395751953124,-130.1251983642578,1.688754923746418e+18,125.40341796875,0.4147710303465525,-0.6364943583806356,-0.4375129342079162,0.4808951914310455,-2.2300545374552407,1.249897003173828,0.5245844125747681
5.45,1.688754923798326e+18,125.45532584635416,3.551405668258667,-1.7360280354817708,1.0941190719604492,1.6887549237896753e+18,125.44667504882813,2.4779673417409263,-9.519845008850098,2.6931218653917313,1.688754923798326e+18,125.45532584635416,-0.788157636920611,-9.517060915629068,2.178987741470337,1.688754923798326e+18,125.45532584635416,-0.2163990115125974,-2.4589362144470215,4.086739381154378,1.6887549237853478e+18,125.44234765625,-0.0510581582784652,-2.792672316233317,3.423747022946676,,,,,,,,,,,,1.6887549237880645e+18,125.44506459960937,3.2305599212646485,47.40187759399414,3.03779993057251,1.6887549237880645e+18,125.44506459960937,-251.29803466796875,140.71967163085938,-128.96619873046876,1.688754923798326e+18,125.45532584635416,0.4886204103628794,-0.6297442515691122,-0.3779319326082865,0.4696050782998403,-1.9011287689208984,1.3253165086110432,0.0565745259324709
5.5,1.6887549238502298e+18,125.50722973632811,-3.732080062230428,-9.233657836914062,-0.3995226224263509,1.6887549238415844e+18,125.49858447265626,-1.463809261719386,-18.886349360148113,1.6420745452245076,1.6887549238502298e+18,125.50722973632811,1.0658140182495115,-9.534889221191406,1.9880822499593096,1.6887549238502298e+18,125.50722973632811,0.553647535542647,0.6857980489730835,3.444465478261312,1.6887549238372557e+18,125.49425553385416,0.5139412904779116,0.0726929605007171,3.66646416982015,1.6887549238632113e+18,125.52021118164062,0.0,0.0,2.5100619792938232,6.929999828338623,1.2484769821166992,277.12457275390625,333.29998779296875,-122.9162607,49.2790279,1.6887549238380662e+18,125.49506596679689,-6.207359838485718,47.53607864379883,2.23503999710083,1.6887549238380662e+18,125.49506596679689,-260.7359558105469,140.85387573242187,-129.76895751953126,1.6887549238502298e+18,125.50722973632811,0.5583595633506775,-0.5805823802947998,-0.3289804955323537,0.4922606547673543,-1.0923878351847331,1.3325907389322915,-0.7997615337371826
5.55,1.6887549238934794e+18,125.5504793701172,-13.848529815673828,-7.374888896942139,0.8037384748458862,1.6887549238934848e+18,125.55048510742188,-7.0703919728597,-16.375281651814777,2.7090739806493125,1.6887549238934794e+18,125.5504793701172,2.0616220235824585,-9.38966989517212,1.9541137218475344,1.6887549238934794e+18,125.5504793701172,0.371406078338623,-3.3589953184127808,1.7721964120864868,1.6887549238891604e+18,125.54616040039063,0.3177008281151454,-2.4328725337982178,2.2243131001790366,,,,,,,,,,,,1.6887549238880635e+18,125.54506372070313,-12.33907985687256,47.04807891845703,2.9133599281311033,1.6887549238880635e+18,125.54506372070313,-266.86767578125,140.36587524414062,-129.09063720703125,1.6887549238934794e+18,125.5504793701172,0.593354344367981,-0.5523151457309723,-0.2993190139532089,0.5028160959482193,-0.7610818147659302,1.276125967502594,-1.1588720679283142
5.6,1.688754923936739e+18,125.59373909505209,-1.536096493403117,-3.969738006591797,-1.6601630449295044,1.6887549239453868e+18,125.60238663736978,-1.4827524820963542,-12.686945279439293,0.460618349413077,1.688754923936739e+18,125.59373909505209,2.851288159688314,-9.150350570678713,2.0419424374898276,1.688754923936739e+18,125.59373909505209,0.7084000507990519,-2.456085463364919,3.527085065841675,1.6887549239410604e+18,125.5980603841146,0.7339545985062917,-2.136297603448232,3.5784486134847007,,,,,,,,,,,,1.688754923938068e+18,125.59506791992187,-19.78351936340332,46.17455902099609,1.6665199756622315,1.688754923938068e+18,125.59506791992187,-274.312109375,139.4923553466797,-130.3374755859375,1.688754923936739e+18,125.59373909505209,0.6562286019325256,-0.5496252775192261,-0.2285888344049453,0.4628554582595825,-0.6324286858240763,1.2030372619628904,-1.4679794708887737
5.65,1.6887549239886438e+18,125.64564379882812,-8.943164825439453,3.83524497350057,-1.1294230222702026,1.6887549239972946e+18,125.65429459635418,-5.270989418029785,-3.153540849685669,0.7138587435086569,1.6887549239886438e+18,125.64564379882812,4.016479094823201,-8.724223136901855,1.979796886444092,1.6887549239886438e+18,125.64564379882812,1.5353079636891682,-3.5503997802734375,3.018641551335653,1.6887549239929674e+18,125.64996752929687,1.530217448870341,-3.5835391680399575,3.02790633837382,,,,,,,,,,,,1.6887549239880645e+18,125.64506420898438,-28.01119918823242,43.107479858398435,1.1467999815940857,1.6887549239880645e+18,125.64506420898438,-282.539794921875,136.42527770996094,-130.85719604492186,1.6887549239886438e+18,125.64564379882812,0.7274330655733744,-0.5186406175295512,-0.1601050744454065,0.4183730582396189,-0.459227313597997,1.0959649880727131,-1.8132861455281577
5.7,1.6887549240405455e+18,125.69754557291668,-7.424578348795573,11.544010162353516,0.6225589911142985,1.688754924049191e+18,125.70619091796874,-0.5734798908233643,3.0614170829455056,3.9094733397165937,1.6887549240405455e+18,125.69754557291668,4.844453811645508,-8.167580763498941,2.4361907641092935,1.6887549240405455e+18,125.69754557291668,0.4631885786851247,-3.9066359202067056,2.550515135129293,1.688754924044872e+18,125.7018719889323,0.3936517511804898,-3.850639979044596,2.3092233339945474,,,,,,,,,,,,1.6887549240380677e+18,125.6950673828125,-35.2213996887207,39.27911911010742,-1.7006799332797526,1.6887549240380677e+18,125.6950673828125,-289.7499938964844,132.59691772460937,-133.70467529296874,1.6887549240405455e+18,125.69754557291668,0.7870035767555237,-0.4966081281503041,-0.0691676661372184,0.3578931291898091,-0.461474855740865,0.9831780791282654,-2.038043220837911
5.75,1.68875492409245e+18,125.74945019531248,-0.4160989125569661,6.368064085642497,2.1866791248321533,1.6887549240924498e+18,125.74944982910156,4.312763690948486,-1.729711651802063,5.250151872634888,1.68875492409245e+18,125.74945019531248,4.660902976989746,-8.135206540425619,2.8754613399505615,1.68875492409245e+18,125.74945019531248,1.0487029353777568,-0.9145671129226683,-1.1936306754748027,1.688754924096781e+18,125.7537809244792,1.137227475643158,-0.6054692367712656,-1.418378194173177,,,,,,,,,,,,1.6887549240880663e+18,125.74506616210938,-37.18559951782227,38.05911865234375,-6.414759826660156,1.6887549240880663e+18,125.74506616210938,-291.7141967773438,131.37691650390624,-138.41875305175782,1.68875492409245e+18,125.74945019531248,0.7989501953125,-0.5108078916867574,-0.0194649277254938,0.3165414234002431,-0.5495039820671082,0.9767657121022544,-2.0898146629333496
5.8,1.688754924144359e+18,125.80135856119792,0.6322433948516846,2.785531202952067,1.2670753796895344,1.6887549241357043e+18,125.79270410156248,3.822733481725057,-4.636492808659871,3.374079386393229,1.688754924144359e+18,125.80135856119792,3.676369190216065,-8.758458137512207,2.4223825931549072,1.688754924144359e+18,125.80135856119792,0.6207409004370371,-0.1686497231324513,-2.60936172803243,1.6887549241486848e+18,125.80568489583334,0.4502076804637909,-0.3279328346252441,-2.535752534866333,,,,,,,,,,,,1.688754924138064e+18,125.7950640625,-33.34259948730469,42.0241195678711,-5.031279850006103,1.688754924138064e+18,125.7950640625,-287.87119750976564,135.3419189453125,-137.0352813720703,1.688754924144359e+18,125.80135856119792,0.7761549750963846,-0.555565615495046,-0.0513025807837644,0.2931311925252278,-0.5807768503824869,1.103249470392863,-2.0546281337738037
5.85,1.6887549241962598e+18,125.8532596842448,10.8022354443868,-12.406588236490885,0.5081965923309326,1.6887549241876124e+18,125.84461246744792,11.47637621561686,-21.471196174621586,5.07258473833402,1.6887549241962598e+18,125.8532596842448,3.1843481063842773,-8.855279604593912,2.7613208293914795,1.6887549241962598e+18,125.8532596842448,-0.0942259679238001,-2.9454903602600098,1.3479759693145752,1.6887549242005857e+18,125.85758544921876,0.0041742374499638,-3.051322817802429,1.61889469747742,,,,,,,,,,,,1.6887549241880645e+18,125.84506401367187,-29.794839477539064,44.83743896484375,-6.688039970397949,1.6887549241880645e+18,125.84506401367187,-284.32343139648435,138.15523376464844,-138.69203491210936,1.6887549241962598e+18,125.8532596842448,0.7686348557472229,-0.5794656674067179,-0.0201477898905674,0.2686367134253184,-0.7102027336756388,1.1253418525060015,-2.0094847281773887
5.9,1.6887549242481684e+18,125.90516845703124,0.8835185368855795,-1.0558549563090007,-0.9581174055735272,1.688754924239517e+18,125.89651692708333,10.49232808748881,-8.193423390388489,-0.0406779249509175,1.6887549242481684e+18,125.90516845703124,3.3925914764404297,-8.752766609191895,2.8405954837799072,1.6887549242481684e+18,125.90516845703124,0.6300566047430038,-0.0610356132189432,-0.6802493135134379,1.688754924243844e+18,125.90084411621092,0.8016842901706696,-0.7321219891309738,-0.2267073392868042,,,,,,,,,,,,1.6887549242380644e+18,125.895064453125,-32.654519653320314,43.3343994140625,-10.179679679870606,1.6887549242380644e+18,125.895064453125,-287.1831115722656,136.652197265625,-142.18367614746094,1.6887549242481684e+18,125.90516845703124,0.7877074678738912,-0.5713677803675333,0.0176286216204365,0.2293252696593602,-0.697576622168223,1.10210116704305,-2.1349854469299316
5.95,1.6887549243000727e+18,125.95707267252604,-8.180623849232992,-0.8546678225199381,-2.213662624359131,1.6887549242914214e+18,125.94842146809896,-9.3238331079483,-11.695718129475912,1.5355938995877902,1.6887549243000727e+18,125.95707267252604,3.563210407892863,-8.836705525716146,2.3136871655782065,1.6887549243000727e+18,125.95707267252604,0.5413793176412582,2.6524277528127036,0.769690215587616,1.688754924287098e+18,125.94409790039064,0.2489275932312011,2.7765862147013345,0.3929390509923299,,,,,,,,,,,,1.6887549242880653e+18,125.945065234375,-33.52071914672852,44.14691848754883,-7.451759719848633,1.6887549242880653e+18,125.945065234375,-288.0493103027344,137.4647186279297,-139.45575561523438,1.6887549243000727e+18,125.95707267252604,0.7869592308998108,-0.5624330043792725,-0.0295590398212273,0.2509891390800476,-0.5742335816224416,1.120420018831889,-2.157360792160034
6.0,1.6887549243433272e+18,126.0003272705078,2.6170042753219604,3.3808724880218506,0.1950793862342834,1.688754924343328e+18,126.0003280436198,3.0949165423711142,-5.688935836156209,2.2711874643961587,1.6887549243433272e+18,126.0003272705078,2.830691695213318,-9.22309160232544,1.7237895131111145,1.6887549243433272e+18,126.0003272705078,0.875064492225647,1.0140363313257694,-4.724966406822205,1.6887549243390026e+18,125.99600284830728,0.9260717034339904,1.4629713321725528,-3.8573594888051352,,,,,,,,,,,,1.688754924338066e+18,125.99506591796872,-31.94447898864746,45.76707992553711,-2.8401598930358887,1.688754924338066e+18,125.99506591796872,-286.4730712890625,139.08487548828126,-134.84415283203126,1.6887549243433272e+18,126.0003272705078,0.7639425992965698,-0.5902901589870453,-0.077110782265663,0.2478729858994484,-0.5475839376449585,1.2241198420524595,-2.123017430305481
6.05,1.6887549243865777e+18,126.04357763671877,-11.744110743204752,0.6124385197957357,0.0080487330754597,1.6887549243952346e+18,126.0522345377604,-11.10349448521932,-9.708678563435871,0.7589235802491506,1.6887549243865777e+18,126.04357763671877,1.4100449085235596,-9.584967931111654,1.511717160542806,1.6887549243865777e+18,126.04357763671877,-0.9521352872252464,4.055636207262675,-2.8874582052230835,1.688754924390908e+18,126.04790779622395,-1.2002993151545525,3.699399987856547,-2.4915666381518045,,,,,,,,,,,,1.6887549243880645e+18,126.04506435546875,-22.191799545288085,50.74223861694336,1.1321599960327149,1.6887549243880645e+18,126.04506435546875,-276.72039184570315,144.0600372314453,-130.87183837890626,1.6887549243865777e+18,126.04357763671877,0.6968624591827393,-0.6333630283673605,-0.1589250216881434,0.2945001324017842,-0.8134873112042745,1.356301744778951,-1.6711384057998655
6.1,1.688754924438483e+18,126.09548282877604,-3.839943408966065,-5.062020937601726,-2.2944680054982505,1.688754924447137e+18,126.10413704427084,0.1421736081441243,-13.693126996358236,-0.0418743938207626,1.688754924438483e+18,126.09548282877604,0.8765686353047689,-9.484389623006184,2.333674987157186,1.688754924438483e+18,126.09548282877604,-1.2108367184797924,-2.402583956718445,-0.6548984150091807,1.6887549244428096e+18,126.0998095703125,-0.897513767083486,-2.74690834681193,-0.9605347315470376,,,,,,,,,,,,1.6887549244380634e+18,126.09506333007812,-19.84207954406738,51.58403854370117,-2.3960800409317016,1.6887549244380634e+18,126.09506333007812,-274.37067260742185,144.90183715820314,-134.40007934570312,1.688754924438483e+18,126.09548282877604,0.6650597850481669,-0.6582388877868652,-0.1415311247110366,0.3222771783669789,-1.1948354244232178,1.3135621150334675,-1.2725425561269124
6.15,1.6887549244903913e+18,126.14739111328124,7.587143103281657,0.7548910776774088,-2.1872307856877646,1.6887549244990395e+18,126.15603938802084,5.963711738586426,-8.407182216644287,0.5136592785517374,1.6887549244903913e+18,126.14739111328124,-0.666565070549647,-9.533601760864258,2.1865573724110923,1.6887549244903913e+18,126.14739111328124,0.8771515885988871,-0.3220786849657694,-2.935309410095215,1.6887549244947136e+18,126.15171346028647,0.9001608292261759,0.2452114621798197,-2.692592183748881,,,,,,,,,,,,1.688754924488068e+18,126.14506806640624,-12.95639991760254,53.37499847412109,-4.0845598697662355,1.688754924488068e+18,126.14506806640624,-267.48499755859376,146.6927978515625,-136.08855895996095,1.6887549244903913e+18,126.14739111328124,0.6283680399258932,-0.7180526852607727,-0.1304374039173126,0.2685590485731761,-1.859387199083964,1.334394137064616,-0.7060192624727885
6.2,1.688754924542296e+18,126.1992959798177,1.4524743556976318,3.1093347867329917,-0.0745719671249389,1.6887549245422935e+18,126.19929333496094,0.1926222294569015,-6.22612452507019,1.887637972831726,1.688754924542296e+18,126.1992959798177,-1.2812515099843342,-9.55065663655599,1.829432765642802,1.688754924542296e+18,126.1992959798177,0.8568403124809265,2.390010197957357,-1.5774068037668865,1.6887549245466225e+18,126.20362247721351,0.7884234090646108,2.334828774134318,-1.6108007431030271,,,,,,,,,,,,1.688754924538065e+18,126.19506484375,-7.546919918060302,54.546199035644534,-0.9906399846076964,1.688754924538065e+18,126.19506484375,-262.0755187988281,147.86399841308594,-132.99464111328126,1.688754924542296e+18,126.1992959798177,0.5949143369992574,-0.7262078126271566,-0.1921983808279037,0.2851750254631042,-2.176705280939738,1.3417337735493975,-0.2713969846566517
6.25,1.6887549245941993e+18,126.25119913736978,-0.6783748070398966,2.495455582936605,0.1871747573216756,1.6887549245855465e+18,126.24254622395834,-2.667399009068807,-6.693722089131673,2.0145572423934937,1.6887549245941993e+18,126.25119913736978,-1.8802141745885212,-9.457814534505207,1.7956024408340454,1.6887549245941993e+18,126.25119913736978,-0.1254309987028439,0.3146974245707195,-1.2039135694503784,1.6887549245985272e+18,126.25552734375,-0.2237294018268585,0.0443895608186721,-1.1794280608495076,,,,,,,,,,,,1.6887549245880635e+18,126.24506357421872,-3.8039599418640138,54.817039489746094,0.9784399569034576,1.6887549245880635e+18,126.24506357421872,-258.3325622558594,148.1348388671875,-131.0255554199219,1.6887549245941993e+18,126.25119913736978,0.5616274476051331,-0.7362572550773621,-0.230085661013921,0.2991399864355723,-2.376123825709025,1.3042765061060588,0.0088868197053671
6.3,1.688754924646106e+18,126.30310587565104,5.034333388010661,-2.539756457010905,-1.5543574492136638,1.6887549246374597e+18,126.29445963541669,0.7569295526482165,-11.01396338144938,1.006381352742513,1.688754924646106e+18,126.30310587565104,-2.663109620412191,-9.234569231669107,1.9475027322769165,1.688754924646106e+18,126.30310587565104,-0.8314894239107767,-1.9587903420130413,-1.519832730293274,1.6887549246504266e+18,126.30742659505206,-0.8248716990152994,-1.9309450387954712,-1.4448490142822266,,,,,,,,,,,,1.6887549246380662e+18,126.29506596679688,-0.4684799775481224,55.02687911987304,0.2464399918913841,1.6887549246380662e+18,126.29506596679688,-254.9970703125,148.344677734375,-131.75755615234374,1.688754924646106e+18,126.30310587565104,0.537496288617452,-0.7687395215034485,-0.2095029006401697,0.2754285732905069,-2.5065513451894126,1.2289327383041382,0.0758423209190368
6.35,1.6887549246980104e+18,126.35501025390624,3.4431393146514893,-6.724386850992839,-5.926987171173096,1.68875492468936e+18,126.34635986328124,3.1581271489461265,-14.854443550109863,-3.246860980987549,1.6887549246980104e+18,126.35501025390624,-2.8027238845825195,-9.15004062652588,2.150439739227295,1.6887549246980104e+18,126.35501025390624,-0.2104430794715881,1.2558880299329758,0.5908594081799189,1.6887549246936863e+18,126.35068615722656,-0.3821725621819495,1.4842498898506165,0.5836053788661957,,,,,,,,,,,,1.688754924688062e+18,126.34506176757812,2.176479959487915,54.98783950805664,-1.4151999473571777,1.688754924688062e+18,126.34506176757812,-252.35211486816405,148.3056396484375,-133.41919860839843,1.6887549246980104e+18,126.35501025390624,0.5302802920341492,-0.7772068381309509,-0.1965700735648472,0.2755317290623982,-2.4848403930664062,1.2018789847691853,0.0362431438018878
6.4,1.6887549247499123e+18,126.40691235351562,-0.5344253381093343,-5.6419369379679365,-2.1867857376734414,1.6887549247412682e+18,126.39826814778644,-4.48873574535052,-16.354344685872395,-1.49750820795695,1.6887549247499123e+18,126.40691235351562,-2.105918288230896,-9.386627515157064,1.8898010253906252,1.6887549247499123e+18,126.40691235351562,0.7058547933896383,-1.8006271223227184,2.357532580693563,1.6887549247369388e+18,126.39393872070312,0.6808602313200632,-0.7461210091908773,1.604793906211853,,,,,,,,,,,,1.6887549247380618e+18,126.39506201171876,-1.0467600017786023,54.707238006591794,-0.900359982252121,1.6887549247380618e+18,126.39506201171876,-255.57535400390623,148.02503662109376,-132.90435791015625,1.6887549247499123e+18,126.40691235351562,0.563234269618988,-0.7545065879821777,-0.1950513223807016,0.2734657526016235,-2.40558393796285,1.2770455678304036,-0.0527055620526273
6.45,1.6887549247931694e+18,126.45016943359374,4.51793098449707,-0.3621129989624023,0.3150540590286255,1.6887549247931707e+18,126.45017041015626,2.931008279323578,-10.752348264058432,2.0927228530248008,1.6887549247931694e+18,126.45016943359374,-0.5510933697223663,-9.657974243164062,1.5819803476333618,1.6887549247931694e+18,126.45016943359374,0.1839467957615852,-0.81535236351192,4.7025933265686035,1.6887549247888443e+18,126.44584407552084,0.2462295964360236,-1.1944960951805117,4.415384928385417,,,,,,,,,,,,1.6887549247880663e+18,126.44506616210938,-10.6579195022583,53.1822395324707,0.9174399852752686,1.6887549247880663e+18,126.44506616210938,-265.1865173339844,146.50003662109376,-131.08655700683593,1.6887549247931694e+18,126.45016943359374,0.6378408670425415,-0.7101330459117889,-0.1551914960145949,0.2537118643522262,-1.891418218612671,1.3936835527420044,-0.6611233353614807
6.5,1.6887549248364204e+18,126.4934201660156,-4.775864124298096,-7.246245702107747,2.4347052574157715,1.6887549248450744e+18,126.50207454427084,-7.101099967956543,-17.7527494430542,4.49252446492513,1.6887549248364204e+18,126.4934201660156,0.9273442625999452,-9.635559717814129,1.5331178108851116,1.6887549248364204e+18,126.4934201660156,0.1098030241555534,0.90255339940389,3.0573296546936035,1.68875492484075e+18,126.49775008138022,0.1326086682577927,0.762105310956637,2.9374473094940186,,,,,,,,,,,,1.688754924838063e+18,126.49506303710936,-21.403679656982423,49.54175872802735,1.834879994392395,1.688754924838063e+18,126.49506303710936,-275.93226928710936,142.85955505371095,-130.1691162109375,1.6887549248364204e+18,126.4934201660156,0.6872799793879191,-0.6569504340489706,-0.1458602646986643,0.2725721697012583,-1.0554596781730652,1.3823421796162922,-1.4825773239135742
6.55,1.6887549248883284e+18,126.54532853190103,-1.7827191352844238,-5.758652369181315,0.1177925864855447,1.6887549248969756e+18,126.55397566731772,3.1613174279530845,-14.19741408030192,1.234895884990692,1.6887549248883284e+18,126.54532853190103,1.9758761723836265,-9.488855679829916,1.4837282101313274,1.6887549248883284e+18,126.54532853190103,0.620842695236206,-3.395341753959656,2.4958426554997764,1.6887549248926574e+18,126.54965738932292,0.5990042835474014,-3.257744292418162,2.657569249471029,1.688754924901307e+18,126.55830688476564,0.0,0.0,2.519648790359497,7.159999847412109,1.2744104862213137,276.2331237792969,333.29998779296875,-122.9162841,49.2790297,1.688754924888066e+18,126.54506606445312,-27.042519760131835,46.32583923339844,1.1101999651640653,1.688754924888066e+18,126.54506606445312,-281.57111206054685,139.64363708496094,-130.893798828125,1.6887549248883284e+18,126.54532853190103,0.7356627782185873,-0.6231390039126078,-0.1027185941735903,0.2423331191142399,-0.6532699267069498,1.3152793645858765,-1.9910497665405271
6.6,1.6887549249402304e+18,126.59723030598958,-6.736893653869629,0.3614877065022786,0.5019161303838094,1.6887549249488827e+18,126.6058826497396,-3.803391536076864,-7.355137983957927,2.081955075263977,1.6887549249402304e+18,126.59723030598958,3.3069183031717935,-9.113677978515623,1.463313619295756,1.6887549249402304e+18,126.59723030598958,0.4608469158411026,-1.066825252957642,2.843475898106893,1.68875492494456e+18,126.60155981445313,0.5247841576735178,-1.2432634929815929,2.742072264353434,,,,,,,,,,,,1.6887549249380626e+18,126.5950626953125,-33.74276008605957,41.33359909057617,-0.4928799748420715,1.6887549249380626e+18,126.5950626953125,-288.27135009765624,134.65139770507812,-132.49688110351562,1.6887549249402304e+18,126.59723030598958,0.7891933719317118,-0.5722233851750692,-0.0604168772697448,0.2136138131221134,-0.4198073744773865,1.1924995978673298,-2.3245986302693686
