seconds_elapsed_rounded,accelerometer_time,accelerometer_seconds_elapsed,accelerometer_z,accelerometer_y,accelerometer_x,accelerometeruncalibrated_time,accelerometeruncalibrated_seconds_elapsed,accelerometeruncalibrated_z,accelerometeruncalibrated_y,accelerometeruncalibrated_x,gravity_time,gravity_seconds_elapsed,gravity_z,gravity_y,gravity_x,gyroscope_time,gyroscope_seconds_elapsed,gyroscope_z,gyroscope_y,gyroscope_x,gyroscopeuncalibrated_time,gyroscopeuncalibrated_seconds_elapsed,gyroscopeuncalibrated_z,gyroscopeuncalibrated_y,gyroscopeuncalibrated_x,location_time,location_seconds_elapsed,location_bearingAccuracy,location_speedAccuracy,location_verticalAccuracy,location_horizontalAccuracy,location_speed,location_bearing,location_altitude,location_longitude,location_latitude,magnetometer_time,magnetometer_seconds_elapsed,magnetometer_z,magnetometer_y,magnetometer_x,magnetometeruncalibrated_time,magnetometeruncalibrated_seconds_elapsed,magnetometeruncalibrated_z,magnetometeruncalibrated_y,magnetometeruncalibrated_x,orientation_time,orientation_seconds_elapsed,orientation_qz,orientation_qy,orientation_qx,orientation_qw,orientation_roll,orientation_pitch,orientation_yaw
0.0,1.6888760559772987e+18,44.99629866536458,-6.81851323445638,-1.414491335550944,-1.3871877988179524,1.6888760559772987e+18,44.99629866536458,-7.060820738474528,-11.0014009475708,0.8087740341822306,1.6888760559772987e+18,44.99629866536458,-0.2651090621948241,-9.571164449055988,2.131248394648234,1.688876055981626e+18,45.00062613932292,-0.4966843496852864,2.873102823893229,-1.3930272857348125,1.6888760559859446e+18,45.00494466145833,-0.4043418963750203,2.5126414696375527,-1.274061282475789,,,,,,,,,,,,1.6888760559777416e+18,44.99674155273438,-20.056799697875977,46.830918884277345,-7.546919822692871,1.6888760559777416e+18,44.99674155273438,-275.6833984375,141.6859130859375,-140.6733154296875,1.6888760559772987e+18,44.99629866536458,0.6877953410148621,-0.715308407942454,0.0375127792358398,0.1153335745135942,-1.690698742866516,1.3503280480702715,-1.3400587638219197
0.05,1.6888760560291976e+18,45.04819783528646,2.001359462738037,-0.2133890787760416,-4.723903258641561,1.6888760560291976e+18,45.04819783528646,1.0713862975438435,-9.768100102742514,-2.6063820521036782,1.6888760560291976e+18,45.04819783528646,-0.9527745842933656,-9.538965861002607,2.0528078079223633,1.6888760560335276e+18,45.052527506510415,0.4246531625588735,-0.3202461053927739,-2.3911301692326865,1.6888760560378532e+18,45.05685310872396,0.4288783073425293,-0.2784018367528916,-2.549242536226908,1.6888760560205558e+18,45.0395556640625,0.0,0.0,1.1913745403289795,5.669000148773193,1.4792624711990356,177.27259826660156,27.48358822742781,-122.7500469,49.1922033,1.688876056027739e+18,45.046739013671875,-16.738399696350097,48.06799926757813,-6.480639839172364,1.688876056027739e+18,45.046739013671875,-272.3649963378906,142.922998046875,-139.6070343017578,1.6888760560291976e+18,45.04819783528646,0.6597032149632772,-0.7402306199073792,0.0150890539710719,0.1276872629920641,-1.99937105178833,1.3358756303787231,-0.9817070166269938
0.1,1.688876056081096e+18,45.10009611002605,5.014193534851074,0.0034062067667643,-1.514605720837911,1.688876056081096e+18,45.10009611002605,2.903490940729777,-9.407581329345703,0.3866402804851532,1.688876056081096e+18,45.10009611002605,-2.133504072825114,-9.3952423731486,1.8365325530370076,1.6888760560854228e+18,45.104422526041674,0.6696610252062479,1.6733126441637676,-2.0221675634384155,1.688876056081092e+18,45.10009204101563,0.6966154277324677,1.4921147227287292,-2.1012237668037415,,,,,,,,,,,,1.6888760560777375e+18,45.09673745117187,-10.201639747619629,50.01267929077149,-5.375319862365723,1.6888760560777375e+18,45.09673745117187,-265.82823486328124,144.86767578125,-138.50171508789063,1.688876056081096e+18,45.10009611002605,0.6120503544807434,-0.7798402309417725,-0.0124952609185129,0.1293958897391954,-2.4284382661183677,1.2798229058583577,-0.5099494854609171
0.15,1.6888760561329964e+18,45.15199633789063,0.0637234052022298,-0.1063391367594401,0.2089542945226033,1.6888760561329964e+18,45.15199633789063,-2.5918256839116416,-9.363712946573893,2.1774685382843018,1.6888760561329964e+18,45.15199633789063,-2.6783505280812583,-9.241628646850586,1.9038007656733196,1.6888760561373233e+18,45.156323323567705,0.1672243575255076,2.4665720462799072,-1.5547029972076416,1.6888760561243456e+18,45.143345865885415,0.3998112976551056,2.829986015955607,-1.6504051685333252,,,,,,,,,,,,1.6888760561277366e+18,45.14673662109375,-6.275679969787598,50.854478454589845,-3.1597999572753905,1.6888760561277366e+18,45.14673662109375,-261.90227661132815,145.7094757080078,-136.28619689941405,1.6888760561329964e+18,45.15199633789063,0.5779246687889099,-0.7946291963259379,-0.068454973399639,0.1713884323835372,-2.5237632592519126,1.2297299305597942,-0.2717764476935068
0.2,1.688876056184899e+18,45.203899169921876,4.576536655426025,-3.982490539550781,-0.0911684036254883,1.688876056184899e+18,45.203899169921876,1.3716854254404705,-13.042877197265623,1.9670996566613512,1.688876056184899e+18,45.203899169921876,-3.2276527086893716,-9.044641494750977,1.9935545921325684,1.6888760561805765e+18,45.199576171874995,-0.555429220199585,-2.4498751163482666,-0.9298896491527556,1.688876056176248e+18,45.19524829101562,-0.4782565832138061,-1.5937983393669128,-0.9474520087242126,,,,,,,,,,,,1.6888760561777329e+18,45.19673295898438,-2.8840799570083617,51.0618782043457,-3.1988399505615233,1.6888760561777329e+18,45.19673295898438,-258.51067504882815,145.91687927246093,-136.3252380371094,1.688876056184899e+18,45.203899169921876,0.5535668333371481,-0.8122212092081705,-0.0664180479943751,0.170294443766276,-2.5875113805135093,1.1739346583684285,-0.2109141101439793
0.25,1.688876056236802e+18,45.25580183919271,4.470830361048381,-6.115305582682292,-4.732736269632976,1.688876056236802e+18,45.25580183919271,1.3858431329329803,-15.15893014272054,-2.4309084018071494,1.688876056236802e+18,45.25580183919271,-3.107788880666097,-9.02787939707438,2.2371142705281577,1.6888760562238287e+18,45.24282853190104,-0.334092387308677,1.6846644878387451,0.2627229491869609,1.6888760562281526e+18,45.24715275065105,-0.2743293965856234,2.2048162817955017,0.4057163298130035,,,,,,,,,,,,1.6888760562277338e+18,45.246733740234376,-1.5981999635696411,51.142399597167966,-4.53351993560791,1.6888760562277338e+18,45.246733740234376,-257.22479858398435,145.99739685058594,-137.6599151611328,1.688876056236802e+18,45.25580183919271,0.5537451306978861,-0.8084904750188192,-0.0660295188426971,0.1862468868494033,-2.516661326090494,1.1694100300470989,-0.2587409267822901
0.3,1.6888760562800553e+18,45.29905541992188,-1.7831790447235107,-6.265172004699707,-4.795665502548218,1.6888760562800553e+18,45.29905541992188,-4.386043794453144,-15.453745365142822,-2.452942311763763,1.6888760562800553e+18,45.29905541992188,-2.6256662607192993,-9.172828197479248,2.2780096530914307,1.6888760562757294e+18,45.29472941080729,0.3783801198005676,-0.4081598122914632,1.1417071223258972,1.6888760562800527e+18,45.29905265299479,0.4017966190973918,-0.8223773241043091,1.274621268113454,,,,,,,,,,,,1.6888760562777336e+18,45.29673354492188,-4.704319858551026,50.978919219970706,-3.847879934310913,1.6888760562777336e+18,45.29673354492188,-260.33091430664064,145.83391723632812,-136.97427673339843,1.6888760562800553e+18,45.29905541992188,0.5695119798183441,-0.7918844521045685,-0.0811109393835066,0.2046500965952873,-2.42760968208313,1.2090686559677124,-0.3001667708158493
0.35,1.6888760563233055e+18,45.342305826822916,5.012818614641826,-2.4351186752319336,-1.4002193609873457,1.6888760563233055e+18,45.342305826822916,3.4145580530166626,-11.904890696207682,0.6480561097462972,1.6888760563233055e+18,45.342305826822916,-1.6210621198018391,-9.45402685801188,1.9835620323816936,1.6888760563276337e+18,45.34663354492187,0.3800599873065948,0.2221004168192545,3.638720750808716,1.6888760563319565e+18,45.35095654296875,0.392531822125117,0.4152865509192149,3.752341588338216,,,,,,,,,,,,1.688876056327732e+18,45.346732128906254,-11.345999813079834,50.02243881225586,-2.991439962387085,1.688876056327732e+18,45.346732128906254,-266.97259521484375,144.8774383544922,-136.11783752441406,1.6888760563233055e+18,45.342305826822916,0.618267556031545,-0.7601135969161987,-0.0661629612247148,0.1866183032592137,-2.234217325846354,1.3036700089772542,-0.544634093840917
0.4,1.6888760563752082e+18,45.39420817057292,-3.975323041280111,-2.8856334686279297,0.1087241570154825,1.6888760563752082e+18,45.39420817057292,-3.7284165223439536,-12.54417324066162,1.9086748609940212,1.6888760563752082e+18,45.39420817057292,0.224105084935824,-9.642794609069824,1.7352372407913208,1.6888760563795354e+18,45.398535237630206,0.5242241869370142,-0.33225978910923,3.365816593170166,1.6888760563838607e+18,45.402860921223954,0.4513785056769848,-0.4426736868917942,3.3287575244903564,,,,,,,,,,,,1.6888760563777326e+18,45.39673276367187,-20.83271903991699,47.21643981933594,-1.7738799571990966,1.6888760563777326e+18,45.39673276367187,-276.4593139648438,142.071435546875,-134.90027770996093,1.6888760563752082e+18,45.39420817057292,0.6898597081502279,-0.6959322293599447,-0.0620014133552709,0.1880983561277389,-1.4370800654093423,1.386330763498942,-1.3474083344141643
0.45,1.6888760564271135e+18,45.446113444010415,-3.39799427986145,-3.642629623413086,6.694205443064372,1.6888760564271135e+18,45.446113444010415,-1.7026927669843035,-13.137194315592447,8.618548393249512,1.6888760564271135e+18,45.446113444010415,1.6725000143051147,-9.478819529215494,1.859629472096761,1.6888760564314417e+18,45.45044165039062,-0.3096577773491542,-2.336050550142924,3.1038572788238525,1.6888760564357612e+18,45.454761230468755,-0.2869030584891637,-2.5114707152048745,3.1084895928700766,,,,,,,,,,,,1.6888760564277327e+18,45.44673271484375,-28.274720001220704,43.87119979858399,-3.481879949569702,1.6888760564277327e+18,45.44673271484375,-283.90131225585935,138.7261993408203,-136.6082763671875,1.6888760564271135e+18,45.446113444010415,0.7452612916628519,-0.6430778304735819,-0.0224101928761229,0.1725050210952758,-0.8446885744730631,1.3123194376627605,-2.01802404721578
0.5,1.688876056479018e+18,45.498018066406246,-0.7653783162434896,2.19868803024292,-1.7917860349019368,1.688876056479018e+18,45.498018066406246,2.2558335065841675,-6.892924467722575,0.4362913618485133,1.688876056479018e+18,45.498018066406246,2.99841038386027,-9.075867335001629,2.1633639335632324,1.6888760564833477e+18,45.502347900390625,0.2411390468478202,-1.1793262660503387,3.4399348894755044,1.6888760564876746e+18,45.50667439778646,0.3029382576545079,-0.9642507527023554,3.437236944834391,,,,,,,,,,,,1.688876056477738e+18,45.496737988281254,-34.77000045776367,38.83259963989258,-6.866159820556641,1.688876056477738e+18,45.496737988281254,-290.39659423828124,133.68759460449218,-139.99255981445313,1.688876056479018e+18,45.498018066406246,0.7965996265411377,-0.5874340335528055,0.0384230793764193,0.1349072307348251,-0.6295961340268453,1.183066209157308,-2.372873862584432
0.55,1.6888760565309256e+18,45.54992569986979,-7.151341597239177,3.608623504638672,-3.3781658013661704,1.6888760565309256e+18,45.54992569986979,-2.7766713301340737,-4.946163813273112,-1.2464612325032551,1.6888760565309256e+18,45.54992569986979,4.351868788401286,-8.539042154947916,2.066991090774536,1.688876056535246e+18,45.55424609375,0.4682791133721669,-1.649183452129364,2.978273550669352,1.688876056530916e+18,45.54991613769531,0.5755877941846848,-1.542052924633026,3.0522645711898804,1.6888760565395674e+18,45.5585673828125,0.0,0.0,1.2001837491989136,5.85699987411499,1.480164885520935,176.84910583496094,27.88493068524655,-122.750045,49.1921995,1.6888760565277412e+18,45.54674106445312,-40.90171890258789,33.15959930419922,-7.5493597984313965,1.6888760565277412e+18,45.54674106445312,-296.5283203125,128.01459503173828,-140.6757568359375,1.6888760565309256e+18,45.54992569986979,0.8430077036221822,-0.5236108303070068,0.0589392955104509,0.1054913302262623,-0.4435530106226603,1.056752602259318,-2.630072116851806
0.6,1.6888760565828298e+18,45.601829833984375,-6.5294318199157715,6.567047754923503,-0.8654342492421468,1.6888760565828298e+18,45.601829833984375,-1.4233306646347046,-1.399801254272461,1.8604196310043335,1.6888760565828298e+18,45.601829833984375,5.08329979578654,-7.951103687286377,2.6611404418945312,1.6888760565871552e+18,45.6061552734375,-0.3745113015174866,-2.342820882797241,1.8964820702870688,1.6888760565741786e+18,45.593178548177086,-0.3284418783150613,-2.432465394337972,2.281276226043701,,,,,,,,,,,,1.6888760565777382e+18,45.59673813476562,-43.880960083007814,27.97215919494629,-11.555839920043944,1.6888760565777382e+18,45.59673813476562,-299.50755004882814,122.82715759277345,-144.68223876953124,1.6888760565828298e+18,45.601829833984375,0.8683499892552694,-0.4761694570382436,0.1162423143784204,0.0722967709104219,-0.4804668227831523,0.9451679587364196,-2.7266300519307456
0.65,1.6888760566347338e+18,45.653733968098955,-1.5434308052062988,6.510289192199707,0.7403546969095866,1.6888760566347338e+18,45.653733968098955,3.613760312398275,-1.246261795361837,3.958127419153849,1.6888760566347338e+18,45.653733968098955,5.134389718373616,-7.740805625915527,3.153059244155884,1.6888760566304e+18,45.649399902343745,0.3408627957105636,-1.0390817821025848,-0.0946841239929199,1.6888760566260815e+18,45.64508146158854,0.2544762765367825,-1.2122620741526289,0.1316923598448435,,,,,,,,,,,,1.688876056627737e+18,45.646737304687505,-43.878518676757814,25.373559188842773,-16.169879722595216,1.688876056627737e+18,45.646737304687505,-299.5051208496094,120.22855834960936,-149.29627685546876,1.6888760566347338e+18,45.653733968098955,0.8713308970133463,-0.4619913895924886,0.1568784316380818,0.0517839764555295,-0.5501178900400797,0.9090064764022828,-2.748777468999227
0.7,1.6888760566866342e+18,45.705634358723955,4.3845109939575195,3.8151405652364097,0.6564985911051432,1.6888760566866342e+18,45.705634358723955,8.760522524515787,-4.474578301111857,3.6648072401682534,1.6888760566866342e+18,45.705634358723955,4.3532101313273115,-8.27397378285726,2.943595170974731,1.688876056673658e+18,45.692658365885414,0.9447031021118164,-0.351400226354599,-2.2218695878982544,1.688876056677977e+18,45.69697705078124,0.9583457708358764,-0.3683008303244908,-2.3761131366093955,,,,,,,,,,,,1.6888760566777388e+18,45.69673867187499,-41.716679382324216,28.306439208984376,-16.538319396972657,1.6888760566777388e+18,45.69673867187499,-297.34327392578126,123.16143798828124,-149.6647186279297,1.6888760566866342e+18,45.705634358723955,0.8489202857017517,-0.5035160084565481,0.1551143874724705,0.0363801109294096,-0.595222532749176,1.0044994751612346,-2.72148331006368
0.75,1.6888760567385334e+18,45.75753344726562,8.492395718892416,-15.377692858378092,4.607386509577434,1.6888760567385334e+18,45.75753344726562,12.2117706934611,-23.905893325805664,7.839485168457031,1.6888760567385334e+18,45.75753344726562,3.6965737342834473,-8.512455304463705,3.1673851013183594,1.6888760567255634e+18,45.74456331380208,-0.3158173263072967,-1.481959104537964,-0.5135849018891653,1.6888760567298798e+18,45.74887972005208,-0.470671683549881,-1.6554956833521526,-0.0942259828249613,,,,,,,,,,,,1.688876056727741e+18,45.74674067382812,-37.288079833984376,32.91071891784668,-17.004359436035156,1.688876056727741e+18,45.74674067382812,-292.9146789550781,127.76571807861328,-150.13075561523436,1.6888760567385334e+18,45.75753344726562,0.82949831088384,-0.5279397169748942,0.1795437484979628,0.0233637566367784,-0.7063677708307902,1.0508644580841064,-2.6644402345021567
0.8,1.688876056781782e+18,45.80078198242187,6.76997709274292,0.2615671157836914,0.8124464750289918,1.688876056781782e+18,45.80078198242187,10.734501361846924,-7.947461128234863,4.560420751571655,1.688876056781782e+18,45.80078198242187,3.941723108291626,-8.193283081054688,3.6832607984542847,1.688876056777468e+18,45.796467854817706,-0.253305450702707,-1.5168801844120026,1.083216765274604,1.6888760567817892e+18,45.800789143880216,-0.1674788819315532,-1.215621852626403,0.8269588053226471,,,,,,,,,,,,1.6888760567777388e+18,45.79673862304687,-36.634159851074216,30.46095886230469,-21.898999786376955,1.6888760567777388e+18,45.79673862304687,-292.26076049804686,125.31595764160156,-155.02539672851563,1.688876056781782e+18,45.80078198242187,0.837322860956192,-0.499675840139389,0.2217440158128737,0.0039656214648857,-0.7507677674293518,0.988214910030365,-2.7137683629989624
0.85,1.688876056825039e+18,45.8440390625,-5.566442807515462,-1.509335199991862,2.07526699701945,1.688876056825039e+18,45.8440390625,-1.9984057148297627,-9.954541206359863,5.676572879155477,1.688876056825039e+18,45.8440390625,3.5452356338500977,-8.429460843404135,3.536592404047648,1.6888760568293676e+18,45.84836759440103,0.7088581919670105,1.1293880144755046,-1.8842138051986697,1.688876056833692e+18,45.852691894531254,0.8450302481651306,1.308167894681295,-1.7945693631966908,,,,,,,,,,,,1.688876056827743e+18,45.84674296875,-35.41171875,31.524799728393553,-21.940479278564453,1.688876056827743e+18,45.84674296875,-291.03831787109374,126.37979736328126,-155.0668731689453,1.688876056825039e+18,45.8440390625,0.8250884016354879,-0.5231610337893168,0.2123130212227502,0.009373702884962,-0.7842699488004049,1.0344125429789226,-2.6561957200368247
0.9,1.688876056876941e+18,45.89594099934896,-2.5488522052764893,4.346876780192058,-2.462302923202514,1.688876056876941e+18,45.89594099934896,0.7686943014462789,-4.575675010681152,0.0099700887997946,1.688876056876941e+18,45.89594099934896,3.2947452068328857,-8.906806627909342,2.407559553782145,1.6888760568812708e+18,45.90027058919271,1.872301975886027,3.939469893773397,-2.040442625681559,1.688876056885594e+18,45.90459423828125,1.858913818995158,3.954996188481649,-2.398358782132467,,,,,,,,,,,,1.6888760568777388e+18,45.89673891601562,-35.12623825073242,35.53859939575195,-14.234959983825684,1.6888760568777388e+18,45.89673891601562,-290.7528381347656,130.3935974121094,-147.36135864257812,1.688876056876941e+18,45.89594099934896,0.8170377016067505,-0.5591296156247457,0.1340449675917625,0.0230121115843454,-0.6239605744679769,1.139936049779256,-2.6789065996805825
0.95,1.6888760569288466e+18,45.94784676106771,-2.650290330251058,5.693414370218913,2.291705012321472,1.6888760569288466e+18,45.94784676106771,-0.8689934462308883,-3.8598223527272544,3.714059511820475,1.6888760569288466e+18,45.94784676106771,1.7584954897562664,-9.53749148050944,1.3576409816741943,1.6888760569331725e+18,45.95217260742188,0.3331251839796702,2.656500260035197,-4.386776129404704,1.6888760569374958e+18,45.95649576822916,0.0951422353585561,2.6883161862691245,-4.347527980804443,,,,,,,,,,,,1.6888760569277353e+18,45.9467353515625,-28.935959243774413,42.2510383605957,-5.98287992477417,1.6888760569277353e+18,45.9467353515625,-284.56255493164065,137.1060363769531,-139.1092742919922,1.6888760569288466e+18,45.94784676106771,0.7658494710922241,-0.6381912628809611,0.0451531490931907,0.0531288037697473,-0.6833032766977946,1.339960773785909,-2.447047710418701
1.0,1.6888760569807483e+18,45.99974829101563,-5.697128693262736,1.4729278882344563,1.595805327097575,1.6888760569807483e+18,45.99974829101563,-5.576872030893962,-8.189435482025146,3.400998592376709,1.6888760569807483e+18,45.99974829101563,0.0974551613132158,-9.646618207295736,1.7404797474543254,1.6888760569850726e+18,46.00407267252603,-1.682068387667338,3.2109622160593667,-2.528371214866638,1.6888760569807524e+18,45.99975231933594,-1.7309630513191223,3.673819899559021,-2.8918360471725464,,,,,,,,,,,,1.6888760569777418e+18,45.99674189453125,-21.108439636230468,47.02123870849609,-4.252919912338257,1.6888760569777418e+18,45.99674189453125,-276.7350341796875,141.87623596191406,-137.3793212890625,1.6888760569807483e+18,45.99974829101563,0.6984912554423014,-0.7032745480537415,-0.0026725234153369,0.1279540359973907,-1.4917045434316,1.3896851539611816,-1.463998556137085
1.05,1.688876057032648e+18,46.051647949218754,-1.757093866666158,-4.769088427225749,-4.546228249867757,1.688876057032648e+18,46.051647949218754,-2.3132611513137817,-14.289737383524576,-2.1413768529891968,1.688876057032648e+18,46.051647949218754,-0.5789687037467955,-9.50490379333496,2.3401378790537515,1.6888760570369784e+18,46.05597851562501,-0.3730859458446502,-1.9629645744959512,-1.54859426120917,1.6888760570240013e+18,46.04300130208333,-0.9588548143704732,-1.1169671217600503,-0.926529864470164,,,,,,,,,,,,1.6888760570277391e+18,46.046739013671875,-18.600119400024415,47.80691833496094,-6.156119918823242,1.6888760570277391e+18,46.046739013671875,-274.2267150878906,142.6619140625,-139.2825164794922,1.688876057032648e+18,46.051647949218754,0.6674503882726034,-0.7273240884145101,0.0064655567208925,0.1581112245718638,-1.808471401532491,1.3213463226954143,-1.1165438095728557
1.1,1.6888760570845545e+18,46.10355460611979,4.159224271774292,1.5721333821614585,-3.403362592061361,1.6888760570845545e+18,46.10355460611979,2.29013063510259,-7.825527191162109,-1.2011969834566116,1.6888760570845545e+18,46.10355460611979,-1.8918949365615845,-9.3819154103597,2.1374522050221763,1.6888760570802312e+18,46.09923107910157,0.7447211146354675,2.023872911930084,-3.0368402004241943,1.6888760570759063e+18,46.09490633138021,0.7205155491828918,1.2053898572921753,-3.057380517323812,1.6888760570586035e+18,46.077603515625,0.0,0.0,1.2001837491989136,6.0,1.4803138971328735,176.688232421875,27.88493068524655,-122.7500447,49.1921914,1.688876057077736e+18,46.09673603515625,-11.314279747009277,49.69791793823242,-6.287879848480225,1.688876057077736e+18,46.09673603515625,-266.9408752441406,144.55292053222655,-139.41427612304688,1.6888760570845545e+18,46.10355460611979,0.6174596945444742,-0.7718509634335836,-0.0107872849330305,0.1491794635852177,-2.2913671334584556,1.2751531600952148,-0.6209117472171783
1.15,1.68887605713646e+18,46.155460042317706,2.8271580139795938,0.4692683219909668,-0.1597718000411987,1.68887605713646e+18,46.155460042317706,0.2007976969083151,-8.755138556162516,1.9954146941502888,1.68887605713646e+18,46.155460042317706,-2.6491618951161704,-9.208661715189615,2.090473016103109,1.6888760571234824e+18,46.1424825032552,0.4160501360893249,1.511484185854594,-1.920203963915507,1.688876057127806e+18,46.14680590820313,0.3625994250178337,1.4386894702911377,-1.9092593590418496,,,,,,,,,,,,1.688876057127737e+18,46.14673735351563,-6.124399852752686,50.79103927612304,-4.123599910736084,1.688876057127737e+18,46.14673735351563,-261.75099487304686,145.6460388183594,-137.25,1.68887605713646e+18,46.155460042317706,0.5782437920570374,-0.7946904897689819,-0.0567312873899936,0.1749638617038726,-2.472071727116903,1.219873587290446,-0.3351148664951324
1.2,1.688876057188356e+18,46.20735628255208,3.300300200780233,-3.338613510131836,-0.3323402802149455,1.688876057188356e+18,46.20735628255208,0.1904287735621134,-12.369696617126465,1.995813488960266,1.688876057188356e+18,46.20735628255208,-3.1326730251312256,-9.015337944030762,2.2634402910868325,1.688876057175382e+18,46.19438216145833,-0.2894483115524053,0.3508402506510417,-0.9725483655929564,1.6888760571797066e+18,46.198706949869795,-0.3456479236483574,0.103439857562383,-0.9302459359169006,,,,,,,,,,,,1.6888760571777388e+18,46.19673896484375,-2.744999885559082,51.19607925415039,-3.6721999168396,1.6888760571777388e+18,46.19673896484375,-258.37160034179686,146.05107421875,-136.79859924316406,1.688876057188356e+18,46.20735628255208,0.5519343813260397,-0.8091730276743571,-0.0686287420491377,0.1892158289750416,-2.5157010555267334,1.1662355264027913,-0.2514728059371311
1.25,1.6888760572316124e+18,46.25061218261719,7.083898425102234,-7.672355651855469,-6.614846706390381,1.6888760572316124e+18,46.25061218261719,3.76660184469074,-16.57239055633545,-4.0731823444366455,1.6888760572316124e+18,46.25061218261719,-3.340098142623902,-8.884289741516113,2.476951241493225,1.6888760572272847e+18,46.246284749348966,-0.4940372804800669,0.9574294090270996,-0.3046690126260121,1.688876057231612e+18,46.250611816406256,-0.4302527482310931,1.2661709586779275,-0.138920959085226,,,,,,,,,,,,1.688876057227741e+18,46.246741015625005,-0.3611199848353863,51.31319885253906,-4.904399967193603,1.688876057227741e+18,46.246741015625005,-255.9877166748047,146.16819763183594,-138.03079528808593,1.6888760572316124e+18,46.25061218261719,0.5397177934646606,-0.8161495327949524,-0.0631392002105712,0.1962543427944183,-2.503775715827942,1.133339524269104,-0.2597621232271194
1.3,1.6888760572748613e+18,46.293861328125,-1.03286345799764,-7.6931502024332685,-5.544384002685547,1.6888760572748613e+18,46.293861328125,-3.976871212323507,-16.7013037999471,-2.919642368952433,1.6888760572748613e+18,46.293861328125,-2.9668091932932534,-8.992408434549967,2.5600282351175943,1.6888760572791905e+18,46.2981904296875,0.3776674369970957,-0.4870122869809469,0.8988373080889384,1.6888760572835151e+18,46.30251489257813,0.3919209639231364,-0.8237517674763998,1.0411688884099324,,,,,,,,,,,,1.6888760572777354e+18,46.296735546875006,-1.4322799563407898,50.98379898071289,-4.94099988937378,1.6888760572777354e+18,46.296735546875006,-257.0588745117187,145.8387939453125,-138.06739807128906,1.6888760572748613e+18,46.293861328125,0.5498778223991394,-0.8031241099039713,-0.0779120723406473,0.215568333864212,-2.430147727330526,1.160276174545288,-0.2842280566692352
1.35,1.6888760573267607e+18,46.345760579427086,3.6900601784388223,-3.500741640726725,-1.898949384689331,1.6888760573267607e+18,46.345760579427086,1.702692707379659,-12.85284741719564,0.3475574652353922,1.6888760573267607e+18,46.345760579427086,-2.01016898949941,-9.336360613505043,2.1817933718363443,1.6888760573310907e+18,46.35009057617188,0.4975497325261434,-0.6511823733647665,3.639840523401896,1.6888760573354166e+18,46.35441658528646,0.5502877831459045,-0.5595016504327456,3.7637953758239746,,,,,,,,,,,,1.688876057327741e+18,46.346741015625,-6.56359977722168,50.64707870483399,-4.299279880523682,1.688876057327741e+18,46.346741015625,-262.19019775390626,145.5020782470703,-137.4256805419922,1.6888760573267607e+18,46.345760579427086,0.6013089617093405,-0.7737189730008444,-0.0584009898205597,0.188744102915128,-2.301152308781942,1.261977195739746,-0.4847291608651479
1.4,1.6888760573786668e+18,46.3976669921875,-2.153534332911174,-2.138984044392904,0.3780966202418009,1.6888760573786668e+18,46.3976669921875,-2.39262322584788,-11.783853848775228,2.253640120228132,1.6888760573786668e+18,46.3976669921875,-0.2618903617064158,-9.629124641418455,1.810830036799113,1.6888760573829957e+18,46.401995605468755,0.4950044786867996,-0.6577491362889608,3.2423199812571206,1.6888760573873183e+18,46.40631876627604,0.3883066674073537,-0.6035348723332087,3.206787983576457,,,,,,,,,,,,1.688876057377742e+18,46.396742138671875,-16.235759353637697,48.89759902954101,-3.084159994125366,1.688876057377742e+18,46.396742138671875,-271.862353515625,143.75259704589843,-136.21055603027344,1.6888760573786668e+18,46.3976669921875,0.6764438350995382,-0.7148941357930502,-0.0437404053906599,0.1700653781493505,-1.698403000831604,1.3793822129567463,-1.138227880001068
1.45,1.6888760574305723e+18,46.44957234700521,-2.8392956256866455,-3.15095583597819,7.598872820536296,1.6888760574305723e+18,46.44957234700521,-1.4049857159455617,-12.67179044087728,9.566903750101725,1.6888760574305723e+18,46.44957234700521,1.4115083813667295,-9.50508944193522,1.9033172925313313,1.6888760574348997e+18,46.453899658203134,-0.2474513351917266,-1.6461290915807087,3.986506621042887,1.6888760574305695e+18,46.44956970214844,-0.2800053544342518,-1.5286139249801636,4.198171377182007,,,,,,,,,,,,1.6888760574277412e+18,46.4467412109375,-24.629359817504884,45.40595932006836,-3.8820399761199953,1.6888760574277412e+18,46.4467412109375,-280.2559509277344,140.26095886230468,-137.00843811035156,1.6888760574305723e+18,46.44957234700521,0.7392216920852661,-0.6535835464795431,-0.0100510812674959,0.1589251706997553,-0.9547284642855326,1.3237106800079346,-1.9454757769902544
1.5,1.6888760574824717e+18,46.50147184244792,-1.8135636647542317,0.8678280512491862,-1.7763920625050862,1.6888760574824717e+18,46.50147184244792,1.1437691847483318,-8.240482330322266,0.4725824743509292,1.6888760574824717e+18,46.50147184244792,2.9345313707987466,-9.092565218607584,2.1842610836029053,1.6888760574868027e+18,46.50580265299479,0.2215404659509658,-1.492445637782415,3.470529079437256,1.6888760574738245e+18,46.49282446289063,0.0164933602015177,-2.0109174251556396,3.438713232676188,,,,,,,,,,,,1.6888760574777354e+18,46.49673540039063,-33.06687889099121,39.85983810424805,-6.851519775390625,1.6888760574777354e+18,46.49673540039063,-288.6934753417969,134.71483764648437,-139.97791442871093,1.6888760574824717e+18,46.50147184244792,0.7960489789644877,-0.589643140633901,0.0462686332563559,0.1256033355991045,-0.6441433231035868,1.1875267426172893,-2.3831629753112793
1.55,1.688876057534374e+18,46.55337369791667,-7.509937445322673,2.8072023391723633,-3.146436929702759,1.688876057534374e+18,46.55337369791667,-3.1060831944147744,-5.742774327596028,-1.061615655819575,1.688876057534374e+18,46.55337369791667,4.381052811940511,-8.534231503804525,2.020107865333557,1.688876057530054e+18,46.54905395507812,0.8125271201133728,-0.7197519838809967,3.3197470903396606,1.6888760575257275e+18,46.54472770182292,0.7654141585032145,-0.6901759008566538,3.376506725947062,,,,,,,,,,,,1.688876057527742e+18,46.54674189453125,-39.81836013793945,33.12055969238281,-7.683559799194336,1.688876057527742e+18,46.54674189453125,-295.4449523925781,127.97555541992188,-140.8099578857422,1.688876057534374e+18,46.55337369791667,0.845205287138621,-0.5217494368553162,0.0631995014846324,0.0942784994840621,-0.4331285655498504,1.055802305539449,-2.6631011168162027
1.6,1.6888760575862802e+18,46.605280110677086,-7.877540270487468,8.728846232096354,-1.6693884531656902,1.6888760575862802e+18,46.605280110677086,-2.674976309140523,0.7732805212338766,0.8965108791987101,1.6888760575862802e+18,46.605280110677086,5.179762522379558,-7.939820607503255,2.5011858145395913,1.688876057573305e+18,46.59230501302083,0.0123191179397206,-2.51523764928182,2.477414925893148,1.6888760575776256e+18,46.59662565104167,-0.0617482985059419,-2.590883175532023,2.407572587331136,1.688876057577626e+18,46.59662622070312,0.0,0.0,1.2502247095108032,6.25600004196167,1.482837438583374,176.6061553955078,27.519811537069444,-122.7500444,49.1921868,1.688876057577743e+18,46.59674306640625,-43.500318908691405,27.723279571533205,-10.69695987701416,1.688876057577743e+18,46.59674306640625,-299.1269165039063,122.57827758789062,-143.82335815429687,1.6888760575862802e+18,46.605280110677086,0.8722765843073527,-0.4711941083272298,0.1150752405325571,0.0568641039232412,-0.4480786522229512,0.9433322350184122,-2.7803211212158203
1.65,1.6888760576381832e+18,46.657183186848954,-2.458812713623047,6.645126501719157,-0.1860092480977376,1.6888760576381832e+18,46.657183186848954,2.821935494740804,-1.0745767848566177,2.914856751759847,1.6888760576381832e+18,46.657183186848954,5.257946809132894,-7.703958034515381,3.0361525217692056,1.6888760576252047e+18,46.64420458984375,0.1544979959726333,-1.515353004137675,0.3329215447107951,1.688876057629533e+18,46.64853271484375,0.2443461020787557,-1.3431399861971538,0.0632245801389217,,,,,,,,,,,,1.688876057627739e+18,46.64673891601562,-43.40515899658203,24.978279495239256,-15.652599716186524,1.688876057627739e+18,46.64673891601562,-299.03175659179686,119.83327941894532,-148.77899780273438,1.6888760576381832e+18,46.657183186848954,0.8758120934168497,-0.4542831679185231,0.1593528985977172,0.0333043821156024,-0.5232745806376139,0.9029869238535564,-2.8072635332743325
1.7,1.6888760576814351e+18,46.70043518066406,2.6514089107513428,2.5061635971069336,0.5205340385437012,1.6888760576814351e+18,46.70043518066406,7.341179609298706,-5.647958755493164,3.4447672367095947,1.6888760576814351e+18,46.70043518066406,4.666969299316406,-8.13837718963623,2.859519720077514,1.6888760576771113e+18,46.696111246744785,1.1743884483973186,-0.6720026731491089,-1.9242255687713623,1.6888760576814367e+18,46.7004365234375,1.1843658685684204,-0.731663852930069,-1.9545650879542031,,,,,,,,,,,,1.6888760576777398e+18,46.69673989257812,-41.35555877685547,28.111240005493165,-16.3187198638916,1.6888760576777398e+18,46.69673989257812,-296.9821533203125,122.96623840332032,-149.44512023925782,1.6888760576814351e+18,46.70043518066406,0.8589380979537964,-0.4857828021049499,0.160843089222908,0.0155584262683987,-0.5492686331272125,0.9784219264984132,-2.8075472116470337
1.75,1.6888760577246874e+18,46.74368733723958,11.268908182779947,-15.556806246439615,2.667346636454264,1.6888760577246874e+18,46.74368733723958,15.695122083028158,-23.855444590250652,5.591428359349568,1.6888760577246874e+18,46.74368733723958,4.403412501017253,-8.282893498738607,2.859368165334066,1.688876057729014e+18,46.74801399739584,-0.0898989935715993,-1.5362751881281536,1.2622511784235635,1.6888760577333345e+18,46.75233439127605,-0.1234965994954109,-1.602401355902354,1.547677993774414,,,,,,,,,,,,1.6888760577277432e+18,46.746743017578126,-39.60851898193359,29.936359405517575,-17.553359603881837,1.6888760577277432e+18,46.746743017578126,-295.2351135253906,124.791357421875,-150.67975769042968,1.6888760577246874e+18,46.74368733723958,-0.2877360383669535,0.1561301151911417,-0.0634503960609435,0.0049967984887189,-0.5752395590146383,1.0055199265480042,-2.8306692441304526
1.8,1.6888760577765865e+18,46.79558650716146,5.383279005686442,7.06469186147054,2.208805004755656,1.6888760577765865e+18,46.79558650716146,10.006784598032633,-0.9665011564890544,5.561916669209798,1.6888760577765865e+18,46.79558650716146,4.600703875223796,-8.015447616577148,3.288398106892904,1.688876057780916e+18,46.79991577148437,0.760476311047872,-1.9394462406635284,0.0940223336219787,1.6888760577852372e+18,46.80423714192708,0.726318766673406,-1.6512196958065033,-0.1824959715207418,,,,,,,,,,,,1.688876057777739e+18,46.7967390625,-39.010719299316406,27.659839630126953,-21.457360076904298,1.688876057777739e+18,46.7967390625,-294.63731689453124,122.51483764648438,-154.58375549316406,1.6888760577765865e+18,46.79558650716146,-0.8559283216794332,0.4658162295818329,-0.2195669362942377,0.0437145692606766,-0.6201038956642151,0.9559940497080484,-2.9147139390309653
1.85,1.6888760578284923e+18,46.84749283854166,-9.444756031036375,-2.2087341944376626,4.86600120862325,1.6888760578284923e+18,46.84749283854166,-5.556931773821513,-10.627123594284058,8.18066151936849,1.6888760578284923e+18,46.84749283854166,3.865022897720337,-8.402644157409668,3.2499467531840005,1.68887605783282e+18,46.851819986979166,0.0318667888641357,2.2237531344095864,-2.4290038347244263,1.6888760578371392e+18,46.85613948567708,0.1005382363994917,2.639599601427714,-2.1797708620627723,,,,,,,,,,,,1.6888760578277435e+18,46.84674379882813,-37.08311920166015,30.602479553222658,-22.013679885864256,1.6888760578277435e+18,46.84674379882813,-292.709716796875,125.45747833251951,-155.14007568359375,1.6888760578284923e+18,46.84749283854166,-0.834075133005778,0.504059910774231,-0.2197057406107584,0.03565150188903,-0.7000868717829386,1.0291587909062705,-2.81878924369812
1.9,1.688876057880392e+18,46.899391927083336,-3.3714075883229575,-1.217111587524414,0.5497156778971354,1.688876057880392e+18,46.899391927083336,0.2436691522598266,-10.016554832458496,3.0689944426218667,1.688876057880392e+18,46.899391927083336,3.592275301615397,-8.783698081970215,2.4545652866363525,1.6888760578847222e+18,46.90372208658854,0.6896668473879496,2.1764110922813416,-2.5359051475922265,1.6888760578803963e+18,46.899396362304685,0.5143485516309738,2.218357115983963,-2.000812739133835,,,,,,,,,,,,1.688876057877743e+18,46.896743066406245,-37.4027603149414,33.55731964111328,-15.877079963684082,1.688876057877743e+18,46.896743066406245,-293.02935180664065,128.41231842041014,-149.00347900390625,1.688876057880392e+18,46.899391927083336,0.2698634664217631,-0.1924586494763692,0.038529172539711,0.0067723334456483,-0.599865734577179,1.110510230064392,-2.752784967422486
1.95,1.6888760579322929e+18,46.95129280598959,-4.424035986264546,3.1487175623575845,-1.0878406763076782,1.6888760579322929e+18,46.95129280598959,-2.8532416820526123,-6.384848276774089,0.6382854382197062,1.6888760579322929e+18,46.95129280598959,1.5479928652445476,-9.517820676167808,1.6614126364390056,1.6888760579366216e+18,46.955621419270834,1.047430286804835,4.0336958567301435,-5.2311445871988935,1.6888760579236475e+18,46.94264754231771,1.2915727694829304,3.0953051249186196,-5.383759021759033,,,,,,,,,,,,1.6888760579277391e+18,46.946739208984376,-30.817199325561525,40.54303894042969,-11.10199966430664,1.6888760579277391e+18,46.946739208984376,-286.443798828125,135.39804077148438,-144.2283935546875,1.6888760579322929e+18,46.95129280598959,0.7597708106040955,-0.6422498226165771,0.0817789981762567,0.0332084205001592,-0.8559366861979166,1.3343954881032307,-2.3551670710245767
2.0,1.6888760579842004e+18,47.0032002766927,-5.631505489349365,2.4702040354410806,-1.3783217271169026,1.6888760579842004e+18,47.0032002766927,-5.747560024261475,-7.203991254170735,0.3635096351305644,1.6888760579842004e+18,47.0032002766927,-0.1388559838136037,-9.65845012664795,1.6771178642908733,1.688876057988524e+18,47.00752384440104,-1.4575244585673015,4.721632083257039,-2.5004241466522217,1.6888760579755515e+18,46.9945517578125,-1.058527670800686,5.14715051651001,-3.341432809829712,,,,,,,,,,,,1.6888760579777334e+18,46.99673325195312,-21.847759246826172,46.75039901733398,-4.328559923171997,1.6888760579777334e+18,46.99673325195312,-277.47435302734374,141.6053955078125,-137.4549591064453,1.6888760579842004e+18,47.0032002766927,0.6892950336138407,-0.7115907271703085,-0.0102661854277054,0.1290678282578786,-1.6316007375717163,1.3969577153523762,-1.3116419315338137
2.05,1.6888760580361032e+18,47.05510327148437,0.1406538486480713,-3.3035831451416016,-4.871264934539795,1.6888760580361032e+18,47.05510327148437,-0.6173482139905294,-12.853046735127768,-2.6448665459950766,1.6888760580361032e+18,47.05510327148437,-0.7808034817377726,-9.5337184270223,2.161684989929199,1.6888760580317793e+18,47.05077954101562,-0.4925100952386856,-1.8544341325759888,-0.9506590366363524,1.6888760580274532e+18,47.046453125,-0.7382815678914388,-0.6903287172317505,-1.0527753432591755,,,,,,,,,,,,1.6888760580277376e+18,47.04673745117187,-18.09991912841797,48.00944061279297,-3.867399930953979,1.6888760580277376e+18,47.04673745117187,-273.726513671875,142.86443481445312,-136.993798828125,1.6888760580361032e+18,47.05510327148437,0.6572563648223877,-0.7341690262158712,-0.0199722892915208,0.167981152733167,-1.912274996439616,1.333549896876017,-0.9608043432235718
2.1,1.688876058088007e+18,47.107006917317705,4.553612112998962,1.6146602630615234,-3.0341686407725015,1.688876058088007e+18,47.107006917317705,2.781257470448812,-7.82991377512614,-0.9555338121329744,1.688876058088007e+18,47.107006917317705,-1.7951562404632568,-9.428828875223797,2.01392138004303,1.6888760580750298e+18,47.09402986653646,0.5432119046648344,0.7613925933837891,-2.4050782521565757,1.6888760580793556e+18,47.09835579427084,0.6347907980283102,1.2596550782521565,-2.4184155464172363,,,,,,,,,,,,1.688876058077741e+18,47.096741015625,-13.173559761047365,49.22699890136719,-5.33140001296997,1.688876058077741e+18,47.096741015625,-268.80015258789064,144.08199768066407,-138.45779724121093,1.688876058088007e+18,47.107006917317705,0.6186455488204956,-0.767948846022288,-0.0337136369198559,0.1602098246415456,-2.295583407084147,1.2918245792388916,-0.5680615901947021
2.15,1.688876058131259e+18,47.15025903320313,2.0177618265151978,2.222431182861328,-0.3658463358879089,1.688876058131259e+18,47.15025903320313,-0.3116651773452759,-7.110571384429932,1.667199194431305,1.688876058131259e+18,47.15025903320313,-2.35222852230072,-9.317257404327393,1.9683320522308347,1.6888760581269348e+18,47.145934570312505,0.3974696459869543,1.9071213006973269,-1.806124925613403,1.6888760581312543e+18,47.15025463867187,0.3177008343239625,1.7090482513109844,-1.7949257294336955,,,,,,,,,,,,1.6888760581277391e+18,47.14673901367187,-7.129679775238037,50.915479278564455,-2.40339994430542,1.6888760581277391e+18,47.14673901367187,-262.7562683105469,145.77047729492188,-135.52979736328126,1.688876058131259e+18,47.15025903320313,0.5863987803459167,-0.782755047082901,-0.0837348364293574,0.1906318217515945,-2.444219708442688,1.253115475177765,-0.3018208295106888
2.2,1.688876058174513e+18,47.193512858072914,1.1987143357594807,-1.396559715270996,-0.4655775229136149,1.688876058174513e+18,47.193512858072914,-1.6426727374394734,-10.539586067199709,1.767498254776001,1.688876058174513e+18,47.193512858072914,-2.8641885121663413,-9.127281188964844,2.168362299601237,1.6888760581788367e+18,47.19783675130208,-0.2822197477022807,1.3670654892921448,-1.2649492224057517,1.688876058183161e+18,47.20216129557292,-0.2958623965581258,1.188743776331345,-1.193936109542847,,,,,,,,,,,,1.688876058177742e+18,47.196742041015625,-3.44771990776062,51.218038940429686,-2.3911999225616456,1.688876058177742e+18,47.196742041015625,-259.07431640625,146.0730407714844,-135.5175994873047,1.688876058174513e+18,47.193512858072914,0.5561014413833618,-0.7967745065689087,-0.1047080184022585,0.2114692231019337,-2.494221448898315,1.1962447961171467,-0.1881606976191202
2.25,1.6888760582264136e+18,47.24541341145834,6.277528842290242,-5.990127881368001,-3.091560125350952,1.6888760582264136e+18,47.24541341145834,3.0039893786112466,-14.943177223205566,-0.6855437159538269,1.6888760582264136e+18,47.24541341145834,-3.2963407039642334,-8.937304178873697,2.3413028717041016,1.6888760582307372e+18,47.249737223307285,-0.4995350440343221,-0.2288708289464315,-0.5810346715152264,1.688876058235058e+18,47.25405786132813,-0.4662428845961888,0.0658716857433318,-0.4624758710463841,,,,,,,,,,,,1.6888760582277417e+18,47.24674169921875,-0.6441599898040294,51.215599060058594,-3.2134799480438234,1.6888760582277417e+18,47.24674169921875,-256.2707580566406,146.07059631347656,-136.33987426757812,1.6888760582264136e+18,47.24541341145834,0.5349430441856384,-0.8108470638593038,-0.1019502257307369,0.2142552534739176,-2.5242385069529214,1.14632515112559,-0.1558185269435246
2.3,1.688876058278316e+18,47.29731599934896,-0.0804967880249023,-7.816725730895996,-4.380649248758952,1.688876058278316e+18,47.29731599934896,-3.196811079978943,-16.796218554178875,-1.8616159756978352,1.688876058278316e+18,47.29731599934896,-3.1391157309214273,-8.96374766031901,2.454319794972738,1.6888760582826437e+18,47.30164331054687,0.4436408778031667,0.2621120711167652,0.4251622011264165,1.6888760582869663e+18,47.30596638997395,0.4455243895451228,-0.0887790968020757,0.5612324376900991,,,,,,,,,,,,1.6888760582777418e+18,47.29674165039062,-0.517279988527298,51.23755874633789,-3.193959951400757,1.6888760582777418e+18,47.29674165039062,-256.1438720703125,146.09255981445312,-136.3203582763672,1.688876058278316e+18,47.29731599934896,0.5347327391306559,-0.8039736350377401,-0.1161896462241808,0.2326776484648386,-2.478535016377767,1.1528637409210205,-0.1532019277413685
2.35,1.6888760583302154e+18,47.34921533203126,6.835957924524943,-4.11198361714681,-2.196790337562561,1.6888760583302154e+18,47.34921533203126,4.470989008744557,-13.364113807678224,0.108873426914215,1.6888760583302154e+18,47.34921533203126,-2.3877702554066977,-9.236385027567543,2.240950266520182,1.6888760583345418e+18,47.35354182942709,0.0971275760481755,0.1543961564699808,3.066136280695597,1.688876058330219e+18,47.34921911621093,-0.0122173018753529,0.0034361183643341,2.891377806663513,1.688876058319e+18,47.338,5.245847702026367,0.1570098251104354,1.2211060523986816,6.294000148773193,1.481997847557068,176.4947967529297,27.6166931889421,-122.7500431,49.1921814,1.6888760583277427e+18,47.34674257812499,-4.3261199474334715,51.0423583984375,-2.9231199741363527,1.6888760583277427e+18,47.34674257812499,-259.9527160644531,145.8973602294922,-136.0495147705078,1.6888760583302154e+18,47.34921533203126,0.5735332568486532,-0.7815175652503967,-0.1031106660763421,0.2216323465108871,-2.37925656636556,1.2291438976923623,-0.2919036249319712
2.4,1.688876058382118e+18,47.401117838541666,-4.268654505411784,-3.1701180140177407,-2.8328240315119424,1.688876058382118e+18,47.401117838541666,-4.763112783432007,-12.760723749796549,-0.7545367479324341,1.688876058382118e+18,47.401117838541666,-0.517259539415439,-9.57486057281494,2.0135737657546997,1.6888760583864476e+18,47.40544775390625,0.7981972495714823,-0.367231806119283,3.659897247950236,1.688876058373465e+18,47.39246500651041,0.7051421205202738,0.2697988351186116,3.863569895426432,,,,,,,,,,,,1.6888760583777377e+18,47.39673784179688,-13.912879753112794,49.4539192199707,-1.576239967346191,1.6888760583777377e+18,47.39673784179688,-269.5394714355469,144.3089141845703,-134.70263671875,1.688876058382118e+18,47.401117838541666,0.6479455232620239,-0.7185289065043131,-0.0985340699553489,0.2312868287165959,-1.7995193401972454,1.3531296253204346,-0.8683871825536092
2.45,1.6888760584340206e+18,47.453020507812504,-3.063050111134847,-2.5182975133260093,5.879287083943685,1.6888760584340206e+18,47.453020507812504,-2.0534406503041587,-12.112667719523111,7.771289825439453,1.6888760584340206e+18,47.453020507812504,0.9868079225222268,-9.578625043233236,1.827289303143819,1.6888760584383508e+18,47.45735074869791,-0.1578577558199564,-1.9049323399861653,3.3796120484670005,1.688876058425374e+18,47.44437394205729,0.1639155050118764,-1.5386168559392293,3.2387565771738687,,,,,,,,,,,,1.6888760584277394e+18,47.44673930664062,-22.518759536743165,46.89679946899414,-1.2883199453353882,1.6888760584277394e+18,47.44673930664062,-278.145361328125,141.75179748535157,-134.4147186279297,1.6888760584340206e+18,47.453020507812504,0.7117785612742106,-0.6669931411743164,-0.0652807789544264,0.2085918386777241,-1.092395444711049,1.355016827583313,-1.6570761601130168
2.5,1.688876058485923e+18,47.50492325846354,-1.0359084606170654,-1.0214077631632488,2.916911999384562,1.688876058485923e+18,47.50492325846354,1.395414392153422,-10.279167175292969,5.187240819136302,1.688876058485923e+18,47.50492325846354,2.4085214138031006,-9.242014249165852,2.205615282058716,1.6888760584816015e+18,47.50060168457031,-0.0194713249802589,-2.8535043001174927,3.4484106302261353,1.6888760584772723e+18,47.49627254231771,-0.1264491006731987,-2.7529152234395347,3.5176674524943032,,,,,,,,,,,,1.688876058477739e+18,47.49673896484374,-30.112039947509764,42.43403930664063,-4.738479948043823,1.688876058477739e+18,47.49673896484374,-285.738623046875,137.2890380859375,-137.86488037109376,1.688876058485923e+18,47.50492325846354,0.7691829601923624,-0.6136082410812378,0.0051789392406741,0.1757571448882421,-0.746235211690267,1.2305171489715576,-2.1500065326690674
2.55,1.6888760585378296e+18,47.556829508463544,-6.301315625508626,1.729554335276286,-4.05047082901001,1.6888760585378296e+18,47.556829508463544,-2.391825735569,-7.050651391347249,-1.9513469139734905,1.6888760585378296e+18,47.556829508463544,3.886688550313314,-8.764460563659668,2.0344103574752808,1.688876058524857e+18,47.54385693359375,0.8794932464758555,-0.7010696977376938,3.531513770421346,1.6888760585291756e+18,47.548175699869795,0.9601783355077108,-0.6450227946043015,3.5012250741322837,,,,,,,,,,,,1.688876058527739e+18,47.54673891601563,-37.03675918579101,36.86839904785156,-6.519679832458496,1.688876058527739e+18,47.54673891601563,-292.6633544921875,131.72339782714843,-139.6460754394531,1.6888760585378296e+18,47.556829508463544,0.8235576748847961,-0.5480883518854777,0.0320841533442338,0.1403129398822784,-0.4854548176129659,1.1057430505752563,-2.498730580012003
2.6,1.6888760585810673e+18,47.60006726074219,-8.873688220977783,7.816395282745361,-2.903178095817566,1.6888760585810673e+18,47.60006726074219,-4.089632987976074,-0.5330012440681456,-0.8168498575687408,1.6888760585810673e+18,47.60006726074219,4.761253595352173,-8.333651065826416,2.021614670753479,1.6888760585767578e+18,47.59575789388021,0.5769622201720873,-2.320066213607788,2.661794424057007,1.688876058581082e+18,47.60008170572917,0.4517348495622476,-2.4320581356684365,2.5797348817189536,,,,,,,,,,,,1.6888760585777408e+18,47.59674077148437,-42.277879333496095,31.40279960632324,-7.068679904937744,1.6888760585777408e+18,47.59674077148437,-297.90447387695315,126.25779724121094,-140.19507751464843,1.6888760585810673e+18,47.60006726074219,0.8558861911296844,-0.5033155828714371,0.0606861952692269,0.1010912284255027,-0.4007051587104797,1.0150447487831116,-2.6815145015716553
2.65,1.688876058624333e+18,47.64333317057291,-5.332408905029297,8.547188917795816,-0.3085285027821858,1.688876058624333e+18,47.64333317057291,-0.1495514263709386,0.6340980033079783,2.434497594833374,1.688876058624333e+18,47.64333317057291,5.160056114196777,-7.897345860799153,2.678312619527181,1.6888760586286572e+18,47.64765698242187,-0.294640672703584,-2.1277963320414224,1.323083202044169,1.6888760586329825e+18,47.65198258463542,-0.2730058655142784,-1.977014462153117,1.1471031407515209,1.6888760586243343e+18,47.64333422851563,0.0,0.0,1.2211060523986816,6.558000087738037,1.4784449338912964,176.61997985839844,27.6166931889421,-122.7500456,49.1921741,1.688876058627737e+18,47.6467373046875,-44.244519805908205,27.176719665527344,-12.231719779968262,1.688876058627737e+18,47.6467373046875,-299.87111206054686,122.03171844482422,-145.35811462402344,1.688876058624333e+18,47.64333317057291,0.8703840573628744,-0.4722483555475871,0.1161276549100875,0.074643259247144,-0.477397620677948,0.935751497745514,-2.7260804176330566
2.7,1.6888760586762376e+18,47.69523771158854,-0.675257682800293,4.510117530822754,0.200261910756429,1.6888760586762376e+18,47.69523771158854,4.405585289001465,-3.325225830078125,3.345166047414144,1.6888760586762376e+18,47.69523771158854,5.058041572570801,-7.819598197937012,3.080190658569336,1.6888760586805637e+18,47.69956339518229,0.5280420978864034,-0.9163487553596495,-0.6428847710291544,1.6888760586848837e+18,47.7038838704427,0.6002260148525238,-0.8899797598520914,-0.6944010555744171,,,,,,,,,,,,1.6888760586777408e+18,47.69674072265625,-44.38359909057617,25.812759780883788,-15.974679565429687,1.6888760586777408e+18,47.69674072265625,-300.01019897460935,120.66775665283204,-149.10107421875,1.6888760586762376e+18,47.69523771158854,0.8686681389808655,-0.4686796863873799,0.1494089861710865,0.0579420489569504,-0.5466141104698181,0.9223148624102274,-2.731529235839844
2.75,1.6888760587281377e+18,47.747137369791666,9.351790269215902,-5.750718434651692,2.195137898127238,1.6888760587281377e+18,47.747137369791666,14.167304674784342,-13.735998471577965,5.379264672597249,1.6888760587281377e+18,47.747137369791666,4.792713165283203,-7.969534715016683,3.119413375854492,1.6888760587324623e+18,47.75146240234375,0.201687345902125,-2.1533000071843467,0.692313939332962,1.6888760587367905e+18,47.755790039062504,0.0724893535176913,-2.381916344165802,0.8517497554421425,,,,,,,,,,,,1.688876058727739e+18,47.74673896484375,-41.72887954711914,27.452439498901366,-17.280080032348632,1.688876058727739e+18,47.74673896484375,-297.3554748535156,122.30743713378908,-150.40647583007814,1.6888760587281377e+18,47.747137369791666,0.8622285922368368,-0.4767880042394001,0.1674182067314783,0.0304373217125733,-0.5761828223864237,0.9480485320091248,-2.769354979197184
2.8,1.6888760587800422e+18,47.79904215494792,8.128282388051352,-2.9487646420796714,1.538056055704753,1.6888760587800422e+18,47.79904215494792,12.886945247650146,-10.668997605641684,5.402794122695923,1.6888760587800422e+18,47.79904215494792,4.735861142476399,-7.704487959543864,3.800024588902791,1.6888760587843686e+18,47.80336881510416,0.1592321991920471,-2.034435749053955,0.7003060976664225,1.6888760587886927e+18,47.80769262695313,0.2150754779577255,-1.8284724553426104,0.6362161636352539,,,,,,,,,,,,1.688876058777739e+18,47.796739013671875,-39.720759582519534,25.746879196166994,-22.950639724731445,1.688876058777739e+18,47.796739013671875,-295.34735717773435,120.6018783569336,-156.07703857421876,1.6888760587800422e+18,47.79904215494792,-0.2864384849866231,0.1486516992251078,-0.0838075677553812,0.0079795814429719,-0.6756543715794882,0.9030378858248392,-2.81364639600118
2.85,1.6888760588319424e+18,47.85094222005208,-4.257058461507161,-3.5072995821634927,2.8430912494659424,1.6888760588319424e+18,47.85094222005208,0.4087737798690796,-11.236495812733969,6.801199595133464,1.6888760588319424e+18,47.85094222005208,4.6430308024088545,-7.713451067606608,3.8933947881062823,1.688876058836271e+18,47.85527115885417,0.4364123015354077,0.4247549374898274,-0.6860016783078512,1.688876058831938e+18,47.85093811035157,0.3473532646894454,0.3543782159686088,-0.5252677649259567,,,,,,,,,,,,1.6888760588277396e+18,47.846739794921874,-38.95947952270508,25.441879272460938,-24.412199401855467,1.6888760588277396e+18,47.846739794921874,-294.58607177734376,120.2968765258789,-157.53860168457032,1.6888760588319424e+18,47.85094222005208,-0.8581177790959676,0.4520878791809082,-0.2423359404007593,0.0211579501628875,-0.6973019440968832,0.9046459794044496,-2.8412371476491294
2.9,1.688876058883848e+18,47.9028477376302,-4.89272411664327,3.842373847961426,2.849529584248861,1.688876058883848e+18,47.9028477376302,-0.582652340332667,-4.377469698588054,6.1465630531311035,1.688876058883848e+18,47.9028477376302,4.287270387013753,-8.204098383585611,3.2323199113210044,1.6888760588881746e+18,47.907174397786456,0.785114566485087,1.8024088243643444,-2.124334812164306,1.688876058875193e+18,47.89419311523437,0.8833620548248291,2.0482311646143594,-1.7433585325876872,,,,,,,,,,,,1.6888760588777393e+18,47.89673920898438,-39.77443923950195,28.445519638061523,-21.19871940612793,1.6888760588777393e+18,47.89673920898438,-295.4010437011719,123.30051727294922,-154.3251190185547,1.688876058883848e+18,47.9028477376302,-0.8476744095484415,0.4909417728583018,-0.1996944646040598,0.0096051995642482,-0.6449814041455587,0.990970770517985,-2.8069465160369873
2.95,1.6888760589357514e+18,47.95475122070312,-2.820257584253947,-0.0778234799702963,-0.6194955905278524,1.6888760589357514e+18,47.95475122070312,-0.1343968311945597,-9.128419081370035,2.0725831588109336,1.6888760589357514e+18,47.95475122070312,2.6630593140920005,-9.034850438435871,2.6273652712504068,1.6888760589314248e+18,47.9504248046875,0.7116580307483673,2.624200761318207,-5.818491458892822,1.6888760589271e+18,47.94609977213542,0.6880378723144531,2.1740185022354126,-5.170516014099121,,,,,,,,,,,,1.6888760589277376e+18,47.94673764648437,-35.18479919433594,35.1164794921875,-16.914079856872558,1.6888760589277376e+18,47.94673764648437,-290.8114013671875,129.9714782714844,-150.040478515625,1.6888760589357514e+18,47.95475122070312,0.7966879407564799,-0.582628866036733,0.1507181972265243,0.0217537890809277,-0.7927302122116089,1.1768346627553303,-2.535743236541748
3.0,1.688876058987653e+18,48.00665291341145,-5.539350827534993,3.5792479515075684,-2.229378620783488,1.688876058987653e+18,48.00665291341145,-5.0279184977213545,-6.007380644480388,-0.1054836014906565,1.688876058987653e+18,48.00665291341145,0.4886309777696926,-9.570883433024088,2.059181571006775,1.6888760589746788e+18,47.9936787109375,0.381739854812622,4.676733334859212,-5.086878617604573,1.688876058979002e+18,47.99800203450521,0.119576891263326,4.810614585876465,-4.781293233235677,,,,,,,,,,,,1.6888760589777403e+18,47.99674038085938,-26.26659927368164,43.788239288330075,-9.93323974609375,1.6888760589777403e+18,47.99674038085938,-281.8931945800781,138.64324035644532,-143.05964050292968,1.688876058987653e+18,48.00665291341145,0.7170203924179077,-0.6866361697514852,0.0506631831328073,0.098459427555402,-1.338030735651652,1.3499666849772136,-1.7354909976323445
3.05,1.6888760590309038e+18,48.04990380859375,-10.275741577148438,-6.033271789550781,-4.144828915596008,1.6888760590309038e+18,48.04990380859375,-10.279566287994385,-15.479468822479248,-1.379761353135109,1.6888760590309038e+18,48.04990380859375,-0.0266264677047729,-9.4304518699646,2.7003540992736816,1.6888760590265815e+18,48.04558146158854,-1.5764905214309692,2.969874103864034,-1.3404420018196106,1.6888760590309015e+18,48.04990136718751,-1.399594072252512,2.2998058795928955,-1.2417363325754802,,,,,,,,,,,,1.6888760590277391e+18,48.0467390625,-21.259719848632812,46.574720001220705,-7.3102398872375485,1.6888760590277391e+18,48.0467390625,-276.8863159179688,141.42971496582032,-140.43663635253907,1.6888760590309038e+18,48.04990380859375,0.6798107922077179,-0.7079353630542755,0.0030434396467171,0.1912775039672851,-1.5791563391685486,1.2921851873397827,-1.2927916646003723
3.1,1.6888760590741576e+18,48.093157470703126,7.855604648590088,-0.9968082110087076,-4.293279806772868,1.6888760590741576e+18,48.093157470703126,6.963712215423584,-10.430912176767984,-1.6823537349700928,1.6888760590741576e+18,48.093157470703126,-0.9146938224633536,-9.41835880279541,2.546212673187256,1.6888760590784832e+18,48.097483154296874,0.9247481822967528,-0.727438728014628,-2.873051961263021,1.6888760590828063e+18,48.101806803385415,0.9843584299087524,-0.2714786926905312,-2.9416724840799966,,,,,,,,,,,,1.688876059077739e+18,48.096738964843745,-17.314239692687988,48.05823822021485,-7.815319919586182,1.688876059077739e+18,48.096738964843745,-272.9408264160156,142.91323547363282,-140.94171752929688,1.6888760590741576e+18,48.093157470703126,0.6511632998784384,-0.7390296260515848,0.0052126315422356,0.1709399769703546,-1.9143306016921997,1.2876547972361247,-0.9899572928746542
3.15,1.6888760591260603e+18,48.145060465494794,3.4301350116729736,3.337137222290039,-0.8984476725260416,1.6888760591260603e+18,48.145060465494794,1.5968103607495625,-6.048656781514485,1.3972090284029643,1.6888760591260603e+18,48.145060465494794,-1.8561261494954424,-9.370048840840658,2.230943202972412,1.6888760591303882e+18,48.14938818359375,0.7005097468694051,2.858340342839559,-1.8724547227223711,1.6888760591347108e+18,48.153710611979164,0.6051638424396515,2.71127450466156,-1.843336780865987,1.6888760591433613e+18,48.162361328125,0.0,0.0,1.2115447521209717,6.590000152587891,1.4769247770309448,176.30706787109375,27.842754694732218,-122.7500452,49.192166,1.6888760591277356e+18,48.14673544921875,-10.552999877929688,49.99803924560547,-4.853159856796265,1.6888760591277356e+18,48.14673544921875,-266.1795959472656,144.85303649902343,-137.97955932617188,1.6888760591260603e+18,48.145060465494794,0.6074796319007874,-0.768852710723877,-0.0543692559003829,0.1903888384501139,-2.2638293902079263,1.2706741491953533,-0.5257518887519836
3.2,1.688876059177959e+18,48.19695882161458,-0.0297332604726155,0.7729082107543945,-1.2156788110733032,1.688876059177959e+18,48.19695882161458,-2.524228493372599,-8.432107289632162,1.1772687037785847,1.688876059177959e+18,48.19695882161458,-2.517296632130941,-9.18927033742269,2.3282340367635093,1.6888760591822876e+18,48.20128776041667,-0.3047199447949726,0.3905974080165227,-1.4439327319463091,1.6888760591866135e+18,48.20561344401042,-0.3502803146839142,0.1957822938760121,-1.3394747773806257,,,,,,,,,,,,1.6888760591777416e+18,48.196741455078126,-6.5391998291015625,50.778838348388675,-3.0987998962402346,1.6888760591777416e+18,48.196741455078126,-262.1658020019531,145.6338348388672,-136.22520141601564,1.688876059177959e+18,48.19695882161458,0.5700547496477762,-0.787339985370636,-0.090842825671037,0.2162564396858215,-2.3943326473236084,1.213972568511963,-0.3022559583187102
3.25,1.6888760592298632e+18,48.24886311848959,6.59320342540741,-5.392045974731445,-0.7313320636749268,1.6888760592298632e+18,48.24886311848959,3.5535411834716797,-14.397215207417808,1.7882361424465971,1.6888760592298632e+18,48.24886311848959,-3.062463760375977,-8.989424069722494,2.454854726791382,1.6888760592341926e+18,48.25319270833334,-0.5823581914107004,-0.5881104866663615,-0.7640396952629089,1.6888760592385114e+18,48.25751139322917,-0.5609270135561625,-0.2685770789782206,-0.6706282248099645,,,,,,,,,,,,1.6888760592277396e+18,48.24673979492188,-3.284239935874939,51.11799926757813,-4.216319894790649,1.6888760592277396e+18,48.24673979492188,-258.91083374023435,145.9730010986328,-137.34271850585938,1.6888760592298632e+18,48.24886311848959,0.5484846631685892,-0.8061813314755758,-0.077356681227684,0.2077114780743917,-2.4656657377878823,1.159471035003662,-0.2611312369505564
3.3,1.6888760592817656e+18,48.300765869140626,-1.3100466330846152,-7.677791277567546,-7.182355244954427,1.6888760592817656e+18,48.300765869140626,-4.228317022323608,-16.654245376586914,-4.419144630432129,1.6888760592817656e+18,48.300765869140626,-2.9410718282063804,-8.960708936055502,2.6984971364339194,1.6888760592860948e+18,48.305094726562494,0.0435241485635439,0.7670940558115641,0.3935499389966328,1.688876059281767e+18,48.3007666015625,0.0532979946583509,1.3262648284435272,0.4734969288110733,,,,,,,,,,,,1.6888760592777403e+18,48.29674047851562,-2.4570800065994263,50.99843826293945,-5.441199779510498,1.6888760592777403e+18,48.29674047851562,-258.08367919921875,145.8534362792969,-138.56759948730468,1.6888760592817656e+18,48.300765869140626,0.5450563629468282,-0.8014220595359802,-0.0866131658355394,0.2303756078084309,-2.3991392453511557,1.1520371437072754,-0.280040442943573
3.35,1.6888760593336645e+18,48.35266446940104,4.129889607429504,-6.7553205490112305,-4.554229736328125,1.6888760593336645e+18,48.35266446940104,1.5986049969991047,-15.91685676574707,-2.046262145042419,1.6888760593336645e+18,48.35266446940104,-2.554086128870646,-9.145791053771973,2.443253993988037,1.6888760593379937e+18,48.35699365234375,0.4580471316973368,-0.6913467372457186,2.117055376370748,1.688876059325017e+18,48.344017659505205,0.3060943931341171,-1.035162056485812,1.3653856416543324,,,,,,,,,,,,1.688876059327736e+18,48.34673598632812,-4.413959884643555,50.88131942749023,-4.7726398468017575,1.688876059327736e+18,48.34673598632812,-260.0405578613281,145.73631591796874,-137.89903869628907,1.6888760593336645e+18,48.35266446940104,0.5692896644274393,-0.7898827195167542,-0.0779511407017707,0.2135803550481796,-2.375646591186523,1.2021111249923706,-0.3433382411797841
3.4,1.6888760593855672e+18,48.4045673828125,-2.6351563135782876,-2.1589247385660806,-1.854460676511129,1.6888760593855672e+18,48.4045673828125,-3.655834118525187,-11.713066418965658,0.1878365774949391,1.6888760593855672e+18,48.4045673828125,-1.0434791545073192,-9.538396517435707,1.9775837659835815,1.6888760593812393e+18,48.40023913574218,0.9595929384231566,-1.831526756286621,4.017049789428711,1.6888760593769167e+18,48.3959169921875,0.9079493880271912,-1.4196508129437764,3.795916636784872,,,,,,,,,,,,1.6888760593777382e+18,48.396738232421875,-12.636759757995604,49.67107925415039,-3.967439889907837,1.6888760593777382e+18,48.396738232421875,-268.2633544921875,144.5260803222656,-137.09383850097657,1.6888760593855672e+18,48.4045673828125,0.6412084102630615,-0.7410367727279663,-0.0600370528797307,0.1871786415576934,-2.031265656153361,1.338366190592448,-0.7562865018844604
3.45,1.6888760594374728e+18,48.45647281901042,-1.4375669558842976,-2.716517448425293,6.115519881248474,1.6888760594374728e+18,48.45647281901042,-0.9076773722966512,-12.351750691731771,7.97966464360555,1.6888760594374728e+18,48.45647281901042,0.5070880871887008,-9.619488080342611,1.799431284268697,1.6888760594245007e+18,48.44350081380208,0.0366519118348757,-1.665473182996114,3.303915580113729,1.6888760594288243e+18,48.44782430013021,-0.1374446799357732,-1.5748105843861897,3.329368273417155,,,,,,,,,,,,1.6888760594277391e+18,48.446739208984376,-21.4012393951416,47.34819869995117,-3.940599870681763,1.6888760594277391e+18,48.446739208984376,-277.02783203125,142.20319519042968,-137.06699829101564,1.6888760594374728e+18,48.45647281901042,0.7089606324831644,-0.6879197955131531,-0.018603558690908,0.1519569953282673,-1.3188035090764365,1.375036358833313,-1.5798168977101643
3.5,1.6888760594807224e+18,48.49972241210938,-3.165208220481873,-1.875957489013672,6.400805711746216,1.6888760594807224e+18,48.49972241210938,-1.217647597193718,-11.282158851623535,8.535796403884888,1.6888760594807224e+18,48.49972241210938,1.9247591495513916,-9.390456199645996,2.070277452468872,1.6888760594764004e+18,48.49540047200521,-0.1361211414138476,-1.6661349534988403,3.7367135683695474,1.6888760594807288e+18,48.49972900390625,-0.0354301879803339,-1.7460564772288003,3.673947175343831,,,,,,,,,,,,1.6888760594777452e+18,48.49674526367187,-29.45567932128906,42.62191925048828,-6.75635986328125,1.6888760594777452e+18,48.49674526367187,-285.082275390625,137.47691650390624,-139.88275756835938,1.6888760594807224e+18,48.49972241210938,0.7607802748680115,-0.63331139087677,0.0226293145678937,0.1390481442213058,-0.8244219124317169,1.2778616547584534,-2.150567412376404
3.55,1.6888760595239813e+18,48.54298111979167,-2.3718731800715127,1.3117562929789226,-2.866905371348063,1.6888760595239813e+18,48.54298111979167,0.7738786935806276,-7.745367527008057,-0.6749753554662069,1.6888760595239813e+18,48.54298111979167,3.1229503949483237,-9.041378657023111,2.127216657002767,1.688876059528308e+18,48.547308024088544,0.4433863461017608,-1.0443250338236492,3.559664487838745,1.6888760595326272e+18,48.55162711588542,0.4846197565396626,-0.8865690926710764,3.5732053915659585,,,,,,,,,,,,1.688876059527737e+18,48.54673725585938,-36.1973991394043,37.43203964233398,-8.474119949340821,1.688876059527737e+18,48.54673725585938,-291.82399291992186,132.28703918457032,-141.60051879882812,1.6888760595239813e+18,48.54298111979167,0.8046309550603231,-0.5805716514587402,0.0565998728076616,0.1077428981661796,-0.6036460995674133,1.173852562904358,-2.4642063776652017
3.6,1.6888760595758774e+18,48.59487727864583,-7.439889113108317,5.177266279856364,-3.4124086697896323,1.6888760595758774e+18,48.59487727864583,-2.926222721735636,-3.3020952145258584,-1.2693924109141033,1.6888760595758774e+18,48.59487727864583,4.4908647537231445,-8.463616371154785,2.0783027013142905,1.6888760595802084e+18,48.59920857747395,0.2680680354436238,-1.7534377972284954,3.0340658823649087,1.6888760595845276e+18,48.603527506510424,0.1754201302925745,-1.8769852717717488,2.967226982116699,,,,,,,,,,,,1.6888760595777388e+18,48.596738916015624,-41.838679504394534,31.368639373779295,-9.433039665222168,1.6888760595777388e+18,48.596738916015624,-297.46527099609375,126.22363739013672,-142.55943603515624,1.6888760595758774e+18,48.59487727864583,0.8504329919815063,-0.5141497651735941,0.0788469016551971,0.0748905315995216,-0.4334356784820556,1.041459361712138,-2.7141069571177163
3.65,1.6888760596277768e+18,48.646776855468744,-5.002806822458903,7.506162961324056,-0.6210603713989258,1.6888760596277768e+18,48.646776855468744,0.2592224478721618,-0.3387838006019592,2.165903309981028,1.6888760596277768e+18,48.646776855468744,5.239227771759033,-7.829201539357503,2.72225022315979,1.6888760596321047e+18,48.65110481770833,-0.5422447323799133,-1.7698293526967366,1.574047048886617,1.688876059636428e+18,48.65542822265625,-0.521984338760376,-1.7066556612650554,1.3841697573661804,,,,,,,,,,,,1.6888760596277363e+18,48.64673637695312,-44.35919952392578,26.25927963256836,-13.732319641113282,1.6888760596277363e+18,48.64673637695312,-299.9857971191406,121.11427764892578,-146.8587188720703,1.6888760596277768e+18,48.646776855468744,0.87439892689387,-0.4639127155145009,0.1314466918508211,0.0510003653665383,-0.4778801798820495,0.9242210984230042,-2.783898671468099
3.7,1.6888760596796826e+18,48.6986826985677,-2.8121962547302246,4.78109089533488,0.6040184497833252,1.6888760596796826e+18,48.6986826985677,2.3629123767217,-2.9451658725738525,3.863810380299886,1.6888760596796826e+18,48.6986826985677,5.152307192484538,-7.710511525472005,3.195078452428182,1.6888760596840087e+18,48.70300854492188,0.463188573718071,-0.7817548116048177,-0.931569516658783,1.688876059688333e+18,48.7073330078125,0.5827654302120209,-0.7281004587809244,-1.1344276666641235,1.6888760596623788e+18,48.681378662109374,0.0,0.0,1.2117409706115725,6.589000225067139,1.4783658981323242,175.659912109375,27.842754694732218,-122.7500428,49.1921618,1.6888760596777354e+18,48.6967353515625,-44.12495880126953,24.944119262695313,-17.1556396484375,1.6888760596777354e+18,48.6967353515625,-299.7515563964844,119.7991180419922,-150.28203735351562,1.6888760596796826e+18,48.6986826985677,0.8724448680877686,-0.4579192002614339,0.1657795111338297,0.0397141613066195,-0.5548829833666483,0.904167413711548,-2.775640328725179
3.75,1.6888760597315817e+18,48.75058162434896,5.117519537607829,2.60066811243693,0.4379130204518637,1.6888760597315817e+18,48.75058162434896,9.4261261622111,-5.735396544138591,3.4183464845021567,1.6888760597315817e+18,48.75058162434896,4.285805145899455,-8.320319493611654,2.915719985961914,1.6888760597359127e+18,48.75491292317708,1.1675162315368652,-0.4781547685464223,-2.3018929163614907,1.6888760597315827e+18,48.75058276367187,1.3767375349998474,-0.4166100919246673,-2.5086708068847656,,,,,,,,,,,,1.6888760597277356e+18,48.74673559570313,-41.153038787841794,28.884719467163087,-17.070240020751953,1.6888760597277356e+18,48.74673559570313,-296.7796325683594,123.73971710205078,-150.19664001464844,1.6888760597315817e+18,48.75058162434896,0.8474305868148804,-0.5041728317737579,0.1641764789819717,0.0188381435970464,-0.5975399613380432,1.01335875193278,-2.7582677205403647
3.8,1.6888760597834867e+18,48.80248689778646,9.936271031697592,-16.969281514485676,3.73779813448588,1.6888760597834867e+18,48.80248689778646,13.769497871398926,-25.426930745442707,7.018547614415486,1.6888760597834867e+18,48.80248689778646,3.810425599416097,-8.441903432210287,3.216036081314087,1.688876059787816e+18,48.80681591796875,-0.8899288326501846,-2.437912344932556,1.17362483839194,1.6888760597748367e+18,48.7938369140625,-0.7555893858273824,-1.972942014535268,0.3287473320960998,,,,,,,,,,,,1.688876059777734e+18,48.796733984374995,-37.34907989501953,32.0762393951416,-18.497639465332032,1.688876059777734e+18,48.796733984374995,-292.9756713867188,126.93123626708984,-151.62403564453126,1.6888760597834867e+18,48.80248689778646,0.276253084341685,-0.181217888991038,0.048035850127538,0.0058796399583418,-0.6986810763676962,1.0367321570714314,-2.7235665321350098
3.85,1.6888760598353892e+18,48.85438948567708,-0.1495358943939209,1.645870526631673,-0.666884978612264,1.6888760598353892e+18,48.85438948567708,3.746761480967203,-6.665406862894694,2.9138598442077637,1.6888760598353892e+18,48.85438948567708,3.873495976130167,-8.2955322265625,3.516031344731649,1.688876059831062e+18,48.850062133789066,0.9248499572277068,-0.7315111309289932,0.1128573417663573,1.6888760598267405e+18,48.84574047851563,0.7312566017111143,-0.9655743439992268,0.2562579711278279,,,,,,,,,,,,1.6888760598277358e+18,48.846735791015625,-36.80983963012695,29.489839935302733,-23.21415977478027,1.6888760598277358e+18,48.846735791015625,-292.4364440917969,124.34483795166015,-156.3405548095703,1.6888760598353892e+18,48.85438948567708,-0.8348066608111063,0.4994522233804067,-0.2298453549544016,0.0254410170018672,-0.7363569537798563,1.007925073305766,-2.783353010813395
3.9,1.6888760598872924e+18,48.90629248046875,-4.217028220494588,-1.483373483022054,3.010761022567749,1.6888760598872924e+18,48.90629248046875,-0.9946165879567463,-10.35533889134725,5.8015977541605634,1.6888760598872924e+18,48.90629248046875,3.199610392252604,-8.856220245361328,2.7261231740315757,1.6888760598743206e+18,48.89332063802084,1.242092669010162,2.317113717397054,-2.238922953605652,1.688876059878644e+18,48.89764412434895,1.214756468931834,2.593326528867086,-2.0518454015254974,,,,,,,,,,,,1.688876059877734e+18,48.896733984375,-35.592279052734376,32.96195983886719,-21.29143943786621,1.688876059877734e+18,48.896733984375,-291.2188720703125,127.81695861816408,-154.41784057617187,1.6888760598872924e+18,48.90629248046875,-0.8142394026120504,0.5510172446568807,-0.1798440019289652,0.0137659904236594,-0.7020638585090637,1.1266374190648396,-2.721409877141317
3.95,1.6888760599305452e+18,48.94954528808594,-5.748140335083008,6.9888834953308105,4.17627215385437,1.6888760599305452e+18,48.94954528808594,-2.8178478479385376,-2.2322044372558594,5.962315797805786,1.6888760599305452e+18,48.94954528808594,2.9074909687042236,-9.205342769622805,1.721330165863037,1.6888760599262208e+18,48.94522078450521,1.139009157816569,4.038735628128052,-2.295580744743347,1.6888760599305423e+18,48.949542317708335,1.0882564385732014,3.83913524945577,-2.623106320699056,,,,,,,,,,,,1.6888760599277317e+18,48.94673178710938,-34.95543899536133,37.38079833984375,-11.302079772949218,1.6888760599277317e+18,48.94673178710938,-290.58203125,132.2357971191406,-144.42847595214843,1.6888760599305452e+18,48.94954528808594,0.8049280941486359,-0.5850239396095276,0.0950323231518268,0.0187885551713406,-0.5327779054641724,1.2187626361846924,-2.7184935808181763
4.0,1.6888760599738e+18,48.99279988606771,-1.8002433876196544,5.587672710418701,2.866298278172811,1.6888760599738e+18,48.99279988606771,-0.4652045965194702,-4.033700704574585,4.283950090408325,1.6888760599738e+18,48.99279988606771,1.312237282594045,-9.60562833150228,1.3529382944107056,1.6888760599781253e+18,48.997125325520834,-0.4585052629311879,3.0822734038035073,-4.854087829589844,1.6888760599824466e+18,49.001446451822915,-0.6452264040708542,3.2339206536610923,-4.865236123402913,,,,,,,,,,,,1.6888760599777357e+18,48.996735693359376,-27.523199462890624,44.107879638671875,-5.060559940338135,1.6888760599777357e+18,48.996735693359376,-283.14979248046876,138.96287841796874,-138.18695678710938,1.6888760599738e+18,48.99279988606771,0.7501105666160583,-0.6561909914016724,0.038934227079153,0.0592508949339389,-0.8517695267995199,1.3704218069712322,-2.2610249121983848
4.05,1.6888760600257047e+18,49.04470491536458,-9.552639166514078,0.7945512135823568,-1.8283669551213584,1.6888760600257047e+18,49.04470491536458,-10.0287184715271,-8.808578491210938,0.2149552106857299,1.6888760600257047e+18,49.04470491536458,-0.4988807464639346,-9.587384541829428,1.978608767191569,1.6888760600300337e+18,49.04903369140626,-1.5806647141774497,3.077793598175049,-2.5543838938077292,1.6888760600343583e+18,49.05335872395833,-1.5063428084055583,2.6819529930750527,-2.178701857725779,,,,,,,,,,,,1.6888760600277414e+18,49.04674130859375,-18.89779930114746,47.85327835083008,-4.3944398880004885,1.6888760600277414e+18,49.04674130859375,-274.5243896484375,142.70827941894532,-137.52084045410157,1.6888760600257047e+18,49.04470491536458,0.6714934309323629,-0.724481205145518,-0.0141003324727837,0.1515465130408604,-1.7990448077519734,1.3600266377131145,-1.1062530676523843
4.1,1.6888760600776102e+18,49.096610432942704,3.3128484090169277,-3.942209561665853,-7.241107940673828,1.6888760600776102e+18,49.096610432942704,2.3050857384999595,-13.428720156351725,-4.847260475158691,1.6888760600776102e+18,49.096610432942704,-1.03056401014328,-9.470765431722006,2.329133987426758,1.6888760600819336e+18,49.10093383789063,0.0407243569691976,-0.5124141226212184,-1.577610408266385,1.6888760600862618e+18,49.105261555989586,0.0869973910351594,-0.3536909818649292,-1.917251522342364,,,,,,,,,,,,1.688876060077737e+18,49.096736962890624,-15.88683967590332,48.62675857543945,-5.089839935302734,1.688876060077737e+18,49.096736962890624,-271.5134338378906,143.48175659179688,-138.21623840332032,1.6888760600776102e+18,49.096610432942704,0.6456392010052999,-0.7429588437080383,-0.0178526087353626,0.1751822531223297,-1.9848087231318157,1.307474970817566,-0.8805281718571981
4.15,1.6888760601295135e+18,49.14851334635417,5.417532563209534,-0.2682873407999674,-3.101710875829061,1.6888760601295135e+18,49.14851334635417,3.405385533968607,-9.585448265075684,-0.6781658232212067,1.6888760601295135e+18,49.14851334635417,-2.034948468208313,-9.30141576131185,2.3588315645853677,1.6888760601338396e+18,49.152839518229165,0.24938573812445,2.5003223419189453,-1.8007289171218872,1.688876060138163e+18,49.15716292317708,0.2827288055171569,2.5281167030334473,-1.5628986954689026,,,,,,,,,,,,1.6888760601277414e+18,49.14674145507813,-9.816119766235351,50.18103790283203,-4.5505999565124515,1.6888760601277414e+18,49.14674145507813,-265.4427124023438,145.03603515625,-137.67699584960937,1.6888760601295135e+18,49.14851334635417,0.5985583066940308,-0.7750343680381775,-0.0516582541167735,0.1946437259515125,-2.281899611155192,1.247925043106079,-0.5048059523105621
4.2,1.688876060181418e+18,49.20041821289063,-0.94779102007548,0.2431901295979817,-2.958172877629598,1.688876060181418e+18,49.20041821289063,-3.2771699825922647,-8.98086166381836,-0.4656034310658772,1.688876060181418e+18,49.20041821289063,-2.3521804809570312,-9.208306630452476,2.427855968475342,1.6888760601857426e+18,49.204742757161455,0.1279253593335548,1.3785701096057892,-1.2244793971379595,1.6888760601814164e+18,49.200416503906254,0.1217148969881236,1.7547104358673096,-1.282282531261444,1.6888760601814162e+18,49.200416259765625,0.0,0.0,1.2117409706115725,6.5879998207092285,1.4835708141326904,175.12966918945312,27.842754694732218,-122.7500423,49.192151,1.6888760601777413e+18,49.1967412109375,-6.670959949493408,50.715399169921874,-3.2476398944854736,1.6888760601777413e+18,49.1967412109375,-262.29755249023435,145.57039794921874,-136.37403869628906,1.688876060181418e+18,49.20041821289063,0.5722346305847168,-0.7811606129010519,-0.0973780180017153,0.2294543584187825,-2.3399293422698975,1.2192696332931516,-0.3277314205964406
4.25,1.6888760602333207e+18,49.25232071940104,4.051846504211425,-3.232356071472168,0.2555807431538899,1.6888760602333207e+18,49.25232071940104,0.9836494624614716,-12.26580842336019,2.6159533659617105,1.6888760602333207e+18,49.25232071940104,-3.090998570124308,-9.017707188924154,2.295659144719442,1.688876060237645e+18,49.25664526367188,-0.3384702565769354,-2.504496614138285,-1.3872240781784058,1.6888760602246656e+18,49.24366544596355,-0.1455895515779654,-2.0543398037552834,-1.4355333248774211,,,,,,,,,,,,1.688876060227734e+18,49.246733984375,-3.552639961242676,51.21803970336914,-3.1646799564361574,1.688876060227734e+18,49.246733984375,-259.1792419433594,146.07303771972656,-136.29107666015625,1.6888760602333207e+18,49.25232071940104,0.5465487043062845,-0.8053229848543803,-0.0930418744683265,0.2085874627033869,-2.5002259413401284,1.1668984492619832,-0.2023993829886118
4.3,1.688876060285218e+18,49.30421826171875,3.978007157643636,-7.545055707295735,-4.6089193026224775,1.688876060285218e+18,49.30421826171875,0.7445664803187052,-16.491931915283203,-2.129811537762483,1.688876060285218e+18,49.30421826171875,-3.256242036819458,-8.9311310450236,2.41439421971639,1.688876060280898e+18,49.299897949218746,-0.2951242756098508,1.8919259905815125,0.5237405970692635,1.6888760602765711e+18,49.29557104492187,-0.3404046495755513,1.007622202237447,0.1898772815863291,,,,,,,,,,,,1.6888760602777416e+18,49.29674145507812,-1.0223599791526794,50.83251953125,-4.343199920654297,1.6888760602777416e+18,49.29674145507812,-256.6489501953125,145.68751525878906,-137.46959533691407,1.688876060285218e+18,49.30421826171875,0.5398513674736023,-0.8118060628573099,-0.0822098130981127,0.2062253654003143,-2.502918243408203,1.1447021166483562,-0.218222603201866
4.35,1.6888760603371256e+18,49.35612556966146,3.5196162859598794,-4.882597923278809,-2.5332876443862915,1.6888760603371256e+18,49.35612556966146,0.7212366660435995,-14.033506075541178,-0.2849452793598175,1.6888760603371256e+18,49.35612556966146,-2.821181138356527,-9.135162989298502,2.183628797531128,1.6888760603241477e+18,49.34314762369792,0.5268712739149729,-1.0236574411392212,0.9316713213920592,1.688876060328474e+18,49.34747403971354,0.4870632166663806,-1.32181054353714,1.0919725100199382,,,,,,,,,,,,1.6888760603277391e+18,49.346739208984374,-2.954839992523193,51.01063842773438,-3.7844399929046633,1.6888760603277391e+18,49.346739208984374,-258.58143310546876,145.86563720703126,-136.91083679199218,1.6888760603371256e+18,49.35612556966146,0.5625785191853842,-0.797782282034556,-0.0844335258007049,0.1986851940552393,-2.4829920132954917,1.1987285614013672,-0.2481438070535659
4.4,1.6888760603803766e+18,49.39937658691406,2.0111212730407715,-3.52565860748291,-0.5877785086631775,1.6888760603803766e+18,49.39937658691406,0.4265207052230835,-12.999906063079834,1.490429401397705,1.6888760603803766e+18,49.39937658691406,-1.607401967048645,-9.458502292633057,2.0134944319725037,1.6888760603760527e+18,49.39505281575521,0.2501493295033772,0.1316414475440979,3.781001329421997,1.688876060380373e+18,49.399373128255206,0.3253875647981961,0.3595959941546122,3.890040715535482,,,,,,,,,,,,1.6888760603777395e+18,49.396739453124994,-8.86207971572876,50.356719207763675,-3.2256799221038817,1.6888760603777395e+18,49.396739453124994,-264.488671875,145.2117156982422,-136.3520751953125,1.6888760603803766e+18,49.39937658691406,0.6181600391864777,-0.759756475687027,-0.0667852833867072,0.1893072202801704,-2.2346853017807007,1.3038334846496582,-0.5393961817026138
4.45,1.688876060423623e+18,49.44262312825521,-3.7622572580973306,-2.658667882283529,-0.0667051871617635,1.688876060423623e+18,49.44262312825521,-3.7529428799947104,-12.321242332458496,1.7214364508787792,1.688876060423623e+18,49.44262312825521,-0.0134869871350626,-9.6468292872111,1.7234281698862712,1.6888760604279557e+18,49.44695572916667,0.6758715113004049,0.1658499191204706,3.362456878026326,1.6888760604322762e+18,49.45127596028646,0.5744678614040216,0.0721839008231958,3.2947017351786294,,,,,,,,,,,,1.6888760604277376e+18,49.4467375,-19.068599700927734,47.87035903930664,-1.383480000495911,1.6888760604277376e+18,49.4467375,-274.6951965332031,142.72536010742186,-134.50987548828124,1.688876060423623e+18,49.44262312825521,0.6797811985015869,-0.7038561105728149,-0.0701888427138328,0.1923938691616057,-1.562447190284729,1.388765811920166,-1.2040522694587708
4.5,1.688876060475527e+18,49.49452693684896,-4.487576723098755,-3.1042359670003257,6.978281339009603,1.688876060475527e+18,49.49452693684896,-3.0520453453063965,-12.64726416269938,8.87338399887085,1.688876060475527e+18,49.49452693684896,1.4127300182978313,-9.52728303273519,1.830389102300008,1.6888760604798548e+18,49.49885481770833,-0.3648392707109451,-2.5077036221822104,3.0170634587605796,1.688876060484182e+18,49.50318221028646,-0.3286455124616623,-2.753831386566162,3.0466903845469155,,,,,,,,,,,,1.688876060477739e+18,49.4967390625,-26.334919738769532,45.03751907348633,-2.1227999448776247,1.688876060477739e+18,49.4967390625,-281.9615112304688,139.89252014160155,-135.24919738769532,1.688876060475527e+18,49.49452693684896,0.7339445352554321,-0.652742326259613,-0.0355171356350183,0.1821167667706807,-0.9217844208081564,1.3321270147959392,-1.9085371891657512
4.55,1.6888760605274337e+18,49.54643334960937,-2.0420201619466147,1.2160382270812988,-1.4120337963104248,1.6888760605274337e+18,49.54643334960937,0.7842475945750872,-7.941579023996989,0.785045251250267,1.6888760605274337e+18,49.54643334960937,2.803466320037842,-9.14187208811442,2.1323655446370444,1.6888760605317553e+18,49.55075520833333,0.2440406618018945,-1.4693345427513125,3.97612190246582,1.6888760605360786e+18,49.55507877604166,0.3200424909591675,-1.228908121585846,4.017457167307536,,,,,,,,,,,,1.688876060527735e+18,49.546735058593754,-33.20595932006836,40.05991897583008,-6.273239803314209,1.688876060527735e+18,49.546735058593754,-288.8325622558594,134.9149169921875,-139.3996368408203,1.6888760605274337e+18,49.54643334960937,0.7893553773562113,-0.5961964925130209,0.0314350550373394,0.1399644315242767,-0.6582786242167155,1.201896071434021,-2.327073097229004
4.6,1.6888760605793362e+18,49.59833601888021,-6.2099456787109375,3.668120861053467,-3.756248871485392,1.6888760605793362e+18,49.59833601888021,-1.7595222194989522,-4.866004228591919,-1.7174484332402546,1.6888760605793362e+18,49.59833601888021,4.427622000376384,-8.518379847208658,1.9740869998931885,1.6888760605836616e+18,49.60266145833333,0.8293004731337229,-1.4090625047683716,3.5161403814951577,1.6888760605879877e+18,49.60698754882812,0.7464264283577601,-1.4839443763097129,3.407508134841919,,,,,,,,,,,,1.688876060577742e+18,49.596741943359376,-41.56051864624023,32.44711875915527,-7.237039947509766,1.688876060577742e+18,49.596741943359376,-297.18711547851564,127.30211791992188,-140.36343688964843,1.6888760605793362e+18,49.59833601888021,0.8455827434857687,-0.5202891627947489,0.0555571305255094,0.1022693961858749,-0.4213999509811401,1.0529032945632937,-2.651968002319336
4.65,1.68887606063124e+18,49.65024015299479,-6.077831427256267,7.065523147583008,0.8062613805135092,1.68887606063124e+18,49.65024015299479,-0.7439684222141901,-0.8632107774416605,3.185046434402466,1.68887606063124e+18,49.65024015299479,5.311061541239421,-7.912988662719727,2.3140715758005777,1.688876060635562e+18,49.65456201171875,-0.0441350142161051,-1.7948747873306274,1.6013323068618774,1.6888760606312348e+18,49.65023474121094,-0.1237002164125442,-1.8697821497917175,1.8145751357078552,,,,,,,,,,,,1.6888760606277391e+18,49.64673901367187,-44.99359893798828,26.796079254150392,-10.24799976348877,1.6888760606277391e+18,49.64673901367187,-300.6201965332031,121.6510772705078,-143.37439575195313,1.68887606063124e+18,49.65024015299479,0.875101904074351,-0.468539148569107,0.0967683618267376,0.0706053202350934,-0.4098680416742961,0.9384859204292296,-2.770766576131185
4.7,1.6888760606831432e+18,49.70214306640625,-2.783991495768229,7.272467295328776,0.1040378411610921,1.6888760606831432e+18,49.70214306640625,2.5226332743962607,-0.5581258833408356,2.857030232747396,1.6888760606831432e+18,49.70214306640625,5.283823331197103,-7.814847946166992,2.688278913497925,1.6888760606874693e+18,49.70646923828125,0.308894192179044,-0.5173010335614284,-0.8985827614863714,1.6888760606744906e+18,49.69349080403646,0.2567670245965321,-0.935998280843099,-0.2845613956451416,1.6888760607004442e+18,49.71944409179687,0.0,0.0,1.2539634704589844,6.5920000076293945,1.4897129535675049,175.1163330078125,28.44817820696506,-122.750043,49.1921455,1.6888760606777403e+18,49.69674047851562,-45.16195907592773,25.685879516601563,-13.22235984802246,1.6888760606777403e+18,49.69674047851562,-300.78855590820314,120.54087829589844,-146.3487579345703,1.6888760606831432e+18,49.70214306640625,0.8755517601966858,-0.46267036596934,0.1282408932844797,0.05334926272432,-0.470389574766159,0.9215408364931742,-2.783003886540731
4.75,1.6888760607350487e+18,49.754048665364586,3.4306392669677734,3.8826516469319663,-0.2376008828481038,1.6888760607350487e+18,49.754048665364586,8.00379228591919,-4.423132658004761,2.4163520336151123,1.6888760607350487e+18,49.754048665364586,4.550351460774739,-8.2900390625,2.5892394383748374,1.6888760607307136e+18,49.74971350097656,0.5272530615329742,-0.1367574594914913,-2.3018165826797485,1.688876060726397e+18,49.74539672851562,0.4761694570382436,-0.1384627862523,-2.1606812874476113,,,,,,,,,,,,1.6888760607277412e+18,49.74674116210938,-42.536519622802736,29.077479553222656,-13.144279861450196,1.6888760607277412e+18,49.74674116210938,-298.1631103515625,123.93247680664062,-146.2706787109375,1.6888760607350487e+18,49.754048665364586,0.8541636268297831,-0.5019394954045614,0.1256962766249974,0.0489551126956938,-0.5178874631722769,1.0071973999341328,-2.736751159032186
4.8,1.688876060786948e+18,49.805948242187505,14.684768040974935,-17.81415780385335,1.4509549935658772,1.688876060786948e+18,49.805948242187505,18.85504372914632,-26.188247680664062,4.531009197235107,1.688876060786948e+18,49.805948242187505,4.14747412999471,-8.358344078063965,3.015340725580851,1.6888760607739748e+18,49.79297493489583,-0.4922046487530072,-2.0779090325037637,0.1604539553324381,1.6888760607783017e+18,49.797301839192706,-0.5817982430259386,-2.296955188115438,0.3951789140701293,,,,,,,,,,,,1.68887606077774e+18,49.79673999023437,-39.26935958862305,31.38571891784668,-15.210960006713869,1.68887606077774e+18,49.79673999023437,-294.8959533691406,126.24071655273436,-148.3373596191406,1.688876060786948e+18,49.805948242187505,0.8428129951159159,-0.511723260084788,0.1617149809996287,0.0337734781205653,-0.626899778842926,1.0199629664421084,-2.703153133392334
4.85,1.6888760608302008e+18,49.84920092773437,1.5130372047424316,2.87117338180542,5.382884979248047,1.6888760608302008e+18,49.84920092773437,5.542674779891968,-5.403591513633728,8.906683921813965,1.6888760608302008e+18,49.84920092773437,4.006836175918579,-8.25901985168457,3.4590853452682495,1.6888760608258757e+18,49.8448759765625,0.1071050365765889,-1.628770351409912,-0.0413861225048701,1.6888760608302006e+18,49.849200439453135,0.1559742614626884,-1.3421218792597454,-0.2120211447278659,,,,,,,,,,,,1.6888760608277386e+18,49.846738671875,-37.99811935424805,30.295038986206055,-20.29347953796387,1.6888760608277386e+18,49.846738671875,-293.6247192382813,125.15003509521485,-153.4198760986328,1.6888760608302008e+18,49.84920092773437,0.8391780257225037,-0.5041999220848083,0.203461542725563,0.0109758991748094,-0.711746871471405,1.0006100833415985,-2.714476227760315
4.9,1.6888760608734515e+18,49.892451416015625,-7.321127891540527,-0.6947471300760905,1.4147480328877766,1.6888760608734515e+18,49.892451416015625,-3.755535125732422,-9.179266452789308,4.931009252866109,1.6888760608734515e+18,49.892451416015625,3.5427914460500083,-8.46877415974935,3.451547702153524,1.688876060877779e+18,49.89677913411458,0.4485278005401292,1.5905403792858124,-1.3321953018506367,1.688876060882102e+18,49.90110196940103,0.5326744976143043,1.9514599392811456,-1.2988013525803883,,,,,,,,,,,,1.6888760608777413e+18,49.89674116210937,-35.95095977783203,32.16895942687988,-20.332519912719725,1.6888760608777413e+18,49.89674116210937,-291.5775512695312,127.02395782470704,-153.45891723632812,1.6888760608734515e+18,49.892451416015625,0.8248824874560038,-0.5270170172055563,0.2033053487539291,0.0153714921325444,-0.7720028162002563,1.041942795117696,-2.645906845728556
4.95,1.688876060925356e+18,49.94435587565104,-4.346133629480998,3.6724600791931152,1.0381559133529663,1.688876060925356e+18,49.94435587565104,-1.1595219535132248,-5.283352613449097,3.5631123781204224,1.688876060925356e+18,49.94435587565104,3.1638102531433105,-8.940067609151205,2.460242986679077,1.688876060929678e+18,49.948677978515626,1.2476922671000164,3.4614171187082925,-3.1897346576054892,1.6888760609339994e+18,49.95299918619792,1.2243775526682537,3.3503922621409097,-3.4833573500315347,,,,,,,,,,,,1.688876060927737e+18,49.94673701171875,-36.12908020019531,35.32387924194336,-13.056439781188963,1.688876060927737e+18,49.94673701171875,-291.75567016601565,130.17887420654296,-146.1828369140625,1.688876060925356e+18,49.94435587565104,0.8118734161059061,-0.5680478016535441,0.1220527986685434,0.0454054027795791,-0.6595877408981323,1.149157722791036,-2.593242565790812
5.0,1.6888760609772552e+18,49.99625496419271,-4.0164453983306885,4.074193636576335,0.6210527420043945,1.6888760609772552e+18,49.99625496419271,-2.5284159580866494,-5.464010556538899,2.448854605356852,1.6888760609772552e+18,49.99625496419271,1.465228021144867,-9.522459030151367,1.7630883852640789,1.6888760609815862e+18,50.00058618164062,-0.1375464970866839,3.23677134513855,-4.404440085093181,1.6888760609859092e+18,50.0049091796875,-0.3331760664780934,3.321121613184611,-4.381939888000488,,,,,,,,,,,,1.688876060977741e+18,49.996741015625005,-29.170199584960937,42.321798706054686,-6.541639900207519,1.688876060977741e+18,49.996741015625005,-284.7967956542969,137.1768005371094,-139.66803588867188,1.6888760609772552e+18,49.99625496419271,0.7523934443791708,-0.6501223643620809,0.0407826701800028,0.0897561634580294,-0.903232435385386,1.331056276957194,-2.168668588002523
5.05,1.6888760610291612e+18,50.0481612141927,-8.663640260696413,-0.6527430216471354,-2.803041855494181,1.6888760610291612e+18,50.0481612141927,-8.73779066403707,-10.22253704071045,-0.5379862984021506,1.6888760610291612e+18,50.0481612141927,-0.0969517131646474,-9.554048856099444,2.200341979662577,1.6888760610334866e+18,50.05248665364584,-1.5070554812749226,2.5855380495389304,-2.2321524818738303,1.688876061037812e+18,50.05681193033854,-1.43960573275884,2.16755348443985,-1.9118554592132568,,,,,,,,,,,,1.6888760610277391e+18,50.04673916015625,-20.80099983215332,46.93095932006836,-4.047959852218628,1.6888760610277391e+18,50.04673916015625,-276.42759399414064,141.78595581054688,-137.1743591308594,1.6888760610291612e+18,50.0481612141927,0.6822023193041483,-0.7102432052294413,-0.0139864306353653,0.1707553962866464,-1.6029564539591472,1.3432129621505735,-1.2747753461201985
5.1,1.6888760610810644e+18,50.10006445312501,5.545639991760254,-3.2106005350748696,-6.289170900980632,1.6888760610810644e+18,50.10006445312501,4.7541397412618,-12.665210088094076,-3.700300693511963,1.6888760610810644e+18,50.10006445312501,-0.8143018186092377,-9.438864390055338,2.5241568088531494,1.6888760610853868e+18,50.104386881510415,0.0773253676791985,-0.9681195914745332,-2.037744641304016,1.6888760610810588e+18,50.10005895996093,-0.0630718395113945,-1.50211763381958,-1.7923550009727478,,,,,,,,,,,,1.6888760610777426e+18,50.09674252929688,-17.394759559631346,47.94111938476563,-5.546119976043701,1.6888760610777426e+18,50.09674252929688,-273.0213562011719,142.7961181640625,-138.67251586914062,1.6888760610810644e+18,50.10006445312501,0.6517670353253683,-0.7356051802635193,-0.0097320733281473,0.1835057189067204,-1.8789362907409668,1.2952542702356975,-0.9858773549397788
5.15,1.688876061132971e+18,50.151971028645825,3.1477256218592324,1.931657314300537,-2.49118169148763,1.688876061132971e+18,50.151971028645825,1.2422737975915272,-7.416553974151611,-0.1048854105174541,1.688876061132971e+18,50.151971028645825,-1.9282533327738445,-9.33246612548828,2.321582794189453,1.6888760611372933e+18,50.156293457031246,0.6909394860267639,2.3576852877934775,-2.11171027024587,1.6888760611243164e+18,50.143316731770845,0.7340563933054606,1.8924605250358584,-2.581669290860494,,,,,,,,,,,,1.6888760611277368e+18,50.1467369140625,-11.460679817199708,49.80039901733399,-5.3655599594116214,1.6888760611277368e+18,50.1467369140625,-267.0872802734375,144.6553955078125,-138.49195861816406,1.688876061132971e+18,50.151971028645825,0.6044317285219828,-0.7716965476671854,-0.0480210781097411,0.190495416522026,-2.262174050013224,1.257994254430135,-0.5361485183238983
5.2,1.6888760611848696e+18,50.203869710286455,1.2546476523081462,0.5868900616963705,0.0654628674189249,1.6888760611848696e+18,50.203869710286455,-1.2825529252489407,-8.612366835276285,2.4311077992121377,1.6888760611848696e+18,50.203869710286455,-2.560002088546753,-9.183511734008787,2.300931453704834,1.688876061180546e+18,50.19954602050781,0.1005636937916278,0.4017966389656067,-1.6832391619682312,1.688876061176219e+18,50.19521907552083,0.1741984089215596,0.8238026797771454,-1.6236798365910847,,,,,,,,,,,,1.6888760611777416e+18,50.196741455078126,-5.873079776763916,50.76907958984375,-2.725479984283447,1.6888760611777416e+18,50.196741455078126,-261.4996826171875,145.62407836914062,-135.8518798828125,1.6888760611848696e+18,50.203869710286455,0.5699143012364706,-0.7891098856925964,-0.0873186116417248,0.2115146815776824,-2.4075804551442466,1.2122705777486165,-0.301122526327769
5.25,1.6888760612367729e+18,50.25577278645833,3.1722212632497153,-3.071279207865397,-0.5570983091990153,1.6888760612367729e+18,50.25577278645833,0.0833499828974406,-12.064412434895834,1.94576358795166,1.6888760612367729e+18,50.25577278645833,-3.111672878265381,-8.977388064066568,2.4381484190622964,1.688876061223798e+18,50.242798014322915,-0.4271984299023945,-0.1756746570269266,-1.0014626582463582,1.6888760612281203e+18,50.24712027994792,-0.4440481265385945,-0.2292271774883072,-0.9359473586082458,1.6888760612118405e+18,50.23084033203125,0.0,0.0,1.2539634704589844,6.579999923706055,1.490934133529663,175.30191040039062,28.44817820696506,-122.7500431,49.1921364,1.688876061227741e+18,50.24674091796875,-1.4615599513053894,51.261959838867185,-3.0646399021148683,1.688876061227741e+18,50.24674091796875,-257.08815307617186,146.11695556640626,-136.1910369873047,1.6888760612367729e+18,50.25577278645833,0.544913629690806,-0.8070277174313863,-0.0847060730059941,0.2110618899265925,-2.4768247604370117,1.1563097635904949,-0.234018584092458
5.3,1.6888760612886715e+18,50.307671630859375,3.3838069438934326,-8.014341990152994,-6.05355978012085,1.6888760612886715e+18,50.307671630859375,0.1066800306240717,-16.873587290445965,-3.321038464705149,1.6888760612886715e+18,50.307671630859375,-3.2999281883239746,-8.843500137329102,2.6678078969319663,1.6888760612757012e+18,50.29470109049479,-0.5152648488680521,0.4836525321006776,-0.4570799171924591,1.6888760612800256e+18,50.29902563476563,-0.4833471278349558,0.7350744803746542,-0.3284418980280558,,,,,,,,,,,,1.6888760612777408e+18,50.2967408203125,0.6709999799728393,51.20827865600586,-4.557919883728028,1.6888760612777408e+18,50.2967408203125,-254.9555908203125,146.0632781982422,-137.68431701660157,1.6888760612886715e+18,50.307671630859375,0.5324020783106486,-0.8133734663327535,-0.0806036790211994,0.2198443859815597,-2.461784760157267,1.1234870354334512,-0.2405092467864354
5.35,1.6888760613319278e+18,50.35092785644531,-0.2500852346420288,-9.119484901428224,-4.871942043304443,1.6888760613319278e+18,50.35092785644531,-3.299104243516922,-18.077177047729492,-2.194218397140503,1.6888760613319278e+18,50.35092785644531,-3.0718204975128174,-8.941946983337402,2.613010287284851,1.6888760613276086e+18,50.34660847981771,0.4141666367650032,-0.8043568134307861,0.671748141447703,1.6888760613319278e+18,50.35092749023437,0.4540764987468719,-1.1197160085042317,0.7798203627268473,,,,,,,,,,,,1.6888760613277435e+18,50.34674365234375,-0.7002799928188324,50.776398468017575,-4.328560018539429,1.6888760613277435e+18,50.34674365234375,-256.3268798828125,145.631396484375,-137.4549591064453,1.6888760613319278e+18,50.35092785644531,0.5418799221515656,-0.805634617805481,-0.0861804112792015,0.2231343016028404,-2.437257409095764,1.147308349609375,-0.2530483603477477
5.4,1.6888760613751767e+18,50.394176432291665,4.331689834594727,-3.887965838114421,-1.9645956754684448,1.6888760613751767e+18,50.394176432291665,2.028316020965576,-13.159926096598308,0.3158525706579288,1.6888760613751767e+18,50.394176432291665,-2.3261751333872476,-9.25621509552002,2.2157347202301025,1.6888760613795064e+18,50.39850651041667,0.6729698777198792,-0.1115338057279587,3.3129258155822754,1.6888760613838262e+18,50.402826009114584,0.7306457360585531,0.0154752408464749,3.50606115659078,,,,,,,,,,,,1.6888760613777364e+18,50.396736572265624,-5.748640084266663,50.81543884277344,-3.374519920349121,1.6888760613777364e+18,50.396736572265624,-261.37523193359374,145.67043762207032,-136.50091857910155,1.6888760613751767e+18,50.394176432291665,0.5846284429232279,-0.7829314668973287,-0.0725858484705288,0.1983269949754079,-2.3706061840057373,1.235997200012207,-0.3798493643601735
5.45,1.6888760614270833e+18,50.44608341471354,-2.9933478832244873,-1.1167173385620115,0.0022961298624674,1.6888760614270833e+18,50.44608341471354,-3.4548370043436685,-10.760523478190104,1.8171494404474895,1.6888760614270833e+18,50.44608341471354,-0.4842906047900517,-9.628060976664225,1.750139832496643,1.6888760614314056e+18,50.45040543619791,0.8510879973570504,-0.8221227924029032,3.710446357727051,1.688876061435731e+18,50.45473079427084,0.7469354768594106,-0.8569421172142029,3.6320521036783857,,,,,,,,,,,,1.6888760614277412e+18,50.446741162109376,-15.130439949035644,48.67799911499024,-1.0125999689102172,1.6888760614277412e+18,50.446741162109376,-270.75703125,143.53299865722656,-134.1389953613281,1.6888760614270833e+18,50.44608341471354,0.6638657649358114,-0.7209824721018473,-0.067049741744995,0.1850433995326359,-1.810175895690918,1.3798433144887288,-0.9712672233581544
5.5,1.6888760614789865e+18,50.497986328125,-4.758002916971843,-1.933703104654948,6.928421179453532,1.6888760614789865e+18,50.497986328125,-3.5992039839426675,-11.51226838429769,8.806584199269613,1.6888760614789865e+18,50.497986328125,1.135997513930003,-9.562820116678871,1.8134494225184123,1.6888760614833134e+18,50.502313557942706,-0.5532912065585455,-2.396984338760376,3.4865642388661704,1.6888760614876306e+18,50.50663061523437,-0.5476406787832578,-2.698446273803711,3.468136469523112,,,,,,,,,,,,1.6888760614777295e+18,50.49672944335937,-24.09255981445313,45.574319458007814,-2.344839906692505,1.6888760614777295e+18,50.49672944335937,-279.7191528320312,140.42931518554687,-135.4712371826172,1.6888760614789865e+18,50.497986328125,0.7279183864593506,-0.6638331611951193,-0.0259012390160933,0.1668663471937179,-1.031908631324768,1.348815123240153,-1.8344983259836831
5.55,1.6888760615308874e+18,50.54988745117188,-1.2021714846293132,0.9028952916463217,-1.3137537638346355,1.6888760615308874e+18,50.54988745117188,1.3128620038429897,-8.313064575195312,1.019143057366212,1.6888760615308874e+18,50.54988745117188,2.492232004801432,-9.200214703877768,2.2681833108266196,1.6888760615352128e+18,50.55421297200521,-0.0704531222581863,-2.0135136491929493,3.900883674621582,1.688876061530886e+18,50.54988598632812,-0.1681406646966934,-2.511572480201721,3.809966564178467,,,,,,,,,,,,1.6888760615277412e+18,50.54674130859375,-30.80743980407715,40.81631927490234,-6.968639850616455,1.6888760615277412e+18,50.54674130859375,-286.4340393066406,135.67131958007812,-140.09503784179688,1.6888760615308874e+18,50.54988745117188,0.7824300130208334,-0.6077622969945272,0.0532783692081768,0.1208131611347198,-0.7461577852567037,1.2186670303344729,-2.2984742323557534
5.6,1.688876061582787e+18,50.60178743489583,-6.255903879801433,0.9416829744974772,-1.3448729117711384,1.688876061582787e+18,50.60178743489583,-1.9641086260477705,-7.596015453338623,0.9990034649769464,1.688876061582787e+18,50.60178743489583,4.268993854522705,-8.521953264872232,2.279162883758545,1.6888760615871178e+18,50.60611767578124,0.2720895608266194,-0.799724409977595,3.605530261993408,1.6888760615741445e+18,50.593144287109375,0.2391537477572758,-0.2691370360553265,4.0222422281901045,,,,,,,,,,,,1.6888760615777413e+18,50.59674125976563,-38.222599792480466,33.85499954223633,-8.225239849090576,1.6888760615777413e+18,50.59674125976563,-293.8492004394531,128.70999908447266,-141.3516357421875,1.688876061582787e+18,50.60178743489583,0.8410090605417887,-0.5256179769833883,0.0746183767914771,0.1010647515455881,-0.4924523532390594,1.0538828770319622,-2.6105459531148276
5.65,1.688876061634694e+18,50.65369392903646,-6.087243398030599,7.971592903137207,-1.833103934923808,1.688876061634694e+18,50.65369392903646,-0.9377870659033456,0.045663038889567,0.934397260348002,1.688876061634694e+18,50.65369392903646,5.1266547838846845,-7.910184860229492,2.702787717183431,1.6888760616303647e+18,50.64936462402344,-0.0666606649756431,-2.208735942840576,2.160248577594757,1.6888760616260457e+18,50.64504573567708,-0.0135408453643322,-2.1266255378723145,2.2727750539779663,,,,,,,,,,,,1.688876061627744e+18,50.64674409179688,-42.775638580322266,27.830639266967772,-10.584719467163088,1.688876061627744e+18,50.64674409179688,-298.40223388671876,122.68563842773438,-143.71111755371095,1.688876061634694e+18,50.65369392903646,0.8697711030642191,-0.473032683134079,0.1201647544900576,0.0698412631948788,-0.4840396245320638,0.9381415843963624,-2.732611656188965
5.7,1.6888760616865966e+18,50.70559676106771,-3.4568413893381753,7.602594534556071,-0.5673359235127767,1.6888760616865966e+18,50.70559676106771,1.7728821833928423,-0.065603216489156,2.745165745417277,1.6888760616865966e+18,50.70559676106771,5.2069220542907715,-7.65245262781779,3.247788190841675,1.6888760616736225e+18,50.69262247721355,-0.2266819030046463,-1.194292465845744,0.288532018661499,1.688876061677946e+18,50.69694645182292,-0.1599957893292109,-1.049466480811437,0.0577267842988173,,,,,,,,,,,,1.688876061677739e+18,50.6967390625,-43.5051986694336,24.912399291992188,-15.088959884643554,1.688876061677739e+18,50.6967390625,-299.1317932128906,119.76739807128908,-148.2153564453125,1.6888760616865966e+18,50.70559676106771,0.8729937275250753,-0.4573265314102173,0.1590175479650497,0.0583230592310428,-0.5574406782786051,0.8945822318394979,-2.7352403004964194
5.75,1.6888760617384988e+18,50.75749894205729,3.7378562291463218,4.144766966501872,-0.701201319694519,1.6888760617384988e+18,50.75749894205729,8.229714711507162,-4.009373664855957,2.5080769459406533,1.6888760617384988e+18,50.75749894205729,4.469057083129883,-8.138395468393961,3.1445647875467935,1.6888760617255278e+18,50.74452758789062,0.6298020780086517,-0.1196786860624949,-2.165211876233419,1.6888760617298445e+18,50.7488447265625,0.6641123294830322,-0.1842776763563355,-2.2982277870178223,1.6888760617384983e+18,50.75749829101562,0.0,0.0,1.2033920288085938,6.5929999351501465,1.494695067405701,175.53851318359375,29.077793989124395,-122.7500437,49.1921314,1.688876061727741e+18,50.74674072265625,-41.62151947021484,27.44755973815918,-15.92099952697754,1.688876061727741e+18,50.74674072265625,-297.24811401367185,122.30255737304688,-149.04739990234376,1.6888760617384988e+18,50.75749894205729,0.851445734500885,-0.4971446394920349,0.1570388674736022,0.0534263079365094,-0.6140804489453634,0.9791529178619384,-2.680856148401896
5.8,1.688876061781753e+18,50.80075354003906,13.658492088317873,-19.17807674407959,4.121936917304993,1.688876061781753e+18,50.80075354003906,17.504395008087158,-27.591039657592773,7.513463020324707,1.688876061781753e+18,50.80075354003906,3.823100447654724,-8.397216320037842,3.326812624931335,1.6888760617774244e+18,50.796424235026045,-0.5327763160069784,-2.063350041707357,-0.2518800695737203,1.688876061781753e+18,50.8007529296875,-0.6966918011506399,-2.283617933591207,0.1121955315272013,,,,,,,,,,,,1.6888760617777403e+18,50.796740087890626,-37.93955917358399,31.32471923828125,-17.580199432373046,1.6888760617777403e+18,50.796740087890626,-293.56614990234374,126.17971649169922,-150.70659790039062,1.688876061781753e+18,50.80075354003906,0.8325821459293365,-0.5229629874229431,0.1770549193024634,0.0422483794391154,-0.7150108516216278,1.0274832844734192,-2.6248719692230225
5.85,1.6888760618250007e+18,50.844000732421875,3.562220573425293,-2.554685274759928,1.590200662612915,1.6888760618250007e+18,50.844000732421875,7.555935660998027,-10.580662926038109,5.69033153851827,1.6888760618250007e+18,50.844000732421875,3.970913569132487,-8.010232289632162,4.035417318344116,1.688876061829331e+18,50.84833089192709,0.1649336119492848,-2.245133360226949,1.4550810456275938,1.688876061833651e+18,50.85265104166667,0.2997312098741531,-1.9711094697316487,1.1999938786029818,,,,,,,,,,,,1.68887606182774e+18,50.84673984375,-37.449119567871094,28.46259994506836,-23.062879180908205,1.68887606182774e+18,50.84673984375,-293.0757202148437,123.31759796142578,-156.18927612304688,1.6888760618250007e+18,50.844000732421875,0.2778055270512898,-0.1709364553292592,0.0687892436981201,0.0152567990880924,-0.79298468430837,0.9553611477216084,-2.67885422706604
5.9,1.688876061876903e+18,50.8959024251302,-4.277428785959879,-2.1301568349202475,2.0777573585510254,1.688876061876903e+18,50.8959024251302,-0.6199404795964559,-10.342178026835125,6.112066745758057,1.688876061876903e+18,50.8959024251302,3.6346868673960366,-8.19627602895101,3.969595909118652,1.6888760618812332e+18,50.90023291015624,0.4695517644286155,2.1823670069376626,-2.1144082148869834,1.6888760618855544e+18,50.90455428059895,0.5175555795431137,2.5144230922063193,-2.075618306795756,,,,,,,,,,,,1.6888760618777408e+18,50.89674067382813,-35.860678100585936,30.007119369506835,-23.24343910217285,1.6888760618777408e+18,50.89674067382813,-291.4872741699219,124.86211853027343,-156.36983947753907,1.688876061876903e+18,50.8959024251302,0.2699588139851888,-0.1830544869105021,0.0703636854887008,0.0116869776975362,-0.8295736908912659,0.9895341396331788,-2.650090535481771
5.95,1.6888760619288102e+18,50.94781013997396,-4.430450002352397,2.6705663998921714,1.329943100611369,1.6888760619288102e+18,50.94781013997396,-1.1332008838653564,-6.075575987497966,4.413162469863892,1.6888760619288102e+18,50.94781013997396,3.2744476795196533,-8.73039722442627,3.018505891164144,1.6888760619331372e+18,50.95213728841146,1.2694288889567058,2.7421231269836426,-2.7388143142064414,1.6888760619374572e+18,50.95645727539062,1.2439761956532795,2.6301821867624917,-3.0694960355758667,,,,,,,,,,,,1.6888760619277412e+18,50.946741308593744,-35.833839416503906,34.08435897827148,-16.41143970489502,1.6888760619277412e+18,50.946741308593744,-291.46043090820314,128.9393569946289,-149.53783569335937,1.6888760619288102e+18,50.94781013997396,0.8156059980392456,-0.5537179112434387,0.1602109322945276,0.0412985160946845,-0.7442790071169535,1.098912040392558,-2.570748488108317
6.0,1.6888760619807089e+18,50.999708984375,-2.7660778760910034,5.228988965352376,0.147267738978068,1.6888760619807089e+18,50.999708984375,-1.005583683649699,-4.1501515706380205,2.5090738932291665,1.6888760619807089e+18,50.999708984375,1.7376927932103474,-9.36339537302653,2.2970926761627197,1.688876061985038e+18,51.004038004557295,0.0559450810154279,3.552945057551066,-4.411465167999268,1.688876061980712e+18,50.99971215820312,0.2641228698194027,3.3925929069519043,-4.502458810806274,,,,,,,,,,,,1.6888760619777452e+18,50.99674521484375,-30.043719863891603,40.806558990478514,-10.37731990814209,1.6888760619777452e+18,50.99674521484375,-285.67030639648436,135.66155700683595,-143.50371704101562,1.6888760619807089e+18,50.999708984375,0.762445310751597,-0.6350020368893942,0.0841965861618518,0.0819079180558522,-0.9370477795600892,1.2702552477518718,-2.207986315091451
6.05,1.688876062032612e+18,51.05161214192708,-9.565470059712728,-2.497803052266439,-2.845366954803467,1.688876062032612e+18,51.05161214192708,-9.1475617090861,-11.958530108133951,-0.1742772211631139,1.688876062032612e+18,51.05161214192708,0.395106906692187,-9.444981892903646,2.6063762505849204,1.688876062036944e+18,51.05594441731771,-1.4664838512738545,2.5275058646996817,-1.9793052275975545,1.6888760620239654e+18,51.04296516927083,-1.51952729622523,3.632968346277873,-2.908380389213562,,,,,,,,,,,,1.6888760620277391e+18,51.04673911132812,-23.587479400634766,45.501119995117186,-6.844199752807617,1.6888760620277391e+18,51.04673911132812,-279.2140747070313,140.35611572265626,-139.97059936523436,1.688876062032612e+18,51.05161214192708,0.7008625666300455,-0.6921617786089579,0.0224572798858086,0.1686931451161702,-1.413785457611084,1.297914743423462,-1.518566886583964
6.1,1.688876062084519e+18,51.10351839192708,3.930356025695801,-2.1798791885375977,-7.002621650695801,1.688876062084519e+18,51.10351839192708,3.5403804779052734,-11.60538895924886,-4.231706857681274,1.688876062084519e+18,51.10351839192708,-0.4127771879235904,-9.409764607747396,2.7062012354532876,1.688876062080191e+18,51.09919079589844,0.5917757004499435,-2.4682774543762207,-1.7324902415275574,1.688876062075868e+18,51.094867919921874,0.314850111802419,-1.836159110069275,-1.5906421840190887,,,,,,,,,,,,1.6888760620777344e+18,51.09673427734375,-20.39351921081543,46.708918762207034,-7.788479900360107,1.6888760620777344e+18,51.09673427734375,-276.0201110839844,141.5639190673828,-140.91487731933594,1.688876062084519e+18,51.10351839192708,0.6719217697779337,-0.7209949493408203,0.0284016616642474,0.165079355239868,-1.724422574043274,1.2844669421513877,-1.2215364774068196
6.15,1.6888760621364204e+18,51.15542016601563,4.717679659525554,2.548760255177816,-1.1301473379135132,1.6888760621364204e+18,51.15542016601563,3.1108688513437905,-6.859026114145915,1.2478569845358531,1.6888760621364204e+18,51.15542016601563,-1.6296124458312988,-9.392041206359863,2.31329083442688,1.6888760621234463e+18,51.14244653320313,0.9776898423830668,1.31427659591039,-2.6837346156438193,1.688876062127771e+18,51.146770751953134,0.98720916112264,1.7174984713395436,-2.46316134929657,,,,,,,,,,,,1.6888760621277391e+18,51.1467390625,-13.197959518432617,48.92931900024414,-7.166279888153076,1.6888760621277391e+18,51.1467390625,-268.8245544433594,143.78431701660156,-140.2926788330078,1.6888760621364204e+18,51.15542016601563,0.6256502668062845,-0.7631968259811401,-0.0066176558223863,0.1595484962066014,-2.1839242776234946,1.2781553268432615,-0.7195112903912863
6.2,1.6888760621883238e+18,51.207323893229166,0.8222011725107828,1.795076052347819,-0.6088065703709921,1.6888760621883238e+18,51.207323893229166,-1.1994023273388543,-7.548158963521321,1.6985052824020386,1.6888760621883238e+18,51.207323893229166,-2.044404983520508,-9.327489852905272,2.242598374684652,1.688876062175346e+18,51.19434611002604,0.3782274033098171,1.7286977767944336,-1.3263920942942302,1.68887606217967e+18,51.198669840494794,0.2845104833443959,1.6280577182769775,-1.3506739536921184,,,,,,,,,,,,1.6888760621777393e+18,51.1967390625,-9.620919990539551,50.14687881469727,-3.9235198974609378,1.6888760621777393e+18,51.1967390625,-265.2475158691406,145.0018768310547,-137.04991455078124,1.6888760621883238e+18,51.207323893229166,0.5995660225550333,-0.775156557559967,-0.0560491469999154,0.1905539582173029,-2.308746814727783,1.256454308827718,-0.4778300921122233
6.25,1.6888760622315766e+18,51.25057641601562,-3.5208988189697266,-0.840153694152832,-0.1808260679244995,1.6888760622315766e+18,51.25057641601562,-5.87049126625061,-10.054640769958496,2.330011010169983,1.6888760622315766e+18,51.25057641601562,-2.372393846511841,-9.198741912841797,2.4461236000061035,1.6888760622272525e+18,51.24625260416667,-0.4206316222747167,0.572584350903829,-0.9830858111381532,1.6888760622315745e+18,51.25057430013021,-0.4860451171795527,0.1966986457506817,-0.9850202004114786,,,,,,,,,,,,1.6888760622277448e+18,51.24674482421875,-6.163439846038818,50.507998657226565,-3.306199884414673,1.6888760622277448e+18,51.24674482421875,-261.7900329589844,145.36299743652344,-136.4325958251953,1.6888760622315766e+18,51.25057641601562,0.5777985453605652,-0.7844815254211426,-0.0734515339136123,0.2128918841481208,-2.340763568878174,1.216340184211731,-0.3864726573228836
6.3,1.6888760622748252e+18,51.29382527669271,7.241127411524455,-6.99652099609375,-1.1377425988515215,1.6888760622748252e+18,51.29382527669271,4.141976038614909,-15.982459704081217,1.3655041058858235,1.6888760622748252e+18,51.29382527669271,-3.121952772140503,-8.9701935450236,2.438533306121826,1.6888760622791557e+18,51.29815535481771,-0.6786203682422638,-2.5802438855171204,-1.1041389505068462,1.688876062283479e+18,51.30247916666667,-0.6270022590955099,-2.1406754652659097,-0.9358455389738084,1.6888760622575278e+18,51.27652783203125,0.0,0.0,1.2033920288085938,6.577000141143799,1.498293161392212,176.26361083984375,29.077793989124395,-122.7500471,49.1921212,1.6888760622777375e+18,51.29673745117187,-2.92555992603302,50.77395935058594,-5.392399883270263,1.6888760622777375e+18,51.29673745117187,-258.5521545410156,145.628955078125,-138.518798828125,1.6888760622748252e+18,51.29382527669271,0.555639922618866,-0.8107765118281046,-0.0368599221110343,0.1787444502115249,-2.4762062231699624,1.1547329425811768,-0.3524786035219828
6.35,1.6888760623267315e+18,51.3457314453125,0.7818172772725424,-8.358996709187826,-4.712773084640503,1.6888760623267315e+18,51.3457314453125,-2.2049859364827475,-17.351154963175457,-2.0855442682902017,1.6888760623267315e+18,51.3457314453125,-3.009604533513387,-8.976413091023764,2.5625154972076416,1.688876062331056e+18,51.35005582682292,0.3500766785194476,1.701514184474945,0.7428630391756693,1.6888760623353772e+18,51.354377034505205,0.3909028569857278,1.3063352902730303,0.8147415518760681,,,,,,,,,,,,1.6888760623277414e+18,51.34674145507812,-2.481479930877686,50.73979873657227,-5.956040000915527,1.6888760623277414e+18,51.34674145507812,-258.1080810546875,145.5947998046875,-139.08243408203126,1.6888760623267315e+18,51.3457314453125,0.556924839814504,-0.8070939580599467,-0.0418172938128312,0.1907127300898234,-2.4353529612223306,1.1560256878534954,-0.3685796856880188
6.4,1.6888760623786342e+18,51.39763435872396,4.1480952501297,-3.644119262695313,-2.630938092867533,1.6888760623786342e+18,51.39763435872396,1.9712869723637896,-12.923236211140951,-0.2484547297159829,1.6888760623786342e+18,51.39763435872396,-2.1996097962061563,-9.26337178548177,2.317769924799601,1.688876062382962e+18,51.40196207682292,0.3146465122699737,-0.8485936174790064,3.2150855461756387,1.6888760623872847e+18,51.40628466796875,0.3391320258378982,-0.6211990353961786,3.4752632776896157,,,,,,,,,,,,1.688876062377739e+18,51.39673896484375,-6.419639921188354,50.35671844482422,-5.238679981231689,1.688876062377739e+18,51.39673896484375,-262.046240234375,145.21172180175782,-138.36508178710938,1.6888760623786342e+18,51.39763435872396,0.5965524713198344,-0.7813658118247986,-0.0354783044507105,0.1779820670684178,-2.3201852639516196,1.2376704613367715,-0.5139777660369873
6.45,1.688876062430537e+18,51.449537109375,-3.229501644770304,-3.4277734756469727,-1.448716640472412,1.688876062430537e+18,51.449537109375,-3.476970672607422,-13.009776751200356,0.7080760995546976,1.688876062430537e+18,51.449537109375,-0.2702704022328059,-9.566258112589518,2.092079242070516,1.688876062434859e+18,51.45385888671874,0.0782925685246785,-0.1413134957353273,3.918853282928467,1.6888760624305326e+18,51.44953259277344,0.2790126949548721,-0.1289689280092715,4.0438514947891235,,,,,,,,,,,,1.6888760624277407e+18,51.44674047851563,-17.497239875793458,48.05091781616211,-4.345639896392822,1.6888760624277407e+18,51.44674047851563,-273.12383422851565,142.90591735839843,-137.47203979492187,1.688876062430537e+18,51.449537109375,0.675787349541982,-0.716077983379364,-0.0236456232766309,0.1709657510121662,-1.6890685160954793,1.347883145014445,-1.1746809085210164
6.5,1.6888760624824369e+18,51.50143693033854,-2.917876203854879,-2.206523577372233,5.7219344774882,1.6888760624824369e+18,51.50143693033854,-1.628315846125285,-11.641082127888998,8.196613947550455,1.6888760624824369e+18,51.50143693033854,1.2667587995529177,-9.418813387552897,2.409966150919596,1.6888760624867666e+18,51.5057666015625,-0.4360050757726033,-1.9402098258336384,2.935614744822184,1.6888760624737876e+18,51.49278776041666,-0.6951137681802114,-1.3277665476004283,3.0953051249186196,,,,,,,,,,,,1.6888760624777395e+18,51.496739648437504,-25.739559173583984,44.46899871826171,-6.236639881134034,1.6888760624777395e+18,51.496739648437504,-281.36615600585935,139.3239959716797,-139.363037109375,1.6888760624824369e+18,51.50143693033854,0.7324785590171814,-0.6592513918876648,0.0167756391068299,0.1671164532502491,-1.0930760701497395,1.288609504699707,-1.8333646059036257
6.55,1.6888760625343457e+18,51.55334545898438,-2.254934628804525,1.1208055814107258,-2.7828596433003745,1.6888760625343457e+18,51.55334545898438,0.2743769884109497,-8.051249980926514,-0.2823530236879986,1.6888760625343457e+18,51.55334545898438,2.506510098775228,-9.156310399373371,2.435793240865072,1.6888760625386703e+18,51.55767041015625,0.7777332663536072,-1.3429872194925945,3.5550829569498696,1.688876062525685e+18,51.54468505859376,0.6555093030134836,-1.7237090269724529,3.301064888636271,,,,,,,,,,,,1.6888760625277353e+18,51.546735351562496,-31.83223876953125,40.40395965576172,-8.661999797821045,1.6888760625277353e+18,51.546735351562496,-287.4588317871094,135.2589599609375,-141.78839416503905,1.6888760625343457e+18,51.55334545898438,0.7822234233220419,-0.6066413919130961,0.0613186371823151,0.1249563669164975,-0.7770887811978658,1.204525589942932,-2.2729934056599936
6.6,1.688876062586242e+18,51.60524210611979,-3.6568745772043862,3.122092882792155,-0.8072610298792521,1.688876062586242e+18,51.60524210611979,0.3435694475968678,-5.571887016296387,1.4865410725275676,1.688876062586242e+18,51.60524210611979,3.97764253616333,-8.678234736124674,2.229088624318441,1.6888760625819187e+18,51.60091882324218,0.5606215596199036,-0.610788881778717,3.291494607925415,1.6888760625775962e+18,51.59659602864583,0.6210972368717194,-0.769690215587616,3.361286004384359,,,,,,,,,,,,1.6888760625777446e+18,51.59674477539063,-38.49587860107422,34.96031875610352,-9.076799774169922,1.6888760625777446e+18,51.59674477539063,-294.1224731445312,129.81531829833983,-142.20319519042968,1.688876062586242e+18,51.60524210611979,0.8336158792177836,-0.539090891679128,0.0790219753980636,0.0881516709923744,-0.512770265340805,1.0865395466486614,-2.6155839761098227
