seconds_elapsed_rounded,accelerometer_time,accelerometer_seconds_elapsed,accelerometer_z,accelerometer_y,accelerometer_x,accelerometeruncalibrated_time,accelerometeruncalibrated_seconds_elapsed,accelerometeruncalibrated_z,accelerometeruncalibrated_y,accelerometeruncalibrated_x,gravity_time,gravity_seconds_elapsed,gravity_z,gravity_y,gravity_x,gyroscope_time,gyroscope_seconds_elapsed,gyroscope_z,gyroscope_y,gyroscope_x,gyroscopeuncalibrated_time,gyroscopeuncalibrated_seconds_elapsed,gyroscopeuncalibrated_z,gyroscopeuncalibrated_y,gyroscopeuncalibrated_x,location_time,location_seconds_elapsed,location_bearingAccuracy,location_speedAccuracy,location_verticalAccuracy,location_horizontalAccuracy,location_speed,location_bearing,location_altitude,location_longitude,location_latitude,magnetometer_time,magnetometer_seconds_elapsed,magnetometer_z,magnetometer_y,magnetometer_x,magnetometeruncalibrated_time,magnetometeruncalibrated_seconds_elapsed,magnetometeruncalibrated_z,magnetometeruncalibrated_y,magnetometeruncalibrated_x,orientation_time,orientation_seconds_elapsed,orientation_qz,orientation_qy,orientation_qx,orientation_qw,orientation_roll,orientation_pitch,orientation_yaw
0.0,1.688754948340685e+18,149.99768505859376,-2.251643498738607,-3.635621706644694,-3.1473097006479898,1.688754948340685e+18,149.99768505859376,-1.9826529026031496,-13.316457112630207,-1.4291133085886638,1.688754948340685e+18,149.99768505859376,0.2631444955865541,-9.663330713907875,1.655509074529012,1.6887549483493358e+18,150.00633577473957,-0.6807584166526794,0.8029823551575342,-1.749518076578776,1.688754948336357e+18,149.99335701497395,-1.1790208220481873,1.4750359654426577,-1.9029470682144165,,,,,,,,,,,,1.68875494833807e+18,149.99506997070313,-19.38579902648926,48.67799835205078,-0.9881999731063844,1.68875494833807e+18,149.99506997070313,-273.9143920898438,141.99579772949218,-132.99219665527343,1.688754948340685e+18,149.99768505859376,0.6771433552106222,-0.6869766116142273,-0.1124934976299603,0.2380804419517516,-1.3924548228581746,1.3910502592722576,-1.246027946472168
0.05,1.6887549483925873e+18,150.04958715820314,3.96078093846639,1.0310025215148926,-1.7473182678222656,1.6887549483925873e+18,150.04958715820314,3.25104828675588,-8.63569688796997,-0.0965105096499125,1.6887549483925873e+18,150.04958715820314,-0.7155786752700806,-9.649194717407228,1.5881203810373945,1.68875494839259e+18,150.0495899658203,0.7462482303380965,0.5069417729973793,-2.4175755977630615,1.6887549483882655e+18,150.04526562499998,0.6376415193080902,0.4717915852864583,-2.309274196624756,,,,,,,,,,,,1.6887549483880645e+18,150.045064453125,-14.73271961212158,50.0883186340332,-1.2053599894046785,1.6887549483880645e+18,150.045064453125,-269.2613098144531,143.40611877441407,-133.20935668945313,1.6887549483925873e+18,150.04958715820314,0.6402409672737122,-0.7180881102879842,-0.1348480656743049,0.2364899267752964,-1.9572947025299072,1.386576255162557,-0.6505823930104574
0.1,1.6887549484444956e+18,150.10149544270834,0.6108519037564596,3.999850114186605,0.1312037309010823,1.6887549484444956e+18,150.10149544270834,-0.7631110399961472,-5.652644634246826,1.407777269681295,1.6887549484444956e+18,150.10149544270834,-1.379808982213338,-9.634990056355797,1.2138861417770386,1.6887549484358413e+18,150.09284138997396,1.0291043321291606,2.7599400679270425,-1.4185309012730916,1.6887549484401615e+18,150.09716162109376,0.9611455400784812,2.7547477086385093,-1.415629267692566,,,,,,,,,,,,1.6887549484380626e+18,150.09506249999998,-8.535119819641114,51.26439971923829,2.215519978106022,1.6887549484380626e+18,150.09506249999998,-263.0637145996094,144.5821960449219,-129.78847961425782,1.6887549484444956e+18,150.10149544270834,0.6061864296595255,-0.7259913086891174,-0.1998587747414907,0.2549934089183807,-2.377746105194092,1.383113940556844,-0.1057855064670244
0.15,1.6887549484963996e+18,150.15339990234375,1.777639428774516,0.1286897659301757,0.9996149142583212,1.6887549484963996e+18,150.15339990234375,-0.3954139351844787,-9.372886021931969,2.278764764467875,1.6887549484963996e+18,150.15339990234375,-2.17889940738678,-9.484071095784506,1.21646245320638,1.6887549484877494e+18,150.14474934895836,-0.1314378380775451,0.2371175115307172,-1.8401806751887004,1.6887549484920788e+18,150.14907877604165,-0.2197587763269742,-0.0205658078193664,-1.8052595059076944,,,,,,,,,,,,1.6887549484880645e+18,150.14506455078123,-3.8039598941802977,51.77191925048828,3.801519966125488,1.6887549484880645e+18,150.14506455078123,-258.3325531005859,145.08971557617187,-128.20247650146484,1.6887549484963996e+18,150.15339990234375,0.5682589213053385,-0.7446319659550985,-0.2310477594534555,0.2627768913904826,-2.6007725397745767,1.316518823305766,0.1786996374527613
0.2,1.688754948548304e+18,150.20530428059897,5.678564071655273,-2.231761614481608,-3.9589680830637617,1.688754948548304e+18,150.20530428059897,3.0163522362709045,-11.56172021230062,-2.356132755676905,1.688754948548304e+18,150.20530428059897,-2.6680577596028647,-9.312453905741371,1.5401479800542195,1.688754948539654e+18,150.1966541341146,-0.9728537996610006,-0.207592358191808,-0.6677775382995605,1.6887549485439808e+18,150.20098071289064,-0.9888890385627748,-0.00804303586483,-0.538834041605393,,,,,,,,,,,,1.6887549485380626e+18,150.19506264648436,-0.53435999751091,52.01103973388672,2.052039933204651,1.6887549485380626e+18,150.19506264648436,-255.06295471191407,145.3288330078125,-129.95195617675782,1.688754948548304e+18,150.20530428059897,0.5478027065594991,-0.7654015421867371,-0.2155912866195042,0.2598608533541361,-2.594556967417399,1.2552385330200198,0.1477140908439953
0.25,1.6887549486002074e+18,150.25720743815103,0.4351100126902261,-6.683511098225911,-7.860071182250977,1.6887549486002074e+18,150.25720743815103,-2.0973090529441833,-16.007185618082683,-6.014758586883545,1.6887549486002074e+18,150.25720743815103,-2.538265069325765,-9.306170145670572,1.7826251983642578,1.6887549485915584e+18,150.2485583496094,-0.0372627774874369,0.5129231934746107,0.2334014226992925,1.6887549485958822e+18,150.25288232421877,0.1516982081035773,0.3905974055329959,0.1412626008192698,,,,,,,,,,,,1.6887549485880668e+18,150.24506684570312,-0.5660799741744995,51.8036392211914,0.3464799851179123,1.6887549485880668e+18,150.24506684570312,-255.094677734375,145.12144165039064,-131.6575134277344,1.6887549486002074e+18,150.25720743815103,0.5459721287091573,-0.7607447703679403,-0.216108535726865,0.2764907677968343,-2.5073976516723633,1.2538135846455891,0.086806001762549
0.3,1.6887549486434642e+18,150.30046435546876,7.082264184951782,-1.589951515197754,-0.4431575536727905,1.6887549486434642e+18,150.30046435546876,4.503292083740234,-10.975578308105469,0.9508479237556458,1.6887549486434642e+18,150.30046435546876,-2.5848180055618286,-9.368122100830078,1.3313180804252625,1.6887549486434644e+18,150.30046443684896,0.9860382974147796,0.1336267658819755,0.886314590771993,1.6887549486477875e+18,150.30478751627604,0.8985318839550018,0.2469931890567143,1.2980377078056335,,,,,,,,,,,,1.6887549486380682e+18,150.29506831054687,-0.0268400013446807,52.09399871826171,1.97151997089386,1.6887549486380682e+18,150.29506831054687,-254.5554351806641,145.41179504394532,-130.03247985839843,1.6887549486434642e+18,150.30046435546876,0.5516149997711182,-0.7569371461868286,-0.2333955243229865,0.2612216174602508,-2.645395517349243,1.2767053842544556,0.2265760749578475
0.35,1.68875494868672e+18,150.34372005208334,-1.5531183083852131,-4.366939544677734,1.389449159304301,1.68875494868672e+18,150.34372005208334,-2.7343980073928833,-14.039687474568684,2.595813751220703,1.68875494868672e+18,150.34372005208334,-1.1871256629625957,-9.655243237813314,1.1436771949132285,1.6887549486953674e+18,150.35236735026044,0.6636541684468588,0.3486004471778869,3.675830682118734,1.6887549486996948e+18,150.35669474283853,0.6675229867299398,0.2195042235155899,3.6132678985595703,,,,,,,,,,,,1.6887549486880686e+18,150.3450687011719,-5.973119878768921,51.34735870361328,4.243159914016724,1.6887549486880686e+18,150.3450687011719,-260.50172119140626,144.6651580810547,-127.7608367919922,1.68875494868672e+18,150.34372005208334,0.6034825046857198,-0.7081901629765829,-0.2323832362890243,0.2819662690162658,-2.270132859547933,1.4032338460286458,-0.1240596498052279
0.4,1.6887549487386235e+18,150.39562369791668,-2.031606833140055,-5.0192060470581055,2.8400019804636636,1.6887549487386235e+18,150.39562369791668,-1.5647065800925095,-14.786248207092283,3.791427373886109,1.6887549487386235e+18,150.39562369791668,0.4610541847844918,-9.749537467956545,0.8887380162874857,1.688754948747274e+18,150.40427392578124,0.2863430927197138,-0.9224065144856772,3.338734865188598,1.68875494874295e+18,150.3999500732422,0.330630823969841,-0.7935139536857605,3.142978072166443,,,,,,,,,,,,1.6887549487380692e+18,150.3950693847656,-14.744919776916504,49.51979904174805,5.42899980545044,1.6887549487380692e+18,150.3950693847656,-269.2735168457031,142.83759765625,-126.5749969482422,1.6887549487386235e+18,150.39562369791668,0.6671252051989237,-0.6535065372784933,-0.2117925782998403,0.2872111201286315,-1.0864322384198506,1.4553616046905518,-1.332630276679993
0.45,1.6887549487905216e+18,150.44752164713543,-1.537539045015971,-6.292778650919597,5.12177038192749,1.6887549487905216e+18,150.44752164713543,0.6277171447873117,-15.817355473836264,6.186044692993164,1.6887549487905216e+18,150.44752164713543,2.1594101190567017,-9.507072448730469,1.0015869339307149,1.6887549487991798e+18,150.4561796061198,-0.1583159069220225,-1.526043216387431,3.012278397878011,1.6887549487862036e+18,150.44320369466143,-0.2431243720153967,-1.4057536522547405,3.4660494327545166,1.6887549487775544e+18,150.4345544433594,0.0,0.0,2.493147611618042,6.474999904632568,1.2658836841583252,258.9679870605469,333.29998779296875,-122.9166791,49.2789537,1.6887549487880684e+18,150.445068359375,-23.88515968322754,46.24775924682617,4.692119884490967,1.6887549487880684e+18,150.445068359375,-278.41375122070315,139.56555786132813,-127.31187896728515,1.6887549487905216e+18,150.44752164713543,0.7289889256159464,-0.599053959051768,-0.1635959794123967,0.2869262198607127,-0.4397118290265401,1.3164728085199993,-2.047832210858663
0.5,1.6887549488424305e+18,150.4994305826823,-3.7379833857218423,-1.407029628753662,-0.0926061669985454,1.6887549488424305e+18,150.4994305826823,-0.4107679724693298,-10.600603262583414,0.9090731839338938,1.6887549488424305e+18,150.4994305826823,3.3213693300882974,-9.176068941752115,0.938991924126943,1.6887549488424338e+18,150.49943371582032,1.2131020426750183,-0.30925053358078,2.435825228691101,1.6887549488381092e+18,150.49510929361978,1.0266608794530232,-0.7573711102207502,2.368070046106974,,,,,,,,,,,,1.6887549488380667e+18,150.49506684570312,-30.448759841918942,42.7634391784668,3.472119951248169,1.6887549488380667e+18,150.49506684570312,-284.97735595703125,136.08123779296875,-128.53187713623046,1.6887549488424305e+18,150.4994305826823,0.7743946313858032,-0.5572139819463094,-0.129530573884646,0.2696027457714081,-0.2866054872671763,1.2023179928461711,-2.2725789546966553
0.55,1.6887549488943352e+18,150.55133536783853,-11.139554659525553,7.519020875295003,-1.2362324794133503,1.6887549488943352e+18,150.55133536783853,-6.7878397305806475,-1.247059424718221,-0.3509473154942195,1.6887549488943352e+18,150.55133536783853,4.345869143803914,-8.748575846354166,0.8225977420806885,1.688754948885684e+18,150.54268383789062,0.9829839865366616,-2.7858508825302124,2.5868616104125977,1.6887549488900083e+18,150.54700830078124,0.8860600392023722,-2.980360666910807,2.6671903928120932,,,,,,,,,,,,1.6887549488880627e+18,150.5450627441406,-35.34095916748047,38.83747940063476,3.725879907608032,1.6887549488880627e+18,150.5450627441406,-289.8695556640625,132.1552764892578,-128.27811584472656,1.6887549488943352e+18,150.55133536783853,0.8194612860679626,-0.5175435344378153,-0.0898601164420445,0.2269609123468398,-0.1944435139497121,1.0973442395528157,-2.482045888900757
0.6,1.6887549489462387e+18,150.60323885091145,-4.142058849334717,11.239032109578451,0.1673977375030516,1.6887549489462387e+18,150.60323885091145,1.2011969884236653,3.1409786144892373,1.7710875868797302,1.6887549489462387e+18,150.60323885091145,5.3374098141988116,-8.080548922220865,1.5410024722417195,1.688754948937593e+18,150.59459301757812,-0.0826704291588005,-2.7613654931386313,2.3991223176320395,1.6887549489419195e+18,150.59891951497397,-0.0805833066503206,-2.624429782231649,2.1387919187545776,,,,,,,,,,,,1.6887549489380652e+18,150.59506508789065,-41.05543975830078,33.569518661499025,-1.0516399443149569,1.6887549489380652e+18,150.59506508789065,-295.58403930664065,126.88731994628908,-133.05563659667968,1.6887549489462387e+18,150.60323885091145,0.8588548103968302,-0.4755653043588002,-0.0100666554644703,0.1888171633084614,-0.2880896131197611,0.9633201956748962,-2.5577306747436523
0.65,1.6887549489981494e+18,150.6551495768229,-1.7235005696614585,6.664920965830485,1.2718449433644612,1.6887549489981494e+18,150.6551495768229,3.3298120498657227,-1.5557335317134855,3.1722846031188965,1.6887549489981494e+18,150.6551495768229,5.04746659596761,-8.203150113423666,1.8377522627512617,1.688754948989498e+18,150.646498046875,0.7347181737422943,-1.197652240594228,-1.2824097375075023,1.6887549489938245e+18,150.65082446289065,0.8178467651208242,-1.0579676926136017,-1.5190691351890564,,,,,,,,,,,,1.6887549489880684e+18,150.64506845703124,-42.63412017822266,31.929838562011717,-4.887319946289063,1.6887549489880684e+18,150.64506845703124,-297.1627136230469,125.24763793945311,-136.89132080078124,1.6887549489981494e+18,150.6551495768229,0.8560566306114197,-0.4904397130012512,0.0216830683251221,0.160958300034205,-0.3602637449900309,0.9843781193097432,-2.5751405556996665
0.7,1.6887549490500534e+18,150.70705314127605,8.162601470947266,-2.1161042849222818,1.8797318538029988,1.6887549490500534e+18,150.70705314127605,12.064213116963703,-11.00319528579712,3.4542389710744223,1.6887549490500534e+18,150.70705314127605,3.8957656224568686,-8.869586626688639,1.5118196805318196,1.6887549490413996e+18,150.6983995768229,0.8865690926710764,-0.1311833163102467,-2.817208687464396,1.688754949045734e+18,150.70273413085937,0.7474445523694158,-0.0625118811925252,-2.6208664178848267,,,,,,,,,,,,1.6887549490380667e+18,150.69506679687498,-37.49791870117187,37.29539947509765,-5.033719825744629,1.6887549490380667e+18,150.69506679687498,-292.02650756835936,130.61320037841796,-137.03771362304687,1.6887549490500534e+18,150.70705314127605,0.8257520000139872,-0.5468005537986755,0.0075064920820295,0.13717449704806,-0.3851182957490285,1.1225561300913494,-2.5680947303771973
0.75,1.6887549490933082e+18,150.75030810546875,4.7448662519454965,-19.607476234436035,3.076209783554077,1.6887549490933082e+18,150.75030810546875,8.645866632461548,-28.41985321044922,5.051248550415039,1.6887549490933082e+18,150.75030810546875,3.895154356956482,-8.794872283935547,1.9123514294624329,1.688754949093309e+18,150.7503086751302,-0.3660609995325406,-3.3282484014829,1.885690152645111,1.688754949097634e+18,150.75463419596352,-0.3202461103598277,-3.6282849311828618,2.0263417959213257,,,,,,,,,,,,1.688754949088065e+18,150.7450650390625,-35.57275924682617,38.73743896484375,-7.232159900665283,1.688754949088065e+18,150.7450650390625,-290.1013549804687,132.05523986816405,-139.23615417480468,1.6887549490933082e+18,150.75030810546875,0.8282022774219513,-0.5451816618442535,0.0437616314738988,0.1198435761034488,-0.4685963094234466,1.1042290925979614,-2.562424659729004
0.8,1.6887549491365588e+18,150.79355891927082,-1.2779385248819988,2.478627363840739,5.249603827794393,1.6887549491365588e+18,150.79355891927082,2.826920509338379,-6.124030828475952,7.704290787378947,1.6887549491365588e+18,150.79355891927082,4.099012931187947,-8.585153579711914,2.3919992446899414,1.688754949145214e+18,150.8022139485677,0.1290961876511573,-0.1918626030286153,-0.4603887597719828,1.6887549491495437e+18,150.8065437825521,0.110821137825648,0.2176716725031534,-0.6244570016860962,,,,,,,,,,,,1.688754949138064e+18,150.79506430664065,-37.00503921508789,36.512158966064455,-12.8612398147583,1.688754949138064e+18,150.79506430664065,-291.53363647460935,129.8299560546875,-144.86524047851563,1.6887549491365588e+18,150.79355891927082,0.838577131430308,-0.529197633266449,0.0975789700945218,0.0846027334531148,-0.5418010155359904,1.0573971668879192,-2.618770281473795
0.85,1.6887549491884677e+18,150.84546752929688,-3.2579254309336343,-2.629694938659668,-2.124085267384847,1.6887549491884677e+18,150.84546752929688,0.6596215565999349,-11.397014300028482,0.0229311784108479,1.6887549491884677e+18,150.84546752929688,3.911700884501139,-8.749814669291178,2.0843290090560913,1.6887549491971174e+18,150.85411743164062,0.330274482568105,2.4836254119873047,-0.9667451282342276,1.688754949192799e+18,150.84979895019532,0.1698968969285488,2.483396291732788,-0.4276056569069623,,,,,,,,,,,,1.6887549491880668e+18,150.84506674804686,-37.36859970092773,37.280758666992185,-10.30411958694458,1.6887549491880668e+18,150.84506674804686,-291.8971923828125,130.5985565185547,-142.30811462402343,1.6887549491884677e+18,150.84546752929688,0.8307663997014364,-0.5426506201426188,0.0661742463707923,0.10316730539004,-0.50417893131574,1.0935771067937214,-2.583590825398763
0.9,1.6887549492403725e+18,150.89737255859373,-5.008477846781413,1.6188542048136394,0.8523369232813517,1.6887549492403725e+18,150.89737255859373,-1.949352850516637,-7.634101231892903,2.0514465967814126,1.6887549492403725e+18,150.89737255859373,3.053278923034668,-9.235450744628906,1.1364222764968872,1.68875494924902e+18,150.90601977539063,0.8515461186567942,4.4039820830027265,-3.7795759042104087,1.6887549492360517e+18,150.89305151367188,1.036281983057658,3.7811540762583418,-3.378746589024862,,,,,,,,,,,,1.6887549492380657e+18,150.89506572265626,-34.18439903259277,40.852919006347655,-3.803959906101227,1.6887549492380657e+18,150.89506572265626,-288.71300048828124,134.17071838378905,-135.80795593261718,1.6887549492403725e+18,150.89737255859373,0.7997632821400961,-0.5836038589477539,-0.020049678782622,0.1329447502891222,-0.3695777455965678,1.224023699760437,-2.5520172913869223
0.95,1.6887549492922716e+18,150.94927164713542,-7.803782939910889,3.1106982231140137,0.3170483509699502,1.6887549492922716e+18,150.94927164713542,-6.508278210957845,-6.594818592071533,1.068594705313444,1.6887549492922716e+18,150.94927164713542,1.2896588444709778,-9.68801212310791,0.6888589461644491,1.6887549492922775e+18,150.94927746582033,-1.1685852110385897,3.978947043418884,-3.6509125232696538,1.6887549492879532e+18,150.9449532063802,-0.9045387175865472,4.199953079223633,-3.70184334119161,,,,,,,,,,,,1.6887549492880684e+18,150.94506845703123,-24.719639587402344,46.09891891479492,2.7425599098205566,1.6887549492880684e+18,150.94506845703123,-279.24823608398435,139.41671447753907,-129.26143798828124,1.6887549492922716e+18,150.94927164713542,0.7266627748807272,-0.6450177232424418,-0.1232347885767618,0.1982536415259043,-0.5668554306030273,1.408823053042094,-2.1143774588902793
1.0,1.6887549493441815e+18,151.0011818033854,-3.132221539815267,-3.2131964365641275,-2.741079330444336,1.6887549493441815e+18,151.0011818033854,-3.0717860062917075,-12.936596234639486,-1.2783655126889546,1.6887549493441815e+18,151.0011818033854,0.0545895074804623,-9.70589510599772,1.4000264803568525,1.688754949335522e+18,150.99252213541666,-1.5887586673100789,0.673529843489329,-1.934712052345276,1.688754949339854e+18,150.99685424804687,-1.456251819928487,0.3498221735159555,-1.8123862346013384,,,,,,,,,,,,1.688754949338068e+18,150.99506796875,-17.670479202270506,49.06595916748047,1.856839954853058,1.688754949338068e+18,150.99506796875,-272.199072265625,142.38375549316407,-130.14715881347655,1.6887549493441815e+18,151.0011818033854,0.6670863032341003,-0.6892015933990479,-0.1408559034268061,0.2448864877223968,-1.4893707036972046,1.4185545841852825,-1.0980371038119
1.05,1.6887549493960886e+18,151.05308846028646,3.867371161778768,0.0376230875651041,-2.050351540247599,1.6887549493960886e+18,151.05308846028646,2.979064106941223,-9.635897000630695,-0.5274179925521215,1.6887549493960886e+18,151.05308846028646,-0.8941530386606852,-9.656015396118164,1.4602460861206057,1.688754949387437e+18,151.04443693033855,0.28415414194266,-0.1135191346208254,-2.031432350476583,1.6887549493917637e+18,151.04876326497396,0.3803654226164023,0.169718732436498,-2.0317886670430503,,,,,,,,,,,,1.6887549493880653e+18,151.0450654296875,-13.34435977935791,50.36403884887695,0.1049199968576431,1.6887549493880653e+18,151.0450654296875,-267.8729553222656,143.6818389892578,-131.89907531738282,1.6887549493960886e+18,151.05308846028646,0.6342041492462158,-0.7226640184720358,-0.1439452916383743,0.2336021959781646,-2.073770801226298,1.3904189268747966,-0.5250500639279684
1.1,1.6887549494479926e+18,151.10499283854168,1.5858126084009807,2.991300423940023,-1.104869365692139,1.6887549494479926e+18,151.10499283854168,-0.0448654262969891,-6.623133500417073,0.1495514214038849,1.6887549494479926e+18,151.10499283854168,-1.6365240812301636,-9.59692923227946,1.1917333602905271,1.6887549494393385e+18,151.09633837890627,0.7757988572120667,2.0816760063171387,-1.66893474260966,1.688754949443667e+18,151.1006669108073,0.7197010715802511,2.069356918334961,-1.6625715891520183,,,,,,,,,,,,1.6887549494380613e+18,151.09506142578124,-8.205720043182373,51.200959014892575,1.915399956703186,1.6887549494380613e+18,151.09506142578124,-262.73431396484375,144.5187530517578,-130.0885986328125,1.6887549494479926e+18,151.10499283854168,0.5986486872037252,-0.7356724540392557,-0.1976645787556965,0.2469554990530014,-2.469482103983561,1.3637168407440186,-0.0287973346809546
1.15,1.6887549494998935e+18,151.1568934733073,1.6301153500874836,-0.2010567982991536,-0.920669972896576,1.6887549494998935e+18,151.1568934733073,-0.716450979312261,-9.656634648640951,0.4019942084948222,1.6887549494998935e+18,151.1568934733073,-2.352412382761637,-9.43807315826416,1.2599767843882244,1.6887549494912463e+18,151.14824633789064,-0.2022982016205787,0.5945245822270712,-1.5330681403477986,1.6887549494955702e+18,151.15256998697916,-0.2695442953457435,0.4028656383355458,-1.4970780213673909,,,,,,,,,,,,1.6887549494880668e+18,151.14506674804687,-3.4452798843383787,51.38883819580078,3.359879970550537,1.6887549494880668e+18,151.14506674804687,-257.9738708496094,144.70663757324218,-128.6441192626953,1.6887549494998935e+18,151.1568934733073,0.5629000266393026,-0.7522200147310892,-0.2255985438823699,0.257515807946523,-2.621304670969645,1.2983835935592651,0.1838127722342808
1.2,1.6887549495431603e+18,151.2001602783203,6.115018844604492,-2.6878323554992676,-1.6508373618125916,1.6887549495431603e+18,151.2001602783203,3.1770702600479126,-11.960524082183838,-0.2105683982372284,1.6887549495431603e+18,151.2001602783203,-2.9437947273254395,-9.255187034606934,1.377581536769867,1.688754949543152e+18,151.20015185546876,-0.5175046722094218,-0.6265441253781319,-1.2704469958941145,1.6887549495474785e+18,151.204478515625,-0.516079306602478,-0.5033529500166575,-1.1673634847005208,,,,,,,,,,,,1.6887549495380603e+18,151.19506030273436,0.3440399646759033,51.76459884643555,2.347279953956604,1.6887549495380603e+18,151.19506030273436,-254.1845520019531,145.0824005126953,-129.65671997070314,1.6887549495431603e+18,151.2001602783203,0.5408129394054413,-0.7740292549133301,-0.2182170376181602,0.2464496120810508,-2.681182384490967,1.237009882926941,0.2189865708351135
1.25,1.6887549495864064e+18,151.24340641276044,2.622261126836141,-5.405494054158528,-5.521451632181804,1.6887549495864064e+18,151.24340641276044,-0.4025924205780029,-14.622539520263672,-3.90568478902181,1.6887549495864064e+18,151.24340641276044,-3.0306994915008545,-9.199541091918944,1.5530795256296794,1.688754949595056e+18,151.25205623372395,0.0656171034400661,0.7517205774784088,0.2104430720210075,1.6887549495993833e+18,151.25638313802082,0.1863138973712921,0.6787222002943357,0.1959859331448873,,,,,,,,,,,,1.68875494958806e+18,151.24505991210938,2.274079942703247,51.52303848266602,1.385920000076294,1.68875494958806e+18,151.24505991210938,-252.2545166015625,144.8408416748047,-130.61807861328126,1.6887549495864064e+18,151.24340641276044,0.5332094232241312,-0.776714007059733,-0.2181014716625213,0.2545270472764968,-2.646674394607544,1.220772624015808,0.197614828745524
1.3,1.6887549496383122e+18,151.29531217447916,4.22554365793864,-4.0106550852457685,0.0226394732793172,1.6887549496383122e+18,151.29531217447916,1.448255906502406,-13.338789939880373,1.4069797197977705,1.6887549496383122e+18,151.29531217447916,-2.7831339041392007,-9.310630162556969,1.321652849515279,1.6887549496469614e+18,151.30396150716146,0.8222246170043945,0.2551380544900894,1.7126115659872692,1.6887549496426376e+18,151.2996375732422,0.9021716117858888,0.2600758913904429,1.2095894813537598,,,,,,,,,,,,1.6887549496380618e+18,151.2950619140625,1.2810000002384183,51.849999237060544,2.581519937515259,1.6887549496380618e+18,151.2950619140625,-253.24759521484376,145.1677978515625,-129.42247619628907,1.6887549496383122e+18,151.29531217447916,0.5441795388857523,-0.7640117804209391,-0.2328038265307744,0.2565243442853291,-2.6762944062550864,1.2567577362060545,0.2505670934915542
1.35,1.688754949690213e+18,151.347212890625,-1.240743358929952,-2.626951217651367,0.0535184343655904,1.688754949690213e+18,151.347212890625,-2.357129745185375,-12.314263025919596,1.1760723392168682,1.688754949690213e+18,151.347212890625,-1.122232377529144,-9.669807116190592,1.059866487979889,1.688754949698867e+18,151.3558669433594,0.5102251966794332,-0.4890485306580861,4.070653120676677,1.688754949685892e+18,151.34289208984376,0.4731660584608714,-0.0811941822369893,4.172311464945476,,,,,,,,,,,,1.6887549496880676e+18,151.34506772460935,-7.510319757461548,51.06919860839844,4.040639925003052,1.6887549496880676e+18,151.34506772460935,-262.0389099121094,144.38699645996093,-127.96336059570312,1.688754949690213e+18,151.347212890625,0.6104325254758199,-0.7088956634203593,-0.2239636083443958,0.2715587119261424,-2.255841771761576,1.410659591356913,-0.1671676437060038
1.4,1.6887549497421215e+18,151.39912150065103,-3.252631743748983,-6.087819735209147,1.7778498927752178,1.6887549497421215e+18,151.39912150065103,-2.6203401486078897,-15.851652145385742,2.6496522426605225,1.6887549497421215e+18,151.39912150065103,0.6264455715815226,-9.746328353881836,0.809114933013916,1.688754949742117e+18,151.3991170654297,0.3070361306890845,-0.9263771176338196,3.23552405834198,1.6887549497377935e+18,151.39479337565103,0.3459024578332901,-0.93645641207695,3.2890002727508545,,,,,,,,,,,,1.6887549497380634e+18,151.39506347656248,-17.12147960662842,48.948838806152345,4.838519859313965,1.6887549497380634e+18,151.39506347656248,-271.65007934570315,142.26663513183593,-127.1654769897461,1.6887549497421215e+18,151.39912150065103,0.6813161770502726,-0.6533878048261007,-0.1926190803448358,0.2668770551681518,-0.9509793718655905,1.452538053194682,-1.5275051593780518
1.45,1.6887549497940242e+18,151.45102408854166,-1.4998287757237752,-6.112090428670247,2.636812925338745,1.6887549497940242e+18,151.45102408854166,0.8895317316055298,-15.571094195048014,3.803192218144735,1.6887549497940242e+18,151.45102408854166,2.3835145632425943,-9.441499392191568,1.1036919156710308,1.6887549497853706e+18,151.442370686849,-0.5764022668202718,-1.1429797559976578,3.664071480433146,1.688754949789699e+18,151.4466991373698,-0.5350161517659823,-1.2708542272448542,3.590054988861084,1.6887549498156593e+18,151.4726591796875,0.0,0.0,2.5027363300323486,6.535999774932861,1.2321943044662476,253.6731414794922,333.29998779296875,-122.916691,49.2789401,1.6887549497880645e+18,151.4450642578125,-25.756639862060545,45.38399810791016,3.5355599403381346,1.6887549497880645e+18,151.4450642578125,-280.2852355957031,138.70180053710936,-128.46844024658202,1.6887549497940242e+18,151.45102408854166,0.7398286660512289,-0.5947954654693604,-0.1447171568870544,0.2778764565785726,-0.4417827228705088,1.2912023067474363,-2.0865949789683023
1.5,1.688754949845928e+18,151.50292814127604,-7.04578439394633,-1.22937806447347,0.4052985310554504,1.688754949845928e+18,151.50292814127604,-3.4227333068847656,-10.30150032043457,1.4997016191482544,1.688754949845928e+18,151.50292814127604,3.6172050635019937,-9.054617563883465,1.03171569108963,1.6887549498372792e+18,151.4942793782552,0.929024209578832,-0.7146614367763201,2.5185465812683105,1.6887549498416074e+18,151.49860734049477,1.038369119167328,-0.7476481664925814,2.497522513071696,,,,,,,,,,,,1.6887549498380646e+18,151.49506474609376,-32.881439208984375,41.777678680419925,2.2887199401855467,1.6887549498380646e+18,151.49506474609376,-287.4100341796875,135.09547424316406,-129.71528015136718,1.688754949845928e+18,151.50292814127604,0.7867303490638733,-0.5479734142621359,-0.1117336452007293,0.2605840265750884,-0.289142554004987,1.1695174773534138,-2.3084259827931723
1.55,1.6887549498978332e+18,151.5548332519531,-10.88822333017985,9.215206623077393,-2.2193687756856284,1.6887549498978332e+18,151.5548332519531,-6.113262981176376,0.744367321332296,-0.8474580105394125,1.6887549498978332e+18,151.5548332519531,4.769114176432292,-8.45333480834961,1.3092233737309773,1.6887549498891858e+18,151.54618603515624,0.4953099091847737,-3.7424150307973223,3.4731252193450928,1.6887549498935084e+18,151.55050854492188,0.3303762972354889,-3.7359500726064048,3.6591846148173017,,,,,,,,,,,,1.6887549498880635e+18,151.54506362304687,-38.53491897583008,37.41251831054687,0.7222399592399598,1.6887549498880635e+18,151.54506362304687,-293.0635131835937,130.73031616210938,-131.2817596435547,1.6887549498978332e+18,151.5548332519531,0.8368223110834757,-0.5023336509863535,-0.0435701025029023,0.2095774064461389,-0.2743657628695169,1.03615003824234,-2.4940051237742105
1.6,1.688754949949738e+18,151.60673795572916,-2.7648772398630777,10.151762962341309,2.429388443628947,1.688754949949738e+18,151.60673795572916,3.012364308039347,2.4687947630882263,4.528018156687419,1.688754949949738e+18,151.60673795572916,5.7713955243428545,-7.665463765462239,2.035942276318868,1.68875494994109e+18,151.5980899251302,0.0161370237668355,-1.940057118733724,1.8973474179704983,1.6887549499454136e+18,151.60241373697917,0.0807360261678695,-1.817884087562561,1.4468852579593658,,,,,,,,,,,,1.6887549499380652e+18,151.59506533203125,-44.163998413085935,30.275518798828124,-5.004439926147461,1.6887549499380652e+18,151.59506533203125,-298.6925903320313,123.59331817626952,-137.00843811035156,1.688754949949738e+18,151.60673795572916,0.8730594913164774,-0.4513467152913411,0.0286373871689041,0.1818204025427499,-0.3477055927117665,0.8912319739659628,-2.563617547353109
1.65,1.6887549499929958e+18,151.64999584960938,-3.2502758502960205,6.908977270126343,1.9696215391159055,1.6887549499929958e+18,151.64999584960938,2.155335009098053,-1.0157531797885897,4.158725738525391,1.6887549499929958e+18,151.64999584960938,5.399764776229858,-7.907226085662842,2.126416802406311,1.688754949992992e+18,151.64999218749998,0.7025968531767527,0.0236201186974843,-1.8978056112925212,1.6887549499973174e+18,151.6543174641927,0.7687230110168457,0.1846340099970499,-2.080861488978068,,,,,,,,,,,,1.6887549499880607e+18,151.64506083984375,-43.64427871704102,30.600039291381837,-7.24435977935791,1.6887549499880607e+18,151.64506083984375,-298.1728759765625,123.91783752441408,-139.24835815429688,1.6887549499929958e+18,151.64999584960938,0.8648328483104706,-0.4711539447307586,0.0378398597240447,0.1689994558691978,-0.385938212275505,0.9310004115104676,-2.5599411725997925
1.7,1.68875495003625e+18,151.6932498372396,2.0282705624898276,3.5390369097391763,0.371331254641215,1.68875495003625e+18,151.6932498372396,6.458626906077067,-5.055037180582683,2.1322043339411416,1.68875495003625e+18,151.6932498372396,4.424510320027669,-8.576569557189941,1.698185682296753,1.688754950044901e+18,151.70190112304687,0.8280278642972311,0.0725911557674408,-3.0178778966267905,1.6887549500492275e+18,151.70622737630208,0.7253006647030512,-0.0098247577746708,-2.798882762591044,,,,,,,,,,,,1.6887549500380623e+18,151.69506235351565,-39.62803955078125,35.680118560791016,-5.026399898529053,1.6887549500380623e+18,151.69506235351565,-294.15662841796876,128.99791870117187,-137.0303985595703,1.68875495003625e+18,151.6932498372396,0.8379049102465311,-0.5217296183109283,0.009854890735975,0.1582620044549305,-0.3806084891160329,1.058641791343689,-2.5435660680135093
1.75,1.6887549500881551e+18,151.7451553548177,10.535386880238852,-17.84242884318034,0.1510209639867147,1.6887549500881551e+18,151.7451553548177,14.406786600748696,-26.698915481567383,1.9766708811124163,1.6887549500881551e+18,151.7451553548177,3.865553617477417,-8.838982264200846,1.7629625002543132,1.688754950096806e+18,151.75380623372396,0.0315104673306147,-2.534836252530416,1.4259631037712095,1.6887549500924818e+18,151.74948181152342,-0.1915062516927718,-2.832887589931488,1.6614770889282229,,,,,,,,,,,,1.688754950088066e+18,151.7450660644531,-35.67035903930664,38.79843978881836,-5.721799850463867,1.688754950088066e+18,151.7450660644531,-290.19895629882814,132.11623840332032,-137.72579956054688,1.6887549500881551e+18,151.7451553548177,0.8244604667027792,-0.5479756395022074,0.0225906535439813,0.1375648578008015,-0.4413727422555287,1.1149603128433228,-2.533172130584717
1.8,1.6887549501400497e+18,151.7970498046875,0.2114733060201009,2.069758574167887,4.669596036275228,1.6887549501400497e+18,151.7970498046875,4.303292115529378,-6.619943340619405,6.811169604460399,1.6887549501400497e+18,151.7970498046875,4.085972706476848,-8.672197341918945,2.078886032104492,1.6887549501487063e+18,151.80570646158856,0.2922481099764506,0.3061962132342158,-0.717868447303772,1.6887549501357317e+18,151.79273160807293,0.4065817246834437,-1.0959431529045105,0.0431169172128041,,,,,,,,,,,,1.6887549501380608e+18,151.7950607421875,-36.680519104003906,37.33687896728516,-9.362279891967772,1.6887549501380608e+18,151.7950607421875,-291.2091125488281,130.65467529296876,-141.36627502441405,1.6887549501400497e+18,151.7970498046875,0.8363432089487711,-0.5345118641853333,0.0675321345527966,0.1009703601400057,-0.4849343200524648,1.0769062042236328,-2.6078878243764243
1.85,1.6887549501919572e+18,151.84895751953124,-7.259568452835083,-0.1598981221516927,0.1793217658996582,1.6887549501919572e+18,151.84895751953124,-3.448854923248291,-9.054839769999186,1.9555341998736064,1.6887549501919572e+18,151.84895751953124,3.804867744445801,-8.877436955769857,1.7135249773661296,1.68875495020061e+18,151.85761018880206,0.1572468988597393,1.897449254989624,-0.9605347216129304,1.6887549501876357e+18,151.84463541666665,0.0909680152932802,2.162717501322428,-0.8378016948699951,,,,,,,,,,,,1.688754950188059e+18,151.8450587890625,-36.1559196472168,38.11035995483398,-7.434679794311523,1.688754950188059e+18,151.8450587890625,-290.68451538085935,131.42815551757812,-139.4386779785156,1.6887549501919572e+18,151.84895751953124,0.8248435656229655,-0.5508451064427694,0.0290281611184278,0.1232716813683509,-0.4387771089871724,1.123734434445699,-2.5660389264424643
1.9,1.6887549502438707e+18,151.90087076822917,-3.76405135790507,0.7886168162027994,-0.2669466137886047,1.6887549502438707e+18,151.90087076822917,-0.8406782646973928,-8.515258153279623,0.9014959136645,1.6887549502438707e+18,151.90087076822917,2.9175270398457847,-9.286370277404783,1.1057551105817158,1.6887549502438746e+18,151.90087451171877,0.4589888751506805,3.4728453159332275,-3.52331805229187,1.6887549502395466e+18,151.8965467936198,0.4356996417045593,3.1665727297465005,-3.259627898534139,,,,,,,,,,,,1.6887549502380657e+18,151.89506567382813,-32.369039916992186,41.4067985534668,-2.4814798653125765,1.6887549502380657e+18,151.89506567382813,-286.89763793945315,134.72459716796874,-134.4854766845703,1.6887549502438707e+18,151.90087076822917,0.7922991116841634,-0.5887338519096375,-0.0369412481474379,0.1513230254252751,-0.3792665402094523,1.2388971249262493,-2.491586605707804
1.95,1.6887549502957752e+18,151.952775390625,-7.087919235229492,1.5588208834330242,-1.4926188985506694,1.6887549502957752e+18,151.952775390625,-5.980062643686931,-8.16929578781128,-0.7116653124491373,1.6887549502957752e+18,151.952775390625,1.1020105481147766,-9.710611979166666,0.7182661493619283,1.6887549502871247e+18,151.94412467447918,-0.3368412802616756,3.848756472269694,-3.8609737555185952,1.6887549502914478e+18,151.94844767252604,-0.5270748833815256,3.805639664332072,-3.7161477406819663,,,,,,,,,,,,1.6887549502880668e+18,151.945066796875,-23.587479400634766,46.586920166015624,2.8718799591064452,1.6887549502880668e+18,151.945066796875,-278.11607666015624,139.90471801757812,-129.13211669921876,1.6887549502957752e+18,151.952775390625,0.7187891205151876,-0.6508334477742513,-0.1297772402564684,0.2039247254530588,-0.6445180475711823,1.4239180088043213,-2.019165794054667
2.0,1.688754950347679e+18,152.00467903645833,-1.9392128785451253,-2.090050379435221,-2.4943110942840576,1.688754950347679e+18,152.00467903645833,-1.8009978532791138,-11.83151117960612,-1.162114178140958,1.688754950347679e+18,152.00467903645833,0.1323689818382263,-9.723956108093262,1.269509474436442,1.6887549503390298e+18,151.99602970377603,-1.2913182377815249,0.9743810097376504,-1.460120638211568,1.6887549503433564e+18,152.00035628255208,-1.162120242913564,0.484721581141154,-1.4058045546213789,,,,,,,,,,,,1.6887549503380623e+18,151.99506240234376,-16.916519927978516,49.15867919921875,2.715719962120056,1.6887549503380623e+18,151.99506240234376,-271.4451171875,142.47647705078126,-129.28827819824218,1.688754950347679e+18,152.00467903645833,0.667608638604482,-0.6823447744051615,-0.1569949984550475,0.2527515590190887,-1.4206928412119548,1.432043472925822,-1.1315249403317769
2.05,1.6887549503995855e+18,152.05658569335938,3.212524970372518,-0.0095678965250651,-1.9895182847976685,1.6887549503995855e+18,152.05658569335938,2.4195425113042197,-9.715258598327637,-0.6303093632062277,1.6887549503995855e+18,152.05658569335938,-0.7988284230232239,-9.688186009724935,1.296521504720052,1.6887549503909345e+18,152.0479345703125,0.218027984102567,-0.7185811599095663,-1.854230562845866,1.68875495039526e+18,152.0522598470052,0.3361286073923111,-0.3323106467723846,-1.843591292699178,,,,,,,,,,,,1.688754950388071e+18,152.04507084960937,-12.85391960144043,50.25179901123047,0.7051599800586701,1.688754950388071e+18,152.04507084960937,-267.38251342773435,143.56959838867186,-131.29883728027343,1.6887549503995855e+18,152.05658569335938,0.6398170987764994,-0.7177956899007162,-0.1499295284350712,0.2296242266893386,-2.0686533053716025,1.4110438426335652,-0.5277112821737925
2.1,1.688754950442833e+18,152.09983276367188,1.528575599193573,3.684401750564575,0.0291301906108856,1.688754950442833e+18,152.09983276367188,0.1007976494729518,-5.986243963241577,1.0812567174434662,1.688754950442833e+18,152.09983276367188,-1.433624029159546,-9.653141021728516,0.9894391298294068,1.688754950442837e+18,152.0998369140625,1.0029389063517251,2.167298992474874,-1.7819448312123616,1.688754950447165e+18,152.10416455078123,0.9442958831787108,2.136755665143331,-1.7853554884592693,,,,,,,,,,,,1.6887549504380646e+18,152.09506484375,-8.452159786224366,50.96915969848633,2.9304399490356445,1.6887549504380646e+18,152.09506484375,-262.9807556152344,144.28695983886718,-129.07355499267578,1.688754950442833e+18,152.09983276367188,0.6111244261264801,-0.7286683320999146,-0.1970132663846015,0.2378844767808914,-2.490146517753601,1.39400714635849,-0.0236991345882415
2.15,1.688754950486094e+18,152.14309407552085,0.9769889116287231,2.2222193082173667,0.3996124863624573,1.688754950486094e+18,152.14309407552085,-1.0654043008883791,-7.338786919911702,1.4245270888010662,1.688754950486094e+18,152.14309407552085,-2.048239270846049,-9.543501536051432,0.9622272054354348,1.6887549504947448e+18,152.15174495442707,-0.3329215546449025,0.6710354685783386,-1.3131057818730671,1.6887549504990712e+18,152.15607153320312,-0.4368195577214162,0.4449644287427266,-1.2353731393814087,,,,,,,,,,,,1.688754950488062e+18,152.14506196289062,-3.3867199420928955,51.171678924560545,4.621359825134277,1.688754950488062e+18,152.14506196289062,-257.9153076171875,144.4894775390625,-127.38263549804688,1.688754950486094e+18,152.14309407552085,0.5794689059257507,-0.7396864096323649,-0.2319933623075484,0.2512137790520986,-2.669730027516683,1.3420439561208088,0.2303967376550038
2.2,1.688754950538e+18,152.1950000813802,3.007653594017029,-2.0051024754842124,-1.9932557344436648,1.688754950538e+18,152.1950000813802,0.3838485876719157,-11.39322566986084,-0.716650386651357,1.688754950538e+18,152.1950000813802,-2.629651149113973,-9.37061850229899,1.213917891184489,1.688754950546642e+18,152.20364192708334,-0.8129598299662272,-1.328377366065979,-1.218014399210612,1.6887549505423258e+18,152.19932580566405,-0.8487972617149353,-1.4818827509880066,-1.2305880188941956,,,,,,,,,,,,1.6887549505380626e+18,152.19506259765626,-0.3415999948978424,51.41079864501953,3.1012399673461912,1.6887549505380626e+18,152.19506259765626,-254.87019958496097,144.72859802246094,-128.90276184082032,1.688754950538e+18,152.1950000813802,0.5561128854751587,-0.7629462877909342,-0.2201459904511769,0.244901160399119,-2.683473507563273,1.2751110792160034,0.2197559078534443
2.25,1.6887549505898995e+18,152.24689941406248,4.80915625890096,-5.275780995686849,-4.056713263193767,1.6887549505898995e+18,152.24689941406248,1.8338991800944011,-14.530216534932457,-2.5728824933369956,1.6887549505898995e+18,152.24689941406248,-2.9811031818389893,-9.236931165059408,1.4211434920628865,1.6887549505985554e+18,152.25555525716143,-0.0209730391701062,1.130558868249257,0.2409354348977407,1.6887549505855764e+18,152.24257641601562,-0.3230968049416939,0.6228280266125997,-0.274176687002182,,,,,,,,,,,,1.6887549505880666e+18,152.2450667480469,1.9812799453735352,51.76947860717773,1.842199945449829,1.6887549505880666e+18,152.2450667480469,-252.547314453125,145.0872772216797,-130.16180114746095,1.6887549505898995e+18,152.24689941406248,0.541325032711029,-0.7775959769884745,-0.209145093957583,0.2418179710706074,-2.674577792485555,1.2318109671274822,0.1918937315543492
2.3,1.6887549506418102e+18,152.29881005859374,-1.4171568552652996,-9.201382637023926,-4.046666383743286,1.6887549506418102e+18,152.29881005859374,-3.893521229426066,-18.631114959716797,-2.8075786431630454,1.6887549506418102e+18,152.29881005859374,-2.482210397720337,-9.41222858428955,1.176400403181712,1.6887549506504602e+18,152.30746028645834,1.1583023071289062,-1.4478015502293904,2.0074050029118857,1.688754950637485e+18,152.2944851888021,0.9517280459403992,-0.7671958406766256,1.4785484075546265,,,,,,,,,,,,1.6887549506380677e+18,152.29506787109375,0.5099599719047546,51.73043975830078,2.2618799448013305,1.6887549506380677e+18,152.29506787109375,-254.01863708496097,145.04823608398436,-129.74212036132812,1.6887549506418102e+18,152.29881005859374,0.5633672475814819,-0.7584765950838724,-0.2181423604488372,0.2436652680238087,-2.678112268447876,1.2914946873982749,0.208787257472674
2.35,1.6887549506937147e+18,152.35071451822918,1.892262150843938,1.3997019131978352,1.7365783055623372,1.6887549506937147e+18,152.35071451822918,0.8516454597314199,-8.340781370798746,2.3613171180089316,1.6887549506937147e+18,152.35071451822918,-1.0464626848697662,-9.722978591918944,0.5620514452457428,1.6887549506937206e+18,152.350720703125,0.5108360517770051,-0.829784095287323,3.8495200872421265,1.6887549506893914e+18,152.3463914388021,0.6167702674865723,-0.9464339117209116,3.5953492323557534,,,,,,,,,,,,1.688754950688063e+18,152.34506303710936,-6.544079780578613,51.04479827880859,4.748239994049072,1.688754950688063e+18,152.34506303710936,-261.0726745605469,144.3625946044922,-127.25575714111328,1.6887549506937147e+18,152.35071451822918,0.6338281234105428,-0.7141603628794352,-0.1984266142050424,0.219269831975301,-2.483569383621216,1.4495338201522827,-0.0570408478379249
2.4,1.6887549507456105e+18,152.40261067708337,-3.395402749379476,-5.286002477010091,7.06077226003011,1.6887549507456105e+18,152.40261067708337,-2.665006240208944,-15.048661231994627,7.798009713490804,1.6887549507456105e+18,152.40261067708337,0.7245504558086395,-9.74515438079834,0.6745497385660807,1.6887549507369605e+18,152.39396061197917,-0.2534072597821553,0.8977173964182535,3.504432121912638,1.688754950741284e+18,152.3982843424479,-0.1738420575857162,0.878576934337616,3.5856770674387612,,,,,,,,,,,,1.6887549507380603e+18,152.39506059570311,-15.794119453430175,49.32215805053711,4.877559947967529,1.6887549507380603e+18,152.39506059570311,-270.3227233886719,142.63995666503905,-127.12643737792968,1.6887549507456105e+18,152.40261067708337,0.6920067071914673,-0.6531184911727905,-0.1803056349356968,0.2475631684064865,-0.8523731231689453,1.4545502265294392,-1.6732730865478516
2.45,1.6887549507975168e+18,152.45451660156252,-1.7525221506754558,-2.2222909927368164,5.97238302230835,1.6887549507975168e+18,152.45451660156252,0.9684949020544688,-11.598210652669271,7.035696347554524,1.6887549507975168e+18,152.45451660156252,2.7151710192362466,-9.358414967854818,1.000625689824422,1.6887549507888689e+18,152.44586889648437,-0.5455026626586914,-2.02288027604421,4.021274964014689,1.68875495079319e+18,152.4501901041667,-0.6634505440791448,-2.225942055384318,3.938350041707357,,,,,,,,,,,,1.6887549507880586e+18,152.4450588378906,-25.37599983215332,45.97691879272461,4.675039863586425,1.6887549507880586e+18,152.4450588378906,-279.90459594726565,139.29471740722656,-127.3289581298828,1.6887549507975168e+18,152.45451660156252,0.7586122552553812,-0.584364136060079,-0.1271849150458971,0.2564185857772827,-0.3591151535511017,1.2626595099767048,-2.2261852423350015
2.5,1.6887549508494203e+18,152.50642049153646,-2.7975642681121826,-2.234210650126139,-2.095003366470337,1.6887549508494203e+18,152.50642049153646,1.3345968127250671,-11.023135821024576,-0.56989057858785,1.6887549508494203e+18,152.50642049153646,4.126315037409465,-8.7714204788208,1.462425430615743,1.6887549508407726e+18,152.49777270507812,-0.3309362232685089,-0.2378302216529846,2.89422869682312,1.688754950845101e+18,152.50210107421876,-0.1571450779835383,0.0661770453055699,2.7975082397460938,1.6887549508427407e+18,152.49974072265624,0.0,0.0,2.513157367706299,6.5370001792907715,1.2093391418457031,248.41978454589844,333.29998779296875,-122.9167019,49.2789261,1.6887549508380585e+18,152.49505864257813,-34.52355842590332,40.596720123291014,0.2976799875497818,1.6887549508380585e+18,152.49505864257813,-289.0521606445312,133.91452026367188,-131.7063201904297,1.6887549508494203e+18,152.50642049153646,0.8033940593401591,-0.5303093791007996,-0.0748886292179425,0.2595692078272502,-0.3514597515265147,1.0998011430104573,-2.2987011273701987
2.55,1.6887549508926738e+18,152.5496737060547,-11.958406448364258,2.7262487411499023,-2.949138879776001,1.6887549508926738e+18,152.5496737060547,-7.010372161865234,-5.686542987823486,-1.7434704303741455,1.6887549508926738e+18,152.5496737060547,4.942187786102295,-8.395287036895752,1.1429810523986816,1.688754950892674e+18,152.54967390950523,1.0084367394447329,-1.4502959251403809,2.2615249156951904,1.6887549508970015e+18,152.55400162760418,0.9550369381904602,-1.8288286725680032,2.277051051457723,,,,,,,,,,,,1.6887549508880586e+18,152.5450586425781,-39.28643951416016,35.87043991088867,1.5518399953842164,1.6887549508880586e+18,152.5450586425781,-293.8150329589844,129.18823699951173,-130.45215454101563,1.6887549508926738e+18,152.5496737060547,0.8326241672039032,-0.4905997812747955,-0.0718953311443328,0.2463176846504211,-0.2359709292650222,1.0208690762519836,-2.43367075920105
2.6,1.68875495093593e+18,152.59292976888025,-7.757512092590332,9.361998875935871,-2.6639769077301025,1.68875495093593e+18,152.59292976888025,-2.237488587697347,1.419542004664739,-0.8951151371002197,1.68875495093593e+18,152.59292976888025,5.514177640279134,-7.924952348073323,1.706174413363139,1.688754950944579e+18,152.60157934570313,0.044033204515775,-2.9720630645751953,1.8005761702855427,1.6887549509489062e+18,152.6059064941406,0.0417424539724986,-2.8321749369303384,1.6204727292060852,,,,,,,,,,,,1.6887549509380593e+18,152.59505932617188,-43.55643920898437,31.690719985961913,-3.228119993209839,1.6887549509380593e+18,152.59505932617188,-298.08502807617185,125.00851745605468,-135.23211669921875,1.68875495093593e+18,152.59292976888025,0.8599390784899393,-0.4657581249872843,-0.0077702865625421,0.2068944970766703,-0.3069004515806834,0.9355262319246928,-2.513842741648356
2.65,1.6887549509878336e+18,152.6448337402344,-2.0694714387257895,7.545352776845296,1.8024683793385825,1.6887549509878336e+18,152.6448337402344,3.4941192070643106,-0.2456631263097127,4.07537579536438,1.6887549509878336e+18,152.6448337402344,5.55774466196696,-7.7735114097595215,2.2102200190226235,1.6887549509964844e+18,152.65348453776042,0.9956594705581664,-0.5355761051177979,-1.3320426046848295,1.6887549509921605e+18,152.64916027832032,0.9355401396751404,-0.7719046100974083,-1.0957395136356354,,,,,,,,,,,,1.688754950988059e+18,152.64505888671874,-43.97855834960937,30.646399688720702,-6.990599822998047,1.688754950988059e+18,152.64505888671874,-298.5071594238281,123.96419830322266,-138.99459838867188,1.6887549509878336e+18,152.6448337402344,0.8678793708483378,-0.4625471234321594,0.0398224219679832,0.1764067610104878,-0.3876608312129974,0.9090662598609924,-2.5492886702219644
2.7,1.6887549510397376e+18,152.6967375488281,4.788150628407796,4.135922431945801,0.2663832306861877,1.6887549510397376e+18,152.6967375488281,9.368299643198648,-4.372683962186177,2.058026889959971,1.6887549510397376e+18,152.6967375488281,4.574302991231282,-8.49110190073649,1.7289562622706096,1.688754951048391e+18,152.70539062499998,0.6177374919255575,0.4491895735263824,-3.2301026980082193,1.6887549510354148e+18,152.69241487630208,1.0276280641555784,0.5526803433895111,-3.1623474756876626,,,,,,,,,,,,1.688754951038059e+18,152.69505888671875,-40.01843948364258,35.41659927368164,-5.419239902496338,1.688754951038059e+18,152.69505888671875,-294.5470336914062,128.7343978881836,-137.42323303222656,1.6887549510397376e+18,152.6967375488281,0.8425694902737936,-0.5144160787264506,0.0129729386341447,0.1571117242177327,-0.3731162150700887,1.0417617758115132,-2.556889057159424
2.75,1.6887549510916508e+18,152.74865096028643,4.640913089116414,-15.538517634073893,4.094394048055013,1.6887549510916508e+18,152.74865096028643,8.394420623779297,-24.418556213378903,6.053442398707072,1.6887549510916508e+18,152.74865096028643,3.7476614316304526,-8.862533887227377,1.896360715230306,1.6887549511003013e+18,152.75730110677085,-0.1727730482816696,-2.978884299596151,1.0561351378758748,1.6887549510873306e+18,152.74433072916668,-0.2829833241800467,-2.175545733422041,-0.1113810936609905,,,,,,,,,,,,1.6887549510880645e+18,152.745064453125,-35.03839874267578,39.476759338378905,-5.97555980682373,1.6887549510880645e+18,152.745064453125,-289.56699829101564,132.7945587158203,-137.97955932617188,1.6887549510916508e+18,152.74865096028643,0.8196265697479248,-0.5534294644991556,0.0252856630831956,0.1438044706980386,-0.4795065919558207,1.1209502617518108,-2.489962895711263
2.8,1.6887549511435525e+18,152.80055240885417,2.561199347178141,-1.8495019276936848,4.402273654937744,1.6887549511435525e+18,152.80055240885417,6.619145790735881,-10.493723551432293,6.787440935770671,1.6887549511435525e+18,152.80055240885417,4.052100499471028,-8.62671693166097,2.322479724884033,1.688754951143559e+18,152.8005588378906,0.1769218519330024,-0.5610033869743346,0.4267657250165939,1.6887549511392325e+18,152.79623266601564,0.141160777149101,-0.93625279267629,0.7014260093371073,,,,,,,,,,,,1.6887549511380636e+18,152.79506352539062,-36.80251922607422,37.78095932006836,-10.714039611816409,1.6887549511380636e+18,152.79506352539062,-291.33110961914065,131.0987579345703,-142.71803588867186,1.6887549511435525e+18,152.80055240885417,0.8340053955713908,-0.5352856715520223,0.0761225521564483,0.1098722567160924,-0.5322805047035217,1.0678571859995525,-2.560033082962036
2.85,1.6887549511954604e+18,152.85246020507813,-5.7858500480651855,2.4631568590799966,-2.9487222035725913,1.6887549511954604e+18,152.85246020507813,-1.77607262134552,-6.2785671552022295,-0.8697910308837891,1.6887549511954604e+18,152.85246020507813,4.003931363423665,-8.72421932220459,2.016243894894918,1.68875495118681e+18,152.84381013997395,0.0247400378187497,1.8878790140151975,-0.543771892786026,1.68875495119114e+18,152.84814005533855,0.0705549359942476,1.910684625307719,-0.5971207718054453,,,,,,,,,,,,1.6887549511880607e+18,152.84506069335936,-36.31695938110352,37.66627960205078,-8.986519813537598,1.6887549511880607e+18,152.84506069335936,-290.845556640625,130.98407592773438,-140.99051818847656,1.6887549511954604e+18,152.85246020507813,0.8298608462015787,-0.540832499663035,0.0443745659043391,0.1289229417840639,-0.4782395958900451,1.089529037475586,-2.5401832262674966
2.9,1.688754951247369e+18,152.90436881510416,-5.29552698135376,2.4032468795776367,-0.2641913890838623,1.688754951247369e+18,152.90436881510416,-2.1561325788497925,-6.826922416687012,0.9196414748827616,1.688754951247369e+18,152.90436881510416,3.1335484186808267,-9.212664604187012,1.1211454669634502,1.688754951238713e+18,152.89571329752604,0.996932089328766,3.0058133602142334,-2.9528717199961343,1.6887549512430408e+18,152.90004069010416,0.9858856002489724,3.0463340282440186,-3.1431562105814614,,,,,,,,,,,,1.6887549512380657e+18,152.89506572265626,-34.35763931274414,39.87935943603516,-3.4257598757743835,1.6887549512380657e+18,152.89506572265626,-288.8862365722656,133.19715576171876,-135.42975769042968,1.688754951247369e+18,152.90436881510416,0.7991454005241394,-0.5801094770431519,-0.0335712485636273,0.1499610890944798,-0.355403592189153,1.2180428504943848,-2.5218284130096436
2.95,1.688754951299274e+18,152.95627384440104,-3.9715006351470943,1.6573805809020996,-0.0621516903241475,1.688754951299274e+18,152.95627384440104,-2.533201535542806,-8.014559904734293,0.886341392993927,1.688754951299274e+18,152.95627384440104,1.4324529965718586,-9.654435793558756,0.8858056664466858,1.688754951290621e+18,152.94762084960936,-0.8363254144787788,3.1683544317881265,-3.6129116217295327,1.6887549512949494e+18,152.95194954427083,-1.0318023165067036,3.257540702819824,-3.487073262532552,,,,,,,,,,,,1.6887549512880689e+18,152.94506884765627,-26.430079650878906,44.99359970092773,1.52743998169899,1.6887549512880689e+18,152.94506884765627,-280.95867309570315,138.3113983154297,-130.4765594482422,1.688754951299274e+18,152.95627384440104,0.7319581111272176,-0.6426164110501608,-0.1071277906497319,0.1963010728359222,-0.5989696085453033,1.3877815008163452,-2.10817039012909
3.0,1.688754951342528e+18,152.9995281982422,-5.0395495891571045,-4.734148979187012,-1.6529525518417358,1.688754951342528e+18,152.9995281982422,-4.43449854850769,-14.437992572784424,-0.1657029539346695,1.688754951342528e+18,152.9995281982422,0.5992050021886826,-9.686338901519775,1.424562156200409,1.6887549513425326e+18,152.99953279622397,-1.2956452171007793,1.118952393531799,-1.7294613122940063,1.688754951346855e+18,153.0038546549479,-1.151990016301473,0.5757405559221903,-1.6865480343500774,,,,,,,,,,,,1.6887549513380667e+18,152.99506684570312,-19.251599884033205,48.32175903320312,1.9812799930572509,1.6887549513380667e+18,152.99506684570312,-273.7801940917969,141.63955993652343,-130.02272033691406,1.688754951342528e+18,152.9995281982422,0.6838891804218292,-0.668999433517456,-0.1395560279488563,0.2553262412548065,-1.1570667624473572,1.4048177003860474,-1.4165434837341309
3.05,1.6887549513857823e+18,153.04278247070314,3.2848652601242065,-0.5839068094889323,-3.238836924235026,1.6887549513857823e+18,153.04278247070314,3.052842994530996,-10.28175926208496,-1.6281164288520813,1.6887549513857823e+18,153.04278247070314,-0.2378683363397916,-9.680347760518393,1.5480331579844158,1.688754951394433e+18,153.05143326822915,0.3500257879495621,-0.7689775625864664,-1.8159496386845904,1.6887549513987597e+18,153.055759765625,0.4540765086809795,-0.3642283976078033,-1.810146450996399,1.688754951372794e+18,153.02979418945313,0.0,0.0,2.523536443710327,6.428999900817871,1.1948511600494385,243.6146697998047,333.29998779296875,-122.9167113,49.2789153,1.6887549513880645e+18,153.04506459960936,-14.835199737548828,49.88091888427734,-0.026839992031455,1.6887549513880645e+18,153.04506459960936,-269.3638000488281,143.19871826171874,-132.0308380126953,1.6887549513857823e+18,153.04278247070314,0.6604121923446655,-0.7032556335131327,-0.123241086800893,0.2320378720760345,-1.6920699675877888,1.4031366109848022,-0.9397899707158408
3.1,1.6887549514376827e+18,153.0946824544271,1.0598648190498352,3.428410212198893,-1.0308008988698325,1.6887549514376827e+18,153.0946824544271,-0.0081755022207896,-6.258427619934082,0.2683949420849482,1.6887549514376827e+18,153.0946824544271,-1.0738863348960876,-9.669333140055338,1.2365084091822307,1.6887549514463383e+18,153.10333846028644,0.8005388975143433,2.150805632273356,-1.9799160559972129,1.688754951450665e+18,153.10766479492187,0.7688756982485453,2.0737348000208535,-1.9957985877990725,,,,,,,,,,,,1.6887549514380652e+18,153.09506508789065,-10.05279998779297,51.01795883178711,1.6396799981594086,1.6887549514380652e+18,153.09506508789065,-264.5813903808594,144.33575744628905,-130.36432189941405,1.6887549514376827e+18,153.0946824544271,0.6273297667503357,-0.7244914571444193,-0.1643505444129308,0.2325063695510228,-2.237227201461792,1.4007285038630168,-0.3332557727893193
3.15,1.6887549514895923e+18,153.14659228515623,1.3046412865320842,1.8615252176920576,0.6730445623397827,1.6887549514895923e+18,153.14659228515623,-0.6566303968429565,-7.704490025838216,1.8015960057576497,1.6887549514895923e+18,153.14659228515623,-1.9671177466710408,-9.548510551452637,1.0658640464146931,1.68875495149824e+18,153.15523990885416,-0.0307977882524331,0.2213368390997251,-1.661604404449463,1.6887549514939136e+18,153.15091357421875,0.0868192240595817,0.2737439833581447,-1.7812066674232483,,,,,,,,,,,,1.68875495148806e+18,153.14505981445313,-3.4916399002075194,51.8890380859375,3.974759960174561,1.68875495148806e+18,153.14505981445313,-258.0202331542969,145.20683898925782,-128.02924041748048,1.6887549514895923e+18,153.14659228515623,0.5869017442067465,-0.7443492809931437,-0.2085131655136744,0.2405297905206679,-2.610485633214315,1.342693607012431,0.1195476142068703
3.2,1.688754951541498e+18,153.19849763997397,4.245717604955037,-1.9799814224243164,0.0660399993260701,1.688754951541498e+18,153.19849763997397,1.632303814093272,-11.366705258687338,1.378465175628662,1.688754951541498e+18,153.19849763997397,-2.619259834289551,-9.369219144185385,1.2497377395629885,1.6887549515501453e+18,153.20714518229167,-0.7006115516026815,-0.3950770907104015,-1.0625491937001543,1.6887549515371697e+18,153.1941700032552,-0.6425284345944723,-0.4560618102550506,-1.1802425781885784,,,,,,,,,,,,1.688754951538067e+18,153.19506684570314,0.2952400147914886,52.04031982421875,3.1817599296569825,1.688754951538067e+18,153.19506684570314,-254.2333557128906,145.35811767578124,-128.82223815917968,1.688754951541498e+18,153.19849763997397,0.5600017507870992,-0.7673333287239075,-0.2048040131727854,0.2357035477956135,-2.6732864379882812,1.273237983385722,0.1725556055704752
3.25,1.688754951593395e+18,153.25039477539065,2.8574599424997964,-3.961813926696778,-5.977687835693359,1.688754951593395e+18,153.25039477539065,0.0865404109160105,-13.258231480916342,-4.361118714014689,1.688754951593395e+18,153.25039477539065,-2.7767655849456787,-9.278912862141928,1.5538817246754963,1.6887549515934024e+18,153.25040246582032,-0.4867068827152252,0.807716578245163,0.3646101877093315,1.6887549515890785e+18,153.24607836914063,-0.5327253937721252,0.5761477251847585,0.130368818839391,,,,,,,,,,,,1.6887549515880689e+18,153.24506889648438,1.900759959220886,52.06715927124024,1.2102400064468384,1.6887549515880689e+18,153.24506889648438,-252.6278381347656,145.38495788574218,-130.79375915527345,1.688754951593395e+18,153.25039477539065,0.5486965775489807,-0.7743392586708069,-0.1976914058128992,0.2453617801268895,-2.6098804473876953,1.243051528930664,0.1145615751544634
3.3,1.6887549516453125e+18,153.30231241861978,1.1619835297266643,-7.1363786061604815,-3.681873679161072,1.6887549516453125e+18,153.30231241861978,-1.3032907247543335,-16.5475648244222,-2.258824666341146,1.6887549516453125e+18,153.30231241861978,-2.471120278040568,-9.393682479858398,1.3603616158167522,1.6887549516366508e+18,153.29365063476564,0.6853908002376556,-0.2892446915308634,0.6044511497020721,1.688754951640985e+18,153.2979852701823,0.8056294520696005,-0.3808235824108124,0.6668612162272135,,,,,,,,,,,,1.6887549516380636e+18,153.29506357421877,0.2610799878835678,51.95735931396485,1.6299199342727662,1.6887549516380636e+18,153.29506357421877,-254.26751708984375,145.27515869140626,-130.37408142089845,1.6887549516453125e+18,153.30231241861978,0.5640527407328287,-0.7632972200711569,-0.2011218120654424,0.2422182957331339,-2.617732524871826,1.2819268703460691,0.1208541616797446
3.35,1.68875495169721e+18,153.3542099609375,2.1198909680048623,-2.509670893351237,1.423988401889801,1.68875495169721e+18,153.3542099609375,0.8987042903900146,-12.202996571858725,2.3814566930135093,1.68875495169721e+18,153.3542099609375,-1.2270327806472778,-9.67582098642985,0.8947809338569641,1.688754951688562e+18,153.34556217447917,0.5580762928972641,-0.7101308579246203,3.3889784812927246,1.6887549516928832e+18,153.34988346354166,0.4322889894247055,-0.5905030717452368,3.5884260336558023,,,,,,,,,,,,1.6887549516880648e+18,153.34506479492188,-4.492039823532105,51.52303848266602,3.8112799644470217,1.6887549516880648e+18,153.34506479492188,-259.0206329345703,144.84083557128906,-128.19271392822264,1.68875495169721e+18,153.3542099609375,0.6222152709960938,-0.723277231057485,-0.1902109036842982,0.229612315694491,-2.399390459060669,1.412936766942342,-0.1372949704527855
3.4,1.688754951749118e+18,153.40611783854166,-3.9236799081166582,-5.321622212727864,4.2337164878845215,1.688754951749118e+18,153.40611783854166,-3.287538925806681,-15.071791648864746,5.226323525110881,1.688754951749118e+18,153.40611783854166,0.6302948805193106,-9.732664744059244,0.9299195806185404,1.688754951740464e+18,153.3974638671875,-0.0365501046180724,0.6114252209663391,3.534160852432251,1.6887549517447946e+18,153.4017946777344,0.008959366629521,0.5866342683633169,3.551621437072754,,,,,,,,,,,,1.6887549517380644e+18,153.39506425781252,-14.749799537658692,50.02975921630859,3.745399904251099,1.6887549517380644e+18,153.39506425781252,-269.2783935546875,143.34755859375,-128.25859680175782,1.688754951749118e+18,153.40611783854166,0.6851986646652222,-0.6593179702758789,-0.1732076654831568,0.2552517453829447,-1.0286069909731548,1.4415595531463623,-1.4959886868794758
3.45,1.6887549517923727e+18,153.44937255859372,-3.2365968227386475,-5.4889140129089355,6.294720888137817,1.6887549517923727e+18,153.44937255859372,-0.9379864931106568,-14.979668140411375,7.4072816371917725,1.6887549517923727e+18,153.44937255859372,2.292764186859131,-9.473249435424805,1.0498733222484589,1.6887549517923694e+18,153.44936938476562,-0.5912666370471319,-1.4005613227685292,4.050851027170817,1.6887549517967012e+18,153.4537013346354,-0.6691010644038519,-1.628413995107015,3.962988297144572,,,,,,,,,,,,1.6887549517880663e+18,153.44506655273435,-23.890039443969727,46.333159637451175,3.7966399669647215,1.6887549517880663e+18,153.44506655273435,-278.41863403320315,139.6509582519531,-128.20735778808594,1.6887549517923727e+18,153.44937255859372,0.7400771081447601,-0.600141167640686,-0.1417820900678634,0.2675997763872146,-0.4388183653354645,1.3037709593772888,-2.109895706176758
3.5,1.6887549518356224e+18,153.49262239583334,-0.074692169825236,-5.1779219309488935,0.1494861443837483,1.6887549518356224e+18,153.49262239583334,3.492723365624746,-14.206188519795736,1.683749516805013,1.6887549518356224e+18,153.49262239583334,3.5615695317586265,-9.010761896769203,1.471575935681661,1.688754951844277e+18,153.50127701822916,0.4093815485636393,-0.3114394942919413,3.14738138516744,1.688754951848604e+18,153.50560392252603,0.5523749167720476,-0.0933605432510375,3.1382692654927573,,,,,,,,,,,,1.6887549518380646e+18,153.49506474609376,-31.993279266357423,41.68983840942383,0.7563999891281128,1.6887549518380646e+18,153.49506474609376,-286.521875,135.00763854980468,-131.24759826660156,1.6887549518356224e+18,153.49262239583334,0.7837880651156107,-0.5551992058753967,-0.0876529167095819,0.2630587816238403,-0.4032824238141377,1.1597895622253418,-2.226006110509237
3.55,1.6887549518875328e+18,153.54453255208333,-12.342924435933432,4.326941172281901,-2.9646719296773276,1.6887549518875328e+18,153.54453255208333,-7.49751091003418,-4.126621982703607,-1.666002790133158,1.6887549518875328e+18,153.54453255208333,4.839567184448242,-8.43605868021647,1.235981782277425,1.6887549518961815e+18,153.5531815592448,0.6251187417656183,-2.563801407814026,3.0098349253336587,1.6887549519005092e+18,153.55750919596355,0.5086471239725748,-2.8291205962498984,3.044450600941976,1.6887549518918536e+18,153.548853515625,0.0,0.0,2.5331008434295654,6.4670000076293945,1.194313883781433,241.41506958007812,333.29998779296875,-122.9167119,49.2789116,1.6887549518880635e+18,153.545063671875,-38.39095840454102,36.57803955078125,1.3615199863910674,1.6887549518880635e+18,153.545063671875,-292.9195617675781,129.89583740234374,-130.64247436523436,1.6887549518875328e+18,153.54453255208333,0.8298471371332804,-0.4966498514016469,-0.0674496938784917,0.2437497029701868,-0.2576439976692199,1.0309410095214842,-2.423275868097941
3.6,1.6887549519394368e+18,153.59643676757813,-7.112746556599935,11.04768721262614,-1.2244198322296145,1.6887549519394368e+18,153.59643676757813,-1.3178470532099409,3.3922248681386313,0.8949155807495117,1.6887549519394368e+18,153.59643676757813,5.789053440093994,-7.63795789082845,2.0566479762395224,1.6887549519480863e+18,153.6050868326823,-0.1499165147542953,-2.709747393925985,2.075261930624644,1.688754951943763e+18,153.60076293945315,-0.2548071667551994,-2.8370108604431152,2.456365466117859,,,,,,,,,,,,1.6887549519380692e+18,153.5950692871094,-43.35879974365234,30.853799438476564,-3.6136399507522583,1.6887549519380692e+18,153.5950692871094,-297.88739013671875,124.17159881591796,-135.61763610839844,1.6887549519394368e+18,153.59643676757813,0.8681899309158325,-0.4506105184555053,0.0169134506334861,0.2053754180669783,-0.3468686938285827,0.8884961605072021,-2.511103391647339
3.65,1.6887549519913428e+18,153.6483429361979,-2.2748406728108725,7.395522117614746,0.7056490580240885,1.6887549519913428e+18,153.6483429361979,3.50408935546875,-0.1070787707964578,3.3816566467285156,1.6887549519913428e+18,153.6483429361979,5.773084004720052,-7.485096295674642,2.6133201917012534,1.6887549519999916e+18,153.65699145507813,1.0764463742574055,-1.233082393805186,-1.484097143014272,1.688754951987014e+18,153.64401407877605,0.7288131515185038,-1.5077681144078572,-0.696946362654368,,,,,,,,,,,,1.688754951988065e+18,153.6450650390625,-44.244519805908205,28.333279418945313,-8.825479793548585,1.688754951988065e+18,153.6450650390625,-298.7731140136719,121.6510772705078,-140.82947998046876,1.6887549519913428e+18,153.6483429361979,0.873839279015859,-0.4479317665100097,0.0652976371347903,0.176903411746025,-0.4328810771306355,0.8631754716237386,-2.5401631196339927
3.7,1.688754952043248e+18,153.70024796549478,3.2145613034566245,3.2697625160217285,-2.53614075978597,1.688754952043248e+18,153.70024796549478,7.927421410878499,-5.040281454722087,-0.2193420728047689,1.688754952043248e+18,153.70024796549478,4.707014083862305,-8.292539278666178,2.254111369450887,1.688754952043247e+18,153.7002471923828,1.6546048521995544,-0.3737731873989105,-3.1805461645126343,1.6887549520389225e+18,153.69592277018228,1.613447864850362,-0.4503094938894112,-2.9768990675608316,,,,,,,,,,,,1.6887549520380677e+18,153.69506767578125,-40.596720123291014,32.730159759521484,-9.023119735717774,1.6887549520380677e+18,153.69506767578125,-295.1253173828125,126.04795684814454,-141.02711486816406,1.688754952043248e+18,153.70024796549478,0.8491853276888529,-0.5055887401103973,0.0559190462032953,0.139747271935145,-0.4557008544603982,1.0038795272509258,-2.562276919682821
3.75,1.6887549520951493e+18,153.7521492513021,5.0936332543691,-12.535673459370932,3.647633870442709,1.6887549520951493e+18,153.7521492513021,9.042875607808432,-21.34976037343343,5.528018514315288,1.6887549520951493e+18,153.7521492513021,3.9433964093526206,-8.79658285776774,1.8176972071329751,1.6887549520865014e+18,153.74350138346355,0.7447465459505717,-0.2637410766134659,-0.9646580616633096,1.6887549520908308e+18,153.7478308105469,0.6845763325691223,-0.5534948209921519,-0.6467536091804504,,,,,,,,,,,,1.6887549520880632e+18,153.7450630859375,-36.3023193359375,38.3568000793457,-6.958879852294922,1.6887549520880632e+18,153.7450630859375,-290.83091430664064,131.67459716796876,-138.96287536621094,1.6887549520951493e+18,153.7521492513021,0.8294868866602579,-0.5444829265276591,0.0379875836273034,0.1180479153990745,-0.4426903327306111,1.1071317195892334,-2.5824952920277915
3.8,1.6887549521470566e+18,153.8040565592448,5.831720352172852,1.423053741455078,5.614399433135986,1.6887549521470566e+18,153.8040565592448,9.896913846333822,-7.238089164098104,7.917451540629069,1.6887549521470566e+18,153.8040565592448,4.059347629547119,-8.643638292948404,2.24036439259847,1.688754952138406e+18,153.7954063313802,0.3011565593381722,-3.2978578408559165,1.0044151494900386,1.6887549521427302e+18,153.79973022460936,0.2163990139961242,-3.080695311228434,0.8495608270168304,,,,,,,,,,,,1.688754952138067e+18,153.79506694335936,-36.95623931884766,37.35639877319336,-10.613999938964843,1.688754952138067e+18,153.79506694335936,-291.4848327636719,130.67420043945313,-142.6179962158203,1.6887549521470566e+18,153.8040565592448,0.8381662170092264,-0.5320103764533997,0.0959561591347058,0.0696379790703455,-0.5149534046649933,1.0733976364135742,-2.6650891304016113
3.85,1.6887549521989637e+18,153.85596346028646,-6.797854582468669,-3.1806329091389975,-0.4246461391448974,1.6887549521989637e+18,153.85596346028646,-2.9493533770243325,-11.951949755350748,1.8342979749043784,1.6887549521989637e+18,153.85596346028646,3.8426551024119058,-8.753812154134115,2.1962565581003823,1.688754952190304e+18,153.8473038736979,-0.163711888094743,1.858404815196991,-0.8789841731389364,1.6887549521946355e+18,153.85163549804687,-0.1114319989768166,2.0790289640426636,-0.8306240340073904,,,,,,,,,,,,1.6887549521880645e+18,153.8450646484375,-36.33647918701172,37.5735595703125,-12.068239784240722,1.6887549521880645e+18,153.8450646484375,-290.8650695800781,130.8913543701172,-144.07223815917968,1.6887549521989637e+18,153.85596346028646,0.8304015000661215,-0.5441972613334656,0.0845623686909675,0.0827951009074846,-0.5303040345509847,1.097497542699178,-2.613889217376709
3.9,1.6887549522422164e+18,153.89921655273437,-3.445754289627075,-0.1717066764831542,-3.1765236854553223,1.6887549522422164e+18,153.89921655273437,0.0340977162122726,-9.199206829071043,-1.4033904671669006,1.6887549522422164e+18,153.89921655273437,3.474005937576294,-9.009995460510254,1.7104458212852478,1.6887549522422172e+18,153.89921744791667,0.683863639831543,2.4899885257085166,-2.347809672355652,1.688754952246541e+18,153.90354117838544,0.7728972534338633,2.6006569862365723,-2.6161321798960366,,,,,,,,,,,,1.688754952238064e+18,153.89506381835938,-35.4580795288086,39.354759216308594,-7.927559852600098,1.688754952238064e+18,153.89506381835938,-289.98667602539064,132.67255859375,-139.93155517578126,1.6887549522422164e+18,153.89921655273437,0.8168400526046753,-0.5658943951129913,0.0386625537648796,0.1036800071597099,-0.4688612520694732,1.1598712801933289,-2.5788207054138184
3.95,1.6887549522854628e+18,153.942462890625,-6.8951958020528155,1.919508457183838,-0.8784549335638682,1.6887549522854628e+18,153.942462890625,-4.730809688568115,-7.601997534434001,0.1665005666048576,1.6887549522854628e+18,153.942462890625,2.15854020913442,-9.5040012995402,0.9822680751482644,1.6887549522941215e+18,153.95112182617189,0.0741183012723922,3.3860770066579184,-3.6510397593180337,1.6887549522984497e+18,153.95544946289064,-0.1392772619922956,3.415907541910807,-3.5251505374908447,,,,,,,,,,,,1.6887549522880622e+18,153.94506240234375,-29.043319320678712,44.44703826904297,-1.8861199736595151,1.6887549522880622e+18,153.94506240234375,-283.57191162109376,137.76483764648438,-133.8901153564453,1.6887549522854628e+18,153.942462890625,0.770776649316152,-0.6216018994649252,-0.0365784148064752,0.1296612098813056,-0.4521296620368957,1.3209228515625,-2.451969623565674
4.0,1.688754952337376e+18,153.9943760579427,-4.476416190465291,-0.9768290519714355,-2.0349258184432983,1.688754952337376e+18,153.9943760579427,-3.6362928549448648,-10.692926247914633,-0.7974081635475159,1.688754952337376e+18,153.9943760579427,0.8342772324879965,-9.69859250386556,1.1748302380243938,1.688754952346026e+18,154.00302604166666,-1.4763086040814717,1.8358027984698613,-1.9316068092981975,1.6887549523503514e+18,154.00735139973958,-1.3731741905212402,1.4294755657513936,-1.8618663549423216,,,,,,,,,,,,1.6887549523380628e+18,153.9950630859375,-21.884359741210936,47.645878601074216,-0.0366000037640333,1.6887549523380628e+18,153.9950630859375,-276.4129577636719,140.96367492675782,-132.04059448242188,1.688754952337376e+18,153.9943760579427,0.7112961808840433,-0.6682441234588623,-0.0951632733146349,0.1944256126880645,-0.9517643650372823,1.4138322671254475,-1.7760026852289836
4.05,1.688754952389286e+18,154.04628564453125,2.40854682524999,-1.651776949564616,-1.552820126215617,1.688754952389286e+18,154.04628564453125,2.3489542603492737,-11.362717310587565,-0.0049850742022196,1.688754952389286e+18,154.04628564453125,-0.0654386306802431,-9.693435668945312,1.4851476748784382,1.6887549523979328e+18,154.05493302408854,0.3532837325086196,-0.7514151334762573,-1.6953037977218628,1.6887549523936077e+18,154.05060754394532,0.2700788006186485,-1.2246321141719818,-1.6757560968399048,,,,,,,,,,,,1.6887549523880648e+18,154.04506494140622,-17.685119247436525,49.556399536132815,-1.5005999565124513,1.6887549523880648e+18,154.04506494140622,-272.2137145996094,142.87419738769532,-133.50459899902344,1.688754952389286e+18,154.04628564453125,0.6764215429623922,-0.7019345164299011,-0.0937285919984181,0.2018571247657139,-1.5951855580012004,1.411645531654358,-1.1239078442255657
4.1,1.6887549524411814e+18,154.09818139648436,1.7236661911010742,3.3077734311421714,-1.142856478691101,1.6887549524411814e+18,154.09818139648436,0.8420741558074951,-6.404788494110107,0.1032901828487714,1.6887549524411814e+18,154.09818139648436,-0.8874380787213644,-9.695057233174644,1.1834592421849568,1.688754952449831e+18,154.1068309733073,0.7909177541732788,2.4899885654449463,-1.913128137588501,1.688754952436862e+18,154.09386206054683,0.8225300312042236,2.0304142435391745,-1.8664987087249756,,,,,,,,,,,,1.6887549524380687e+18,154.0950689453125,-12.939319610595703,50.67880020141602,-0.4416400134563446,1.6887549524380687e+18,154.0950689453125,-267.46791381835936,143.99659423828126,-132.4456359863281,1.6887549524411814e+18,154.09818139648436,0.6452415982882181,-0.7255212664604187,-0.1286288425326347,0.2004657636086145,-2.17045521736145,1.4161019722620647,-0.4998857676982879
4.15,1.688754952493092e+18,154.15009236653646,0.298748771349589,2.1920239130655923,0.8311154842376709,1.688754952493092e+18,154.15009236653646,-1.4346965750058491,-7.417949676513672,1.958325942357381,1.688754952493092e+18,154.15009236653646,-1.7392913897832234,-9.592468897501629,1.0645230611165364,1.6887549524930913e+18,154.15009130859374,0.0509308949112892,0.697989895939827,-1.9023870825767517,1.6887549524887626e+18,154.1457627766927,0.154039849837621,1.0582731664180756,-1.8751526673634848,,,,,,,,,,,,1.6887549524880625e+18,154.14506259765625,-7.639639949798584,51.471798706054685,2.266759967803955,1.6887549524880625e+18,154.14506259765625,-262.16823120117186,144.7895965576172,-129.73723754882812,1.688754952493092e+18,154.15009236653646,0.6040523250897726,-0.7447765469551086,-0.1781881054242452,0.2202153752247492,-2.5575827757517495,1.3623126745224,-0.0095955676709612
4.2,1.6887549525449956e+18,154.20199576822915,4.114145596822103,-0.5477177302042643,-0.1602749427159627,1.6887549525449956e+18,154.20199576822915,1.6219349006811778,-9.964311599731444,1.1694920683900516,1.6887549525449956e+18,154.20199576822915,-2.498056729634603,-9.399089177449545,1.2670795917510986,1.688754952536346e+18,154.19334578450523,-0.6516913970311483,-0.6458881894747416,-1.4403693278630574,1.688754952540669e+18,154.19766878255209,-0.6739371021588644,-0.6312274138132731,-1.437824050585429,,,,,,,,,,,,1.6887549525380677e+18,154.19506743164064,-3.2622798919677733,51.69383926391602,1.686039972305298,1.6887549525380677e+18,154.19506743164064,-257.79087524414064,145.0116394042969,-130.31795959472657,1.6887549525449956e+18,154.20199576822915,0.5737017194430033,-0.7719957629839579,-0.1707835247119267,0.2135045180718103,-2.650768836339315,1.2829160292943318,0.0654920935630797
4.25,1.688754952596903e+18,154.25390275065104,3.932761589686076,-4.729406356811523,-5.5232994556427,1.688754952596903e+18,154.25390275065104,1.140578826268514,-14.010973612467447,-3.858027696609497,1.688754952596903e+18,154.25390275065104,-2.7980287869771323,-9.264062563578287,1.602584441502889,1.688754952588247e+18,154.24524715169272,-0.6111197570959727,0.7281513810157776,-0.3108795235554376,1.6887549525925747e+18,154.24957486979167,-0.565203050772349,0.8520042896270752,-0.1212567364176114,,,,,,,,,,,,1.6887549525880694e+18,154.24506953125,-0.1463999941945076,51.97931823730469,-0.0634399898350238,1.6887549525880694e+18,154.24506953125,-254.6749938964844,145.297119140625,-132.06743469238282,1.688754952596903e+18,154.25390275065104,0.5558503866195679,-0.7828677892684937,-0.1658482402563094,0.2248476097981135,-2.60313081741333,1.237387736638387,0.0294482054499288
4.3,1.6887549526488033e+18,154.30580338541665,2.7002556324005127,-4.366285641988118,-4.15860656897227,1.6887549526488033e+18,154.30580338541665,0.1421735286712648,-13.732409477233888,-2.599203586578369,1.6887549526488033e+18,154.30580338541665,-2.5639280478159585,-9.34861946105957,1.4967154661814372,1.6887549526401516e+18,154.2971513671875,0.593862826625506,0.0124209200342496,0.2973895668983459,1.6887549526444782e+18,154.3014783528646,0.6608543793360392,-0.1324050376812616,0.3974187473456065,,,,,,,,,,,,1.6887549526380634e+18,154.2950634277344,-1.2687999725341796,51.796319580078126,-0.5904799818992614,1.6887549526380634e+18,154.2950634277344,-255.79739990234376,145.1141143798828,-132.59447631835937,1.6887549526488033e+18,154.30580338541665,0.5642104744911194,-0.7726534406344095,-0.177208200097084,0.2306366115808486,-2.595536231994629,1.2651644547780354,0.04616506708165
4.35,1.6887549526920612e+18,154.34906115722654,2.9101812839508057,-5.724149703979492,0.7569511532783508,1.6887549526920612e+18,154.34906115722654,1.3363913968205452,-15.347564220428469,1.97407865524292,1.6887549526920612e+18,154.34906115722654,-1.579636037349701,-9.605909824371338,1.1544401049613953,1.688754952692061e+18,154.34906111653646,0.7044294476509094,0.1745038380225499,3.6457963784535727,1.6887549526963876e+18,154.3533877766927,0.6996443271636963,0.3215696414311726,3.813478867212931,,,,,,,,,,,,1.688754952688067e+18,154.34506689453127,-5.346039915084839,51.66211853027344,1.4786399364471436,1.688754952688067e+18,154.34506689453127,-259.8746337890625,144.97991943359375,-130.52535705566407,1.6887549526920612e+18,154.34906115722654,0.6092075407505035,-0.7403178513050079,-0.1731569319963455,0.224637821316719,-2.4656612873077393,1.370387315750122,-0.1026392178609967
4.4,1.6887549527353162e+18,154.3923163248698,-3.444113572438558,-4.735588391621907,1.810176928838094,1.6887549527353162e+18,154.3923163248698,-3.406980593999227,-14.50708548227946,2.8189444144566855,1.6887549527353162e+18,154.3923163248698,0.0312868940333525,-9.753992398579916,0.9460801084836324,1.6887549527439636e+18,154.4009637858073,0.2870048582553863,0.3396919916073481,3.3072752952575684,1.6887549527482924e+18,154.40529256184894,0.2512692312399546,0.2794199387232462,3.274848540623983,,,,,,,,,,,,1.6887549527380654e+18,154.39506547851562,-15.07431983947754,49.85163955688476,3.398919916152954,1.6887549527380654e+18,154.39506547851562,-269.60291748046876,143.1694366455078,-128.6050811767578,1.6887549527353162e+18,154.3923163248698,0.6675333976745605,-0.6829671263694763,-0.1714322417974471,0.2409310142199198,-1.4920535484949748,1.4605237642923992,-1.0568417310714722
4.45,1.6887549527872205e+18,154.44422037760418,-2.570394992828369,-6.329150517781575,5.157630443572998,1.6887549527872205e+18,154.44422037760418,-0.8406783640384674,-15.947564760843912,6.136393706003825,1.6887549527872205e+18,154.44422037760418,1.7238706350326538,-9.60090986887614,0.9160759250322976,1.6887549527958712e+18,154.45287141927085,-0.2117666055758794,-0.7434229950110117,3.5810956954956055,1.6887549528001933e+18,154.45719344075522,-0.260177694261074,-1.027882585922877,3.5289684931437173,,,,,,,,,,,,1.688754952788067e+18,154.44506708984375,-22.960399627685547,46.86507873535156,3.640479898452759,1.688754952788067e+18,154.44506708984375,-277.4889892578125,140.18287658691406,-128.36351623535157,1.6887549527872205e+18,154.44422037760418,0.7246987422307333,-0.6218519608179728,-0.1511770288149515,0.2541330556074778,-0.5178178250789642,1.3634097178777058,-2.039052208264669
4.5,1.6887549528391222e+18,154.4961220703125,-2.0533950328826904,-5.758260726928711,-0.0672806898752848,1.6887549528391222e+18,154.4961220703125,1.0987043380737305,-14.985251426696776,1.1826525926589966,1.6887549528391222e+18,154.4961220703125,3.1462534268697104,-9.20948600769043,1.1872458060582478,1.6887549528477775e+18,154.5047775065104,0.85526226212581,-1.6723963419596355,2.7635034720102944,1.6887549528434534e+18,154.50045361328125,0.6795875951647758,-1.936977356672287,2.68398916721344,,,,,,,,,,,,1.6887549528380623e+18,154.4950623535156,-30.407279205322265,42.83419952392578,1.5713599920272827,1.6887549528380623e+18,154.4950623535156,-284.9358764648438,136.152001953125,-130.43263244628906,1.6887549528391222e+18,154.4961220703125,0.7774176597595215,-0.5728878180185953,-0.0965753694375355,0.2398115595181782,-0.3712613880634308,1.2152609825134275,-2.2821192741394043
4.55,1.6887549528910287e+18,154.54802880859376,-11.104332288106283,4.46827761332194,-2.3436830043792725,1.6887549528910287e+18,154.54802880859376,-6.752346197764079,-4.290131573875745,-1.3716855645179749,1.6887549528910287e+18,154.54802880859376,4.346140066782634,-8.740904808044434,0.9093100825945536,1.6887549528996815e+18,154.55668147786457,0.9284642934799194,-2.9967012802759805,2.9416724840799966,1.6887549528867064e+18,154.54370646158853,1.2758429447809856,-2.0364211002985635,2.9153544108072915,,,,,,,,,,,,1.6887549528880666e+18,154.54506650390627,-36.512158966064455,38.06643905639648,1.571359968185425,1.6887549528880666e+18,154.54506650390627,-291.04075317382814,131.38424072265624,-130.4326416015625,1.6887549528910287e+18,154.54802880859376,0.8267844120661417,-0.5217963059743246,-0.0663028421501318,0.1972760558128356,-0.2146376868089039,1.0967006285985312,-2.541114648183187
4.6,1.6887549529429368e+18,154.59993693033854,-7.001780351003011,11.826188405354818,0.0809759298960367,1.6887549529429368e+18,154.59993693033854,-1.5978073676427205,3.801995833714803,1.815554181734721,1.6887549529429368e+18,154.59993693033854,5.3981272379557295,-8.006688117980957,1.6718908548355105,1.6887549529429363e+18,154.5999364013672,-0.2680171206593513,-3.2396475076675415,3.0311896800994873,1.6887549529386104e+18,154.5956103515625,-0.1052215447028478,-3.4103589057922363,2.957911252975464,1.6887549529299615e+18,154.58696142578123,0.0,0.0,2.5426881313323975,6.513999938964844,1.198824763298035,239.0808258056641,333.29998779296875,-122.916725,49.2789009,1.6887549529380626e+18,154.59506264648437,-41.87527923583984,32.73259963989258,-3.3574399292469024,1.6887549529380626e+18,154.59506264648437,-296.40386962890625,126.05039825439454,-135.36143493652344,1.6887549529429368e+18,154.59993693033854,0.8681300083796183,-0.4722023606300354,0.0197289266313115,0.1485990484555562,-0.3056348860263824,0.9524040619532268,-2.644548495610555
4.65,1.6887549529948403e+18,154.65184016927083,-3.290750821431478,6.996163368225098,1.0512733459472656,1.6887549529948403e+18,154.65184016927083,2.2851456006368003,-0.7615158557891846,3.4085758527119956,1.6887549529948403e+18,154.65184016927083,5.570050398508708,-7.740174770355225,2.294615109761556,1.6887549529861865e+18,154.64318668619794,0.4301509497066338,-1.782097538312276,-0.045865813891093,1.6887549529905165e+18,154.64751676432294,0.5264131377140681,-1.6483180125554402,-0.3382666110992431,,,,,,,,,,,,1.6887549529880663e+18,154.64506616210937,-43.7589599609375,29.53619956970215,-8.879159927368164,1.6887549529880663e+18,154.64506616210937,-298.287548828125,122.85399780273436,-140.8831573486328,1.6887549529948403e+18,154.65184016927083,0.877443770567576,-0.4583683510621388,0.0738114242752392,0.1198643545309702,-0.3985392351945241,0.9056779146194458,-2.674073139826457
4.7,1.688754953046746e+18,154.70374609375,1.5478088061014812,3.522770404815674,1.012843370437622,1.688754953046746e+18,154.70374609375,6.260222276051839,-4.865804831186931,3.034298578898112,1.688754953046746e+18,154.70374609375,4.706567446390788,-8.371070543924967,1.958767811457316,1.6887549530380966e+18,154.6950965983073,1.42637034257253,-0.0842484881480535,-2.4107288122177124,1.6887549530424223e+18,154.6994226888021,1.431359092394511,-0.0040724327166875,-2.4905993938446045,,,,,,,,,,,,1.688754953038067e+18,154.69506694335936,-41.19207916259766,32.90583953857422,-9.61847972869873,1.688754953038067e+18,154.69506694335936,-295.7206726074219,126.22363891601564,-141.6224792480469,1.688754953046746e+18,154.70374609375,0.8555480440457662,-0.5048572421073914,0.0661980845034122,0.0912489568193753,-0.4029890100161235,1.020082990328471,-2.7017878691355386
4.75,1.6887549530986478e+18,154.75564778645833,7.491404056549072,-14.093512535095217,1.3815252383550007,1.6887549530986478e+18,154.75564778645833,11.539985338846842,-22.84048906962077,3.349552869796753,1.6887549530986478e+18,154.75564778645833,4.0427352587382,-8.729473114013672,1.9053401947021484,1.6887549530899968e+18,154.7469969075521,0.0556905517975489,-1.615127722422282,-0.4248058795928955,1.688754953094327e+18,154.75132674153645,-0.0443895459175109,-1.9909624656041465,-0.0113009971876939,,,,,,,,,,,,1.6887549530880648e+18,154.7450646972656,-36.78787841796875,37.28319854736328,-8.300879955291748,1.6887549530880648e+18,154.7450646972656,-291.31646728515625,130.6009979248047,-140.30487670898438,1.6887549530986478e+18,154.75564778645833,0.8376984794934591,-0.5360811352729797,0.0753736657400925,0.0684955889979997,-0.4496431152025859,1.093606988588969,-2.702054738998413
4.8,1.6887549531505562e+18,154.80755631510416,5.90454363822937,-1.7944242159525554,3.9530054728190103,1.6887549531505562e+18,154.80755631510416,10.325029929478964,-10.206385771433512,6.5194448580344515,1.6887549531505562e+18,154.80755631510416,4.4146402676900225,-8.39445686340332,2.503751834233602,1.6887549531419054e+18,154.79890559895833,0.1772018261253833,-2.589712301890055,1.4246905148029327,1.6887549531462264e+18,154.80322631835938,0.1957314039270083,-2.183079719543457,1.1379401584466298,,,,,,,,,,,,1.688754953138067e+18,154.79506704101564,-37.77363967895508,35.67279815673828,-13.37119960784912,1.688754953138067e+18,154.79506704101564,-292.30223388671874,128.99059600830077,-145.3751983642578,1.6887549531505562e+18,154.80755631510416,0.8510886033376058,-0.5057048400243124,0.138309692343076,0.0251549196739991,-0.5253010988235474,1.0235899686813354,-2.7827293078104653
4.85,1.6887549531938056e+18,154.8508055419922,-10.179530620574951,-2.451331853866577,0.144585371017456,1.6887549531938056e+18,154.8508055419922,-5.815157175064087,-10.947462797164915,2.5175485610961914,1.6887549531938056e+18,154.8508055419922,4.358527660369873,-8.478626251220703,2.3102757930755615,1.688754953193807e+18,154.85080737304688,0.5106324454148611,1.449125051498413,-0.5198463176687559,1.6887549531981366e+18,154.85513663736978,0.5765550037225088,1.558266321818034,-0.5596543947855631,,,,,,,,,,,,1.688754953188066e+18,154.84506621093752,-37.73459854125976,34.86027908325195,-14.96695957183838,1.688754953188066e+18,154.84506621093752,-292.2631896972656,128.1780776977539,-146.97095642089843,1.6887549531938056e+18,154.8508055419922,0.849444717168808,-0.5114932358264923,0.1269843988120555,0.024999339133501,-0.4973244071006775,1.0404877066612244,-2.7938696146011353
4.9,1.6887549532370609e+18,154.89406087239584,-4.262200037638347,4.322249571482341,0.9483744303385416,1.6887549532370609e+18,154.89406087239584,-0.207178552945455,-4.4685962200164795,2.6701908111572266,1.6887549532370609e+18,154.89406087239584,4.049175421396892,-8.773341178894043,1.659128983815511,1.688754953245712e+18,154.90271207682292,0.5380195643131932,3.1014646689097085,-2.183028777440389,1.6887549532500398e+18,154.90703955078123,0.4548909962177276,3.2523484230041504,-2.387872219085694,,,,,,,,,,,,1.6887549532380652e+18,154.8950652832031,-37.67847900390625,36.71711807250976,-10.106479930877686,1.6887549532380652e+18,154.8950652832031,-292.2070739746094,130.03491821289063,-142.1104736328125,1.6887549532370609e+18,154.89406087239584,0.8396533131599426,-0.5352526505788168,0.0791973297794659,0.0387127089003721,-0.3980433046817779,1.104824980099996,-2.8025805950164795
4.95,1.68875495328897e+18,154.94596988932292,-4.6663978099823,0.3470414479573567,1.858304460843404,1.68875495328897e+18,154.94596988932292,-2.031905253728231,-9.046863873799644,2.909472942352295,1.68875495328897e+18,154.94596988932292,2.6286465326944985,-9.37640062967936,0.988481104373932,1.6887549532976192e+18,154.95461930338544,-0.2367102826635042,3.858072280883789,-4.895626703898112,1.6887549532932964e+18,154.95029638671878,-0.1391245573759079,4.125249266624451,-4.967021703720093,,,,,,,,,,,,1.6887549532880625e+18,154.94506254882813,-31.21003875732422,42.653638458251955,-2.9279999017715452,1.6887549532880625e+18,154.94506254882813,-285.73863525390624,135.97144165039063,-134.93199462890624,1.68875495328897e+18,154.94596988932292,0.79090682665507,-0.6031993826230367,-0.00425241010574,0.0920882771412531,-0.3849096198876698,1.275778333346049,-2.6189915339152017
5.0,1.688754953340875e+18,154.99787508138022,-8.596536000569662,1.0598349571228027,-2.3777341842651367,1.688754953340875e+18,154.99787508138022,-8.023732662200928,-8.68096113204956,-1.226919849713643,1.688754953340875e+18,154.99787508138022,0.5669574389855067,-9.723291397094728,1.0881268580754595,1.6887549533495268e+18,155.00652693684896,-1.526297688484192,1.8485291202863057,-2.506176511446635,1.688754953336544e+18,154.99354378255208,-1.2938634753227234,2.535396178563436,-3.534364382425944,,,,,,,,,,,,1.6887549533380654e+18,154.9950653808594,-20.588719177246094,47.933799743652344,-0.5050799936056137,1.6887549533380654e+18,154.9950653808594,-275.1173156738281,141.25159606933593,-132.5090789794922,1.688754953340875e+18,154.99787508138022,0.7109199166297913,-0.6818768382072449,-0.0680245781938234,0.1555818617343902,-1.0937224626541138,1.4326061407725017,-1.729500373204549
5.05,1.68875495339277e+18,155.04977001953125,4.090134757260482,-2.8755057652791343,-3.5898298422495523,1.68875495339277e+18,155.04977001953125,3.951746638243397,-12.573485374450684,-1.9557337164878843,1.68875495339277e+18,155.04977001953125,-0.1442342499891916,-9.680474917093912,1.571408708890279,1.6887549533927803e+18,155.0497803955078,-0.2622902691364288,0.5665775239467621,-1.2028700411319733,1.6887549533884552e+18,155.0454551595052,-0.517657404144605,0.5644394854704539,-1.2116512060165403,,,,,,,,,,,,1.6887549533880645e+18,155.04506411132812,-16.301639747619628,49.42951889038086,-1.932479977607727,1.6887549533880645e+18,155.04506411132812,-270.8302368164062,142.7473175048828,-133.936474609375,1.68875495339277e+18,155.04977001953125,0.6768472790718079,-0.707175095876058,-0.0760602255662282,0.1894130706787109,-1.6411158243815105,1.4035242795944214,-1.1214544375737507
5.1,1.6887549534446856e+18,155.10168554687502,1.1347779830296834,2.988742669423422,-2.465973456700643,1.6887549534446856e+18,155.10168554687502,0.1074776109308003,-6.679763952891032,-0.9966106414794922,1.6887549534446856e+18,155.10168554687502,-1.0331464409828186,-9.651001930236816,1.4066753784815471,1.6887549534360276e+18,155.09302758789062,0.5365433196226755,1.053793450196584,-2.034181237220764,1.6887549534403615e+18,155.09736197916666,0.5714644392331442,1.2039644718170166,-1.954819679260254,1.6887549534490102e+18,155.10601025390625,0.0,0.0,2.5426881313323975,6.5279998779296875,1.197750687599182,236.63978576660156,333.29998779296875,-122.916736,49.2788916,1.6887549534380667e+18,155.0950666503906,-11.592439651489258,50.87643890380859,-1.2492799639701844,1.6887549534380667e+18,155.0950666503906,-266.12103271484375,144.1942352294922,-133.25327758789064,1.6887549534446856e+18,155.10168554687502,0.641153613726298,-0.7344240546226501,-0.1073304340243338,0.1942461331685383,-2.1715750694274902,1.388677676518758,-0.5383694171905518
5.15,1.6887549534965857e+18,155.15358544921875,1.5119270881017048,2.8794387181599936,-0.1995752056439718,1.6887549534965857e+18,155.15358544921875,-0.1830509429176648,-6.716653188069661,1.1062816580136616,1.6887549534965857e+18,155.15358544921875,-1.7008240222930908,-9.578587214152018,1.2431694666544597,1.6887549534879368e+18,155.14493709309895,0.4428264101346333,1.3921618660291035,-1.5550083716710408,1.6887549534922616e+18,155.1492615559896,0.3904447158177693,1.2566516399383545,-1.5964454015096028,,,,,,,,,,,,1.6887549534880648e+18,155.1450646972656,-7.632319927215576,51.46203842163086,0.9711199998855592,1.6887549534880648e+18,155.1450646972656,-262.1609191894531,144.77983703613282,-131.0328796386719,1.6887549534965857e+18,155.15358544921875,0.6091457406679789,-0.7497975627581278,-0.1505327572425206,0.209502970178922,-2.4797653357187905,1.3540345827738445,-0.1438396473725636
5.2,1.6887549535484936e+18,155.20549348958335,3.009644349416097,-0.3347400029500325,-0.5033755302429199,1.6887549535484936e+18,155.20549348958335,0.5848457316557566,-9.75434144337972,0.9361918369928997,1.6887549535484936e+18,155.20549348958335,-2.430644671122233,-9.40209674835205,1.3768799702326455,1.6887549535398449e+18,155.1968448079427,-0.4533638209104538,0.0667370309432347,-1.4404202302296956,1.6887549535441713e+18,155.20117130533853,-0.5208135346571604,0.0246891342103481,-1.369814395904541,,,,,,,,,,,,1.6887549535380634e+18,155.19506337890624,-3.342799949645996,52.01591873168945,1.205359983444214,1.6887549535380634e+18,155.19506337890624,-257.87139587402345,145.3337158203125,-130.79863586425782,1.6887549535484936e+18,155.20549348958335,0.5766984423001608,-0.7723873655001322,-0.1596445689598718,0.2127544631560642,-2.6070736249287925,1.2830331722895305,0.0041414377434799
5.25,1.6887549536003963e+18,155.2573966471354,2.993351936340332,-3.791839599609375,-4.650420188903809,1.6887549536003963e+18,155.2573966471354,0.2199402650197347,-13.062219619750977,-2.888136903444926,1.6887549536003963e+18,155.2573966471354,-2.779257615407308,-9.252875328063965,1.699595848719279,1.6887549535917496e+18,155.24874967447917,-0.6322455306847891,0.4104505330324173,-0.6084217975536982,1.6887549535960763e+18,155.25307625325522,-0.5954409042994181,0.475151352584362,-0.5015712641955664,,,,,,,,,,,,1.6887549535880668e+18,155.24506689453125,-0.0365999907255172,52.096438598632815,-0.5782799988985061,1.6887549535880668e+18,155.24506689453125,-254.56519470214843,145.41423645019532,-132.5822784423828,1.6887549536003963e+18,155.2573966471354,0.5573497811953226,-0.7848764061927795,-0.1542708625396092,0.2224771132071813,-2.576931635538737,1.233239014943441,-0.0173620691833396
5.3,1.6887549536436444e+18,155.30064440917968,1.2444350719451909,-6.342316150665283,-6.5656890869140625,1.6887549536436444e+18,155.30064440917968,-1.503290839493275,-15.619448661804196,-4.797609567642212,1.6887549536436444e+18,155.30064440917968,-2.7535719871520996,-9.25962781906128,1.7053921222686768,1.688754953643645e+18,155.30064453125,0.3780237783988316,-0.2991203566392262,-0.0293724313378334,1.688754953647973e+18,155.30497290039065,0.4970406877497832,-0.3105740634103616,-0.0603229428331057,,,,,,,,,,,,1.6887549536380588e+18,155.2950587402344,0.3147599935531616,51.99151840209961,-1.0052799701690671,1.6887549536380588e+18,155.2950587402344,-254.21383361816407,145.30932006835937,-133.00927734375,1.6887549536436444e+18,155.30064440917968,0.5581990778446198,-0.7840031385421753,-0.1544841527938842,0.2233171314001082,-2.571458578109741,1.235330581665039,-0.0213745562359689
5.35,1.6887549536869046e+18,155.3439043782552,4.857295592625936,-4.653390566507976,-0.4632703860600789,1.6887549536869046e+18,155.3439043782552,2.3242284456888833,-14.049657503763834,0.9176474809646606,1.6887549536869046e+18,155.3439043782552,-2.5389132499694824,-9.378762245178224,1.3182305097579956,1.6887549536955515e+18,155.35255143229168,0.7991644342740377,0.4406883716583252,2.0325013796488443,1.6887549536998822e+18,155.35688216145834,0.7309002677599589,0.4748459160327911,2.3530020713806152,,,,,,,,,,,,1.6887549536880632e+18,155.34506318359374,-1.1920928955078126e-08,51.96467819213867,0.6051200002431869,1.6887549536880632e+18,155.34506318359374,-254.52859497070312,145.28247680664063,-131.398876953125,1.6887549536869046e+18,155.3439043782552,0.5715110301971436,-0.7739776372909546,-0.1685293912887572,0.2137433985869089,-2.643853028615316,1.27626367410024,0.05588794251283
5.4,1.6887549537388145e+18,155.3958145345052,-3.2578884760538735,-3.8338327407836914,1.3645240863164263,1.6887549537388145e+18,155.3958145345052,-4.203591267267863,-13.542379061381022,2.49730920791626,1.6887549537388145e+18,155.3958145345052,-0.9515487353006998,-9.691041628519692,1.0700977047284443,1.68875495374746e+18,155.40446020507812,0.7266242305437723,-0.3391320010026296,3.707697550455729,1.6887549537431355e+18,155.4001357421875,0.6703482568264008,-0.178678072988987,3.773314595222473,,,,,,,,,,,,1.6887549537380657e+18,155.39506572265626,-7.9763596534729,51.23999938964844,2.0251999616622927,1.6887549537380657e+18,155.39506572265626,-262.5049560546875,144.55779418945312,-129.97879943847656,1.6887549537388145e+18,155.3958145345052,0.6343604326248169,-0.7201247811317444,-0.1665041794379551,0.2248706668615341,-2.1963550647099814,1.419601996739705,-0.3826583450039227
5.45,1.688754953790714e+18,155.44771427408855,-3.475744247436523,-5.632785161336263,3.5208417574564614,1.688754953790714e+18,155.44771427408855,-2.645065943400065,-15.38545068105062,4.3242293993632,1.688754953790714e+18,155.44771427408855,0.8248322655757269,-9.73516082763672,0.7407002647717794,1.6887549537993708e+18,155.45637076822916,0.0416915503640969,-0.8302676677703857,3.6038504441579184,1.6887549537863954e+18,155.44339526367187,0.4725551803906758,-0.8748099605242411,3.582113742828369,,,,,,,,,,,,1.688754953788065e+18,155.4450650390625,-17.87299976348877,48.965919494628906,3.291559934616089,1.688754953788065e+18,155.4450650390625,-272.40159912109374,142.28371887207032,-128.71243896484376,1.688754953790714e+18,155.44771427408855,0.7052614291508993,-0.6594972411791483,-0.1447060008843739,0.2146343737840652,-0.8179997801780701,1.4469060103098552,-1.8086942036946616
5.5,1.6887549538426232e+18,155.4996229654948,-2.407522757848104,-6.569875717163086,6.2549824714660645,1.6887549538426232e+18,155.4996229654948,0.1688933372497558,-15.975879669189451,7.43111006418864,1.6887549538426232e+18,155.4996229654948,2.570570151011149,-9.388499895731607,1.1134398182233174,1.68875495384262e+18,155.4996201171875,-0.5198463201522827,-2.492864668369293,3.79316771030426,1.6887549538383002e+18,155.49530021158853,-0.5271257956822714,-2.1012237071990967,3.722663720448812,,,,,,,,,,,,1.6887549538380636e+18,155.49506372070314,-26.686279296875,45.376678466796875,1.8446399569511416,1.6887549538380636e+18,155.49506372070314,-281.2148803710937,138.6944793701172,-130.15935668945312,1.6887549538426232e+18,155.4996229654948,0.7664794921875,-0.5990584890047709,-0.0890782972176869,0.2113387336333592,-0.4196370244026184,1.276321252187093,-2.2890048027038574
5.55,1.6887549538945262e+18,155.5515262044271,-3.627396027247111,-0.2801642417907713,-2.009158174196879,1.6887549538945262e+18,155.5515262044271,0.4325027267138163,-9.144371191660564,-0.7812565558900436,1.6887549538945262e+18,155.5515262044271,4.0540525913238525,-8.846702257792154,1.1652141809463503,1.688754953885879e+18,155.54287915039063,0.7272859811782837,-0.6982699036598206,3.203784624735514,1.6887549538902024e+18,155.54720239257813,0.8306240141391754,-0.5439245800177256,3.161278565724691,,,,,,,,,,,,1.688754953888063e+18,155.54506303710937,-35.64595947265625,39.33767929077148,-0.5929200038313865,1.688754953888063e+18,155.54506303710937,-290.1745544433594,132.6554748535156,-132.5969207763672,1.6887549538945262e+18,155.5515262044271,0.8199991782506307,-0.5381564696629842,-0.048173094789187,0.1875315656264622,-0.2920355548461278,1.1215205589930215,-2.5059115091959634
5.6,1.6887549539464346e+18,155.6034345703125,-11.48925813039144,8.843215465545654,-2.3663791020711265,1.6887549539464346e+18,155.6034345703125,-6.362714767456055,0.5581257939338684,-1.0689935286839802,1.6887549539464346e+18,155.6034345703125,5.120697021484375,-8.267585436503092,1.2346981366475422,1.688754953937784e+18,155.5947842610677,0.7145596394936243,-2.7645215590794883,2.694933811823527,1.6887549539421105e+18,155.5991105957031,0.6056728834907213,-2.9691104888916016,2.7033842404683432,,,,,,,,,,,,1.688754953938064e+18,155.5950640136719,-40.489359283447264,34.27956008911133,-1.4713199615478516,1.688754953938064e+18,155.5950640136719,-295.0179504394531,127.59735717773438,-133.4753173828125,1.6887549539464346e+18,155.6034345703125,0.8602637052536011,-0.4873894949754079,-0.0075599420815706,0.1461768945058186,-0.2424210160970688,1.0004268884658811,-2.6722721258799234
5.65,1.688754953998341e+18,155.65534114583332,-5.195268948872884,11.482641220092772,0.617811918258667,1.688754953998341e+18,155.65534114583332,0.5928217569986981,3.817349592844645,2.746960401535034,1.688754953998341e+18,155.65534114583332,5.782244841257731,-7.647787094116211,2.066461086273194,1.68875495398969e+18,155.64668986002604,-0.1988366345564524,-2.3224587440490723,1.6744834383328755,1.6887549539940155e+18,155.65101578776043,-0.1815287906986972,-2.1457659800847373,1.3912965481479962,1.6887549539680538e+18,155.6250537109375,0.0,0.0,2.5530755519866943,6.561999797821045,1.1987241506576538,234.35186767578125,333.29998779296875,-122.9167359,49.2788876,1.688754953988068e+18,155.64506806640625,-44.212799072265625,29.450799179077148,-7.146759796142578,1.688754953988068e+18,155.64506806640625,-298.74139404296875,122.76859741210936,-139.1507568359375,1.688754953998341e+18,155.65534114583332,0.8842934370040894,-0.4479828576246897,0.0638841688632964,0.1141474172472953,-0.3495265146096547,0.8913072148958842,-2.716707944869995
5.7,1.6887549540502413e+18,155.7072412109375,-2.221245845158895,6.209850152333577,0.2526015440622965,1.6887549540502413e+18,155.7072412109375,3.092723290125529,-1.745763510465622,2.535594383875529,1.6887549540502413e+18,155.7072412109375,5.3081231117248535,-7.938109238942464,2.2203054428100586,1.6887549540415946e+18,155.6985945638021,0.6819292455911636,-0.4268420860171318,-1.7512997388839722,1.6887549540459174e+18,155.70291748046876,0.7870489458243052,-0.3077233731746673,-1.9429587523142495,,,,,,,,,,,,1.688754954038065e+18,155.69506499023436,-43.30999908447266,29.868039703369146,-10.155279731750488,1.688754954038065e+18,155.69506499023436,-297.8385986328125,123.1858367919922,-142.15927734375,1.6887549540502413e+18,155.7072412109375,0.8723576068878174,-0.4718760152657826,0.0791762918233871,0.0987612555424372,-0.4035770893096924,0.940570334593455,-2.7088762124379477
5.75,1.6887549540934902e+18,155.7504901123047,6.460244894027711,1.835158348083496,0.2793723344802856,1.6887549540934902e+18,155.7504901123047,10.783554077148438,-6.803093910217285,2.1349960565567017,1.6887549540934902e+18,155.7504901123047,4.317463159561157,-8.620747566223145,1.7929363250732422,1.6887549540934925e+18,155.75049251302084,1.055982381105423,-0.146251323322455,-2.68536369005839,1.68875495409782e+18,155.75482006835938,0.8971064921158055,-0.1849903613328933,-2.4549656311670938,,,,,,,,,,,,1.6887549540880622e+18,155.745062109375,-39.176638793945315,35.17015914916992,-8.569279861450195,1.6887549540880622e+18,155.745062109375,-293.7052368164062,128.4879577636719,-140.57327880859376,1.6887549540934902e+18,155.7504901123047,0.8450347185134888,-0.5249869227409363,0.0617720242589711,0.0795091465115547,-0.4028576463460922,1.0708086490631104,-2.712832450866699
5.8,1.688754954136754e+18,155.79375390625,9.609609603881836,-17.221410115559895,2.8010130723317466,1.688754954136754e+18,155.79375390625,13.653844515482584,-25.938796361287434,4.90548578898112,1.688754954136754e+18,155.79375390625,4.038388888041179,-8.699881871541342,2.0417852799097695,1.6887549541453967e+18,155.80239672851562,-0.2581414679686228,-2.618015686670939,1.1602367162704468,1.6887549541497254e+18,155.8067256673177,-0.1379537582397461,-2.7904323736826577,1.2412782112757366,,,,,,,,,,,,1.688754954138067e+18,155.79506689453126,-37.05139999389648,37.329559326171875,-10.030839920043944,1.688754954138067e+18,155.79506689453126,-291.5799926757812,130.64735717773436,-142.0348388671875,1.688754954136754e+18,155.79375390625,0.8376179337501526,-0.5350521008173624,0.0845511406660079,0.0666165774067242,-0.4757181008656819,1.0876805384953816,-2.692107836405436
5.85,1.688754954188659e+18,155.8456590983073,-0.976010799407959,0.4426932334899902,5.930315812428792,1.688754954188659e+18,155.8456590983073,3.120041529337565,-8.165507157643637,8.378867228825888,1.688754954188659e+18,155.8456590983073,4.090206225713094,-8.59069569905599,2.385863701502482,1.6887549541973107e+18,155.85431103515626,0.8497644662857056,-0.9924523731072744,-0.4782565832138061,1.6887549541929856e+18,155.8499853515625,0.905378669500351,-1.338940292596817,-0.3817907571792602,,,,,,,,,,,,1.6887549541880648e+18,155.84506484374998,-36.85619888305664,36.06564025878906,-14.332559776306152,1.6887549541880648e+18,155.84506484374998,-291.3848022460937,129.38343505859376,-146.33656005859376,1.688754954188659e+18,155.8456590983073,0.8413320779800415,-0.5230539639790853,0.1339191695054372,0.0220199963077902,-0.5373522837956747,1.0641462405522664,-2.7678791681925454
5.9,1.688754954240558e+18,155.89755802408854,-4.694714864095052,1.018844445546468,-2.01871665318807,1.688754954240558e+18,155.89755802408854,-0.8965108791987101,-7.807780424753825,0.1004985570907592,1.688754954240558e+18,155.89755802408854,3.792358080546061,-8.809120178222656,2.056527773539225,1.6887549542492058e+18,155.90620564778646,0.2345213443040847,2.10809592405955,-0.917774111032486,1.6887549542362355e+18,155.8932354329427,0.2924517293771108,1.563611427942912,-0.7403686741987864,,,,,,,,,,,,1.688754954238064e+18,155.89506420898437,-36.634159088134766,37.65163955688477,-13.002759552001953,1.688754954238064e+18,155.89506420898437,-291.1627563476562,130.9694366455078,-145.0067565917969,1.688754954240558e+18,155.89755802408854,0.8323440353075663,-0.5415566166241964,0.1149483174085616,0.0215479445954163,-0.5065136353174845,1.1124704678853352,-2.7708704471588135
5.95,1.6887549542924634e+18,155.94946329752602,-4.292785008748372,0.178683598836263,1.4547359347343445,1.6887549542924634e+18,155.94946329752602,-1.1846466064453125,-9.03450075785319,2.8701907296975455,1.6887549542924634e+18,155.94946329752602,3.10229229927063,-9.195679664611816,1.3527673085530598,1.688754954292463e+18,155.949462890625,0.634459912776947,3.3373095989227295,-2.908787488937378,1.688754954288137e+18,155.94513704427084,0.5608761111895243,3.107318719228109,-2.8012243111928306,,,,,,,,,,,,1.6887549542880596e+18,155.94505961914064,-34.606519317626955,39.718318939208984,-8.59611988067627,1.6887549542880596e+18,155.94505961914064,-289.13511352539064,133.03611755371094,-140.60011596679686,1.6887549542924634e+18,155.94946329752602,0.8093788027763367,-0.581720232963562,0.0473353825509547,0.0562023979922134,-0.4220077991485595,1.2151060104370115,-2.70703403155009
6.0,1.6887549543443643e+18,156.0013644205729,-6.904084205627441,2.340307871500651,-1.3828322390715282,1.6887549543443643e+18,156.0013644205729,-5.784249941507976,-7.36450990041097,-0.3782653870681922,1.6887549543443643e+18,156.0013644205729,1.1139883597691853,-9.687313079833984,0.941879391670227,1.6887549543357153e+18,155.99271516927084,-0.1712458878755569,3.2521448135375977,-4.475504159927368,1.6887549543400417e+18,155.99704158528644,-0.343204453587532,3.299588680267334,-4.324314991633098,,,,,,,,,,,,1.6887549543380608e+18,155.99506083984377,-26.60575942993164,45.40107879638672,-2.9645999670028687,1.6887549543380608e+18,155.99506083984377,-281.1343566894531,138.7188751220703,-134.96860046386718,1.6887549543443643e+18,156.0013644205729,0.7388466596603394,-0.6640672286351522,-0.0268066343851387,0.1046521887183189,-0.7708405554294586,1.4123581647872925,-2.183966279029846
6.05,1.6887549543962716e+18,156.05327172851565,-0.8287133971850076,-2.4641167322794595,-3.0467936992645264,1.6887549543962716e+18,156.05327172851565,-0.9328020612398784,-12.174681345621744,-1.4941183527310689,1.6887549543962716e+18,156.05327172851565,-0.1099347720543543,-9.693059921264648,1.4899879693984983,1.6887549543876209e+18,156.0446209309896,-1.392823656400045,2.2119430700937905,-2.031279683113098,1.6887549543919483e+18,156.0489481608073,-1.2703451712926228,2.075821876525879,-1.918015082677205,,,,,,,,,,,,1.6887549543880602e+18,156.04506025390623,-19.305279541015626,48.961038970947264,-2.474160003662109,1.6887549543880602e+18,156.04506025390623,-273.8338684082031,142.27883911132812,-134.47815856933593,1.6887549543962716e+18,156.05327172851565,0.6827337741851807,-0.7074269652366638,-0.0627110737065473,0.1707745790481567,-1.617667516072591,1.4127049446105957,-1.1911060810089111
6.1,1.68875495444818e+18,156.1051799316406,1.508222500483195,0.4119467735290527,-2.1134774684906006,1.68875495444818e+18,156.1051799316406,0.5072784125804901,-9.251051108042398,-0.5994020899136862,1.68875495444818e+18,156.1051799316406,-1.0067901213963826,-9.645493189493816,1.451387921969096,1.688754954439527e+18,156.09652677408852,0.5874487409989039,1.627243200937907,-2.30107847849528,1.6887549544438518e+18,156.1008517252604,0.6833545863628387,1.6924530665079751,-2.305659929911295,,,,,,,,,,,,1.6887549544380603e+18,156.0950603515625,-14.3276798248291,50.066358947753905,-2.149639892578125,1.6887549544380603e+18,156.0950603515625,-268.8562744140625,143.3841583251953,-134.1536407470703,1.68875495444818e+18,156.1051799316406,0.6418792009353638,-0.7339892784754435,-0.1044916013876596,0.194638709227244,-2.147074063618978,1.3856743574142456,-0.5663504799207052
6.15,1.688754954500083e+18,156.15708325195314,1.4364281098047893,4.118133068084717,-0.8079908092816671,1.688754954500083e+18,156.15708325195314,-0.2494517639279364,-5.494319438934326,0.3864408558389793,1.688754954500083e+18,156.15708325195314,-1.6917259295781453,-9.594947814941406,1.1317442258199055,1.6887549544914335e+18,156.14843367513024,0.8824966649214426,2.247220516204834,-1.4785484075546265,1.688754954495759e+18,156.15275927734376,0.7995717028776804,2.173763950665792,-1.4811954895655317,1.6887549544871063e+18,156.1441062011719,0.0,0.0,2.5530755519866943,6.4710001945495605,1.196373701095581,231.9262237548828,333.29998779296875,-122.9167441,49.2788776,1.688754954488058e+18,156.14505795898438,-8.181319904327392,51.43763961791992,1.515239953994751,1.688754954488058e+18,156.14505795898438,-262.709912109375,144.75543518066405,-130.48876037597657,1.688754954500083e+18,156.15708325195314,0.6074983676274618,-0.7462079524993896,-0.166201889514923,0.2148641447226206,-2.525525172551473,1.3619037469228108,-0.0672542750835418
6.2,1.688754954543338e+18,156.20033813476562,1.5882359147071838,0.867682933807373,-0.8649241328239442,1.688754954543338e+18,156.20033813476562,-0.6810571551322937,-8.617750644683838,0.3828516155481338,1.688754954543338e+18,156.20033813476562,-2.275139093399048,-9.467928886413574,1.185088276863098,1.6887549545433364e+18,156.20033642578124,-0.290720955779155,0.5188791205485662,-1.46424396832784,1.6887549545476646e+18,156.20466455078125,-0.3585779070854186,0.37278051674366,-1.3981178204218547,,,,,,,,,,,,1.6887549545380598e+18,156.19505971679686,-3.659999942779541,51.85731887817383,2.6376399040222167,1.6887549545380598e+18,156.19505971679686,-258.1885925292969,145.17511901855468,-129.366357421875,1.688754954543338e+18,156.20033813476562,0.5780989527702332,-0.760182648897171,-0.1908481121063232,0.2268520817160605,-2.643423080444336,1.3075294494628906,0.1069045811891555
6.25,1.688754954586593e+18,156.2435928548177,3.583223899205526,-1.3352988560994463,-1.5097933610280354,1.688754954586593e+18,156.2435928548177,0.8638089721401533,-10.673982938130695,-0.069192452977101,1.688754954586593e+18,156.2435928548177,-2.725260972976685,-9.321179389953612,1.377913475036621,1.6887549545952412e+18,156.2522411295573,-0.6601417064666748,-0.5754350622495016,-1.0577640732129414,1.688754954599567e+18,156.25656705729168,-0.6614652474721273,-0.5188282231489817,-1.0406089425086975,,,,,,,,,,,,1.6887549545880604e+18,156.24506044921876,-0.4904399991035461,51.684078979492185,1.2785599827766418,1.6887549545880604e+18,156.24506044921876,-255.01903381347657,145.0018768310547,-130.72543640136718,1.688754954586593e+18,156.2435928548177,0.5588602622350057,-0.7769725720087687,-0.1831444551547368,0.2244017173846562,-2.6585123538970947,1.2555549542109172,0.1091424748301505
6.3,1.688754954638501e+18,156.29550105794272,3.3080240885416665,-3.5132099787394204,-4.5402616659800215,1.688754954638501e+18,156.29550105794272,0.2953142126401265,-12.713465690612791,-2.8075784842173257,1.688754954638501e+18,156.29550105794272,-3.0185558795928955,-9.182751019795736,1.6699957847595217,1.6887549546471483e+18,156.3041481933594,-0.3658064653476079,0.9579894145329794,-0.0423533270756403,1.6887549546428314e+18,156.29983154296875,-0.531758189201355,1.1503356099128723,-0.0170278623700142,,,,,,,,,,,,1.688754954638065e+18,156.29506489257813,1.0516399979591369,51.6987190246582,-0.2927999921143055,1.688754954638065e+18,156.29506489257813,-253.476953125,145.01651611328126,-132.2967987060547,1.688754954638501e+18,156.29550105794272,0.5423703591028849,-0.788142184416453,-0.1761856923500696,0.2314096490542093,-2.623456080754598,1.2125423749287922,0.0764009480675061
6.35,1.6887549546904087e+18,156.34740885416667,3.5693345864613852,-6.11597220102946,-4.015825629234314,1.6887549546904087e+18,156.34740885416667,0.6827520926793417,-15.37248961130778,-2.3788644472757974,1.6887549546904087e+18,156.34740885416667,-2.8924285570780435,-9.239013036092125,1.5742737452189128,1.6887549546990592e+18,156.35605916341146,1.036332865556081,-0.1026762674252192,0.9157379269599916,1.688754954686083e+18,156.3430833333333,0.7900523940722147,0.0598138868808746,0.2880229726433754,,,,,,,,,,,,1.6887549546880678e+18,156.34506787109373,1.0662800073623655,51.91343994140625,0.0341599881649017,1.6887549546880678e+18,156.34506787109373,-253.46231384277343,145.23123474121093,-131.96983947753907,1.6887549546904087e+18,156.34740885416667,0.5458759466807047,-0.7809562881787618,-0.1892741620540618,0.23710298538208,-2.631144126256307,1.2297027508417766,0.1114062517881393
6.4,1.6887549547423142e+18,156.39931420898438,-1.054732322692871,-4.277917226155599,0.3282345732053121,1.6887549547423142e+18,156.39931420898438,-2.668994188308716,-13.893725395202637,1.4729817310969036,1.6887549547423142e+18,156.39931420898438,-1.6201080083847046,-9.5983034769694,1.0820597608884177,1.6887549547423104e+18,156.39931030273436,0.9264535009860992,0.4920519664883613,3.8922805786132817,1.6887549547379896e+18,156.39498950195312,1.007316768169403,0.306298017501831,3.598149061203003,,,,,,,,,,,,1.6887549547380698e+18,156.39506967773437,-4.052839899808168,51.72311935424805,2.566879940032959,1.6887549547380698e+18,156.39506967773437,-258.58143615722656,145.04091796875,-129.43711853027344,1.6887549547423142e+18,156.39931420898438,0.60145237048467,-0.735865851243337,-0.1975345214207966,0.2385754883289336,-2.499669313430786,1.3704379796981812,-0.0114635076994697
6.45,1.6887549547942188e+18,156.4512188313802,-2.926032543182373,-5.245744705200195,2.320547580718994,1.6887549547942188e+18,156.4512188313802,-2.713062047958374,-15.036896387736002,3.046860853830973,1.6887549547942188e+18,156.4512188313802,0.2071245561043421,-9.77364699045817,0.663625955581665,1.6887549547855634e+18,156.4425632324219,0.7320201992988586,-0.9468411405881246,3.603494087855021,1.6887549547898826e+18,156.4468826497396,0.6401867767175039,-0.9559022982915244,3.5864408016204834,,,,,,,,,,,,1.6887549547880614e+18,156.44506142578126,-14.051959609985351,50.01511917114258,4.621359920501709,1.6887549547880614e+18,156.44506142578126,-268.58055419921874,143.33291931152343,-127.38263702392578,1.6887549547942188e+18,156.4512188313802,0.6766165693600973,-0.6746898492177328,-0.1797057290871937,0.2324311186869938,-1.2938265800476074,1.4824535449345906,-1.255711058775584
6.5,1.6887549548461248e+18,156.50312459309896,-2.8811655839284263,-7.696845372517903,8.06084140141805,1.6887549548461248e+18,156.50312459309896,-0.8137590785821279,-17.249260584513348,8.998608430226644,1.6887549548461248e+18,156.50312459309896,2.06156055132548,-9.534911473592125,0.8750792344411215,1.688754954837474e+18,156.49447387695312,-0.5023348530133566,-1.1403835813204448,3.965889851252238,1.688754954841799e+18,156.49879850260416,-0.5264640152454376,-1.2263628641764324,3.983604987462362,,,,,,,,,,,,1.6887549548380646e+18,156.49506474609376,-23.606999588012695,46.73087844848633,3.967439889907837,1.6887549548380646e+18,156.49506474609376,-278.135595703125,140.04867553710938,-128.03655853271485,1.6887549548461248e+18,156.50312459309896,0.7420717080434164,-0.6125995914141337,-0.1325793266296386,0.2356701244910557,-0.4192835291226705,1.3358202775319417,-2.191537936528524
6.55,1.6887549548980278e+18,156.55502807617188,0.1400739351908365,-1.817805290222168,-0.4630857308705647,1.6887549548980278e+18,156.55502807617188,3.8287157118320465,-10.854043006896973,0.6648058891296387,1.6887549548980278e+18,156.55502807617188,3.682795763015747,-9.018733024597168,1.0652042826016743,1.688754954889379e+18,156.54637939453127,0.3872376630703608,-1.226617415746053,3.3465234438578286,1.688754954893705e+18,156.55070483398438,0.4740314284960429,-0.9600765705108644,3.2603914737701416,,,,,,,,,,,,1.6887549548880625e+18,156.5450625,-33.035159301757815,42.13879928588867,1.2663599610328675,1.6887549548880625e+18,156.5450625,-287.5637573242187,135.45659484863282,-130.73763427734374,1.6887549548980278e+18,156.55502807617188,0.8003990054130554,-0.551521917184194,-0.0810744861761728,0.2192172110080718,-0.2934559633334477,1.1648088296254475,-2.41100811958313
6.6,1.6887549549499295e+18,156.60692985026043,-12.504056294759115,4.7688852945963545,-1.8466224670410156,1.6887549549499295e+18,156.60692985026043,-7.7022965749104815,-3.745365619659424,-0.8105686902999878,1.6887549549499295e+18,156.60692985026043,4.795913378397624,-8.496746381123861,0.9733663400014242,1.6887549549412782e+18,156.5982782389323,0.672766258319219,-1.662215232849121,2.436588764190674,1.6887549549456074e+18,156.6026072591146,0.6195191840330759,-2.0462968200445175,2.441373825073242,,,,,,,,,,,,1.688754954938067e+18,156.59506694335937,-38.39583969116211,37.105079650878906,1.873919939994812,1.688754954938067e+18,156.59506694335937,-292.9244323730469,130.4228759765625,-130.1300811767578,1.6887549549499295e+18,156.60692985026043,0.8405019640922546,-0.5009774963061014,-0.0564000097413857,0.19669109582901,-0.2056428243716558,1.0451677242914836,-2.563184976577759
