seconds_elapsed_rounded,accelerometer_time,accelerometer_seconds_elapsed,accelerometer_z,accelerometer_y,accelerometer_x,accelerometeruncalibrated_time,accelerometeruncalibrated_seconds_elapsed,accelerometeruncalibrated_z,accelerometeruncalibrated_y,accelerometeruncalibrated_x,gravity_time,gravity_seconds_elapsed,gravity_z,gravity_y,gravity_x,gyroscope_time,gyroscope_seconds_elapsed,gyroscope_z,gyroscope_y,gyroscope_x,gyroscopeuncalibrated_time,gyroscopeuncalibrated_seconds_elapsed,gyroscopeuncalibrated_z,gyroscopeuncalibrated_y,gyroscopeuncalibrated_x,location_time,location_seconds_elapsed,location_altitude,location_speedAccuracy,location_bearingAccuracy,location_latitude,location_altitudeAboveMeanSeaLevel,location_bearing,location_horizontalAccuracy,location_verticalAccuracy,location_longitude,location_speed,magnetometer_time,magnetometer_seconds_elapsed,magnetometer_z,magnetometer_y,magnetometer_x,magnetometeruncalibrated_time,magnetometeruncalibrated_seconds_elapsed,magnetometeruncalibrated_z,magnetometeruncalibrated_y,magnetometeruncalibrated_x,orientation_time,orientation_seconds_elapsed,orientation_yaw,orientation_qx,orientation_qz,orientation_roll,orientation_qw,orientation_qy,orientation_pitch
0.0,,,,,,1.6897265120286868e+18,0.017686767578125,-1.1971511840820312,-0.574127197265625,0.1516571044921875,,,,,,,,,,,1.6897265120286874e+18,0.017687255859375,-1.4758652448654177,1.2180116176605225,1.0666269063949585,,,,,,,,,,,,,,,,,,1.6897265120332352e+18,0.022235107421875,-19.17469787597656,-8.736572265625,70.68533325195312,,,,,,,,,
0.05,1.6897265120562432e+18,0.04524326171875,-0.10104922167956847,0.43144718031108364,-0.5752076795049011,1.6897265120637604e+18,0.052760302734375,-0.7935577392578125,-0.2339874267578125,0.1674468994140625,1.6897265120562432e+18,0.04524326171875,-8.991889263427854,-3.3255282780393953,2.0489584821879863,1.6897265120562432e+18,0.04524326171875,-1.2331514000892638,0.3957694984972477,1.7839482307434082,1.68972651205875e+18,0.04775,-1.2030508756637572,0.3812161602079868,1.7906047582626343,,,,,,,,,,,,,1.6897265120562432e+18,0.04524326171875,-48.77313461303711,-22.227517700195314,-8.002049255371094,1.6897265120644416e+18,0.053441650390625005,-18.172149658203125,-11.880633544921874,72.27446899414062,1.6897265120562432e+18,0.04524326171875,2.492290794311692,0.049683089237244085,-0.933814060821125,0.22413698869798826,-0.29387188291165867,-0.19727428159517615,0.3460562224783081
0.1,1.689726512106348e+18,0.095348095703125,1.3473020298439264,0.41634845383077856,0.7088354625149071,1.6897265121138647e+18,0.10286479492187502,-0.7813018798828125,-0.3573944091796875,0.4101409912109375,1.689726512106348e+18,0.095348095703125,-8.653687119238375,-3.824105459293425,2.5681381895834208,1.689726512106348e+18,0.095348095703125,-0.34354438707232476,1.6552849292755127,0.5608654096722603,1.6897265121088543e+18,0.097854345703125,-0.28495162576436994,1.7174012422561646,0.47812003195285796,,,,,,,,,,,,,1.689726512106348e+18,0.095348095703125,-47.3967788696289,-25.94715805053711,-4.913758850097656,1.689726512111251e+18,0.10025091552734375,-17.23674774169922,-14.445446014404297,75.17455673217773,1.689726512106348e+18,0.095348095703125,2.4347380544844883,0.06401420471221188,-0.9197141432874039,0.288559364362753,-0.30875976444731573,-0.23349113117472484,0.4005865226225234
0.15,1.6897265121564524e+18,0.145452197265625,2.230228890860677,0.30671243023514744,0.27413831127107147,1.6897265121639693e+18,0.15296928710937502,-0.5527069091796875,-0.377032470703125,0.27249755859375,1.6897265121564524e+18,0.145452197265625,-8.425614627380371,-3.780788763231933,3.2942695671358706,1.6897265121564524e+18,0.145452197265625,0.448652058839798,1.4765353441238402,-0.9813299715518952,1.689726512158959e+18,0.147958984375,0.4518752574920654,1.4258963227272035,-1.0867172598838806,,,,,,,,,,,,,1.6897265121564524e+18,0.145452197265625,-47.6618537902832,-26.012974166870116,-1.5830673217773437,1.68972651215806e+18,0.147060205078125,-17.918045043945312,-13.614892578125,78.6403076171875,1.6897265121564524e+18,0.145452197265625,2.4492233375511048,0.10528177049776075,-0.918624415848935,0.37264814650969064,-0.29268216773113986,-0.24330756993967478,0.39580581946710114
0.2,1.6897265122065572e+18,0.195557080078125,1.523445480117798,0.7175232990396021,-2.0175182772377136,1.6897265122140739e+18,0.20307382812500002,-0.86746826171875,-0.106524658203125,0.215887451171875,1.6897265122065572e+18,0.195557080078125,-8.666665843276977,-2.9553237649722393,3.487498183079958,1.6897265122065572e+18,0.195557080078125,0.06644739955663681,-0.8396579414606095,-2.804642915725708,1.6897265122090634e+18,0.19806328125,0.10644584894180298,-1.0063289150595665,-2.833757019042969,,,,,,,,,,,,,1.6897265122065572e+18,0.195557080078125,-49.85118103027344,-21.979194259643556,-0.02515411376953126,1.689726512210073e+18,0.1990732421875,-20.66533203125,-8.248391723632812,78.921533203125,1.6897265122065572e+18,0.195557080078125,2.505585088469151,0.13152670169951997,-0.930541312270743,0.3827588710420416,-0.27557770394844205,-0.2009818149143591,0.30634081641700106
0.25,1.689726512256661e+18,0.24566118164062498,-3.2362520870965716,2.427082390077561,-1.90578481374532,1.6897265122641782e+18,0.253178271484375,-1.438311767578125,0.045880126953125,-0.113623046875,1.689726512256661e+18,0.24566118164062498,-9.317145767517685,-1.831315292920619,2.3905508825637396,1.689726512256661e+18,0.24566118164062498,0.8981231093406677,-3.163004207611084,-2.025001072883606,1.689726512259168e+18,0.24816806640625,0.8528525024652481,-3.164782905578613,-1.8941691875457765,,,,,,,,,,,,,1.689726512256661e+18,0.24566118164062498,-52.42595596313477,-14.972180557250976,-5.152497863769531,1.6897265122620872e+18,0.25108720703125,-22.58741149902344,-1.553533935546875,71.77191467285157,1.689726512256661e+18,0.24566118164062498,2.5843901541554897,0.09413848171625663,-0.9525938068781683,0.2513968968791812,-0.25988244537337535,-0.12393092569136718,0.18790730780464787
0.3,1.689726512306766e+18,0.295766064453125,-4.557259984254837,1.3078868420395255,-0.8385612404242156,1.6897265123142828e+18,0.303282861328125,-1.284130859375,0.004815673828125,0.2036102294921875,1.689726512306766e+18,0.295766064453125,-9.632005965277552,-1.3617862776876986,1.227888299434185,1.689726512306766e+18,0.295766064453125,0.07245497703552248,-1.1645111203193665,-0.831526803970337,1.689726512309272e+18,0.298272216796875,0.11367697417736056,-1.0745526552200317,-0.8763011127710343,,,,,,,,,,,,,1.689726512306766e+18,0.295766064453125,-52.38450317382812,-11.591642761230469,-12.190383911132812,1.6897265123141025e+18,0.30310249023437497,-22.249954223632812,0.9337310791015625,66.24575805664062,1.689726512306766e+18,0.295766064453125,2.6135229659134724,0.04288271700033954,-0.9621879401581307,0.1268180096038307,-0.2555144067598342,-0.08355099185807502,0.13932393918191477
0.35,1.6897265123568701e+18,0.345870263671875,-0.4130456128931045,0.8250047457237543,3.1808450233644243,1.6897265123643873e+18,0.353387255859375,-1.0026031494140626,0.0059295654296875,0.362567138671875,1.6897265123568701e+18,0.345870263671875,-9.742289697579144,-0.894406637121439,0.6198004160776734,1.6897265123568701e+18,0.345870263671875,1.2183464884757995,-1.767355704307556,-0.6665234110318123,1.689726512359377e+18,0.34837700195312504,1.2801472306251527,-1.8601762056350708,-0.5829065337777137,,,,,,,,,,,,,1.6897265123568701e+18,0.345870263671875,-52.07247695922852,-8.454426956176757,-15.615435791015624,1.6897265123609167e+18,0.349916748046875,-21.844085693359375,3.890033721923828,62.98512649536133,1.6897265123568701e+18,0.345870263671875,2.6528207219010467,0.0196866916232282,-0.9690242391529468,0.06355335085158163,-0.24009060529055626,-0.05204789390495086,0.09133469584338041
0.4,1.6897265124069752e+18,0.395975341796875,2.61767069141984,1.4064629369907826,2.5398198575937747,1.6897265124144922e+18,0.40349204101562497,-0.5398284912109375,0.0425384521484375,0.145709228515625,1.6897265124069752e+18,0.395975341796875,-9.700527011413573,-1.0247672642551362,-0.8284744219951611,1.6897265124069752e+18,0.395975341796875,1.887387990951538,-3.8555728912353517,1.1677837252616883,1.6897265124094812e+18,0.398481298828125,1.8852085590362548,-3.945023250579834,1.225734257698059,,,,,,,,,,,,,1.6897265124069752e+18,0.395975341796875,-49.841729736328126,-7.116606521606445,-21.765194702148438,1.6897265124077307e+18,0.39673081054687503,-18.715484619140625,4.640530395507812,55.60650634765625,1.6897265124069752e+18,0.395975341796875,2.7411571310252274,-0.05205571781759962,-0.9767983322467687,-0.0852969386015251,-0.20075410903397656,-0.04315051986517164,0.10470133641279031
0.45,1.6897265124570793e+18,0.446079248046875,8.490253980551362,3.3958518435527383,5.2134344961014385,1.6897265124645962e+18,0.4535962890625,-0.04715576171875,0.270745849609375,0.1323638916015625,1.6897265124570793e+18,0.446079248046875,-9.089552349800467,-1.4422730422013996,-3.2673077350956197,1.6897265124570793e+18,0.446079248046875,2.544014072418213,-6.0325017929077145,1.338962984085083,1.689726512459586e+18,0.44858603515624995,2.602342414855957,-6.122811031341553,1.3479503870010376,,,,,,,,,,,,,1.6897265124570793e+18,0.446079248046875,-43.20799179077149,-7.241594409942627,-32.241475677490236,1.6897265124597437e+18,0.448743798828125,-10.0774658203125,5.063150024414062,43.50767211914062,1.6897265124570793e+18,0.446079248046875,2.857611437144743,-0.17966397095149717,-0.9695887548988947,-0.34515873124451024,-0.15166414984730803,-0.04852168609373532,0.14760856171210954
0.5,1.689726512507184e+18,0.49618413085937496,6.129931092216968,5.018151285715103,3.8054575158989428,1.6897265125147008e+18,0.5037008300781249,-0.116754150390625,0.3957183837890625,-0.273779296875,1.689726512507184e+18,0.49618413085937496,-7.495044789987801,-1.31096946435526,-6.124660575242042,1.689726512507184e+18,0.49618413085937496,3.2432899951934813,-5.848534679412841,1.2653096079826356,1.6897265125096904e+18,0.49869033203125,3.2760980129241943,-5.753908729553222,1.2202708721160889,,,,,,,,,,,,,1.689726512507184e+18,0.49618413085937496,-30.23215446472168,-3.8926030158996583,-44.60800018310547,1.6897265125117563e+18,0.500756298828125,3.6976287841796873,9.602673339843749,32.18397216796875,1.689726512507184e+18,0.49618413085937496,3.0231322445562183,-0.3380387528858728,-0.9356117470768698,-0.6849366229947398,-0.07803772966401158,-0.0442036932946708,0.13409774363169696
0.55,1.6897265125572882e+18,0.546288134765625,4.368592918685675,5.864214455428123,3.8221097262054675,1.689726512564805e+18,0.5538052734375001,-0.307257080078125,0.6199005126953125,-0.6687744140625,1.6897265125572882e+18,0.546288134765625,-5.625488876774012,-0.1874724197310209,-7.988918206691146,1.6897265125572882e+18,0.546288134765625,4.266230964660645,-4.5765210628509525,-0.0012219995260238647,1.689726512559795e+18,0.548795068359375,4.295881938934326,-4.494125699996948,-0.038890936970710756,1.689726512543202e+18,0.5322021484375,335.7908000946045,-1.0,-1.0,49.27796742136996,354.97222900390625,-1.0,35.0,28.58363914489746,-122.91060409209643,-1.0,1.6897265125572882e+18,0.546288134765625,-17.159474563598632,4.063616561889648,-50.94175262451172,1.6897265125637655e+18,0.5527654785156251,16.092037963867188,18.931805419921876,27.855511474609376,1.6897265125572882e+18,0.546288134765625,-1.854210268789,-0.46025483964221614,-0.8864407080442523,-0.9572186963563045,0.009697188159274301,-0.01646729314076576,0.019138805949448678
0.6,1.6897265126073933e+18,0.59639326171875,-3.776254802290201,3.2494166598699983,-4.9149424894618985,1.6897265126149102e+18,0.603910107421875,-0.7249267578125,0.449365234375,-1.4762939453125,1.6897265126073933e+18,0.59639326171875,-4.0712500236290685,1.5960287488044798,-8.757894395783543,1.6897265126073933e+18,0.59639326171875,3.7885717868804933,-2.741708993911743,-0.1808421963825822,1.6897265126098993e+18,0.59889921875,3.754803276062012,-2.641537404060364,-0.22503610178828234,,,,,,,,,,,,,1.6897265126073933e+18,0.59639326171875,-7.449137115478516,14.940218734741212,-51.209381103515625,1.6897265126105733e+18,0.5995731811523437,24.092784881591797,28.596874237060547,28.386646270751953,1.6897265126073933e+18,0.59639326171875,-3.0104499359549814,-0.539364179011646,-0.8349024654507904,-1.1359308050460721,0.09910940202751692,0.03321777124576518,-0.163672480265395
0.65,1.6897265126574973e+18,0.64649736328125,-2.919184793133437,1.181164191468954,-8.681167597551346,1.6897265126650143e+18,0.654014306640625,-0.7904296875,0.4521240234375,-1.894976806640625,1.6897265126574973e+18,0.64649736328125,-3.1788767628052828,3.324783246438801,-8.64417320715308,1.6897265126574973e+18,0.64649736328125,3.266661596298218,-0.5507520914077759,-1.9696999073028565,1.6897265126600044e+18,0.64900419921875,3.223799228668213,-0.4479515217244625,-2.0221493244171143,,,,,,,,,,,,,1.6897265126574973e+18,0.64649736328125,-2.253952407836914,23.70950241088867,-48.68799514770508,1.6897265126573809e+18,0.6463810546875,28.1018310546875,36.19302673339844,30.937420654296876,1.6897265126574973e+18,0.64649736328125,-2.9894567630109963,-0.5724737009908901,-0.7977192191966636,-1.2186211481671438,0.15984220489483036,0.09797051014237397,-0.34640920616679327
0.7,1.6897265127076024e+18,0.696602392578125,-8.096707082663178,-1.2098381465762853,-9.94233541696608,1.689726512715119e+18,0.704119140625,-1.0675933837890625,0.33758544921875,-1.7401702880859375,1.6897265127076024e+18,0.696602392578125,-2.650235545711964,4.762204698503613,-8.143673299595118,1.6897265127076024e+18,0.696602392578125,2.3049371242523193,-1.2570657789707185,-0.966846626996994,1.6897265127101084e+18,0.6991083984375,2.2707286357879637,-1.41502755433321,-0.8251422733068466,,,,,,,,,,,,,1.6897265127076024e+18,0.696602392578125,0.13418273925781252,29.009730529785156,-46.225074768066406,1.6897265127093903e+18,0.6983902343749999,31.259915161132813,42.28563232421875,34.0033935546875,1.6897265127076024e+18,0.696602392578125,-3.0330814355369546,-0.5789158305883744,-0.7738759826544259,-1.2565388309207575,0.1898793621503291,0.17179196075878883,-0.5074084254951782
0.75,1.6897265127577062e+18,0.746706396484375,-5.644857068040967,-3.0711008047670125,-8.719796544961929,1.6897265127652234e+18,0.754223388671875,-0.6365081787109375,0.235577392578125,-1.7585052490234374,1.6897265127577062e+18,0.746706396484375,-1.7390704029783606,5.547842450252771,-7.891563630971907,1.6897265127577062e+18,0.746706396484375,1.5525348663330079,-3.2413674354553224,1.3523885488510132,1.689726512760213e+18,0.74921318359375,1.476081943511963,-3.2700428485870363,1.4335204839706421,,,,,,,,,,,,,1.6897265127577062e+18,0.746706396484375,4.841763305664062,33.6355712890625,-43.12084808349609,1.6897265127613978e+18,0.75039794921875,36.278750610351565,46.523336791992186,37.30664978027344,1.6897265127577062e+18,0.746706396484375,-2.9842085608458686,-0.6145961011755833,-0.7272306377084743,-1.3542672656710513,0.24341591665625945,0.18283708846321006,-0.6014294952232397
0.8,1.6897265128078116e+18,0.796811376953125,-1.9942478324482589,-4.206540420702099,-8.496952835215925,1.6897265128153283e+18,0.80432822265625,-0.0196014404296875,0.1000946044921875,-1.5169281005859374,1.6897265128078116e+18,0.796811376953125,-0.9345190572489053,5.637764479431509,-7.965967305405735,1.6897265128078116e+18,0.796811376953125,-0.4336383491754532,-3.754632043838501,2.777052307128906,1.6897265128103173e+18,0.7993173828125,-0.5039000540971756,-3.7038808822631837,2.7387402057647705,,,,,,,,,,,,,1.6897265128078116e+18,0.796811376953125,8.809575653076172,36.26762466430664,-40.19756851196289,1.6897265128134077e+18,0.8024079589843749,39.45462341308594,48.3055908203125,39.536981201171876,1.6897265128078116e+18,0.796811376953125,-2.8464983357888034,-0.6594333189010646,-0.675030090808941,-1.4538126999856975,0.30258530217525836,0.12945019714659906,-0.6125190082862678
0.85,1.6897265128579154e+18,0.84691533203125,9.55162952927053,-4.260983140220642,-0.16598294007420533,1.6897265128654323e+18,0.854432373046875,0.8680267333984375,0.10291748046875,-0.727166748046875,1.6897265128579154e+18,0.84691533203125,-0.255543178516007,5.288424855155944,-8.252209545255303,1.6897265128579154e+18,0.84691533203125,-0.8191736459732055,-0.392398065328598,-1.4271589636802673,1.6897265128604224e+18,0.8494223632812499,-0.8352682590484619,-0.20658881179988384,-1.5836892604827881,,,,,,,,,,,,,1.6897265128579154e+18,0.84691533203125,11.034526824951172,35.68043212890625,-39.668115234375,1.6897265128602153e+18,0.8492153930664063,41.70226287841797,47.173126220703125,39.661170959472656,1.6897265128579154e+18,0.84691533203125,-2.795480298399691,-0.6927422411776392,-0.6449646755187153,-1.5397147000463423,0.3112848502570582,0.08381420178379244,-0.5696000736530717
0.9,1.6897265129080202e+18,0.8970203613281249,2.443047582581043,-3.163238990238309,3.640858840563893,1.6897265129155372e+18,0.904537158203125,0.248541259765625,0.1754913330078125,-0.4310821533203125,1.6897265129080202e+18,0.8970203613281249,-0.0126932941225212,4.786268587919175,-8.556574067963957,1.6897265129080202e+18,0.8970203613281249,-1.5258238315582275,0.34393885359168047,-1.2336976885795594,1.6897265129105265e+18,0.8995263183593749,-1.5319883823394775,0.27133681029081347,-1.1757062911987304,,,,,,,,,,,,,1.6897265129080202e+18,0.8970203613281249,12.930429077148437,32.564595794677736,-41.24425354003906,1.6897265129070264e+18,0.8960263671875,43.09364013671875,44.11326904296875,37.96979675292969,1.6897265129080202e+18,0.8970203613281249,-2.895280660981986,-0.7004729824366024,-0.6575428489832591,-1.5692549482122042,0.2609379111575346,0.09319116338037038,-0.510000885596029
0.95,1.6897265129581245e+18,0.9471244140625,-0.4077655097591877,-3.3728979319795966,3.2137087144726513,1.6897265129656415e+18,0.95464130859375,-0.186529541015625,0.0887542724609375,-0.6321441650390625,1.6897265129581245e+18,0.9471244140625,0.29505816155997094,4.0758055534285305,-8.910741258526444,1.6897265129581245e+18,0.9471244140625,-1.7126610994338989,-0.9808319211006167,0.39402527511119845,1.6897265129606313e+18,0.94963134765625,-1.6999326944351196,-0.9838369488716125,0.4912218153476715,,,,,,,,,,,,,1.6897265129581245e+18,0.9471244140625,14.407151031494141,29.462387084960938,-42.798091125488284,1.6897265129590356e+18,0.948035595703125,44.89501037597656,40.64698791503906,36.33078308105469,1.6897265129581245e+18,0.9471244140625,-2.9203029659322106,-0.7141584752131476,-0.6583592397423738,-1.603761662551694,0.22689795545339003,0.06951308624359784,-0.42875948661456986
1.0,1.6897265130082294e+18,0.99722939453125,-3.4772110654389854,-0.8015015004786848,4.241682110518813,1.6897265130157463e+18,1.0047463378906252,-0.28660888671875,0.3393463134765625,-0.47904052734375,1.6897265130082294e+18,0.99722939453125,0.5142368733918666,3.544268702571988,-9.129025229915381,1.6897265130082294e+18,0.99722939453125,-0.48360269218683244,-1.0119483113288879,1.7485293388366698,1.6897265130107354e+18,0.9997354003906249,-0.40485567450523374,-1.0598471879959106,1.8157921314239502,,,,,,,,,,,,,1.6897265130082294e+18,0.99722939453125,15.46990509033203,27.43667984008789,-43.64514236450195,1.6897265130110454e+18,1.000045361328125,45.49765625,39.3403076171875,35.78763122558594,1.6897265130082294e+18,0.99722939453125,-2.854000498770719,-0.7249527796688793,-0.6490713751510919,-1.627059779405013,0.22894638057182243,0.0226038390667972,-0.3697922368934096
1.05,1.6897265130583334e+18,1.04733359375,-2.4232018953824044,1.6504039268186688,3.4864431210690734,1.6897265130658504e+18,1.054850439453125,-0.0257476806640625,0.6860687255859375,-0.533270263671875,1.6897265130583334e+18,1.04733359375,0.8290825896219165,3.6445825957143305,-9.06493275542438,1.6897265130583334e+18,1.04733359375,0.5189407259225846,-1.8711517333984375,2.352068471908569,1.6897265130608404e+18,1.049840380859375,0.5595774456858635,-1.825624704360962,2.3065399408340452,,,,,,,,,,,,,1.6897265130583334e+18,1.04733359375,15.552071380615235,29.043407440185547,-42.38604202270508,1.689726513063058e+18,1.0520578125,45.748904418945315,41.73703308105469,37.70445556640625,1.6897265130583334e+18,1.04733359375,-2.730800135965415,-0.7359179104242006,-0.6193206656853001,-1.6620606788458943,0.2717002907652772,-0.0231280100117825,-0.38080115409167303
1.1,1.6897265131084385e+18,1.097438427734375,4.758060818244964,3.338175402809977,-1.096459020155668,1.6897265131159555e+18,1.10495537109375,0.6979949951171875,0.6135101318359375,-1.28992919921875,1.6897265131084385e+18,1.097438427734375,1.0479382088059186,3.988141824570596,-8.89741801728606,1.6897265131084385e+18,1.097438427734375,0.2200094848871231,0.1746334046125412,-0.14203436970710753,1.6897265131109443e+18,1.099944384765625,0.15249542891979215,0.30781621038913726,-0.29874451160430915,,,,,,,,,,,,,1.6897265131084385e+18,1.097438427734375,15.741415405273438,31.77074279785156,-40.298516845703126,1.6897265131150687e+18,1.1040685546875,45.77402954101562,43.723583984375,39.14879150390625,1.6897265131084385e+18,1.097438427734375,-2.657059341067394,-0.7427786134605407,-0.5936875684532893,-1.688038284541264,0.3067357549912547,-0.04127399407367028,-0.4188198077207807
1.15,1.6897265131585426e+18,1.147542578125,3.369622797379493,1.1271818413907289,-4.308344143236875,1.6897265131610488e+18,1.1500488891601561,0.3574409484863281,0.524993896484375,-1.2997093200683594,1.6897265131585426e+18,1.147542578125,0.8698798794344812,3.7905982095846533,-9.001801118015646,1.6897265131585426e+18,1.147542578125,-0.5898580849170685,0.6828980937600135,-1.2245559096336365,1.6897265131610493e+18,1.1500494140625002,-0.5818296372890472,0.5984733000397682,-1.1760516166687012,1.689726513137758e+18,1.126758056640625,342.333984375,0.3799999952316284,33.61092377352587,49.278078074612914,361.51541328430176,144.4921875,14.414476559948325,16.0,-122.91047109302404,0.699999988079071,1.6897265131585426e+18,1.147542578125,15.681938171386719,30.61714096069336,-41.15882415771485,1.6897265131618785e+18,1.150878662109375,45.83840560913086,42.098270416259766,37.94657897949219,1.6897265131585426e+18,1.147542578125,-2.70858769756943,-0.7373166006565286,-0.6122394504062831,-1.667143581583836,0.2840861719859085,-0.0264909662234674,-0.39689285760877613
1.2,1.6897265132086472e+18,1.1976473632812499,-1.5186096574591843,3.503580893709361,0.8867504525059461,1.6897265132061435e+18,1.195143408203125,-0.05726318359375,0.7243804931640625,-0.828570556640625,1.6897265132086472e+18,1.1976473632812499,0.9464252712982149,3.645864159957468,-9.054209818262457,1.6897265132086472e+18,1.1976473632812499,0.3413633979856968,0.16780690848827362,-0.3641610339283943,1.6897265132111537e+18,1.200153515625,0.43723505437374116,0.22878337949514388,-0.3717967256903648,,,,,,,,,,,,,1.6897265132086472e+18,1.1976473632812499,16.242435455322266,29.368785095214843,-41.71030960083008,1.6897265132086866e+18,1.197686572265625,46.41654663085937,41.22650146484375,37.69156188964844,1.6897265132086472e+18,1.1976473632812499,-2.7412796660097025,-0.7401388680792583,-0.616153440282847,-1.67494114148523,0.2685127894111867,-0.02085727874562446,-0.3809258934114535
1.25,1.6897265132587515e+18,1.247751611328125,-2.582745026280507,1.2995989646178483,0.31188381229758255,1.6897265132562478e+18,1.24524755859375,-0.2081939697265625,0.5720184326171875,-0.844964599609375,1.6897265132587515e+18,1.247751611328125,0.7081452371479944,4.219783991608917,-8.817793977855443,1.6897265132587515e+18,1.247751611328125,2.2327730894088744,0.7255575627088546,0.2096539929509163,1.6897265132612582e+18,1.2502583496093749,2.295784258842468,0.6909443736076354,0.28710404634475706,,,,,,,,,,,,,1.6897265132587515e+18,1.247751611328125,15.733478546142578,30.817276000976562,-40.866363525390625,1.689726513260695e+18,1.2496950683593748,45.299755859375,43.757144165039065,39.21007080078125,1.6897265132587515e+18,1.247751611328125,-2.756923075966468,-0.732019375307176,-0.6182502294711938,-1.650750692622207,0.28553062824063635,0.010010027508069941,-0.44506541627598784
1.3,1.6897265133088563e+18,1.297856396484375,-3.703421036747694,3.440725559797883,0.7357684483999014,1.6897265133063524e+18,1.2953523437499999,-0.3441497802734375,0.8969512939453125,-0.791156005859375,1.6897265133088563e+18,1.297856396484375,0.4733736933492869,5.2920953603622305,-8.235665237689613,1.6897265133088563e+18,1.297856396484375,2.304238772392273,-0.7191572666168213,1.2506271600723267,1.6897265133113626e+18,1.300362548828125,2.240290713310242,-0.7906918287277221,1.2961202263832092,,,,,,,,,,,,,1.6897265133088563e+18,1.297856396484375,14.050251007080078,35.7151481628418,-37.49758377075195,1.6897265133127068e+18,1.3017067871093748,43.8224853515625,48.985601806640624,43.143289184570314,1.6897265133088563e+18,1.297856396484375,-2.718717908993132,-0.7227095829898086,-0.6009619177393397,-1.6282012592614297,0.3381449906136134,0.0424229515035753,-0.5703916472247853
1.35,1.6897265133589606e+18,1.3479607421875,-2.1409844394564628,1.9563440282809732,-3.2184336387157435,1.6897265133564567e+18,1.345456787109375,-0.144097900390625,0.7972564697265625,-1.1005828857421875,1.6897265133589606e+18,1.3479607421875,0.4117724000064656,5.950087735285758,-7.782892711468338,1.6897265133589606e+18,1.3479607421875,0.9050032496452332,0.014982855319976719,0.9708299428224564,1.6897265133614674e+18,1.35046728515625,0.8835028409957886,0.16426376700401307,0.8813549600541591,,,,,,,,,,,,,1.6897265133589606e+18,1.3479607421875,13.178492736816406,39.772814178466795,-33.78051910400391,1.689726513364716e+18,1.353716162109375,42.82066345214844,52.278857421875,46.049676513671876,1.6897265133589606e+18,1.3479607421875,-2.6398642493252935,-0.7205110364747063,-0.5737951213579887,-1.6235537799720163,0.38688205280057986,0.04293857217162456,-0.652016358650787
1.4,1.6897265134090655e+18,1.398065380859375,1.293370650074482,0.2337608250796795,3.275903597100973,1.6897265134065615e+18,1.3955614257812499,0.121759033203125,0.66915283203125,-0.403057861328125,1.6897265134090655e+18,1.398065380859375,0.07434715756030286,6.4134406922322515,-7.413263163357973,1.6897265134090655e+18,1.398065380859375,1.9253636360168458,1.1976030349731446,-0.7287468552589417,1.6897265134115715e+18,1.4005715820312499,2.010315465927124,1.227562379837036,-0.7457686185836792,,,,,,,,,,,,,1.6897265134090655e+18,1.398065380859375,11.846863555908204,41.90180587768555,-32.184366607666014,1.6897265134115246e+18,1.4005247192382813,41.911521911621094,54.190185546875,47.65171432495117,1.6897265134090655e+18,1.398065380859375,-2.6420813656607764,-0.7057776797344308,-0.5775519302624369,-1.5806944337504238,0.4032754284055037,0.07339550109756961,-0.713180201455654
1.45,1.6897265134591698e+18,1.4481697265625,-2.7337898226505515,-2.124683760614395,3.0682884361469744,1.6897265134566659e+18,1.445665771484375,-0.334503173828125,0.5198089599609375,-0.3574188232421875,1.6897265134591698e+18,1.4481697265625,-0.46453454694023827,7.2410628977519265,-6.581091039448976,1.6897265134591698e+18,1.4481697265625,2.4317812442779543,2.4425527095794677,0.5331844389438629,1.6897265134616765e+18,1.4506763671875,2.4187804222106934,2.430994153022766,0.6291398853063583,,,,,,,,,,,,,1.6897265134591698e+18,1.4481697265625,10.15860595703125,45.273521423339844,-28.35612564086914,1.6897265134583322e+18,1.4473323242187501,39.923822021484376,57.399365234375,51.35752563476562,1.6897265134591698e+18,1.4481697265625,-2.6591413847788745,-0.67572978273884,-0.58439287275287,-1.4985462508001095,0.4266548775328304,0.13849543714667661,-0.8312786389243934
1.5,1.6897265135092744e+18,1.498274365234375,-0.22861334996253252,-1.8455702328270671,0.2647139479392767,1.6897265135067704e+18,1.4957704101562501,-0.1498260498046875,0.626458740234375,-0.56451416015625,1.6897265135092744e+18,1.498274365234375,-1.421530245419517,7.916158090906739,-5.596960058451891,1.6897265135092744e+18,1.498274365234375,2.5176030158996583,0.5795488297939301,1.4102737426757812,1.6897265135117806e+18,1.5007805664062501,2.5231816291809084,0.5372614741325379,1.3815621614456177,,,,,,,,,,,,,1.6897265135092744e+18,1.498274365234375,5.807706451416015,48.409691619873044,-24.494676971435545,1.6897265135103414e+18,1.499341357421875,35.104190063476565,60.88701477050781,56.036990356445315,1.6897265135092744e+18,1.498274365234375,-2.534812202201956,-0.6288984439609554,-0.5886762797844932,-1.320167915675544,0.4750271135256285,0.17847844483151476,-0.9400356548347861
1.55,1.6897265135593787e+18,1.54837880859375,2.788846114796698,-1.0875641167515515,-2.767131243499219,1.6897265135568748e+18,1.545874755859375,0.08087158203125,0.75721435546875,-0.743511962890625,1.6897265135593787e+18,1.54837880859375,-1.9294475165618956,8.460418346640468,-4.556522083821297,1.6897265135593787e+18,1.54837880859375,2.1651567935943605,0.8641553282737732,0.3735030829906464,1.6897265135618854e+18,1.5508854003906252,2.143336772918701,0.8819617629051208,0.3602545320987701,,,,,,,,,,,,,1.6897265135593787e+18,1.54837880859375,2.830846405029297,50.88493118286133,-19.10152816772461,1.689726513562351e+18,1.5513509765625,32.26846618652344,63.264163208007815,61.81840209960937,1.6897265135593787e+18,1.54837880859375,-2.393490254879557,-0.5972132906247937,-0.5731313076636816,-1.1684247349552224,0.5194365611858972,0.21156318575904093,-1.04122833362018
1.6,1.6897265136094835e+18,1.59848330078125,0.46671074294179676,-1.2436485293370485,-2.7257927448689934,1.6897265136069793e+18,1.595979345703125,-0.1957427978515625,0.7685760498046875,-0.640826416015625,1.6897265136094835e+18,1.59848330078125,-2.3135381946752966,8.83515345964849,-3.556562425408065,1.6897265136094835e+18,1.59848330078125,2.0159873247146605,0.9743396639823914,0.5456791460514069,1.6897265136119895e+18,1.6009895507812502,1.9895628690719604,0.9754911899566651,0.5437442481517791,,,,,,,,,,,,,1.6897265136094835e+18,1.59848330078125,0.91866455078125,52.52407379150391,-13.797332763671875,1.6897265136143583e+18,1.60335830078125,30.545431518554686,64.68369140625,67.05361938476562,1.6897265136094835e+18,1.59848330078125,-2.2506855325597224,-0.5654550931645288,-0.5626740075659673,-0.9914519679339587,0.5488894781528437,0.24917861248280807,-1.1223520486371388
1.65,1.689726513659588e+18,1.6485879394531249,-0.044637072558105,-0.9355470412832497,-3.0567381082502005,1.689726513657084e+18,1.6460839843750001,-0.275262451171875,0.8332244873046875,-0.604052734375,1.689726513659588e+18,1.6485879394531249,-2.63671885695219,9.00053480979383,-2.8634639580509065,1.689726513659588e+18,1.6485879394531249,0.5076811440289021,-0.2885080844163895,0.5367388129234314,1.6897265136620946e+18,1.6510945312499998,0.40349548012018205,-0.3893419474363327,0.5428919434547425,,,,,,,,,,,,,1.689726513659588e+18,1.6485879394531249,-0.8641166687011719,53.40725173950195,-9.760435485839844,1.689726513661164e+18,1.650164123535156,28.87939453125,65.3853874206543,69.98698043823242,1.689726513659588e+18,1.6485879394531249,-2.1055614880288505,-0.5406101472210375,-0.5557680432040053,-0.8265160535697088,0.5705589539850047,0.270722976163754,-1.162513075365323
1.7,1.6897265137096927e+18,1.6986926757812502,1.0967675892612339,-0.6957980232524872,-2.4284650473815197,1.6897265137071887e+18,1.696188623046875,-0.1511016845703125,0.82801513671875,-0.565545654296875,1.6897265137096927e+18,1.6986926757812502,-2.7322168157932163,8.86274943948686,-3.18105954289794,1.6897265137096927e+18,1.6986926757812502,-1.0727962136268616,-0.9473938271403313,0.4198125720024109,1.6897265137121992e+18,1.7011991210937498,-1.0552699208259582,-0.8832198441028595,0.376673873141408,,,,,,,,,,,,,1.6897265137096927e+18,1.6986926757812502,-1.9457664489746094,53.33949966430664,-10.781291198730468,1.689726513707973e+18,1.696973291015625,28.083953857421875,65.14132385253906,68.40005798339844,1.6897265137096927e+18,1.6986926757812502,-2.0966356560598656,-0.5480142702836643,-0.5541623734033886,-0.8602556797287371,0.5763670754698849,0.24549179476217228,-1.1287340579718412
1.75,1.6897265137597972e+18,1.7487971679687502,3.945239320720136,-5.139079161627889,-1.8487279954317208,1.6897265137572933e+18,1.746293310546875,0.167364501953125,0.3851593017578125,-0.54896240234375,1.6897265137597972e+18,1.7487971679687502,-2.5559438939207793,8.8544010640496,-3.3477968669229745,1.6897265137597972e+18,1.7487971679687502,0.5120431423187256,-0.09877032041549684,-1.0560993790626525,1.6897265137623035e+18,1.7513036132812498,0.5165825679898262,-0.16868163347244264,-1.1350640177726745,,,,,,,,,,,,,1.6897265137597972e+18,1.7487971679687502,-1.0880767822265625,53.100312042236325,-11.670033264160157,1.689726513759981e+18,1.7489809570312498,29.396649169921876,64.94306640625,67.82171020507812,1.6897265137597972e+18,1.7487971679687502,-2.146865333659259,-0.5578350336172191,-0.5528807716145006,-0.919114032422111,0.5697533428216378,0.2417410342572488,-1.1267522863663435
1.8,1.6897265138099016e+18,1.79890166015625,8.336063886505961,2.7949939406758544,-3.971250544811189,1.6897265138073976e+18,1.7963976074218748,0.6604339599609375,1.2203643798828125,-0.7289581298828125,1.6897265138099016e+18,1.79890166015625,-1.5179460059186816,9.070100747259854,-3.375117829212248,1.6897265138099016e+18,1.79890166015625,0.13928745724260802,-2.3069525837898253,-2.5112470149993897,1.6897265138124083e+18,1.8014083496093751,0.15187959801405668,-2.2426101922988892,-2.571433353424072,,,,,,,,,,,,,1.6897265138099016e+18,1.79890166015625,3.3080596923828125,52.78803482055664,-10.652088928222657,1.6897265138119877e+18,1.8009875976562502,35.50938110351562,64.315478515625,69.17677307128906,1.6897265138099016e+18,1.79890166015625,-2.3311293479925674,-0.5993491742305467,-0.5196971535544371,-1.1529435435971749,0.5540958931202634,0.2510430663339432,-1.1811107265558296
1.85,1.6897265138600064e+18,1.8490062011718749,-2.963344998120889,8.82238598182082,-4.5443319382640714,1.6897265138575022e+18,1.8465022460937501,-0.30819091796875,1.8841156005859374,-0.8167510986328125,1.6897265138600064e+18,1.8490062011718749,0.016292459002993986,9.222831523955463,-3.3085298554176092,1.6897265138600064e+18,1.8490062011718749,0.44429831206798553,0.13046562671661377,-3.061080312728882,1.6897265138625126e+18,1.85151259765625,0.42701859772205353,0.20198127031326293,-3.0414930820465087,,,,,,,,,,,,,1.6897265138600064e+18,1.8490062011718749,11.171407318115234,51.27171630859375,-8.959507751464844,1.6897265138639946e+18,1.85299462890625,43.27513732910156,62.51974182128906,70.77774047851562,1.6897265138600064e+18,1.8490062011718749,-2.7332734513547132,-0.6500965145091642,-0.481290803620794,-1.5783773269759378,0.517021137580809,0.27912444832288064,-1.2240967979612467
1.9,1.6897265139101107e+18,1.89911064453125,-2.306818180318326,8.842680348021982,-1.4108560427701473,1.6897265139076065e+18,1.89660654296875,-0.093768310546875,1.8043914794921876,-0.4470245361328125,1.6897265139101107e+18,1.89911064453125,1.1647241187692434,9.055413582642078,-3.560194878239334,1.6897265139101107e+18,1.89911064453125,-1.7358122944831849,-0.43951899856328963,-1.9228458881378174,1.6897265139126175e+18,1.901617333984375,-1.7858253717422485,-0.4944504201412201,-1.8613178491592408,,,,,,,,,,,,,1.6897265139101107e+18,1.89911064453125,17.391507720947267,48.52314758300781,-9.337803649902344,1.689726513910802e+18,1.8998018188476562,48.35708236694336,59.77893829345703,69.53266525268555,1.6897265139101107e+18,1.89911064453125,-3.069485209702552,-0.6836693958545332,-0.47225020273912366,-1.8831023736845904,0.46625047523487073,0.30302093183798257,-1.1781537327645175
1.95,1.6897265139602153e+18,1.94921533203125,-2.410006635209769,2.7192022605627773,6.329620954677462,1.6897265139577114e+18,1.946711474609375,-0.06947021484375,1.1157379150390625,0.2018707275390625,1.6897265139602153e+18,1.94921533203125,2.000328715957999,8.611147837290167,-4.235981326980888,1.6897265139602153e+18,1.94921533203125,-1.2629838109016418,-0.8606728911399841,-1.2267674922943115,1.6897265139627218e+18,1.9517215332031248,-1.2128907442092896,-0.8682592988014222,-1.1633351683616637,1.689726513956832e+18,1.94583203125,352.122314453125,0.949999988079071,57.13194718055581,49.27808783953011,371.3037433624267,156.09375,11.176528125575889,12.0,-122.9104905390394,0.8500000238418579,1.6897265139602153e+18,1.94921533203125,21.113819122314453,45.92507476806641,-11.896897888183593,1.689726513957609e+18,1.9466089843749999,51.42904357910156,57.58701171875,67.36238403320313,1.6897265139602153e+18,1.94921533203125,1.857660940475439,-0.7220458210709505,-0.4662175354506723,-2.010713213452763,0.424923907442963,0.2837707592951918,-1.0723963848216567
2.0,1.6897265140103196e+18,1.9993196777343747,-5.087569163786471,-0.05599322228312492,3.674289167191982,1.6897265140078157e+18,1.996815625,-0.261370849609375,0.8454925537109375,-0.103045654296875,1.6897265140103196e+18,1.9993196777343747,2.382988922876865,8.391914719256757,-4.47954867580384,1.6897265140103196e+18,1.9993196777343747,-0.4452222228050232,-0.8435171723365784,0.43368359506130216,1.6897265140128264e+18,2.00182646484375,-0.42438083589076997,-0.7959656774997711,0.49915782138705256,,,,,,,,,,,,,1.6897265140103196e+18,1.9993196777343747,22.244937133789062,44.516072845458986,-12.09248352050781,1.6897265140096195e+18,1.9986194335937497,52.29697265625,56.331573486328125,67.32901000976562,1.6897265140103196e+18,1.9993196777343747,1.859632101876798,-0.7433716136225345,-0.4538245165914202,-2.0596949413403665,0.4153635829838181,0.262375750149012,-1.0269816700268852
2.05,1.6897265140604247e+18,2.049424658203125,-1.9201571256472172,-3.758512341755032,-0.6492696132159231,1.6897265140579208e+18,2.04692060546875,0.0254302978515625,0.4494720458984375,-0.5192901611328125,1.6897265140604247e+18,2.049424658203125,2.1687350545607504,8.333023203635811,-4.6903386089494825,1.6897265140604247e+18,2.049424658203125,-1.144730919599533,-0.7599269658327102,1.1411797285079956,1.6897265140629304e+18,2.051930615234375,-1.1777984499931335,-0.7982889339327812,1.1351341009140015,,,,,,,,,,,,,1.6897265140604247e+18,2.049424658203125,20.997699737548828,44.88514022827148,-12.123309326171874,1.689726514061629e+18,2.050628857421875,50.46739196777344,56.84201354980469,66.91409606933594,1.6897265140604247e+18,2.049424658203125,-3.0575621489320217,-0.7464639864664958,-0.45293266725025116,-2.004314090508944,0.42925584466915945,0.23063902785901327,-1.0155509165955032
2.1,1.6897265141105288e+18,2.099528662109375,-3.3591783848980072,-4.333857939199805,6.457362017736434,1.6897265141080246e+18,2.097024658203125,-0.1357269287109375,0.403814697265625,0.1576324462890625,1.6897265141105288e+18,2.099528662109375,2.087169262638688,8.247929442170262,-4.876650402016342,1.6897265141105288e+18,2.099528662109375,-0.19341670870780944,-2.1288368701934814,1.080706775188446,1.6897265141130358e+18,2.102035693359375,-0.13177054226398469,-2.146870255470276,1.102373433113098,,,,,,,,,,,,,1.6897265141105288e+18,2.099528662109375,19.109085083007812,45.44198150634766,-12.726390075683593,1.689726514113638e+18,2.102637939453125,48.79002685546875,57.54342346191406,67.07661743164063,1.6897265141105288e+18,2.099528662109375,-2.927918041119397,-0.7565372705168089,-0.43787980025866957,-1.9752535710435992,0.44906756471465314,0.18414496079598264,-0.999245940783112
2.15,1.6897265141606336e+18,2.14963359375,-3.9909176021203394,-3.306857070673704,6.2891464378523825,1.6897265141581297e+18,2.1471296875,-0.1987457275390625,0.5290374755859375,0.184405517578125,1.6897265141606336e+18,2.14963359375,1.9659319408375022,8.454420801339149,-4.559694868638515,1.6897265141606336e+18,2.14963359375,0.8042030572891236,-0.9469358369708061,1.4568910121917724,1.6897265141631396e+18,2.152139599609375,0.8619921088218689,-0.8265171885490418,1.4466654300689696,,,,,,,,,,,,,1.6897265141606336e+18,2.14963359375,17.295470428466796,46.79354553222656,-10.396372985839843,1.689726514160447e+18,2.1494469604492186,46.95624542236328,58.93302536010742,69.5120620727539,1.6897265141606336e+18,2.14963359375,-2.818791929694648,-0.7594443389309075,-0.40405164294758844,-1.9774814609831122,0.4861310890153566,0.15313078633424215,-1.039719972044759
2.2,1.689726514210738e+18,2.199737890625,2.182111224258244,0.06760849056184286,2.5296650172564386,1.6897265142082337e+18,2.197233740234375,0.4376373291015625,0.952276611328125,-0.2145843505859375,1.689726514210738e+18,2.199737890625,1.4997819005183874,8.82966491600871,-3.9872552217683195,1.689726514210738e+18,2.199737890625,1.5220295190811157,-0.11106428802013397,0.7918632984161378,1.6897265142132447e+18,2.202244677734375,1.5404348850250245,-0.12253305315971375,0.7190306596457958,,,,,,,,,,,,,1.689726514210738e+18,2.199737890625,14.273960876464844,48.205901336669925,-7.326083374023438,1.6897265142072545e+18,2.1962544433593747,44.14979553222656,60.151544189453126,72.33662414550781,1.689726514210738e+18,2.199737890625,-2.7457505925021874,-0.7421931424610461,-0.386696137314473,-1.9302923074452365,0.5233343223307779,0.15991948685871443,-1.1212652404772516
2.25,1.6897265142608425e+18,2.249842578125,8.254009989579917,2.934865937224626,-14.575477916035652,1.6897265142583386e+18,2.2473387207031252,0.962091064453125,1.2417236328125,-1.8511474609375,1.6897265142608425e+18,2.249842578125,1.3831903002442418,9.160761027585268,-3.206556796891391,1.6897265142608425e+18,2.249842578125,1.5765181481838226,0.5599795818328858,-0.19681158289313314,1.6897265142633487e+18,2.25234873046875,1.4951294749975204,0.5055401839781553,-0.17452881932258604,,,,,,,,,,,,,1.6897265142608425e+18,2.249842578125,13.541729736328126,48.64975280761719,-3.146928405761719,1.689726514259265e+18,2.24826484375,43.625955200195314,60.50593872070313,76.56164245605468,1.6897265142608425e+18,2.249842578125,-2.807719566789649,-0.7302313406389733,-0.367111375883592,-1.979296244819275,0.5428517473090797,0.19261871848762016,-1.2065171916178303
2.3,1.6897265143109468e+18,2.2999468750000003,0.28942580909565085,3.0389725591003893,-1.5453908283963798,1.6897265143084426e+18,2.297442724609375,0.1082183837890625,1.2389312744140626,-0.3608734130859375,1.6897265143109468e+18,2.2999468750000003,1.2843729584960637,9.242922944156527,-3.012390900097191,1.6897265143109468e+18,2.2999468750000003,-0.42336457073688505,-0.5802585795521736,0.9271762311458588,1.6897265143134536e+18,2.302453662109375,-0.4228608101606369,-0.4909401088953018,0.9753196716308594,,,,,,,,,,,,,1.6897265143109468e+18,2.2999468750000003,12.642765045166016,48.76575469970703,-1.5326492309570312,1.6897265143112745e+18,2.3002744140625,42.367645263671875,60.66988525390625,77.74210815429687,1.6897265143109468e+18,2.2999468750000003,-2.777413460182376,-0.7276813337510757,-0.3555231725996532,-1.9739210583760094,0.555056776632873,0.1894529485014824,-1.2300825578065537
2.35,1.6897265143610516e+18,2.3500516601562498,2.9959480363054576,7.255264441583752,6.7492107577431195,1.6897265143585477e+18,2.347547607421875,0.427960205078125,1.6880035400390625,0.3664581298828125,1.6897265143610516e+18,2.3500516601562498,1.0422619313482193,9.309169615619778,-2.894994939250648,1.6897265143610516e+18,2.3500516601562498,1.0380531072616577,-0.902471199631691,-0.03239251971244812,1.689726514363558e+18,2.3525580078125,1.0868929624557495,-0.8027740091085434,-0.10406876504421234,,,,,,,,,,,,,1.6897265143610516e+18,2.3500516601562498,10.680966186523438,49.18085708618164,-1.4695205688476562,1.689726514363282e+18,2.3522818359375,40.63310546875,60.928829956054685,78.642431640625,1.6897265143610516e+18,2.3500516601562498,-2.681432466478066,-0.7226179385743075,-0.34383830415179933,-1.9184273916345234,0.5730933613680315,0.17592440729298614,-1.2512361289081713
2.4,1.6897265144111562e+18,2.4001562499999998,-5.4631632901635765,-4.078402934897541,1.9322288762956858,1.6897265144086523e+18,2.397652197265625,-0.4622894287109375,0.50645751953125,-0.0281005859375,1.6897265144111562e+18,2.4001562499999998,1.0981741973496228,9.429502915866374,-2.4575465019242464,1.6897265144111562e+18,2.4001562499999998,0.9490066051483155,2.473651123046875,-0.3475707769393921,1.6897265144136627e+18,2.4026626953125,0.9710932493209838,2.424286198616028,-0.3489993214607238,,,,,,,,,,,,,1.6897265144111562e+18,2.4001562499999998,11.467003631591798,48.47638854980469,0.6275238037109375,1.6897265144100895e+18,2.399089416503906,41.846405029296875,60.20709991455078,80.07761764526367,1.6897265144111562e+18,2.4001562499999998,-2.806538901121006,-0.7148563802140232,-0.34400400385066654,-1.9909087622785975,0.5705891557056314,0.21137458851256663,-1.2927245380225267
2.45,1.6897265144612605e+18,2.450260595703125,-3.7927051187360283,0.3770069157844782,3.943265507203042,1.6897265144587566e+18,2.447756689453125,-0.271148681640625,1.0552947998046875,0.2029144287109375,1.6897265144612605e+18,2.450260595703125,1.2123542210504412,9.548634672916531,-1.8534866173617541,1.6897265144612605e+18,2.450260595703125,1.8089922189712524,-0.5733245402574539,-0.6953857600688934,1.689726514463767e+18,2.452766943359375,1.8115771055221557,-0.7283829126507044,-0.6638876408338547,,,,,,,,,,,,,1.6897265144612605e+18,2.450260595703125,13.005171966552734,47.99432907104492,2.4967926025390623,1.6897265144568975e+18,2.4458974609375,43.21662902832031,59.78297729492188,82.17719421386718,1.6897265144612605e+18,2.450260595703125,-1.7790422802990853,-0.7043110459504158,-0.3406829496886533,-2.15792846179336,0.5674178697403194,0.2562719665277643,-1.3414505413718047
2.5,1.6897265145113654e+18,2.500365283203125,-5.450650722332001,0.00944809492051606,-0.591670270910412,1.6897265145088612e+18,2.497861181640625,-0.41661376953125,0.9510040283203125,-0.1767913818359375,1.6897265145113654e+18,2.500365283203125,1.2120760763092338,9.67398983452618,-1.0230391106752306,1.6897265145113654e+18,2.500365283203125,1.074413239955902,-2.442240333557129,1.4682519376277923,1.6897265145138716e+18,2.5028716796875,1.0632964611053466,-2.4245937347412108,1.557699692249298,,,,,,,,,,,,,1.6897265145113654e+18,2.500365283203125,12.825098419189453,47.495689392089844,7.313995361328125,1.689726514508907e+18,2.49790693359375,42.671868896484376,59.35394287109375,87.07827758789062,1.6897265145113654e+18,2.500365283203125,3.048145902736441,-0.7048391403959833,-0.28891216181550133,-2.4428188008817355,0.5952429720311553,0.2547730319733815,-1.4082501332840338
2.55,1.6897265145614697e+18,2.5504695800781247,-0.09781202985662966,-2.416139468102455,-1.5464856671218574,1.6897265145589658e+18,2.54796572265625,0.049267578125,0.7599029541015625,-0.187493896484375,1.6897265145614697e+18,2.5504695800781247,0.4125896693794708,9.787137957895993,-0.3203032354572182,1.6897265145614697e+18,2.5504695800781247,1.6140700817108153,-0.7707534730434418,1.6754939079284668,1.689726514563976e+18,2.552976123046875,1.6479762315750122,-0.7083784878253937,1.646568274497986,,,,,,,,,,,,,1.6897265145614697e+18,2.5504695800781247,8.072114562988281,47.89040298461914,11.657521057128907,1.6897265145609144e+18,2.5499144042968753,37.7735107421875,59.7406982421875,91.38502502441406,1.6897265145614697e+18,2.5504695800781247,1.659773015444878,-0.6811060637132034,-0.2501138261875873,-1.4037267936163838,0.6451322157231647,0.2388224135200229,-1.5165799263627453
2.6,1.6897265146115743e+18,2.600574267578125,-0.4482564005037024,-2.166111048119664,0.7572932039527593,1.68972651460907e+18,2.5980701171874996,-0.098876953125,0.77147216796875,0.1545135498046875,1.6897265146115743e+18,2.600574267578125,-0.31525454545274373,9.78143828494966,0.5403343144616484,1.6897265146115743e+18,2.600574267578125,1.7284983158111573,0.3351179867982864,1.5573746681213378,1.6897265146140808e+18,2.6030806640625,1.725653338432312,0.3997716955840588,1.5949293375015259,,,,,,,,,,,,,1.6897265146115743e+18,2.600574267578125,4.890821838378907,47.46721572875977,15.422036743164062,1.6897265146129252e+18,2.6019252441406246,34.16259765625,59.034786987304685,95.832763671875,1.6897265146115743e+18,2.600574267578125,0.4220374565074298,-0.6474795086596942,-0.2250848066952543,1.1137071797456284,0.682138264069569,0.2539940124642874,-1.5065232457463715
2.65,1.6897265146616786e+18,2.6506788085937503,0.5640521523054689,-0.189881818960309,-0.0783871326598525,1.689726514659175e+18,2.64817470703125,-0.057366943359375,0.9860015869140625,0.10770263671875,1.6897265146616786e+18,2.6506788085937503,-1.2311366629317402,9.636504095027444,1.293654201643169,1.6897265146616786e+18,2.6506788085937503,1.238827073574066,-0.5337476164102555,2.103207755088806,1.6897265146641853e+18,2.6531854003906252,1.2069348573684693,-0.5779052540659905,2.12581946849823,,,,,,,,,,,,,1.6897265146616786e+18,2.6506788085937503,1.197396469116211,46.43296737670899,19.102488708496093,1.6897265146649367e+18,2.653936669921875,29.783148193359374,58.0427734375,99.26543273925782,1.6897265146616786e+18,2.6506788085937503,0.11947038104707604,-0.603110352395311,-0.2133846619356834,0.8215373263912941,0.7190713487517015,0.27080813054266023,-1.3872039801335299
2.7,1.6897265147117832e+18,2.700783251953125,2.4598199413619932,2.6957427083289622,-0.9273157163543999,1.6897265147092792e+18,2.69827939453125,0.0221466064453125,1.2256683349609374,0.0875,1.6897265147117832e+18,2.700783251953125,-2.2745386311605573,9.379921547999977,1.712523902966827,1.6897265147117832e+18,2.700783251953125,0.6998110771179199,0.29374740421772005,1.9570630311965942,1.6897265147142897e+18,2.7032896484375,0.6829859137535095,0.3830391666851937,1.9091906309127809,,,,,,,,,,,,,1.6897265147117832e+18,2.700783251953125,-4.067559051513672,45.60218887329101,21.211579895019533,1.6897265147117489e+18,2.7007488403320314,25.205223083496094,57.286216735839844,100.89017105102539,1.6897265147117832e+18,2.700783251953125,-0.04086389543781906,-0.5591843346168547,-0.2053193956871128,0.6477614582280873,0.7574580925135672,0.2668160406632641,-1.276005403642341
2.75,1.6897265147618877e+18,2.75088779296875,3.194412185589373,1.1191167252612113,-1.3770153817754982,1.6897265147593836e+18,2.748383740234375,0.023919677734375,1.041748046875,0.0653900146484375,1.6897265147618877e+18,2.75088779296875,-2.949216008068621,9.11226499996364,2.0981492140755056,1.6897265147618877e+18,2.75088779296875,0.4320458173751831,1.0347750782966614,1.3146270990371705,1.6897265147643945e+18,2.753394384765625,0.41117529571056366,1.0121470451354981,1.2687299370765686,,,,,,,,,,,,,1.6897265147618877e+18,2.75088779296875,-6.818148040771485,44.5634033203125,22.637234497070313,1.6897265147585582e+18,2.7475580078124997,23.125946044921875,56.333526611328125,102.13250732421874,1.6897265147618877e+18,2.75088779296875,-0.11742286868460936,-0.5192462286901227,-0.21688710443245643,0.6184005931480747,0.7767215617153612,0.28263736596445865,-1.1927048628165386
2.8,1.6897265148119926e+18,2.80099248046875,1.5661488373604415,2.595107561956048,-3.2687356636199354,1.6897265148094886e+18,2.798488671875,-0.1844207763671875,1.1859161376953125,-0.1155426025390625,1.6897265148119926e+18,2.80099248046875,-3.2381694942513106,8.980708061104417,2.2421021378754076,1.6897265148119926e+18,2.80099248046875,-0.15946801826357843,-0.41344937682151794,0.2761835068464279,1.6897265148144988e+18,2.8034987304687498,-0.20104325078427793,-0.5011844910681248,0.25879469811916345,,,,,,,,,,,,,1.6897265148119926e+18,2.80099248046875,-8.015303039550782,44.14791030883789,23.02567901611328,1.6897265148105682e+18,2.799568408203125,21.94646301269531,55.986026000976565,102.37665710449218,1.6897265148119926e+18,2.80099248046875,-0.15594434489460163,-0.5010409194767579,-0.22486552251546202,0.6056506653137325,0.7839218013031393,0.2895538491334063,-1.1574443519470594
2.85,1.689726514862097e+18,2.85109677734375,1.7461787736788392,2.41039338411808,-3.373208196198642,1.6897265148595927e+18,2.848592724609375,-0.15189208984375,1.16607666015625,-0.1476318359375,1.689726514862097e+18,2.85109677734375,-3.367113094193935,9.021380613945723,1.8511244767272472,1.689726514862097e+18,2.85109677734375,-1.222598707675934,0.4182764619588852,-0.05442054234445095,1.6897265148646036e+18,2.8536036132812503,-1.2883246898651124,0.6386526346206665,-0.08685372434556485,,,,,,,,,,,,,1.689726514862097e+18,2.85109677734375,-9.131351089477539,44.61537399291992,21.639036560058592,1.689726514862578e+18,2.8515779296875,21.063192749023436,56.63092956542969,100.55767517089843,1.689726514862097e+18,2.85109677734375,-0.23978619271267002,-0.5055301692307304,-0.23254401818929268,0.5020852193604325,0.7858193602235887,0.2697202314353717,-1.1679778477804645
2.9,1.6897265149122017e+18,2.901201708984375,6.505542871155143,5.067594589511155,-1.5078594085119665,1.6897265149096975e+18,2.89869775390625,0.4080810546875,1.4633941650390625,-0.000537109375,1.6897265149122017e+18,2.901201708984375,-2.900473312209546,9.23796923804581,1.5317115256468952,1.6897265149122017e+18,2.901201708984375,-1.349271786212921,3.138578772544861,-1.4195871353149414,1.689726514914708e+18,2.903707763671875,-1.3178226828575135,3.0421388387680053,-1.5437127351760864,,,,,,,,,,,,,1.6897265149122017e+18,2.901201708984375,-6.241168594360351,46.01382217407227,18.95520782470703,1.6897265149145866e+18,2.903586572265625,25.548602294921874,58.346737670898435,97.54791564941407,1.6897265149122017e+18,2.901201708984375,-0.38449894112445476,-0.5113746534124178,-0.2882112502369458,0.4880537150301265,0.751211011086719,0.3005404127014355,-1.2294676946435106
2.95,1.6897265149623058e+18,2.951305810546875,9.33403669656396,3.082170597218275,-0.4051313910894095,1.6897265149598019e+18,2.94880166015625,0.7587646484375,1.2994384765625,0.0923126220703125,1.6897265149623058e+18,2.951305810546875,-1.4188660092593728,9.614489948522447,1.15358862605758,1.6897265149623058e+18,2.951305810546875,-1.4564489364624023,0.8856487482786178,-4.040475130081177,1.6897265149648125e+18,2.953812548828125,-1.4728941917419434,0.8882761269807815,-4.079297208786011,1.689726514960636e+18,2.949635986328125,351.02276611328125,0.7699999809265137,62.77113235933135,49.27811026112109,370.204195022583,46.7578125,7.697690177965574,8.0,-122.91046690207246,0.699999988079071,1.6897265149623058e+18,2.951305810546875,1.3382659912109376,47.139260864257814,16.068820190429687,1.6897265149613957e+18,2.9503958129882815,33.17827224731445,59.06794357299805,94.86351013183594,1.6897265149623058e+18,2.951305810546875,-0.23524257466182247,-0.5585258745753717,-0.3126772509493262,0.7282617531154829,0.6885337411359689,0.33936060844491145,-1.3811225537238427
3.0,1.689726515012411e+18,3.001410693359375,-6.447871603431105,5.1634541920453305,3.7499681076455857,1.6897265150099067e+18,2.99890673828125,-0.636663818359375,1.530364990234375,0.4475006103515625,1.689726515012411e+18,3.001410693359375,0.4696396031211876,9.773940388861893,0.42432262200752274,1.689726515012411e+18,3.001410693359375,-1.455926775932312,0.53689906001091,-3.1269001007080077,1.6897265150149166e+18,3.00391669921875,-1.4294811725616454,0.5568141490221024,-3.033661699295044,,,,,,,,,,,,,1.689726515012411e+18,3.001410693359375,10.647064208984375,46.258715057373045,12.197825622558593,1.6897265150082043e+18,2.9972041503906253,41.376763916015626,57.98411865234375,91.26855773925782,1.689726515012411e+18,3.001410693359375,1.2903642099804502,-0.6274030366262148,-0.31738217891292847,2.2912246277748487,0.612355637778255,0.36059258415296924,-1.4908837582692722
3.05,1.689726515062515e+18,3.051514794921875,-3.385554262969941,2.9457427205479143,3.597801292282194,1.6897265150600105e+18,3.0490106933593752,-0.139422607421875,1.2652374267578126,0.316522216796875,1.689726515062515e+18,3.051514794921875,1.5877781931054593,9.668677816497086,-0.26600025845449304,1.689726515062515e+18,3.051514794921875,-1.2531673908233643,1.1765437006950379,-1.7542343616485596,1.6897265150650217e+18,3.0540215332031253,-1.2569166660308837,1.1526211023330688,-1.7456150770187377,,,,,,,,,,,,,1.689726515062515e+18,3.051514794921875,16.457063293457033,44.81790542602539,8.414215087890625,1.6897265150602143e+18,3.049214404296875,46.876318359375,56.54834899902344,87.4927734375,1.689726515062515e+18,3.051514794921875,2.244586439126207,-0.664903397549652,-0.3316350626463521,-1.7354031008760966,0.5557136436940746,0.37255393086974004,-1.4049944075339122
3.1,1.6897265151126195e+18,3.101619775390625,-3.6763340585708617,0.10636346089184287,1.6130496462929247,1.6897265151101158e+18,3.0991157714843753,-0.15955810546875,0.964776611328125,0.0542724609375,1.6897265151126195e+18,3.101619775390625,2.3610793765640254,9.466313181869388,-0.9543148555042593,1.6897265151126195e+18,3.101619775390625,-1.3828035354614259,0.3285681366920471,-1.355421817302704,1.6897265151151258e+18,3.10412578125,-1.395365262031555,0.3218901038169861,-1.3003601789474488,,,,,,,,,,,,,1.6897265151126195e+18,3.101619775390625,19.850904846191405,43.449266815185545,4.861474609375,1.6897265151122255e+18,3.101225537109375,50.139706420898435,55.194766235351565,83.98811950683594,1.6897265151126195e+18,3.101619775390625,2.4430547478880555,-0.6930029424568687,-0.34560673952215126,-2.76163179024843,0.5099495960994733,0.3742480639397143,-1.3077501396180178
3.15,1.6897265151627238e+18,3.151723779296875,-3.817693078806996,-1.4536571905249356,-0.4009306368508935,1.6897265151602196e+18,3.149219775390625,-0.09599609375,0.7800384521484375,-0.2147064208984375,1.6897265151627238e+18,3.151723779296875,2.7876771879217026,9.238493437276482,-1.7260481320589782,1.6897265151627238e+18,3.151723779296875,-1.9640709400177,-0.6159423783421516,-0.5764771163463592,1.6897265151652306e+18,3.15423076171875,-1.979578161239624,-0.6882439032196999,-0.5477666795253754,,,,,,,,,,,,,1.6897265151627238e+18,3.151723779296875,21.43604736328125,42.82651214599609,2.0484619140625,1.6897265151642342e+18,3.153234375,51.748974609375,54.4478515625,80.44468383789062,1.6897265151627238e+18,3.151723779296875,2.623193821948955,-0.7193384812331655,-0.35761260528875355,-2.59008718262495,0.4795126207243686,0.35283236175094057,-1.2294227258390082
3.2,1.6897265152128287e+18,3.2018287109375003,-4.876963471940458,-4.469468771172762,2.7546125381878017,1.6897265152103247e+18,3.1993248046875,-0.18636474609375,0.448760986328125,0.04931640625,1.6897265152128287e+18,3.2018287109375003,3.0597344259089234,9.013753655424713,-2.3552297445268926,1.6897265152128287e+18,3.2018287109375003,-1.3276426553726197,-1.8760751485824585,0.07459857985377312,1.689726515215335e+18,3.204334765625,-1.251770830154419,-1.9123204469680786,0.10847347900271416,,,,,,,,,,,,,1.6897265152128287e+18,3.2018287109375003,21.911864471435546,42.22212295532226,-0.5393157958984375,1.6897265152110418e+18,3.2000418090820313,52.08912658691406,54.04861831665039,78.62372207641602,1.6897265152128287e+18,3.2018287109375003,2.8081637815283687,-0.7498033558264001,-0.3516548733225176,-2.485840886241642,0.4693632629454868,0.3058668778053206,-1.1660540471105716
3.25,1.6897265152629327e+18,3.251932763671875,-4.898230541018248,-5.876324696843028,3.7449835241660474,1.6897265152604288e+18,3.249428662109375,-0.183233642578125,0.3232757568359375,0.1578521728515625,1.6897265152629327e+18,3.251932763671875,3.094857995547056,9.021527796557546,-2.2770983694198725,1.6897265152629327e+18,3.251932763671875,0.06124376282095909,-2.3857378005981444,1.021904420852661,1.6897265152654397e+18,3.2544397460937504,0.11344741508364678,-2.3683574199676514,1.0797007918357848,,,,,,,,,,,,,1.6897265152629327e+18,3.251932763671875,20.888272094726563,42.572547149658206,0.36447601318359374,1.6897265152578493e+18,3.2468494140625,50.81635437011719,54.476071166992185,79.93855895996094,1.6897265152629327e+18,3.251932763671875,2.904342980821533,-0.7666660192122701,-0.32009479135521396,-2.507729673427489,0.4893915674867696,0.2643938367223732,-1.1681133977165747
3.3,1.6897265153130378e+18,3.3020377441406255,-1.6765287235128876,-4.146362956923842,3.372245810133367,1.689726515310534e+18,3.2995337890625,0.13863525390625,0.5514801025390625,0.1367828369140625,1.6897265153130378e+18,3.3020377441406255,2.6427981768658753,9.265345203844905,-1.8128124570852517,1.6897265153130378e+18,3.3020377441406255,0.6498569250106812,-0.8732494592666626,1.5238017559051513,1.6897265153155436e+18,3.3045437011718746,0.6428092181682586,-0.7943682074546814,1.5085106134414672,,,,,,,,,,,,,1.6897265153130378e+18,3.3020377441406255,18.002952575683594,44.0057991027832,3.194921875,1.6897265153098586e+18,3.298858642578125,47.783233642578125,55.97957763671875,82.78816528320313,1.6897265153130378e+18,3.3020377441406255,2.9640692130265363,-0.7596372551436,-0.28930161864460235,-2.5402649570552294,0.530489475434389,0.2401274283339455,-1.2377860915683971
3.35,1.689726515363142e+18,3.3521417968750002,10.629407814353703,5.94229301898241,-3.510930058202297,1.6897265153606377e+18,3.349637646484375,1.3224517822265625,1.6055145263671875,-0.553692626953125,1.689726515363142e+18,3.3521417968750002,2.224552101946324,9.412261273686289,-1.6214302288863063,1.689726515363142e+18,3.3521417968750002,-0.16704430505633353,0.11746487915515899,0.20427515301853422,1.689726515365649e+18,3.3546487304687505,-0.21265847086906434,0.19524597972631455,0.1489959813654423,,,,,,,,,,,,,1.689726515363142e+18,3.3521417968750002,15.40076904296875,45.014714050292966,4.37225341796875,1.689726515361868e+18,3.35086796875,45.37279052734375,56.884500122070314,83.75587768554688,1.689726515363142e+18,3.3521417968750002,3.0123381962692677,-0.7472836205836277,-0.2841588657553338,-2.5117821249564014,0.5530164321059956,0.2344923955080227,-1.286248738342683
3.4,1.6897265154132467e+18,3.402246826171875,4.696777292920947,2.4830925927215812,-3.1907112267926334,1.6897265154107428e+18,3.39974267578125,0.670062255859375,1.1682647705078124,-0.4928680419921875,1.6897265154132467e+18,3.402246826171875,2.117928207326531,9.378739410930276,-1.9250992874506114,1.6897265154132467e+18,3.402246826171875,-0.7473436713218689,0.4471446253359318,0.2826383948326111,1.6897265154157527e+18,3.404752783203125,-0.7485098123550415,0.39611643701791766,0.2773312106728554,,,,,,,,,,,,,1.6897265154132467e+18,3.402246826171875,15.329336547851563,45.09422149658203,3.0224990844726562,1.6897265154138762e+18,3.4028763671875,45.270632934570315,57.004580688476565,82.04510803222657,1.6897265154132467e+18,3.402246826171875,1.8393887931288333,-0.7446179472227256,-0.30218205977812224,-2.4044473556329935,0.5483250017770248,0.23133792959028057,-1.274324849798587
3.45,1.6897265154633508e+18,3.45235078125,-6.732038936702757,1.2278725173431635,2.1730733175738153,1.6897265154608468e+18,3.44984677734375,-0.504974365234375,1.1150634765625,0.0232940673828125,1.6897265154633508e+18,3.45235078125,1.898026045538187,9.379369057909845,-2.1382377710968257,1.6897265154633508e+18,3.45235078125,0.11525960564613343,-0.051099414005875574,0.8324032686650753,1.6897265154658578e+18,3.4548577636718747,0.15910922437906266,-0.0467720841988921,0.799889212846756,,,,,,,,,,,,,1.6897265154633508e+18,3.45235078125,14.425440216064453,45.33002548217773,1.7509674072265624,1.6897265154606828e+18,3.4496827392578124,44.304649353027344,57.21954345703125,81.08728408813477,1.6897265154633508e+18,3.45235078125,-3.075506668657046,-0.7404678236524052,-0.3116848770990083,-2.2954534308886947,0.5532101167590087,0.22012725992694646,-1.274768621707432
3.5,1.6897265155134559e+18,3.5024557617187497,2.5057894315676386,5.038326877068281,0.7446380712322891,1.6897265155109517e+18,3.4999517578125,0.4144134521484375,1.4237823486328125,-0.1206756591796875,1.6897265155134559e+18,3.5024557617187497,1.7530166861009597,9.431240114922522,-2.0365492286004128,1.6897265155134559e+18,3.5024557617187497,0.2080952674150467,0.5179547160863877,-0.18960414379835128,1.6897265155109512e+18,3.4999512329101563,0.149599015712738,0.48618162178900093,-0.27271308237686753,,,,,,,,,,,,,1.6897265155134559e+18,3.5024557617187497,13.37406234741211,45.462808227539064,1.9501876831054688,1.6897265155074916e+18,3.496491650390625,43.437887573242186,57.279476928710935,81.34208374023437,1.6897265155134559e+18,3.5024557617187497,-3.067908377666323,-0.7341968789177257,-0.31236855773786176,-2.2814250422274527,0.5594984783547517,0.2243204405357982,-1.2932201539748795
3.55,1.68972651556356e+18,3.5525599121093747,-5.398245763025284,-4.550578665246963,7.54828678464055,1.6897265155610557e+18,3.55005595703125,-0.4076416015625,0.5166229248046875,0.5905548095703125,1.68972651556356e+18,3.5525599121093747,1.505064224835485,9.525969135217666,-1.7651823401910065,1.68972651556356e+18,3.5525599121093747,1.6243334770202638,2.112030816078186,0.3213084727525711,1.6897265155560458e+18,3.54504580078125,1.3558521628379823,1.9189820528030395,0.3865142047405243,,,,,,,,,,,,,1.68972651556356e+18,3.5525599121093747,13.25681381225586,45.48674392700195,2.04248046875,1.6897265155594995e+18,3.548499560546875,43.31754760742187,57.34757995605469,81.5076171875,1.68972651556356e+18,3.5525599121093747,-0.6202499075970334,-0.7149781734709719,-0.3268428847200506,-2.2783926704327278,0.562501090110222,0.25530782463202895,-1.3318833645096873
3.6,1.6897265156136648e+18,3.6026647460937498,-5.594463214747906,0.8073056274867056,1.8500017855337263,1.6897265156111608e+18,3.6001607910156253,-0.42889404296875,1.1008575439453125,0.0651947021484375,1.6897265156136648e+18,3.6026647460937498,1.327307260337323,9.670738139253853,-0.8997431831503286,1.6897265156136648e+18,3.6026647460937498,2.082356643676758,0.9014430224895478,0.10420240759849549,1.68972651560615e+18,3.59514990234375,2.1935136795043944,1.4247415781021118,-0.0016250085085630194,,,,,,,,,,,,,1.6897265156136648e+18,3.6026647460937498,14.141954040527343,45.258269500732425,4.941340637207031,1.6897265156115067e+18,3.6005066894531246,44.28681640625,57.06596374511719,84.62729187011719,1.6897265156136648e+18,3.6026647460937498,2.764282376779608,-0.6827315203496342,-0.33180732771066973,-2.5600456003537193,0.5676304722856036,0.31824709896612596,-1.4050385739892692
3.65,1.6897265156637686e+18,3.652768505859375,-2.5249489339069275,1.693028256701827,-3.516507887560725,1.6897265156612644e+18,3.6502644531249997,-0.142718505859375,1.147137451171875,-0.374639892578125,1.6897265156637686e+18,3.652768505859375,0.8857888190126045,9.761311208913325,-0.09071613595854956,1.6897265156637686e+18,3.652768505859375,1.15112544298172,-0.46365588903427124,1.732162594795227,1.6897265156562542e+18,3.645254248046875,1.2833608508110046,-0.8354328513145447,1.536744487285614,,,,,,,,,,,,,1.6897265156637686e+18,3.652768505859375,12.435267639160156,45.35720520019531,8.98267822265625,1.6897265156635133e+18,3.6525134277343754,42.23831481933594,57.242819213867186,88.65175170898438,1.6897265156637686e+18,3.652768505859375,2.2475690788264733,-0.6596539221684444,-0.3083482692399396,-0.5820618657226704,0.5996482314852187,0.3315523175280012,-1.4783947119114202
3.7,1.6897265157138732e+18,3.702873095703125,1.7091645679885148,-1.1392194851869344,-1.8117734109741448,1.6897265157113692e+18,3.700369140625,0.1829925537109375,0.8762237548828125,-0.141363525390625,1.6897265157138732e+18,3.702873095703125,0.09127500647043342,9.801052384575605,0.27352895085433493,1.6897265157138732e+18,3.702873095703125,0.4613706886768341,1.4377362966537475,1.1664369225502014,1.6897265157063583e+18,3.6953583984375,0.5039769768714905,1.4952987432479858,1.344454860687256,,,,,,,,,,,,,1.6897265157138732e+18,3.702873095703125,9.94028091430664,46.00519790649414,10.373542785644531,1.689726515710319e+18,3.6993192749023436,39.62354278564453,57.98615646362305,89.86144638061523,1.6897265157138732e+18,3.702873095703125,0.908817658511512,-0.6209198573114466,-0.3245779889644528,1.8953776510422202,0.6244485677753977,0.3449429933338757,-1.5372286784538116
3.75,1.6897265157639775e+18,3.7529773437499996,0.4459949802973121,-1.6847032621401545,-1.093563371779397,1.6897265157614733e+18,3.75047333984375,0.00064697265625,0.82823486328125,-0.066168212890625,1.6897265157639775e+18,3.7529773437499996,-0.32748197985326866,9.789135970619322,0.4712206946469098,1.6897265157639775e+18,3.7529773437499996,0.31144271790981287,0.9930872678756714,0.8150689005851746,1.689726515756463e+18,3.7454631347656253,0.3448640137910843,0.9903040647506713,0.8107225298881531,,,,,,,,,,,,,1.6897265157639775e+18,3.7529773437499996,8.3373779296875,46.528587341308594,10.548200988769533,1.689726515757124e+18,3.746124072265625,38.30575866699219,58.40162353515625,89.94087219238281,1.6897265157639775e+18,3.7529773437499996,-0.06529472359820736,-0.5932007154334948,-0.3448769999972001,0.9827703447764691,0.6306568138075376,0.3624229468702378,-1.511901875881828
3.8,1.689726515814082e+18,3.8030821777343755,-0.5170299966286868,-0.2125132205808163,0.4336062288150192,1.6897265158115784e+18,3.800578125,-0.1275115966796875,0.973419189453125,0.127984619140625,1.689726515814082e+18,3.8030821777343755,-0.7372623402194678,9.756398653143643,0.6450411891724541,1.689726515814082e+18,3.8030821777343755,0.4812783241271973,0.7059625685214995,1.0114174008369445,1.6897265158065674e+18,3.795567431640625,0.3816450506448746,0.858900386095047,0.9604538679122925,,,,,,,,,,,,,1.689726515814082e+18,3.8030821777343755,7.072048187255859,46.883662414550784,10.673294067382812,1.68972651580913e+18,3.798130126953125,37.011810302734375,58.758688354492186,90.09100341796875,1.689726515814082e+18,3.8030821777343755,-0.3781954761815075,-0.5667529683524,-0.36393603923393375,0.7240987865128109,0.6364855087289429,0.37567328632311725,-1.4706592677451966
3.85,1.6897265158641864e+18,3.8531864257812503,0.1368571933852881,-0.5304686955553293,0.3859150293833017,1.6897265158616824e+18,3.850682373046875,-0.1175384521484375,0.937664794921875,0.1362884521484375,1.6897265158641864e+18,3.8531864257812503,-1.3006187653457373,9.659349431659578,1.0577284390015156,1.6897265158641864e+18,3.8531864257812503,1.0927881479263306,-0.01612078212201592,1.3201498508453369,1.6897265158566723e+18,3.845672265625,1.0450108766555786,0.02474449388682842,1.276972270011902,,,,,,,,,,,,,1.6897265158641864e+18,3.8531864257812503,4.976197814941406,47.03998336791992,11.920852661132812,1.689726515861137e+18,3.85013671875,34.85122985839844,58.86795349121094,91.45934753417968,1.6897265158641864e+18,3.8531864257812503,-0.43907740351143765,-0.536323316127195,-0.36728725872452256,0.6825020461041122,0.6567764815449386,0.3820381133272007,-1.3989526178252976
3.9,1.6897265159142912e+18,3.903291162109375,2.2155647564053536,0.821333685221672,-2.8023288428346813,1.689726515911787e+18,3.90078720703125,0.0337646484375,1.0574462890625,-0.13831787109375,1.6897265159142912e+18,3.903291162109375,-1.995417913753986,9.468794944908618,1.5728760413366556,1.6897265159142912e+18,3.903291162109375,0.9321739912033081,-0.19705626815557475,1.376522159576416,1.6897265159067766e+18,3.895776513671875,1.0154658675193786,-0.14813971966505046,1.4550268411636353,,,,,,,,,,,,,1.6897265159142912e+18,3.903291162109375,1.915463638305664,46.72419891357422,14.356948852539062,1.6897265159131428e+18,3.902142919921875,31.744268798828124,58.5425048828125,93.93458862304688,1.6897265159142912e+18,3.903291162109375,-0.45704866243875697,-0.5009827039558056,-0.36432332507127374,0.6684505589506431,0.6847983231646511,0.38365168481238715,-1.308625652784571
3.95,1.6897265159643955e+18,3.9533955566406247,3.139827719512582,2.5188816989833116,-4.112414042475224,1.6897265159618916e+18,3.950891552734375,0.062176513671875,1.20777587890625,-0.2366180419921875,1.6897265159643955e+18,3.9533955566406247,-2.4296176368696987,9.324844388422369,1.8194570388923583,1.6897265159643955e+18,3.9533955566406247,0.3357075870037079,-0.5658802330493927,0.33557658940553664,1.6897265159568812e+18,3.9458812011718747,0.4066214978694916,-0.4859002470970154,0.4599644005298614,1.6897265159526802e+18,3.94168017578125,345.25225830078125,1.059999942779541,64.81609099683317,49.27812249869972,364.433687210083,98.4375,6.506058385657568,6.0,-122.91044301364842,0.7599999904632568,1.6897265159643955e+18,3.9533955566406247,-0.0423408508300781,46.51666412353516,15.666329956054687,1.6897265159651497e+18,3.9541495605468753,29.748391723632814,58.35369873046875,95.1702392578125,1.6897265159643955e+18,3.9533955566406247,-0.4733281913308818,-0.48199242641906126,-0.36045459371483207,0.6428562164059285,0.702805002448321,0.37921101749081415,-1.2560966677566392
4.0,1.6897265160145004e+18,4.00350009765625,2.15114600179553,2.060956612304449,-3.4506779802048206,1.6897265160119962e+18,4.000996142578125,-0.03707275390625,1.160308837890625,-0.1612640380859375,1.6897265160145004e+18,4.00350009765625,-2.5748896512180566,9.28591312629044,1.8195981132504344,1.6897265160145004e+18,4.00350009765625,0.01010087132453918,-0.3842648208141327,0.04332209280692038,1.6897265160069855e+18,3.995985546875,0.0742368388921022,-0.5951572168618441,0.12437436282634733,,,,,,,,,,,,,1.6897265160145004e+18,4.00350009765625,-1.0765499114990233,46.54963912963867,16.161669921875,1.6897265160119557e+18,4.00095556640625,28.92916488647461,58.4281120300293,95.61913681030273,1.6897265160145004e+18,4.00350009765625,-0.476520731213015,-0.48132927312681717,-0.35422021060823156,0.6152359125579455,0.7112015294528052,0.37018141335768784,-1.2434579661391143
4.05,1.6897265160646047e+18,4.05360458984375,4.184367459599673,4.680503385181426,-4.300506113861501,1.6897265160621007e+18,4.0511005859375,0.215411376953125,1.4422027587890625,-0.26842041015625,1.6897265160646047e+18,4.05360458984375,-2.2561672835242748,9.39036952606499,1.6859183954705295,1.6897265160646047e+18,4.05360458984375,-0.8768492639064789,0.9647870332002639,-1.384861159324646,1.6897265160570903e+18,4.046090185546875,-0.7594852685928345,1.0744394183158874,-1.1488213241100311,,,,,,,,,,,,,1.6897265160646047e+18,4.05360458984375,0.24575271606445312,46.780940246582034,15.442611694335938,1.6897265160587628e+18,4.047762744140625,30.563494873046874,58.649969482421874,94.70003051757813,1.6897265160646047e+18,4.05360458984375,-0.4829688961404064,-0.4891474148787688,-0.3653457129592762,0.6433947458838617,0.6938341409507341,0.38160419271376256,-1.2793439593880733
4.1,1.689726516114709e+18,4.103709179687501,6.75771040744543,2.463173021956086,-3.613877076327205,1.6897265161122053e+18,4.101205126953125,0.548541259765625,1.2371826171875,-0.25147705078125,1.689726516114709e+18,4.103709179687501,-1.286839801614061,9.656036478493213,1.0319999335354566,1.689726516114709e+18,4.103709179687501,-1.4897690057754516,-2.867794704437256,-2.8947035312652587,1.6897265161071946e+18,4.096194580078125,-1.4190207242965698,-2.503084886074066,-2.6819148540496824,,,,,,,,,,,,,1.689726516114709e+18,4.103709179687501,4.366072082519532,46.978746795654295,12.853500366210938,1.6897265161107702e+18,4.099770166015626,34.78709411621094,58.81806945800781,92.0171905517578,1.689726516114709e+18,4.103709179687501,-0.4014324690603199,-0.5444355649614938,-0.35501815842583423,0.6807555377145726,0.6628579043859341,0.3703991349513084,-1.4015542919793273
4.15,1.6897265161648136e+18,4.153813623046875,-5.965899520019292,5.584110981368423,3.0165439208168907,1.6897265161623096e+18,4.151309570312501,-0.6515625,1.567047119140625,0.353326416015625,1.6897265161648136e+18,4.153813623046875,0.16471889139481818,9.79148118934512,0.2656070997841708,1.6897265161648136e+18,4.153813623046875,-1.2497056484222413,0.6268094778060913,-2.888667345046997,1.6897265161572992e+18,4.14629921875,-1.2557163476943969,-0.1843270480632782,-3.0592307567596437,,,,,,,,,,,,,1.6897265161648136e+18,4.153813623046875,10.167243194580077,46.12072677612305,10.028187561035157,1.6897265161627748e+18,4.1517748046875,40.751611328125,57.84237060546875,89.1572052001953,1.6897265161648136e+18,4.153813623046875,1.044513896994554,-0.6202536826001275,-0.3286682684431075,2.0482066116030575,0.6190646370447989,0.3513459921293341,-1.5173255430841777
4.2,1.6897265162149181e+18,4.2039181640625,-6.045985799360276,0.9326581002956628,1.068460728513673,1.689726516212414e+18,4.201414208984375,-0.4529510498046875,1.0636260986328125,0.022021484375,1.6897265162149181e+18,4.2039181640625,1.1519682437010854,9.721298931998609,-0.5023518007686547,1.6897265162149181e+18,4.2039181640625,-1.6764512300491332,1.5073173344135284,-1.202791154384613,1.6897265162074035e+18,4.19640361328125,-1.5778360605239867,1.9224882125854492,-1.3887648701667785,,,,,,,,,,,,,1.6897265162149181e+18,4.2039181640625,15.203054809570313,44.32313079833985,5.099386596679688,1.6897265162147812e+18,4.203781103515626,45.52257385253906,56.0233154296875,84.02994384765626,1.6897265162149181e+18,4.2039181640625,2.4315898442622568,-0.6475461394237312,-0.3608424522898296,-2.757148466643318,0.557459478294809,0.3733437255442522,-1.4409926277984415
4.25,1.6897265162650227e+18,4.254022656249999,-0.8632750597289203,0.6474869383567572,-2.1757463654014466,1.6897265162625185e+18,4.2515185546875,0.0763671875,1.0403045654296874,-0.371392822265625,1.6897265162650227e+18,4.254022656249999,1.7056152633960544,9.539750641619563,-1.465026228957623,1.6897265162650227e+18,4.254022656249999,-2.0983389139175417,-0.8036761701107025,-1.1599964499473572,1.689726516257508e+18,4.246508203125,-2.114053177833557,-0.584574818611145,-1.1668969511985778,,,,,,,,,,,,,1.6897265162650227e+18,4.254022656249999,16.398583984375,42.287957763671876,0.40267791748046866,1.689726516261587e+18,4.250587036132813,46.773258209228516,53.54505920410156,78.7197036743164,1.6897265162650227e+18,4.254022656249999,2.74626125439298,-0.679323989451024,-0.380031666755212,-2.4372871591537697,0.5181929702422452,0.35389313876419426,-1.339167873778033
4.3,1.6897265163151273e+18,4.304127099609375,-4.818963293749094,-0.9867667071020602,0.3503591181294619,1.689726516312623e+18,4.30162314453125,-0.26702880859375,0.83226318359375,-0.1777313232421875,1.6897265163151273e+18,4.304127099609375,2.2246958943311865,9.280789908831714,-2.2442323986762758,1.6897265163151273e+18,4.304127099609375,-1.780787706375122,-1.9320433616638184,-0.4824153006076813,1.6897265163076124e+18,4.296612548828125,-1.8234807014465333,-1.6859079122543335,-0.5695167779922485,,,,,,,,,,,,,1.6897265163151273e+18,4.304127099609375,20.88880310058594,39.90332107543945,-7.239849853515625,1.689726516308395e+18,4.297394921875,51.586264038085936,51.67414855957031,71.55632934570312,1.6897265163151273e+18,4.304127099609375,2.902175652526203,-0.7183676582859426,-0.3745963924952956,-2.3526226030411355,0.496204669460443,0.31153180201529757,-1.2425931061826714
4.35,1.6897265163652316e+18,4.35423173828125,-5.667591579322814,-2.1648609896063804,3.1075895837306975,1.6897265163627274e+18,4.351727490234375,-0.303741455078125,0.6989715576171875,0.06060791015625,1.6897265163652316e+18,4.35423173828125,2.6896236993789673,9.056630440312027,-2.6256067451161145,1.6897265163652316e+18,4.35423173828125,-1.2113038659095765,-2.875037145614624,-0.12531906850636004,1.6897265163577172e+18,4.3467171874999995,-1.3313302516937255,-2.8957961082458494,-0.17409743964672084,,,,,,,,,,,,,1.6897265163652316e+18,4.35423173828125,28.466179656982423,41.13831481933594,-4.944650268554687,1.6897265163604047e+18,4.34940478515625,58.76343994140625,53.107269287109375,75.0298065185547,1.6897265163652316e+18,4.35423173828125,3.0258537890444503,-0.7566054673349347,-0.34299420913400214,-2.367796211554439,0.49506784361440326,0.2536192582465555,-1.177373434634614
4.4,1.689726516415336e+18,4.404336181640625,-4.887867026366293,-2.873060463079214,5.427641602666378,1.6897265164128323e+18,4.401832177734375,-0.1900390625,0.6183502197265625,0.2928131103515625,1.689726516415336e+18,4.404336181640625,2.9608337313392754,8.975730506500602,-2.614873578821123,1.689726516415336e+18,4.404336181640625,-0.3785648435354233,-2.09229371547699,0.5459909096360207,1.6897265164078218e+18,4.396821728515625,-0.4808072060346603,-2.2633426189422607,0.3863302819430828,,,,,,,,,,,,,1.689726516415336e+18,4.404336181640625,25.212821197509765,42.2255256652832,-0.78525390625,1.6897265164124155e+18,4.401415380859374,54.9055419921875,54.15684509277344,78.72627563476563,1.689726516415336e+18,4.404336181640625,1.852189531012358,-0.7799599204494958,-0.3046540274938942,-2.418191935121892,0.5060677127782053,0.2061407516703686,-1.1561876388434804
4.45,1.6897265164654408e+18,4.4544408203125005,-3.1473745108564195,-3.926696240552664,6.498418601459264,1.6897265164629366e+18,4.45193671875,-0.0399017333984375,0.529486083984375,0.420709228515625,1.6897265164654408e+18,4.4544408203125005,2.602634333425164,9.129476597718597,-2.4488958117656408,1.6897265164654408e+18,4.4544408203125005,0.46416214723140004,-0.03838820569217205,1.5618750333786011,1.6897265164579261e+18,4.446926220703125,0.28800430297851565,-0.38242178559303286,1.4853365182876588,,,,,,,,,,,,,1.6897265164654408e+18,4.4544408203125005,19.301575469970704,43.6218620300293,0.012168884277343773,1.6897265164644224e+18,4.45342236328125,48.85899353027344,55.589569091796875,79.48612976074219,1.6897265164654408e+18,4.4544408203125005,-3.0756125702915478,-0.7740747645878614,-0.2873608906054179,-2.385115740294263,0.5335076332690863,0.18291226238561922,-1.197562159775595
4.5,1.689726516515545e+18,4.504545166015625,3.3581173023116593,-1.3448636383289096,3.525685758011639,1.6897265165130412e+18,4.502041259765624,0.5744384765625,0.85943603515625,0.1005767822265625,1.689726516515545e+18,4.504545166015625,1.8406820516201854,9.409043831396698,-2.0460691320350763,1.689726516515545e+18,4.504545166015625,1.301344668865204,0.7621542125940323,1.1982573509216308,1.6897265165080307e+18,4.49703076171875,1.3172456741333007,0.8979932010173798,1.3110760688781737,,,,,,,,,,,,,1.689726516515545e+18,4.504545166015625,14.877593994140625,44.98959655761719,1.9258865356445312,1.689726516511228e+18,4.500227966308594,44.625526428222656,56.979652404785156,81.65090942382812,1.689726516515545e+18,4.504545166015625,-3.023679363376208,-0.74389252301981,-0.2930967594707306,-2.302439590221558,0.5658437056547375,0.20083552702610058,-1.2862111507847367
4.55,1.68972651656565e+18,4.5546498046875,8.30516828060031,7.802952567487358,-10.011291698101163,1.6897265165631457e+18,4.552145751953125,0.9660919189453125,1.7709320068359375,-1.250830078125,1.68972651656565e+18,4.5546498046875,1.3951189599341154,9.533251225823758,-1.8221097161321342,1.68972651656565e+18,4.5546498046875,-0.4899572104215622,0.46485809087753294,0.6322750210762024,1.6897265165581353e+18,4.547135205078125,-0.203644996881485,0.33172883484512566,0.7166784763336181,,,,,,,,,,,,,1.68972651656565e+18,4.5546498046875,12.967942047119141,45.79375076293945,3.774346923828125,1.6897265165580344e+18,4.547034375,42.916717529296875,57.686032104492185,83.19971313476563,1.68972651656565e+18,4.5546498046875,-2.9617737487530373,-0.7260956362736314,-0.2964591672702898,-2.224579459853046,0.5838971564385677,0.20952499256430576,-1.3341323124141646
4.6,1.6897265166157542e+18,4.6047541015625,1.4224663133867084,-1.3978995305633544,-5.393610972057581,1.6897265166132503e+18,4.6022501953125,0.22086181640625,0.7989837646484375,-0.7150299072265625,1.6897265166157542e+18,4.6047541015625,1.1524976159504798,9.46920282428324,-2.2714555704534054,1.6897265166157542e+18,4.6047541015625,-0.8544501781463623,-0.36208939254283906,0.4838879629969597,1.68972651660824e+18,4.59723994140625,-0.9517586350440979,-0.1557507783174515,0.3960097074508667,,,,,,,,,,,,,1.6897265166157542e+18,4.6047541015625,11.908619689941407,46.41717529296875,1.9985870361328124,1.6897265166100419e+18,4.59904189453125,41.92762756347656,58.315380859375,81.21007385253907,1.6897265166157542e+18,4.6047541015625,-2.787893069654057,-0.7218664499826011,-0.31720618269816936,-2.041538537965878,0.5836196015440809,0.19392515860315665,-1.3078502395110498
4.65,1.6897265166658593e+18,4.654859326171875,0.4324809657251837,5.568553697465658,3.723648066027164,1.6897265166633551e+18,4.652355224609375,0.1695465087890625,1.5812744140625,0.1401947021484375,1.6897265166658593e+18,4.654859326171875,0.9607646453916281,9.46143558050871,-2.392382014287561,1.6897265166658593e+18,4.654859326171875,0.0255266234278679,-0.5958503240719437,-0.04363755583763125,1.6897265166583447e+18,4.64734462890625,0.012540452554821979,-0.5212472066283226,0.20831895470619202,,,,,,,,,,,,,1.6897265166658593e+18,4.654859326171875,10.95777587890625,47.079533386230466,1.39010009765625,1.689726516662049e+18,4.65104892578125,40.997109985351564,58.94981384277344,80.79959106445312,1.6897265166658593e+18,4.654859326171875,-2.6720779515605266,-0.7193217246207744,-0.31591641193103615,-1.9524572323444989,0.5926148860162916,0.17761660057940679,-1.30469146117851
4.7,1.689726516710953e+18,4.699953125,-4.3364574249476195,2.002048262453079,5.142207405877113,1.6897265167134597e+18,4.702459716796875,-0.3550689697265625,0.92718505859375,0.3562164306640625,1.689726516710953e+18,4.699953125,1.1498499802120028,9.437110731295496,-2.405859328191541,1.689726516710953e+18,4.699953125,0.08478341437876225,0.8704360146075487,-0.02735251747071743,1.6897265167084495e+18,4.697449365234375,0.07309040119871496,0.6728945732116699,-0.08582776486873629,,,,,,,,,,,,,1.689726516710953e+18,4.699953125,12.04457950592041,46.758087158203125,1.3728599548339844,1.6897265167140547e+18,4.703054638671875,42.177365112304685,58.59000244140625,80.62393798828126,1.689726516710953e+18,4.699953125,-2.7276862565975426,-0.726313506783127,-0.3113393633946722,-2.0165829194274565,0.5868797685227315,0.1762927457444786,-1.2954064022629874
4.75,1.6897265167560476e+18,4.74504775390625,-4.5580862643980975,-5.618520382161736,7.56487352849543,1.6897265167635645e+18,4.75256435546875,-0.4090057373046875,0.5695159912109375,0.513275146484375,1.6897265167560476e+18,4.74504775390625,0.6493426346129925,9.530167288333773,-2.202969186465442,1.6897265167560476e+18,4.74504775390625,1.1637677431106568,1.9194581508636475,1.1395818591117859,1.6897265167585539e+18,4.7475537597656245,1.2331152558326721,1.9137669563293458,1.1159602999687195,,,,,,,,,,,,,1.6897265167560476e+18,4.74504775390625,11.368802642822265,47.01578216552734,1.2046783447265625,1.6897265167608602e+18,4.7498602905273435,41.148643493652344,58.94672775268555,80.73785018920898,1.6897265167560476e+18,4.74504775390625,-2.633601253238346,-0.7012533580898518,-0.3328667783119236,-1.8508903857081673,0.5966681766214569,0.20273191909587585,-1.333634188726765
4.8,1.6897265168061517e+18,4.795151611328125,-3.6666910840523244,2.784742595774531,3.0456904253394153,1.6897265168136689e+18,4.8026687500000005,-0.360296630859375,1.293670654296875,-0.0039520263671875,1.6897265168061517e+18,4.795151611328125,0.3491358014926314,9.700151280742883,-1.3556833138635755,1.6897265168061517e+18,4.795151611328125,2.267941188812256,-0.15922755077481274,-0.6267283916473388,1.6897265168086584e+18,4.7976583984375,2.265508222579956,-0.3814608812332153,-0.6857737749814987,,,,,,,,,,,,,1.6897265168061517e+18,4.795151611328125,10.815592193603516,46.7836669921875,3.37149658203125,1.689726516807667e+18,4.796666845703125,41.302191162109374,58.17325439453125,84.1638427734375,1.6897265168061517e+18,4.795151611328125,-2.694290531695259,-0.6749193484078575,-0.32835197948984396,-1.8504101902206134,0.6117427471597882,0.2492339182707898,-1.4260877371151737
4.85,1.6897265168562568e+18,4.84525673828125,-3.990368209996223,-0.150252403883338,-3.5698802890470622,1.6897265168637734e+18,4.852773486328125,-0.2188720703125,0.947601318359375,-0.4343841552734375,1.6897265168562568e+18,4.84525673828125,0.42731741545691915,9.783381937137245,-0.4333746522021107,1.6897265168562568e+18,4.84525673828125,1.1334845781326295,-1.7882957130670547,1.5688496708869935,1.6897265168587628e+18,4.8477626953124995,1.0753915786743165,-1.6112487614154816,1.7376671701669693,,,,,,,,,,,,,1.6897265168562568e+18,4.84525673828125,11.24728012084961,44.97684555053711,8.930770874023438,1.6897265168596726e+18,4.848672412109375,40.210357666015625,56.66334838867188,89.55369873046875,1.6897265168562568e+18,4.84525673828125,-0.49002603848841064,-0.6764952782994854,-0.2704593224080589,-2.2442985822745247,0.6361842643594737,0.2530726467001827,-1.5072502135960615
4.9,1.6897265169063606e+18,4.895360595703125,2.6467819858050343,-0.3499290561491251,-3.8154013438341017,1.6897265169138778e+18,4.9028776855468745,0.20272216796875,0.9253875732421875,-0.3862640380859375,1.6897265169063606e+18,4.895360595703125,-0.5657418553048186,9.78814134817183,-0.05748905284306847,1.6897265169063606e+18,4.895360595703125,0.3833141714334488,0.6508149921894073,1.4525537967681885,1.6897265169088676e+18,4.89786767578125,0.35596950352191925,0.6724829494953155,1.3726296186447144,,,,,,,,,,,,,1.6897265169063606e+18,4.895360595703125,6.504177093505859,45.2301383972168,11.700657653808594,1.689726516911678e+18,4.90067802734375,35.72545471191406,57.26748962402344,91.36441955566406,1.6897265169063606e+18,4.895360595703125,-0.9052987692454497,-0.6398269668163724,-0.2672070755814652,-0.15854048602445403,0.6763131230723713,0.24839648064130476,-1.5120384383539047
4.95,1.6897265169564657e+18,4.945465673828125,1.4360705342994629,-1.7752081765472887,-2.963801290521025,1.6897265169639826e+18,4.952982666015624,-0.01114501953125,0.8542572021484375,-0.244219970703125,1.6897265169564657e+18,4.945465673828125,-1.1211731901735067,9.741136318986417,0.038954937095092554,1.6897265169564657e+18,4.945465673828125,-0.08221598025411368,0.5620231389999389,1.053049898147583,1.6897265169589716e+18,4.9479716796875,-0.09792043790221212,0.5761719107627868,1.0459446907043457,1.6897265169639841e+18,4.952984130859375,344.9368896484375,0.9900000095367432,34.59384605169865,49.27813008432209,364.11831855773926,75.9375,5.970668525565865,6.0,-122.91041417990152,0.7599999904632568,1.6897265169564657e+18,4.945465673828125,4.485768127441406,46.34693603515625,12.04053955078125,1.689726516963685e+18,4.952685302734375,34.09032287597656,58.64031982421875,91.3316650390625,1.6897265169564657e+18,4.945465673828125,-0.7430421189489623,-0.6150908364012497,-0.2820690069334375,0.03573240143820626,0.6910624091961444,0.2538937174434289,-1.4561309974482992
5.0,1.68972651700657e+18,4.99556982421875,0.822192494008094,0.06766355252385138,-0.19498709890354418,1.6897265170140867e+18,5.003086669921875,-0.088616943359375,0.99619140625,0.0611328125,1.68972651700657e+18,4.99556982421875,-1.590581501636207,9.675930213391185,0.03029625999285368,1.68972651700657e+18,4.99556982421875,-0.06112475991249085,1.2052059292793273,0.8976298093795776,1.6897265170090767e+18,4.998076611328125,-0.030942683108150904,1.2525599002838135,0.8966139435768128,,,,,,,,,,,,,1.68972651700657e+18,4.99556982421875,2.9761589050292967,47.71939697265625,11.770584106445312,1.6897265170104906e+18,4.99949072265625,32.8575439453125,59.714534759521484,91.13093185424805,1.68972651700657e+18,4.99556982421875,-0.8021165229980124,-0.5930542999784937,-0.3030526931179677,0.01840221915611396,0.6994325101284177,0.25909394329852964,-1.4078317616907767
5.05,1.6897265170566746e+18,5.045674755859375,1.477897167159766,0.004467150089740746,0.856045166927576,1.6897265170641915e+18,5.0531916015625,-0.0333282470703125,0.94730224609375,0.0803253173828125,1.6897265170566746e+18,5.045674755859375,-2.0379609658683835,9.58760275992751,0.25528349827330554,1.6897265170566746e+18,5.045674755859375,0.629837030172348,0.19112649261951448,1.0334362030029296,1.6897265170591808e+18,5.04818076171875,0.6528043746948242,0.06449213027954107,1.0399546504020691,,,,,,,,,,,,,1.6897265170566746e+18,5.045674755859375,1.6765491485595703,48.233578491210935,12.263034057617187,1.6897265170572972e+18,5.046297119140625,31.368035888671876,60.11589050292969,91.9663818359375,1.6897265170566746e+18,5.045674755859375,-0.7489338767325463,-0.5666202026429425,-0.31938732446714385,0.12199649879135857,0.7084241676821248,0.2738294466215704,-1.359634730921377
5.1,1.689726517106779e+18,5.09577880859375,1.3043087497439978,-0.3535724979919195,-0.7903090680284425,1.6897265171142958e+18,5.103295751953125,-0.169427490234375,1.0013885498046875,-0.0720428466796875,1.689726517106779e+18,5.09577880859375,-2.502875823756307,9.464556810495257,0.5543004274893552,1.689726517106779e+18,5.09577880859375,0.700567090511322,-0.17639136910438538,0.8301237225532532,1.6897265171092856e+18,5.098285595703125,0.686429500579834,-0.09544509649276733,0.8298907279968262,,,,,,,,,,,,,1.689726517106779e+18,5.09577880859375,-0.6417671203613281,48.19189529418945,13.991468811035157,1.6897265171093038e+18,5.098303955078125,28.808428955078124,60.01405639648438,93.91365051269531,1.689726517106779e+18,5.09577880859375,-0.630632980182748,-0.5476663705962128,-0.30718824809731127,0.2167078070570428,0.7302138330446548,0.2691152998091527,-1.3062053043133819
5.15,1.6897265171568837e+18,5.145883740234375,1.7223490437322855,2.2697298280262945,-3.577985912543535,1.6897265171644006e+18,5.153400732421875,-0.090533447265625,1.1630950927734376,-0.37069091796875,1.6897265171568837e+18,5.145883740234375,-2.8711764321243765,9.338825918214917,0.837522749608904,1.6897265171568837e+18,5.145883740234375,0.28660199046134943,0.5091418743133544,0.6995166420936585,1.68972651715939e+18,5.14838994140625,0.2657462954521179,0.4953173339366913,0.6820741176605225,,,,,,,,,,,,,1.6897265171568837e+18,5.145883740234375,-2.36309700012207,48.13533172607422,15.559521484375,1.6897265171613117e+18,5.15031162109375,27.389865112304687,59.95791931152344,95.21304016113281,1.6897265171568837e+18,5.145883740234375,-0.5790728626725812,-0.5266946836170622,-0.3080798330608533,0.28345435675980235,0.7426089058647467,0.27598727864814293,-1.2608404947975256
5.2,1.689726517206988e+18,5.19598798828125,3.439645597154498,2.16899040294826,-5.947936928540468,1.689726517214505e+18,5.2035048828125,0.1535858154296875,1.2488189697265626,-0.4672119140625,1.689726517206988e+18,5.19598798828125,-3.1072402149972316,9.260867999978661,0.8642685423587263,1.689726517206988e+18,5.19598798828125,-0.41011096760630605,0.1101913895457983,0.19790391996502876,1.6897265172094948e+18,5.1984946777343755,-0.45269520580768585,0.12879957370460032,0.12177022099494934,,,,,,,,,,,,,1.689726517206988e+18,5.19598798828125,-3.3523006439208984,48.27953567504883,15.957383728027343,1.6897265172133212e+18,5.2023212890625,26.624267578125,60.249636840820315,95.08766174316406,1.689726517206988e+18,5.19598798828125,-0.6047340229099474,-0.515075580482696,-0.3153173697831515,0.2713892023385812,0.7476562066437255,0.2761648124156208,-1.2356176608527094
5.25,1.6897265172570926e+18,5.2460926757812505,5.788828491958677,4.3279629190379385,-3.2543370190069076,1.6897265172646098e+18,5.253609716796875,0.3641845703125,1.4149322509765625,-0.1928741455078125,1.6897265172570926e+18,5.2460926757812505,-2.707341434638202,9.407093048042057,0.4953787322725914,1.6897265172570926e+18,5.2460926757812505,-1.052020514011383,-0.6587837636470795,-1.914397168159485,1.6897265172595988e+18,5.248598876953125,-1.0658040165901184,-0.7223846316337585,-2.0081619024276733,,,,,,,,,,,,,1.6897265172570926e+18,5.2460926757812505,-1.7756340026855468,49.149664306640624,14.371487426757813,1.6897265172601295e+18,5.249129577636719,28.99288558959961,61.216190338134766,93.3511734008789,1.6897265172570926e+18,5.2460926757812505,-0.7014571524997756,-0.5365746302620378,-0.3229749575702936,0.1762337861871158,0.73051257801644,0.27174398932356214,-1.2858883469123246
5.3,1.689726517307197e+18,5.2961970703125,5.71378435689032,4.641263963109255,2.0376289757013506,1.6897265173147139e+18,5.303713818359375,0.19510498046875,1.4935760498046875,0.2731170654296875,1.689726517307197e+18,5.2961970703125,-1.3436482273506374,9.697758949552775,-0.14061341575842234,1.689726517307197e+18,5.2961970703125,-1.2535995244979858,-0.29662652909755705,-3.607442045211792,1.6897265173097037e+18,5.2987036132812495,-1.2654395580291748,-0.21779443621635436,-3.6349987506866457,,,,,,,,,,,,,1.689726517307197e+18,5.2961970703125,4.395447158813477,49.8336784362793,11.849893188476562,1.6897265173069402e+18,5.29594013671875,35.130865478515624,61.69266052246094,91.01551208496093,1.689726517307197e+18,5.2961970703125,-1.0248265528091856,-0.6007217433412169,-0.31412871575220125,-0.1786174441856785,0.6851979670688626,0.264919724860574,-1.429825753928928
5.35,1.6897265173573018e+18,5.346301708984376,-6.553153465018272,6.063706749489903,6.080516605350077,1.6897265173648187e+18,5.35381865234375,-0.619158935546875,1.508380126953125,0.5689849853515625,1.6897265173573018e+18,5.346301708984376,0.2728033632830693,9.76262462959945,-0.7891214291464537,1.6897265173573018e+18,5.346301708984376,-1.2240622997283936,2.372787821292877,-2.8091461658477783,1.689726517359808e+18,5.34880810546875,-1.214572286605835,2.5005518794059753,-2.736808443069458,,,,,,,,,,,,,1.6897265173573018e+18,5.346301708984376,11.586904907226563,49.15617141723633,9.063331604003906,1.6897265173589504e+18,5.347950390625,43.96354675292969,60.559942626953124,87.2212890625,1.6897265173573018e+18,5.346301708984376,-2.6878419200115857,-0.6579517309791774,-0.32652356880341227,-1.793455615138748,0.6155413730377297,0.2842220821178413,-1.4796044642842672
5.4,1.689726517407406e+18,5.39640615234375,-1.1324434151807425,0.6767111623710393,3.4535805113263427,1.689726517414923e+18,5.40392314453125,0.0673553466796875,0.9965576171875,0.0392578125,1.689726517407406e+18,5.39640615234375,1.2474248037792741,9.617457799965141,-1.4241652993243188,1.689726517407406e+18,5.39640615234375,-1.0782605528831481,1.446185302734375,-1.9739705324172974,1.6897265174099126e+18,5.398912597656251,-1.0733624577522278,1.3356771349906922,-1.9483138561248778,,,,,,,,,,,,,1.689726517407406e+18,5.39640615234375,18.471647644042967,47.433126831054686,4.394267272949219,1.6897265174109565e+18,5.39995634765625,49.95933837890625,58.7485595703125,82.7147705078125,1.689726517407406e+18,5.39640615234375,2.9826029904617157,-0.6793069274534427,-0.36542050501254675,-2.2839890508339864,0.5500857416787207,0.3194812051309751,-1.3762743568812146
5.45,1.689726517457511e+18,5.446510742187501,-4.417796130115539,-0.7127423775994778,-1.2762001442083715,1.6897265174650278e+18,5.454027685546874,-0.2742950439453125,0.83555908203125,-0.383697509765625,1.689726517457511e+18,5.446510742187501,1.942281454528421,9.382744554918409,-2.0718813264226914,1.689726517457511e+18,5.446510742187501,-1.4033712148666382,0.8756527185440064,-1.1774726867675782,1.6897265174600174e+18,5.44901728515625,-1.420484685897827,0.8764577746391297,-1.1387229204177856,,,,,,,,,,,,,1.689726517457511e+18,5.446510742187501,22.782882690429688,45.61834945678711,0.7631805419921875,1.6897265174629647e+18,5.451964697265625,53.62158203125,57.0924560546875,78.99219665527343,1.689726517457511e+18,5.446510742187501,2.891699425318407,-0.701795157062965,-0.3843778802780711,-2.3255601324170216,0.5030189860879108,0.3263252983885103,-1.2768347555013486
5.5,1.6897265175076152e+18,5.4966154296875,-4.056645393502116,-1.8716032011324166,0.9229773656630517,1.6897265175151324e+18,5.504132275390625,-0.1622283935546875,0.705230712890625,-0.076800537109375,1.6897265175076152e+18,5.4966154296875,2.2981642752893263,9.115589994280933,-2.7847683731898663,1.6897265175076152e+18,5.4966154296875,-1.4184433937072753,-0.6283832281827927,-0.4682933837175369,1.6897265175101217e+18,5.4991216796875,-1.39529128074646,-0.731132424250245,-0.4345163136720657,,,,,,,,,,,,,1.6897265175076152e+18,5.4966154296875,24.699009704589844,44.56258544921875,-2.7871444702148436,1.6897265175149732e+18,5.5039732421875005,55.07289428710938,56.22396545410156,76.08080749511718,1.6897265175076152e+18,5.4966154296875,2.943530259454985,-0.7208506076521349,-0.40103611944387596,-2.2613081408821176,0.4711350727128167,0.3121528188256902,-1.1936432983447605
5.55,1.6897265175577196e+18,5.546719677734375,-4.297507516567409,-3.3291806630671017,4.026259666040838,1.6897265175652367e+18,5.5542367187499995,-0.1894012451171875,0.5295867919921875,0.1129364013671875,1.6897265175577196e+18,5.546719677734375,2.614413969259262,8.940112197535038,-3.06615481434524,1.6897265175577196e+18,5.546719677734375,-0.5940305680036545,-2.3115914821624757,0.1583147609606385,1.6897265175602266e+18,5.549226513671875,-0.5421993523836136,-2.3312541484832763,0.1976359486579895,,,,,,,,,,,,,1.6897265175577196e+18,5.546719677734375,25.491168212890624,44.22516555786133,-2.958636474609375,1.6897265175617797e+18,5.550779663085937,55.65483856201172,56.05074691772461,76.75566101074219,1.6897265175577196e+18,5.546719677734375,3.0136024627922655,-0.7463917188630772,-0.3827750935970609,-2.276639568105065,0.4691093584612835,0.27571300534140486,-1.14728481549667
5.6,1.6897265176078246e+18,5.596824658203125,-4.815451193974912,-4.804391981369853,4.689520512112677,1.6897265176153416e+18,5.60434150390625,-0.21063232421875,0.409478759765625,0.2010498046875,1.6897265176078246e+18,5.596824658203125,2.6610288300833105,8.993108108472228,-2.863462905911505,1.6897265176078246e+18,5.596824658203125,0.13913193419575687,-1.3862795233726501,1.0500436663627624,1.6897265176103306e+18,5.599330615234375,0.1596413269639015,-1.2777711212635041,1.0985218644142152,,,,,,,,,,,,,1.6897265176078246e+18,5.596824658203125,24.740565490722656,44.805555725097655,-0.6912704467773437,1.689726517608589e+18,5.5975890625,54.33167419433594,56.93166809082031,79.14132690429688,1.6897265176078246e+18,5.596824658203125,3.07950443728785,-0.7593884852149833,-0.3494953644246072,-2.319502137812807,0.4920011896374389,0.24281178302215375,-1.160757465173456
5.65,1.6897265176579287e+18,5.6469287109375,-2.0836471090880035,-3.841560978032946,3.504356729613542,1.689726517665446e+18,5.65444580078125,0.1489105224609375,0.7002716064453125,-0.0077178955078125,1.6897265176579287e+18,5.6469287109375,2.0580591372972723,9.212802414276599,-2.643880536049008,1.6897265176579287e+18,5.6469287109375,0.6065171420574188,0.3345345720648766,1.7240877628326416,1.6897265176604357e+18,5.6494357421875,0.6323925733566285,0.37606374770402906,1.7336260557174683,,,,,,,,,,,,,1.6897265176579287e+18,5.6469287109375,21.71839828491211,46.52130966186523,0.7372604370117187,1.6897265176605998e+18,5.649600048828125,50.67488403320313,59.012246704101564,80.38006896972657,1.6897265176579287e+18,5.6469287109375,-1.8283644078759067,-0.7423150089014465,-0.34567205162442327,-2.2295355697417603,0.5248536793334546,0.23200919913941162,-1.2216743805468653
5.7,1.6897265177080338e+18,5.697033740234375,10.134158345443755,5.725270445831418,-3.862106776324958,1.6897265177155507e+18,5.704550537109375,1.38428955078125,1.797906494140625,-0.9568084716796875,1.6897265177080338e+18,5.697033740234375,1.3568424207708238,9.409705627080202,-2.403099924561232,1.6897265177080338e+18,5.697033740234375,0.21316342055797577,0.3821478247642517,0.6414479527622461,1.6897265177105398e+18,5.69953974609375,0.14322160184383392,0.38699133396148677,0.5565109789371491,,,,,,,,,,,,,1.6897265177080338e+18,5.697033740234375,18.392646026611327,48.52973403930664,1.6002487182617187,1.6897265177126116e+18,5.701611572265625,48.062295532226564,60.65397338867187,81.01838073730468,1.6897265177080338e+18,5.697033740234375,-2.954460431294067,-0.7163934301620425,-0.35360809523596626,-2.0841017591884796,0.5529603177109033,0.2365223445763728,-1.2854296432089616
5.75,1.6897265177581379e+18,5.747137744140625,6.961373732807635,3.797483117566704,-8.404530046036541,1.6897265177656548e+18,5.75465478515625,0.533319091796875,0.99276123046875,-0.870977783203125,1.6897265177581379e+18,5.747137744140625,1.2630384355922044,9.368352456950545,-2.60700199788928,1.6897265177581379e+18,5.747137744140625,-0.8419798254966736,-0.44415199048817156,0.10763311358168717,1.6897265177606446e+18,5.749644677734375,-0.857423722743988,-0.5512380257248879,0.12215456385165449,,,,,,,,,,,,,1.6897265177581379e+18,5.747137744140625,17.93525924682617,48.92604293823242,0.8724197387695313,1.689726517764622e+18,5.7536220703125,47.9603515625,60.842462158203126,79.8997802734375,1.6897265177581379e+18,5.747137744140625,-2.8972557876989384,-0.7153100473072567,-0.36275162182633186,-2.0224976179709104,0.551370534867798,0.22953054497673828,-1.2708676808554245
5.8,1.6897265178082427e+18,5.797242822265625,-4.9388833662457765,-0.26744927657425405,4.605829486277997,1.6897265178157596e+18,5.804759716796875,-0.4313232421875,1.211907958984375,0.47982177734375,1.6897265178082427e+18,5.797242822265625,1.2398717580512166,9.310049905585647,-2.8190667148241397,1.6897265178082427e+18,5.797242822265625,0.10342878699302671,-0.584387618303299,0.7235683262348175,1.689726517810749e+18,5.799748828125,0.18740249872207643,-0.46710366010665894,0.7401901960372925,,,,,,,,,,,,,1.6897265178082427e+18,5.797242822265625,17.319964599609374,49.42509078979492,0.5172607421875,1.6897265178114327e+18,5.800432739257813,47.13825607299805,61.350303649902344,80.07972717285156,1.6897265178082427e+18,5.797242822265625,-2.8043685438901536,-0.7228206234258354,-0.3545216351431647,-1.9847143591772665,0.5577307031855148,0.20178101640153515,-1.25127696542069
5.85,1.689726517858347e+18,5.847346923828125,1.7595578952118758,8.240696217594145,3.3618639707201714,1.6897265178658637e+18,5.854863818359375,0.220721435546875,1.525494384765625,-0.0922210693359375,1.689726517858347e+18,5.847346923828125,1.1643908536138388,9.364077848371267,-2.6685928355967996,1.689726517858347e+18,5.847346923828125,0.017455986142158528,0.37698637656867506,-0.49627592265605924,1.6897265178608538e+18,5.849853662109375,-0.01593656863551588,0.4982730269432068,-0.534810084104538,,,,,,,,,,,,,1.689726517858347e+18,5.847346923828125,16.782743072509767,49.68635940551758,1.2355270385742188,1.689726517858243e+18,5.84724287109375,46.94642333984375,61.50972290039063,80.62976379394532,1.689726517858347e+18,5.847346923828125,-2.7955131420420676,-0.7195339268824168,-0.34916256440381827,-1.9819510064880812,0.5645292080057321,0.20402275606873665,-1.2692572194964433
5.9,1.6897265179084518e+18,5.897451806640625,-4.872759181344509,-6.563952039312719,6.150696349252462,1.6897265179109583e+18,5.899958312988281,-0.3798408508300781,0.14400482177734375,0.43938446044921875,1.6897265179084518e+18,5.897451806640625,0.9393851581414043,9.384111868522762,-2.6794628969183565,1.6897265179084518e+18,5.897451806640625,0.6802385956048965,2.872611093521118,0.6459642082452774,1.689726517910958e+18,5.8999580078125,0.7301799058914185,2.8561666011810303,0.723684287071228,,,,,,,,,,,,,1.6897265179084518e+18,5.897451806640625,17.94385681152344,49.518253326416016,0.010385131835937478,1.6897265179102525e+18,5.8992525390625,47.95008850097656,61.62198486328125,78.86546020507812,1.6897265179084518e+18,5.897451806640625,-2.8188329775497065,-0.7014307959687546,-0.3811101659255415,-1.9053430105495592,0.5537911771205607,0.2357368059758081,-1.2764421524293779
5.95,1.6897265179585562e+18,5.947556103515625,-3.118025403740406,-0.9946890829861165,4.9555721383965015,1.6897265179560522e+18,5.945052197265625,-0.2822021484375,0.9540313720703125,0.26414794921875,1.6897265179585562e+18,5.947556103515625,0.29005442585539065,9.554080312649607,-2.176412924938351,1.6897265179585562e+18,5.947556103515625,1.7714822053909303,1.2690895155072213,0.07983845472335815,1.689726517961063e+18,5.9500627441406255,1.8160967826843262,1.1352174758911133,-0.038140670955181165,1.689726517952783e+18,5.941783203125,343.322265625,0.9300000071525574,39.444537117214985,49.27813444291174,362.50369453430176,93.1640625,5.557705819271406,6.0,-122.91038040083173,1.399999976158142,1.6897265179585562e+18,5.947556103515625,16.75953826904297,50.52614974975586,-0.27458953857421875,1.6897265179622638e+18,5.95126376953125,46.873226928710935,62.42610168457031,79.9191650390625,1.6897265179585562e+18,5.947556103515625,-2.7266679917591596,-0.6601973416679451,-0.40798266887961976,-1.7025278049455388,0.5645758777390807,0.28046206645138677,-1.344810229710134
6.0,1.6897265180086607e+18,5.997660742187501,-4.521454043762684,3.035590047829151,-2.333948559245467,1.6897265180061568e+18,5.99515673828125,-0.4117919921875,1.25867919921875,-0.4000091552734375,1.6897265180086607e+18,5.997660742187501,0.5416325083525478,9.696835054253935,-1.3455202902197836,1.6897265180086607e+18,5.997660742187501,1.2303264617919922,-1.3317655444145202,-0.021796917915344282,1.6897265180111672e+18,6.0001671875,1.1788928270339967,-1.2944314420223235,0.1717737138271332,,,,,,,,,,,,,1.6897265180086607e+18,5.997660742187501,18.637254333496095,50.2927734375,4.248516845703125,1.689726518014277e+18,6.003277148437499,48.850341796875,62.13190612792969,85.01361083984375,1.6897265180086607e+18,5.997660742187501,-2.981297812452262,-0.6562086875720294,-0.3771905615354059,-1.9609392271275112,0.5743922065264945,0.3114378192467017,-1.4217279594521313
6.05,1.689726518058765e+18,6.047765234375,0.4058875578320026,-0.19308312844574457,-3.1187118077954645,1.6897265180562614e+18,6.04526142578125,0.0563720703125,0.9795928955078125,-0.40814208984375,1.689726518058765e+18,6.047765234375,-0.1948086446845751,9.75435750270486,-0.9415548449437319,1.689726518058765e+18,6.047765234375,0.43719305396080016,0.4288747414946556,2.0638450145721436,1.6897265180612716e+18,6.0502716796875,0.4015035957098007,0.4419036418199539,1.9617319107055664,,,,,,,,,,,,,1.689726518058765e+18,6.047765234375,15.918992614746093,51.43540954589844,7.395207214355469,1.689726518061091e+18,6.050091064453125,45.08031463623047,63.66667938232422,86.98310470581055,1.689726518058765e+18,6.047765234375,-2.363450254552479,-0.6299999034558098,-0.37149051805355693,-1.364434086451138,0.6097583256031757,0.30500111162190235,-1.467568160900996
6.1,1.68972651810887e+18,6.0978698242187495,1.5269308964677155,-1.2585537206196784,-2.524995359558016,1.6897265181063657e+18,6.09536572265625,0.05709228515625,0.8546661376953125,-0.3390228271484375,1.68972651810887e+18,6.0978698242187495,-0.7768573123440892,9.740491357533335,-0.8224877214015274,1.68972651810887e+18,6.0978698242187495,0.06675737015902994,0.38879671692848206,0.7878198623657227,1.6897265181113766e+18,6.100376611328125,0.04833860974758864,0.402357405424118,0.807379400730133,,,,,,,,,,,,,1.68972651810887e+18,6.0978698242187495,13.440189361572266,52.572652435302736,7.751017761230469,1.6897265181079048e+18,6.0969049316406245,43.40973815917969,64.47611694335937,87.127734375,1.68972651810887e+18,6.0978698242187495,-1.8357768910560197,-0.6065380036965027,-0.3833350526734809,-0.8186629688566759,0.6266142391856102,0.304104183025487,-1.45477958878213
6.15,1.6897265181589747e+18,6.147974658203125,-0.3123064654629677,-1.00759567702353,-1.0629221059609948,1.6897265181564708e+18,6.145470751953125,-0.1661865234375,0.8923919677734375,-0.179168701171875,1.6897265181589747e+18,6.147974658203125,-1.2445830483212321,9.687534025040865,-0.8671934168294817,1.6897265181589747e+18,6.147974658203125,-0.30392748713493345,1.0782571852207183,0.9507628917694092,1.6897265181614807e+18,6.1504806640625,-0.30196027755737304,1.1744990229606629,0.9546216011047364,,,,,,,,,,,,,1.6897265181589747e+18,6.147974658203125,11.811890411376954,53.252848052978514,6.964833068847656,1.689726518159918e+18,6.148918115234375,41.46562194824219,65.23026428222656,86.01302185058594,1.6897265181589747e+18,6.147974658203125,-1.6571570675110947,-0.5875199282949398,-0.4015273110287822,-0.611947530082649,0.6341651397836239,0.3021880085170837,-1.4153549002049308
6.2,1.6897265182090788e+18,6.19807880859375,-0.9284108765669167,-0.8146189315617084,2.281788894549757,1.6897265182065746e+18,6.195574755859375,-0.28359375,0.8969268798828125,0.16654052734375,1.6897265182090788e+18,6.19807880859375,-1.8497908315837381,9.595503508501647,-0.7919069682117551,1.6897265182090788e+18,6.19807880859375,0.08741734996438025,2.3349990367889406,1.2705331802368165,1.6897265182115855e+18,6.200585693359375,0.12127578184008599,2.3042293071746824,1.2853344678878784,,,,,,,,,,,,,1.6897265182090788e+18,6.19807880859375,9.774201202392579,53.82121353149414,5.155870056152343,1.6897265182119324e+18,6.200932373046875,39.099603271484376,65.81273193359375,84.07645874023437,1.6897265182090788e+18,6.19807880859375,-1.5591352257832143,-0.5496526186209906,-0.442733339144907,-0.41025069088881977,0.6309678710454507,0.32140090539099864,-1.3635447797929552
6.25,1.6897265182591836e+18,6.248183740234375,2.0321408521866795,0.47160628912448876,2.788773392967097,1.6897265182566797e+18,6.24567978515625,-0.0322662353515625,1.01337890625,0.21796875,1.6897265182591836e+18,6.248183740234375,-2.5163680210489034,9.465737193999292,-0.4455081977741047,1.6897265182591836e+18,6.248183740234375,0.7926805138587951,-0.12861270308494568,1.2393043041229248,1.6897265182616899e+18,6.25068974609375,0.8161483407020569,-0.24752687215805053,1.2307037591934205,,,,,,,,,,,,,1.6897265182591836e+18,6.248183740234375,6.720660400390625,54.24468307495117,4.805784606933594,1.6897265182639437e+18,6.2529435546875,35.813348388671876,66.12592163085938,84.65962829589844,1.6897265182591836e+18,6.248183740234375,-1.3992570450785509,-0.5085897706773347,-0.46760664331853186,-0.17813800459205023,0.639995134821733,0.33611878538070733,-1.3067772271463176
6.3,1.689726518309288e+18,6.298287939453125,3.3111910666769746,1.0137733719712496,-2.409831965456083,1.689726518306784e+18,6.295783935546875,0.0232208251953125,1.0605194091796875,-0.2738525390625,1.689726518309288e+18,6.298287939453125,-3.0117062496078013,9.330793535311221,-0.104289356661553,1.689726518309288e+18,6.298287939453125,0.9468113899230957,-0.38663446344435215,0.8253645062446594,1.6897265183117947e+18,6.300794775390625,0.934684419631958,-0.28009210526943207,0.7944919466972351,,,,,,,,,,,,,1.689726518309288e+18,6.298287939453125,3.3712234497070312,54.23160629272461,7.197039794921875,1.6897265183107538e+18,6.299753723144532,32.95846176147461,66.03103637695312,87.08796310424805,1.689726518309288e+18,6.298287939453125,-1.2295803193710064,-0.4889423042938225,-0.45746647140953317,-0.035935642233199006,0.6665060940969664,0.3276433857867551,-1.2581889263702322
6.35,1.6897265183593928e+18,6.3483927734375,2.1795436534056067,1.8814541485393044,-4.462626182575524,1.6897265183568888e+18,6.345888818359375,-0.1176666259765625,1.1358123779296876,-0.4212432861328125,1.6897265183593928e+18,6.3483927734375,-3.26812729323715,9.240629981687665,0.29857085498919705,1.6897265183593928e+18,6.3483927734375,0.3181168720126152,1.0566532850265502,0.40971328020095826,1.6897265183618993e+18,6.350899169921876,0.28326179864816364,1.0474599242210387,0.4136046767234802,,,,,,,,,,,,,1.6897265183593928e+18,6.3483927734375,2.2315765380859376,54.016930389404294,9.230064392089844,1.689726518357563e+18,6.34656298828125,32.28492736816406,65.85023803710938,88.71943359375,1.6897265183593928e+18,6.3483927734375,-1.1373710492148263,-0.46549185213141964,-0.46144795418110834,0.09066388849551156,0.6735525989433155,0.34147429516591943,-1.229428065645575
6.4,1.689726518409497e+18,6.39849716796875,3.0784936038190125,1.2346666490757463,-2.833291961018592,1.6897265184069932e+18,6.395993115234375,-0.0087860107421875,1.0582305908203125,-0.2344207763671875,1.689726518409497e+18,6.39849716796875,-3.4953539234685893,9.153265586489438,0.4049132913593202,1.689726518409497e+18,6.39849716796875,-0.26501803696155546,0.3515730559825897,0.47880572229623797,1.6897265184120038e+18,6.4010038085937495,-0.28096902966499326,0.3774066716432571,0.4245316207408905,,,,,,,,,,,,,1.689726518409497e+18,6.39849716796875,1.311825942993164,54.35975570678711,9.156460571289063,1.689726518409575e+18,6.398574804687501,31.294122314453126,66.27927856445312,88.44491882324219,1.689726518409497e+18,6.39849716796875,-1.1584362549051743,-0.4470357823796702,-0.4777915619002747,0.11549860763112704,0.6707514571683404,0.34918819633845904,-1.203777267782458
6.45,1.6897265184596017e+18,6.44860166015625,9.087014823372959,3.2481598501288884,-2.259443470263779,1.6897265184570977e+18,6.446097753906249,0.5885284423828125,1.285382080078125,-0.2098663330078125,1.6897265184596017e+18,6.44860166015625,-3.2299894026660914,9.248884366005063,0.35626257732611144,1.6897265184596017e+18,6.44860166015625,-0.6304777443408967,1.3039371728897096,-1.7776634573936463,1.6897265184621082e+18,6.451108105468751,-0.661463063955307,1.3054242372512816,-1.8905555963516236,,,,,,,,,,,,,1.6897265184596017e+18,6.44860166015625,2.461049270629883,54.62362442016602,8.181820678710938,1.689726518461588e+18,6.450587744140625,34.0009521484375,66.43410949707031,87.02047119140624,1.6897265184596017e+18,6.44860166015625,-1.2122627709780158,-0.44876091023145237,-0.4901402792876401,0.11004581435102993,0.6513878605645694,0.36576796525145583,-1.2329192507109785
6.5,1.6897265185097065e+18,6.49870654296875,4.688451713837385,3.102636462141871,-3.4618639463816576,1.6897265185072026e+18,6.496202587890624,0.2759796142578125,1.301019287109375,-0.3386749267578125,1.6897265185097065e+18,6.49870654296875,-1.960588154043704,9.595700024760962,-0.004610887219018778,1.6897265185097065e+18,6.49870654296875,-1.5259470701217652,0.391984561085701,-3.2653878688812257,1.6897265185122127e+18,6.501212695312501,-1.5748986721038818,0.3615229994058609,-3.2947186470031737,,,,,,,,,,,,,1.6897265185097065e+18,6.49870654296875,9.84381332397461,54.010111236572264,5.355686950683594,1.6897265185136015e+18,6.5026015625,42.517327880859376,65.48789978027344,83.56171569824218,1.6897265185097065e+18,6.49870654296875,-1.400227001431316,-0.48917064766000057,-0.49070974976685083,-0.027845100438565785,0.5990390795752436,0.4004979639218245,-1.3680906981911147
6.55,1.6897265185598108e+18,6.5488107421875,-3.092648035186529,6.931242213916181,3.6137414087966078,1.689726518557307e+18,6.54630673828125,-0.4041290283203125,1.7235137939453125,0.31337890625,1.6897265185598108e+18,6.5488107421875,-0.37562245924907733,9.751674313422441,-0.8465530575087665,1.6897265185598108e+18,6.5488107421875,-1.6226262092590331,1.3858572602272035,-3.0591065883636475,1.6897265185623176e+18,6.5513175781249995,-1.5796950817108155,1.5195057451725007,-3.0069250106811523,,,,,,,,,,,,,1.6897265185598108e+18,6.5488107421875,19.030886077880858,51.80861358642578,0.29274749755859375,1.6897265185604134e+18,6.549413452148437,50.67597961425781,63.019012451171875,78.65108108520508,1.6897265185598108e+18,6.5488107421875,-1.2957812184627646,-0.5473054723992783,-0.4893001245204947,-1.1429575395392346,0.528444074807565,0.4255220863844219,-1.4651896600861851
6.6,1.6897265186099156e+18,6.598915673828126,-3.8920317544066902,3.6153534617161744,2.9419959644611176,1.6897265186074117e+18,6.59641171875,-0.2857269287109375,1.3151702880859375,0.1124969482421875,1.6897265186099156e+18,6.598915673828126,0.6846395734436065,9.651785718407034,-1.5653599666181206,1.6897265186099156e+18,6.598915673828126,-1.4650217533111571,2.282370400428772,-1.8656670093536376,1.689726518612422e+18,6.60142177734375,-1.4863959789276122,2.2539867401123046,-1.820650577545166,,,,,,,,,,,,,1.6897265186099156e+18,6.598915673828126,25.54827117919922,48.21036605834961,-5.948416137695313,1.6897265186072256e+18,6.596225537109374,56.01567687988281,59.76570434570313,72.91250305175781,1.6897265186099156e+18,6.598915673828126,2.7777532057724286,-0.5645962218027567,-0.5116862579164807,-1.9731188882402577,0.45027306138355955,0.46481322210917275,-1.3952874243617666
6.65,1.6897265186600192e+18,6.649019287109375,-0.5035113789466769,1.7056304317390918,2.467965809190571,1.6897265186575153e+18,6.646515380859375,0.058984375,1.1244110107421874,0.010968017578125,1.6897265186600192e+18,6.649019287109375,1.2639997841311246,9.424234970787762,-2.384138794338256,1.6897265186600192e+18,6.649019287109375,-1.454151439666748,1.3287727952003479,-1.3604838728904725,1.6897265186625262e+18,6.651526220703126,-1.4428130388259888,1.2645800471305848,-1.3255312204360963,,,,,,,,,,,,,1.6897265186600192e+18,6.649019287109375,28.425556945800782,44.83207626342774,-12.26495819091797,1.6897265186592381e+18,6.6482380859375,58.67688903808594,56.421304321289064,66.68200073242187,1.6897265186600192e+18,6.649019287109375,2.581728865427894,-0.5715470606624246,-0.538131426850324,-2.057347841367507,0.3816556502197207,0.48759970544126735,-1.2919107954219666
6.7,1.689726518710124e+18,6.699124218750001,-4.089859914648533,-1.7689728477412463,1.5169953979694841,1.6897265187076204e+18,6.6966201171875,-0.2478851318359375,0.7402099609375,-0.169500732421875,1.689726518710124e+18,6.699124218750001,1.6235630323573946,9.161908210245965,-3.0901353509393332,1.689726518710124e+18,6.699124218750001,-1.3607209920883179,0.3497007042169571,-0.6381096303462982,1.6897265187126305e+18,6.7016304687499995,-1.3498067140579224,0.3176395371556282,-0.6151779532432556,,,,,,,,,,,,,1.689726518710124e+18,6.699124218750001,29.883946228027344,42.39501876831055,-15.789283752441406,1.6897265187112476e+18,6.70024755859375,60.18916320800781,53.65203857421875,62.788543701171875,1.689726518710124e+18,6.699124218750001,2.5342745520718486,-0.5848496880646747,-0.5514316459766926,-2.054982542588,0.33620514398913737,0.4906216902362329,-1.206766568902329
