seconds_elapsed_rounded,accelerometer_time,accelerometer_seconds_elapsed,accelerometer_z,accelerometer_y,accelerometer_x,accelerometeruncalibrated_time,accelerometeruncalibrated_seconds_elapsed,accelerometeruncalibrated_z,accelerometeruncalibrated_y,accelerometeruncalibrated_x,gravity_time,gravity_seconds_elapsed,gravity_z,gravity_y,gravity_x,gyroscope_time,gyroscope_seconds_elapsed,gyroscope_z,gyroscope_y,gyroscope_x,gyroscopeuncalibrated_time,gyroscopeuncalibrated_seconds_elapsed,gyroscopeuncalibrated_z,gyroscopeuncalibrated_y,gyroscopeuncalibrated_x,location_time,location_seconds_elapsed,location_bearingAccuracy,location_speedAccuracy,location_verticalAccuracy,location_horizontalAccuracy,location_speed,location_bearing,location_altitude,location_longitude,location_latitude,magnetometer_time,magnetometer_seconds_elapsed,magnetometer_z,magnetometer_y,magnetometer_x,magnetometeruncalibrated_time,magnetometeruncalibrated_seconds_elapsed,magnetometeruncalibrated_z,magnetometeruncalibrated_y,magnetometeruncalibrated_x,orientation_time,orientation_seconds_elapsed,orientation_qz,orientation_qy,orientation_qx,orientation_qw,orientation_roll,orientation_pitch,orientation_yaw
0.0,1.6887020473455183e+18,104.99351822916668,-2.861457586288452,-2.5797624588012695,1.3242234388987224,1.6887020473455183e+18,104.99351822916668,-4.922235568364461,-11.617353121439615,4.6119662920633955,1.6887020473455183e+18,104.99351822916668,-2.0666240056355796,-9.020085970560707,3.225055456161499,1.68870204735417e+18,105.0021700846354,2.1321233113606772,0.0637844925125439,2.4106268882751465,1.68870204735417e+18,105.0021700846354,2.130901575088501,0.0683150937159855,2.412917693456014,,,,,,,,,,,,1.6887020473471867e+18,104.99518676757812,-9.096319675445557,49.207479095458986,-1.7519199430942536,1.6887020473471867e+18,104.99518676757812,-263.637109375,144.6724822998047,-134.963720703125,1.6887020473455183e+18,104.99351822916668,0.5602845152219137,-0.7717819412549337,-0.0969873890280723,0.2837107082207997,-2.1365393002827964,1.1688073476155598,-0.4483150243759155
0.05,1.6887020473974254e+18,105.04542537434897,1.134209354718526,-1.9818188349405923,5.099801063537598,1.6887020473974254e+18,105.04542537434897,-0.0183449486891428,-11.458629290262856,7.472186883290608,1.6887020473974254e+18,105.04542537434897,-1.158400336901347,-9.459305763244627,2.309698502222697,1.6887020474060728e+18,105.05407291666668,1.5312355359395344,-1.7715092500050862,1.480737288792928,1.6887020474060728e+18,105.05407291666668,1.5300138394037883,-1.7669786115487416,1.4829772512118022,,,,,,,,,,,,1.68870204739719e+18,105.04519018554689,-14.927919960021972,47.9728385925293,1.8446399688720705,1.68870204739719e+18,105.04519018554689,-269.4687133789063,143.43783874511718,-131.36715698242188,1.6887020473974254e+18,105.04542537434897,0.6199478507041931,-0.7417133251825968,-0.0937381933132807,0.2370910197496414,-2.033650000890096,1.3038791020711262,-0.6311901410420736
0.1,1.688702047449328e+18,105.09732804361978,2.746844748655955,1.3879563013712566,4.287914037704468,1.688702047449328e+18,105.09732804361978,1.9962122440338137,-8.290332794189453,5.855436325073242,1.688702047449328e+18,105.09732804361978,-0.756478488445282,-9.660784403483072,1.5048348903656006,1.6887020474579827e+18,105.10598282877604,2.1394028663635254,2.7637580235799155,-0.0238746491571267,1.6887020474579827e+18,105.10598282877604,2.1381810506184897,2.768288532892863,-0.0216348196069399,,,,,,,,,,,,1.6887020474471864e+18,105.09518647460936,-16.989719772338866,46.97487869262695,5.887719774246216,1.6887020474471864e+18,105.09518647460936,-271.5305114746094,142.43987731933595,-127.32407989501954,1.688702047449328e+18,105.09732804361978,0.642490565776825,-0.7220985094706217,-0.128208947678407,0.2206140607595443,-2.039491573969523,1.3978487253189087,-0.6016201078891754
0.15,1.6887020475012365e+18,105.14923657226562,-5.951576868693034,5.470013777414958,3.472411791483561,1.6887020475012365e+18,105.14923657226562,-6.68295431137085,-4.313062747319539,4.0271205107371015,1.6887020475012365e+18,105.14923657226562,-0.7372234265009562,-9.76557191212972,0.4920212924480438,1.688702047501232e+18,105.14923181152344,2.1778873205184937,0.0463494062423706,-0.0694095641374588,1.688702047501232e+18,105.14923181152344,2.1766655445098877,0.0509308576583863,-0.0671188160777092,,,,,,,,,,,,1.688702047497188e+18,105.14518823242187,-15.379319763183592,46.025719451904294,12.683119583129884,1.688702047497188e+18,105.14518823242187,-269.9201171875,141.4907196044922,-120.52867736816408,1.6887020475012365e+18,105.14923657226562,0.6450044512748718,-0.7062077522277832,-0.1965997666120529,0.2152803192536035,-2.592605749766032,1.476685086886088,0.0427643346289793
0.2,1.6887020475531448e+18,105.20114493815105,-0.7247546712557474,7.336153666178386,4.195393721262614,1.6887020475531448e+18,105.20114493815105,-1.2081760267416637,-2.4721846183141074,3.9355951150258384,1.6887020475531448e+18,105.20114493815105,-0.489267349243164,-9.790833791097006,-0.3224860429763794,1.688702047544487e+18,105.19248681640624,1.3601423700650532,-1.6306538383165996,0.8315403262774149,1.688702047544487e+18,105.19248681640624,1.358920653661092,-1.6261232892672224,0.8337292472521464,,,,,,,,,,,,1.6887020475471846e+18,105.19518471679687,-17.607039642333984,44.35431900024414,16.286999702453613,1.6887020475471846e+18,105.19518471679687,-272.1478332519531,139.81931762695314,-116.92479858398436,1.6887020475531448e+18,105.20114493815105,0.669034997622172,-0.6970156033833822,-0.1972559442122776,0.1658434520165125,2.534878889719645,1.5088826815287273,1.1263069311777751
0.25,1.6887020476050473e+18,105.25304728190105,-0.4302983383337657,8.840137163798014,4.241466363271077,1.6887020476050473e+18,105.25304728190105,-0.6211368640263876,-0.9764710664749146,3.888934930165609,1.6887020476050473e+18,105.25304728190105,-0.1966845542192458,-9.79910373687744,-0.4152187903722127,1.6887020475963996e+18,105.24439965820312,0.0830267717440923,-1.0787371198336284,0.3517565646519263,1.6887020475963996e+18,105.24439965820312,0.0817541281382242,-1.0742065111796062,0.3540473263710737,,,,,,,,,,,,1.6887020475971904e+18,105.24519023437502,-20.62043991088867,43.35147857666016,16.694479370117186,1.6887020475971904e+18,105.24519023437502,-275.16123657226564,138.81647338867188,-116.51732025146484,1.6887020476050473e+18,105.25304728190105,0.6846174796422323,-0.6912271579106649,-0.1787295639514922,0.1465427577495574,2.0079678297042847,1.5242881774902344,1.5979345639546711
0.3,1.6887020476569572e+18,105.30495711263022,3.550681591033936,4.4964548746744795,3.2002638975779214,1.6887020476569572e+18,105.30495711263022,3.362314542134603,-5.323830862840016,3.3312079906463623,1.6887020476569572e+18,105.30495711263022,-0.1942132264375686,-9.802781105041504,0.0682565931541224,1.688702047648306e+18,105.29630598958332,-1.2771665453910828,-4.564385135968526,0.0367028514544169,1.688702047648306e+18,105.29630598958332,-1.2784391442934673,-4.559854507446289,0.0389426747957865,1.6887020476656082e+18,105.31360815429689,0.0,0.0,1.0215675830841064,6.758999824523926,1.5177888870239258,259.7833251953125,43.10000228881836,-122.7563759,49.1905588,1.688702047647183e+18,105.29518310546877,-21.603759384155275,43.805319213867186,13.966559600830076,1.688702047647183e+18,105.29518310546877,-276.1445556640625,139.27031860351562,-119.2452377319336,1.6887020476569572e+18,105.30495711263022,0.6916170914967855,-0.7045570015907288,-0.1058946289122104,0.1086487049857775,-0.7245269616444904,1.5328296422958374,-0.017737607161204
0.35,1.6887020477088602e+18,105.35686002604166,21.36029593149821,-13.921294212341309,4.406181971232097,1.6887020477088602e+18,105.35686002604166,22.673988978068035,-23.529821395874023,6.005386670430501,1.6887020477088602e+18,105.35686002604166,1.307847301165263,-9.591023445129396,1.5365172624588013,1.6887020477002117e+18,105.34821134440104,-2.6048821608225503,-6.701700766881307,3.8562903801600137,1.6887020477002117e+18,105.34821134440104,-2.606205622355143,-6.697119315465291,3.858479380607605,,,,,,,,,,,,1.68870204769719e+18,105.34519013671874,-29.655759811401367,41.53855819702149,0.6563599944114685,1.68870204769719e+18,105.34519013671874,-284.1965576171875,137.00355529785156,-132.5554412841797,1.6887020477088602e+18,105.35686002604166,0.7522312601407369,-0.6532451311747233,0.0624174370119968,0.0486218445003032,-0.8513070940971375,1.3599437475204468,-2.310026168823242
0.4,1.6887020477521147e+18,105.40011474609376,-0.1545100212097168,2.1444156169891357,0.5437439680099487,1.6887020477521147e+18,105.40011474609376,1.0384851694107051,-7.434499979019165,2.4475584030151367,1.6887020477521147e+18,105.40011474609376,1.1871490478515625,-9.561410903930664,1.8411270380020144,1.688702047752116e+18,105.40011588541668,-0.002087116241455,2.4263058503468833,-1.6145168542861938,1.688702047752116e+18,105.40011588541668,-0.003308854997158,2.430887301762899,-1.612226128578186,,,,,,,,,,,,1.6887020477471882e+18,105.39518833007811,-32.58375930786133,39.41331939697265,-7.0955198287963865,1.6887020477471882e+18,105.39518833007811,-287.1245483398437,134.8783172607422,-140.30731811523438,1.6887020477521147e+18,105.40011474609376,0.7470385730266571,-0.6577570140361786,0.0701982472091913,0.0638834778219461,-0.9900856018066406,1.3422240614891052,-2.1605175733566284
0.45,1.688702047795374e+18,105.44337386067708,-4.038178364435832,-1.597742239634196,6.178464412689209,1.688702047795374e+18,105.44337386067708,-3.285544991493225,-11.250653425852455,7.923233985900879,1.688702047795374e+18,105.44337386067708,0.7467872103055319,-9.635406494140623,1.682081937789917,1.688702047804025e+18,105.45202514648436,-0.0244855135679244,3.271794239679972,-1.1341731548309326,1.688702047804025e+18,105.45202514648436,-0.0257072448730468,3.276273886362711,-1.131933291753133,,,,,,,,,,,,1.688702047797186e+18,105.44518588867189,-29.9485595703125,41.65079879760742,-2.95239991992712,1.688702047797186e+18,105.44518588867189,-284.48935546875,137.1157958984375,-136.16419677734376,1.688702047795374e+18,105.44337386067708,0.726659874121348,-0.6777651707331339,0.0173876419042547,0.1083474233746528,-1.1369868914286296,1.3793797890345256,-1.8752658367156985
0.5,1.6887020478472773e+18,105.49527701822916,-2.0541162490844727,3.4288649559020996,3.4796714782714844,1.6887020478472773e+18,105.49527701822916,-1.6205391486485798,-6.242475350697835,5.227719148000081,1.6887020478472773e+18,105.49527701822916,0.4277311464150746,-9.6538356145223,1.685360272725423,1.688702047855933e+18,105.50393294270832,-0.2778418809175491,2.9751173655192056,-1.4212288856506348,1.688702047855933e+18,105.50393294270832,-0.279063602288564,2.9795970916748047,-1.4189890623092651,,,,,,,,,,,,1.6887020478471916e+18,105.49519160156252,-26.98639907836914,43.46371994018555,2.313119937479496,1.6887020478471916e+18,105.49519160156252,-281.527197265625,138.92871704101563,-130.8986785888672,1.6887020478472773e+18,105.49527701822916,0.7030153671900431,-0.6882539987564087,-0.0458076621095339,0.1714611301819483,-1.2994989554087322,1.390841007232666,-1.532268484433492
0.55,1.6887020478991818e+18,105.5471815592448,-2.1467846632003784,3.638348420461019,1.2255493799845378,1.6887020478991818e+18,105.5471815592448,-2.301097790400187,-5.987041632334392,3.2514472007751465,1.6887020478991818e+18,105.5471815592448,-0.160159142067035,-9.607885360717772,1.9632104237874348,1.6887020479078377e+18,105.55583756510418,-0.8123489816983541,0.7884743412335714,-1.3167709310849507,1.6887020479078377e+18,105.55583756510418,-0.8136216004689535,0.7930049002170563,-1.314480185508728,,,,,,,,,,,,1.6887020478971878e+18,105.54518784179687,-22.670039367675777,45.30591812133789,4.174839925765991,1.6887020478971878e+18,105.54518784179687,-277.21083984375,140.7709197998047,-129.03695678710938,1.6887020478991818e+18,105.5471815592448,0.6681320468584696,-0.7065515518188477,-0.0813091024756431,0.2181077450513839,-1.6241793235143025,1.36861252784729,-1.0884859760602317
0.6,1.688702047951093e+18,105.59909301757811,-2.6051135460535684,-1.1594018936157229,1.7485624154408772,1.688702047951093e+18,105.59909301757811,-3.249054272969564,-10.664810498555502,4.21396009127299,1.688702047951093e+18,105.59909301757811,-0.6497867703437805,-9.487903912862144,2.402710278828939,1.6887020479510886e+18,105.59908862304688,-0.9535606503486632,-2.1328359246253967,-0.1305724531412124,1.6887020479510886e+18,105.59908862304688,-0.9547823667526244,-2.128254473209381,-0.1282817050814628,,,,,,,,,,,,1.6887020479471882e+18,105.59518823242188,-20.40571975708008,46.23555908203125,1.942239974439144,1.6887020479471882e+18,105.59518823242188,-274.94651489257814,141.7005584716797,-131.2695556640625,1.688702047951093e+18,105.59909301757811,0.6488990585009257,-0.7260929346084595,-0.0569061785936355,0.2193700571854908,-1.815714120864868,1.3157154321670532,-0.9293314019838969
0.65,1.6887020480029993e+18,105.65099918619792,-0.0777050852775573,3.108506520589193,-0.1215013662974039,1.6887020480029993e+18,105.65099918619792,-1.0849456588427226,-6.292325973510742,2.613361120223999,1.6887020480029993e+18,105.65099918619792,-1.0130865971247356,-9.3833278020223,2.672175089518229,1.6887020479943475e+18,105.64234749348958,-0.8231409192085266,-4.305429140726726,0.4243477284908294,1.6887020479943475e+18,105.64234749348958,-0.8244135578473409,-4.300898551940918,0.4265366593996684,,,,,,,,,,,,1.6887020479971878e+18,105.64518793945312,-20.947399520874026,45.920799255371094,-3.5941198587417604,1.6887020479971878e+18,105.64518793945312,-275.4881958007812,141.38580017089845,-136.80591735839843,1.6887020480029993e+18,105.65099918619792,0.6509893933931986,-0.7402087052663168,0.0247206618078053,0.1628030538558959,-1.9157345692316692,1.2760251363118489,-1.0280424356460571
0.7,1.688702048054906e+18,105.70290592447918,3.729049523671468,0.470547358194987,0.9045539697011312,1.688702048054906e+18,105.70290592447918,1.5822539329528809,-8.81535784403483,3.2995030085245767,1.688702048054906e+18,105.70290592447918,-2.1526416540145874,-9.268400510152182,2.332261641820272,1.688702048046252e+18,105.694251953125,0.1386664112408955,-5.574705282847087,-1.5315409501393635,1.688702048046252e+18,105.694251953125,0.1373937726020813,-5.570225715637207,-1.529301126797994,,,,,,,,,,,,1.688702048047188e+18,105.6951880859375,-17.65095958709717,46.4868782043457,-8.964559650421142,1.688702048047188e+18,105.6951880859375,-272.19176025390624,141.95187377929688,-142.17635803222657,1.688702048054906e+18,105.70290592447918,0.6224299867947897,-0.7705106337865194,0.1153896749019622,0.0631686225533485,-2.2944318453470864,1.2389949162801106,-0.9222058057785034
0.75,1.6887020481068116e+18,105.75481176757812,12.254183133443195,-1.479534149169922,3.0862955252329507,1.6887020481068116e+18,105.75481176757812,8.118647734324137,-10.187841415405272,4.9324049949646,1.6887020481068116e+18,105.75481176757812,-4.141381184260051,-8.690802574157715,1.7834219932556152,1.6887020480981588e+18,105.74615901692708,0.3325652182102203,-1.974316438039144,-4.293059190114339,1.6887020480981588e+18,105.74615901692708,0.3313434819380442,-1.9697858492533369,-4.29081932703654,,,,,,,,,,,,1.6887020480971894e+18,105.745189453125,-7.571319985389709,48.06555938720703,-11.58755989074707,1.6887020480971894e+18,105.745189453125,-262.11211547851565,143.5305603027344,-144.7993591308594,1.6887020481068116e+18,105.75481176757812,0.5382787386576334,-0.827763299147288,0.1545024961233138,0.0106543535366654,-2.7208518187204995,1.0938746531804402,-0.6305140852928162
0.8,1.688702048158715e+18,105.8067150065104,5.961237112681071,-3.558403809865316,2.918011029561361,1.688702048158715e+18,105.8067150065104,1.0000004371007285,-11.575877825419107,5.705087343851726,1.688702048158715e+18,105.8067150065104,-4.967082818349202,-7.999969323476155,2.724388837814331,1.6887020481500662e+18,105.7980662434896,0.5153666436672211,5.953034559885661,-2.541250308354696,1.6887020481500662e+18,105.7980662434896,0.5141449173291525,5.957564989725749,-2.539010485013326,,,,,,,,,,,,1.68870204814719e+18,105.7951900390625,1.2956399321556091,48.84879913330078,-11.165439796447751,1.68870204814719e+18,105.7951900390625,-253.24515380859376,144.3138000488281,-144.37723388671876,1.688702048158715e+18,105.8067150065104,0.4838971594969432,-0.8623725374539694,0.0855661109089851,0.1136020819346109,-2.6365776856740317,0.9562642176946003,-0.4630981385707855
0.85,1.688702048201967e+18,105.84996716308592,0.3479413986206054,-4.813193082809448,-0.8048173189163208,1.688702048201967e+18,105.84996716308592,-4.7024946212768555,-12.533605098724363,2.6243282556533813,1.688702048201967e+18,105.84996716308592,-5.056282043457031,-7.70290732383728,3.3664581775665283,1.6887020482019717e+18,105.84997127278643,-0.2559016322096188,1.0745628774166107,-0.4991787274678547,1.6887020482019717e+18,105.84997127278643,-0.2571233635147412,1.0790934364000957,-0.4969388842582702,1.6887020481846748e+18,105.8326748046875,0.0,0.0,1.0319379568099976,6.751999855041504,1.517243504524231,258.3961486816406,43.10000228881836,-122.7563799,49.1905553,1.688702048197186e+18,105.84518588867186,3.29399995803833,48.46815872192383,-10.548119926452635,1.688702048197186e+18,105.84518588867186,-251.24679870605468,143.93315734863282,-143.75991516113282,1.688702048201967e+18,105.84996716308592,0.4625781327486038,-0.8682778775691986,0.0481812991201877,0.1725852191448211,-2.55005145072937,0.905387669801712,-0.4051281213760376
0.9,1.6887020482452296e+18,105.89322965494792,4.580901304880778,-4.864626248677571,-2.4964595635732016,1.6887020482452296e+18,105.89322965494792,-0.1657030185063681,-12.7706937789917,0.9431709051132202,1.6887020482452296e+18,105.89322965494792,-4.752450307210286,-7.888562838236491,3.376943031946818,1.68870204825388e+18,105.90188012695312,-0.7671958406766256,-1.715767780939738,1.5197309255599976,1.68870204825388e+18,105.90188012695312,-0.7684175570805868,-1.711288054784139,1.5218689441680908,,,,,,,,,,,,1.68870204824719e+18,105.89518984375,2.008119988441467,48.31443786621094,-11.912079620361329,1.68870204824719e+18,105.89518984375,-252.53267517089844,143.77943725585936,-145.123876953125,1.6887020482452296e+18,105.89322965494792,0.4824869732062022,-0.8577662507692972,0.06980753565828,0.1619429091612497,-2.5193069775899253,0.936294674873352,-0.4849437475204468
0.95,1.688702048297139e+18,105.94513899739584,8.797299067179361,-7.987312316894531,-2.5658699671427407,1.688702048297139e+18,105.94513899739584,4.800999244054158,-16.293526967366535,0.8560323069492976,1.688702048297139e+18,105.94513899739584,-4.002145528793335,-8.288710594177246,3.3592148621877036,1.688702048305786e+18,105.95378637695312,0.8487463394800822,2.2110268274943032,2.6604199409484863,1.688702048305786e+18,105.95378637695312,0.847473735610644,2.215557336807251,2.6626088619232178,,,,,,,,,,,,1.68870204829719e+18,105.945190234375,-1.725079983472824,47.906959533691406,-12.763639831542967,1.68870204829719e+18,105.945190234375,-256.2658752441406,143.37195434570313,-145.97543640136718,1.688702048297139e+18,105.94513899739584,0.5234528183937073,-0.833489735921224,0.0883420482277869,0.1510413189729054,-2.4349252382914224,1.00877978404363,-0.6144572297732035
1.0,1.6887020483490373e+18,105.9970370279948,-0.7978154818216959,-4.889223416646321,0.1086603005727131,1.6887020483490373e+18,105.9970370279948,-3.1413772900899253,-13.943774859110514,3.139582713445028,1.6887020483490373e+18,105.9970370279948,-2.3494077920913696,-9.037046750386557,2.9682350158691406,1.688702048357693e+18,106.00569295247396,2.402787526448568,1.6104953686396282,2.394744396209717,1.688702048357693e+18,106.00569295247396,2.401514927546183,1.6150258978207903,2.396984259287516,,,,,,,,,,,,1.68870204834719e+18,105.99519008789062,-10.455399703979491,48.265638732910155,-8.62295970916748,1.68870204834719e+18,105.99519008789062,-264.99619140625,143.7306365966797,-141.8347595214844,1.6887020483490373e+18,105.9970370279948,0.5920287171999613,-0.7857969601949056,0.0242584560376902,0.1751952370007832,-2.229700247446696,1.174716035525004,-0.6937871774037679
1.05,1.6887020484009482e+18,106.0489482421875,-0.054650068283081,-3.92647647857666,4.892149051030477,1.6887020484009482e+18,106.0489482421875,-1.277767300605774,-13.47358544667562,6.903093973795573,1.6887020484009482e+18,106.0489482421875,-1.2289633353551228,-9.529604276021322,1.9482573668162029,1.688702048409599e+18,106.05759903971354,1.917811433474223,-1.0664179921150208,1.5102625091870625,1.688702048409599e+18,106.05759903971354,1.9165388345718384,-1.0618365307648976,1.512502372264862,,,,,,,,,,,,1.6887020483971866e+18,106.04518662109376,-16.743279647827148,47.301839447021486,-2.620559883117676,1.6887020483971866e+18,106.04518662109376,-271.28407592773436,142.76683959960937,-135.8323547363281,1.6887020484009482e+18,106.0489482421875,0.6459459662437439,-0.7491022348403931,-0.0138498991727828,0.1449632346630096,-2.121741851170858,1.3342365026474,-0.7931089003880819
1.1,1.6887020484528438e+18,106.10084375,5.939094364643097,-0.4126545588175456,8.867815971374512,1.6887020484528438e+18,106.10084375,5.259224835783242,-10.151350657145182,10.02712313334147,1.6887020484528438e+18,106.10084375,-0.6857155760129293,-9.72119140625,1.0966193278630574,1.6887020484528492e+18,106.10084924316406,1.7621171474456787,3.362202286720276,0.6956228017807007,1.6887020484528492e+18,106.10084924316406,1.7608190774917605,3.3667837381362915,0.6978371739387512,,,,,,,,,,,,1.688702048447182e+18,106.09518212890626,-19.91283950805664,46.56251831054688,2.6717999458312987,1.688702048447182e+18,106.09518212890626,-274.4536376953125,142.0275146484375,-130.5399963378906,1.6887020484528438e+18,106.10084375,0.670612613360087,-0.7280680139859518,-0.0545891392976045,0.1278262262543042,-2.1060739358266196,1.439048171043396,-0.7761869033177694
1.15,1.6887020485047583e+18,106.15275870768228,-3.8655404249827066,5.905967394510905,5.346981525421143,1.6887020485047583e+18,106.15275870768228,-4.233302195866902,-3.9072800477345786,5.695715427398682,1.6887020485047583e+18,106.15275870768228,-0.3736078639825185,-9.795742988586426,0.2860464886762202,1.6887020484960983e+18,106.14409822591146,1.9312504927317304,2.010815660158793,0.3536400794982909,1.6887020484960983e+18,106.14409822591146,1.929977854092916,2.0153971513112388,0.3558799078067143,,,,,,,,,,,,1.6887020484971863e+18,106.14518618164064,-20.108039474487303,45.16195907592773,9.611159610748292,1.6887020484971863e+18,106.14518618164064,-274.6488342285156,140.6269561767578,-123.6006362915039,1.6887020485047583e+18,106.15275870768228,0.6786497831344604,-0.7072086334228516,-0.1317453781763712,0.1473173797130584,-2.5938318570454917,1.5215789079666138,-0.1503513852755228
1.2,1.6887020485566671e+18,106.20466715494793,-5.131296475728353,8.126118342081705,3.1327112515767417,1.6887020485566671e+18,106.20466715494793,-5.122634490331014,-1.686541199684143,2.7074788411458335,1.6887020485566671e+18,106.20466715494793,0.0028160184738225,-9.79515520731608,-0.4879197577635447,1.6887020485480154e+18,106.1960155436198,1.5197818279266355,-0.5815946360429128,1.0929397344589231,1.6887020485480154e+18,106.1960155436198,1.5185600916544597,-0.5770640075206757,1.0951795776685078,,,,,,,,,,,,1.6887020485471854e+18,106.1951854003906,-22.252799606323244,43.549119567871095,14.225199699401855,1.6887020485471854e+18,106.1951854003906,-276.79359130859376,139.0141174316406,-118.9865966796875,1.6887020485566671e+18,106.20466715494793,0.6975351770718893,-0.6882450381914774,-0.1566206713517506,0.1226069877545038,1.6185466051101685,1.5184287230173747,1.920710841814677
1.25,1.688702048608568e+18,106.25656795247396,-1.2646727164586384,9.407490412394203,3.0015730063120523,1.688702048608568e+18,106.25656795247396,-0.8087740540504456,-0.3748755554358164,2.2430718342463174,1.688702048608568e+18,106.25656795247396,0.4500526090463002,-9.764861106872557,-0.8211885690689087,1.6887020485999227e+18,106.2479228515625,0.625169664621353,-1.1440996726353962,0.757574717203776,1.6887020485999227e+18,106.2479228515625,0.6238970458507538,-1.139620025952657,0.7598654627799988,,,,,,,,,,,,1.6887020485971889e+18,106.24518876953124,-25.12711944580078,41.57027893066406,15.491559791564942,1.6887020485971889e+18,106.24518876953124,-279.667919921875,137.0352752685547,-117.7202377319336,1.688702048608568e+18,106.25656795247396,0.7184759775797526,-0.6739330887794495,-0.1448647677898406,0.0924304177363713,1.0386931498845418,1.4733225504557292,2.4404962062835693
1.3,1.6887020486518246e+18,106.29982458496094,-1.2588996291160583,9.320709705352783,2.8814059495925903,1.6887020486518246e+18,106.29982458496094,-0.7037889510393143,-0.4654040038585663,2.234597325325012,1.6887020486518246e+18,106.29982458496094,0.5492646396160126,-9.768609046936035,-0.7094960510730743,1.688702048651824e+18,106.2998241373698,-0.4624249854435523,-0.8968519767125449,-0.1192205324769019,1.688702048651824e+18,106.2998241373698,-0.4636976215988397,-0.8923723101615906,-0.1169806917508443,,,,,,,,,,,,1.6887020486471882e+18,106.29518828125,-26.45691909790039,40.88707885742187,14.696119689941408,1.6887020486471882e+18,106.29518828125,-280.9977111816406,136.35207824707032,-118.51567840576172,1.6887020486518246e+18,106.29982458496094,0.7232734858989716,-0.6736333966255188,-0.1271755583584308,0.0830633901059627,0.8737449049949646,1.476806342601776,2.566615343093872
1.35,1.6887020486950843e+18,106.3430841471354,14.746416489283243,-4.079002698262532,-0.5956090291341146,1.6887020486950843e+18,106.3430841471354,15.242480039596558,-13.884153842926024,-0.5196413199106852,1.6887020486950843e+18,106.3430841471354,0.4902168413003285,-9.787646611531576,0.0132803010443846,1.6887020487037386e+18,106.35173852539064,-2.1513655185699463,-7.127219359079997,1.4818573395411174,1.6887020487037386e+18,106.35173852539064,-2.152587374051412,-7.12268861134847,1.4841480652491252,,,,,,,,,,,,1.6887020486971858e+18,106.3451857910156,-27.92091979980469,41.98263931274414,8.205719900131225,1.6887020486971858e+18,106.3451857910156,-282.46171875,137.44763793945313,-125.0060791015625,1.6887020486950843e+18,106.3430841471354,0.7239659428596497,-0.683770497639974,-0.0477010514587164,0.0515135210007429,0.084206213708967,1.5060674746831255,-0.9907348155975342
1.4,1.6887020487469868e+18,106.39498657226562,7.554442783196767,-14.806891759236654,2.658675034840902,1.6887020487469868e+18,106.39498657226562,8.680362780888876,-24.5074888865153,3.813361565272013,1.6887020487469868e+18,106.39498657226562,1.1200740536053977,-9.683093706766764,1.0919991532961528,1.6887020487556416e+18,106.4036416829427,-0.6124433080355326,-0.4030692204833031,-0.6246097087860107,1.6887020487556416e+18,106.4036416829427,-0.6136650492747625,-0.3985386987527212,-0.6224207878112793,,,,,,,,,,,,1.6887020487471898e+18,106.39518989257812,-32.0786792755127,39.947679138183595,-3.8429999351501465,1.6887020487471898e+18,106.39518989257812,-286.6194763183594,135.41268005371094,-137.05479736328124,1.6887020487469868e+18,106.39498657226562,0.7483524680137634,-0.6595550576845804,0.0691606526573498,0.008170195079098,-0.7589297890663147,1.4033976395924883,-2.469251871109009
1.45,1.6887020487989015e+18,106.44690177408854,-3.3095876375834146,-0.6639048258463541,4.565864086151123,1.6887020487989015e+18,106.44690177408854,-2.6075785160064697,-10.412367820739746,5.651847044626872,1.6887020487989015e+18,106.44690177408854,0.6961630980173746,-9.730958302815756,1.0232957204182942,1.6887020488075476e+18,106.4555477701823,0.4739805161952972,2.06660803159078,-0.7265223860740662,1.6887020488075476e+18,106.4555477701823,0.4727587898572286,2.071138620376587,-0.7242825627326965,,,,,,,,,,,,1.6887020487971858e+18,106.44518579101562,-30.197439193725582,41.30919876098633,-3.093919944763184,1.6887020487971858e+18,106.44518579101562,-284.7382385253906,136.77419738769532,-136.30571594238282,1.6887020487989015e+18,106.44690177408854,0.7333319187164307,-0.677516520023346,0.0459145413090784,0.0291010135163863,-0.9454845388730369,1.438410480817159,-2.2199522654215493
1.5,1.6887020488507955e+18,106.49879557291668,-1.422921657562256,4.0747965176900225,4.19067645072937,1.6887020488507955e+18,106.49879557291668,-1.1294122959176698,-5.71286408106486,5.061418215433757,1.6887020488507955e+18,106.49879557291668,0.2876633318761984,-9.770155906677246,0.8080543677012125,1.6887020488594442e+18,106.50744417317708,0.4667010505994161,0.6554075156648954,-1.373123288154602,1.6887020488594442e+18,106.50744417317708,0.4654793242613474,0.6599889794985453,-1.3708325624465942,,,,,,,,,,,,1.6887020488471864e+18,106.49518627929687,-28.15027961730957,42.45111923217773,0.4977599799633026,1.6887020488471864e+18,106.49518627929687,-282.6910766601562,137.91611938476564,-132.7140380859375,1.6887020488507955e+18,106.49879557291668,0.7178893287976583,-0.6940860350926717,0.0087752466400464,0.0516916848719119,-1.19156152009964,1.4771543741226196,-1.889264702796936
1.55,1.688702048902708e+18,106.55070792643228,-0.6830143183469772,1.85718568166097,5.4807736078898115,1.688702048902708e+18,106.55070792643228,-1.0027921150128047,-7.934599876403809,6.30109961827596,1.688702048902708e+18,106.55070792643228,-0.3256238500277201,-9.774280865987144,0.757638692855835,1.6887020489027098e+18,106.5507098388672,-0.1879937797784805,1.467145562171936,-1.0125091671943665,1.6887020489027098e+18,106.5507098388672,-0.1892155036330223,1.4716507196426392,-1.010218381881714,,,,,,,,,,,,1.6887020488971894e+18,106.54518950195312,-25.39307975769043,43.971238708496095,2.5278399705886843,1.6887020488971894e+18,106.54518950195312,-279.9338684082031,139.43623962402344,-130.6839569091797,1.688702048902708e+18,106.55070792643228,0.6945513089497884,-0.7161833246548971,-0.0114533615609009,0.0661263378957906,-1.878051996231079,1.4869630734125774,-1.153663436571757
1.6,1.6887020489546117e+18,106.60261189778646,-1.035654842853546,2.6340559323628745,3.6216958363850913,1.6887020489546117e+18,106.60261189778646,-1.7164514462153118,-7.099903583526611,4.838686307271321,1.6887020489546117e+18,106.60261189778646,-0.6866426467895508,-9.71645482381185,1.154302994410197,1.688702048945969e+18,106.59396875,-0.7374161680539449,0.8287914345661799,-0.7069747050603231,1.688702048945969e+18,106.59396875,-0.7386378844579061,0.8332710911830267,-0.7047857840855917,,,,,,,,,,,,1.6887020489471903e+18,106.59519008789064,-23.262959289550786,44.99359970092773,2.608359956741333,1.6887020489471903e+18,106.59519008789064,-277.803759765625,140.4585968017578,-130.6034393310547,1.6887020489546117e+18,106.60261189778646,0.6772633790969849,-0.7287031014760336,-0.0191007169584432,0.0993659744660059,-2.0546788374582925,1.4358465671539309,-0.9187886714935304
1.65,1.6887020490065183e+18,106.6545185546875,0.345100740591685,5.087928930918376,0.8984413544336954,1.6887020490065183e+18,106.6545185546875,-0.641276478767395,-4.5583271980285645,2.54815673828125,1.6887020490065183e+18,106.6545185546875,-0.9922232429186504,-9.628751436869305,1.5870279868443806,1.6887020489978683e+18,106.6458680826823,-0.8317948579788208,-0.6716972390810648,-0.4868595898151397,1.6887020489978683e+18,106.6458680826823,-0.833016574382782,-0.6671157578627268,-0.4846706688404083,,,,,,,,,,,,1.6887020489971848e+18,106.64518466796876,-21.4768798828125,46.13795852661133,1.14191997051239,1.6887020489971848e+18,106.64518466796876,-276.0176696777344,141.60295715332032,-132.06987915039062,1.6887020490065183e+18,106.6545185546875,0.6643185218175253,-0.7394728064537048,0.0021565950398022,0.1084576100111007,-2.0916836261749268,1.3813849290211997,-0.8987592657407125
1.7,1.6887020490584246e+18,106.70642464192709,0.8229594230651855,2.63200044631958,1.0612307786941528,1.6887020490584246e+18,106.70642464192709,-0.5892325739065806,-6.885546525319417,3.107877810796102,1.6887020490584246e+18,106.70642464192709,-1.418038010597229,-9.50004227956136,1.9839596350987752,1.688702049049776e+18,106.69777628580732,-0.9775370955467224,-1.6623679399490356,-0.6570364832878113,1.688702049049776e+18,106.69777628580732,-0.9788097341855369,-1.65778648853302,-0.6547457377115885,,,,,,,,,,,,1.6887020490471892e+18,106.69518930664064,-20.90103988647461,45.98667907714844,-1.9812799096107483,1.6887020490471892e+18,106.69518930664064,-275.44183349609375,141.45167541503906,-135.19307556152344,1.6887020490584246e+18,106.70642464192709,0.6492434144020081,-0.7527315020561218,0.04274759752055,0.0989285608132679,-2.1604204972585044,1.3219902118047078,-0.9011009534200032
1.75,1.6887020491016745e+18,106.74967468261718,1.3059275150299072,-0.8365230560302734,1.3998301029205322,1.6887020491016745e+18,106.74967468261718,-0.7887341678142548,-10.169197082519531,3.7016966342926025,1.6887020491016745e+18,106.74967468261718,-2.10050767660141,-9.31516933441162,2.2391791343688965,1.6887020491016745e+18,106.74967447916669,-0.9971866210301716,-2.6350181897481284,-1.5541938940684,1.6887020491016745e+18,106.74967447916669,-0.998408317565918,-2.6304875214894614,-1.5520049730936687,,,,,,,,,,,,1.6887020490971817e+18,106.74518154296877,-16.618839454650878,47.08711929321289,-6.731960010528565,1.6887020490971817e+18,106.74518154296877,-271.1596374511719,142.55211791992187,-139.94375915527343,1.6887020491016745e+18,106.74967468261718,0.6247368156909943,-0.7717124223709106,0.0889749079942702,0.0777712613344192,-2.299931287765503,1.2550159096717834,-0.8577354252338409
1.8,1.6887020491449295e+18,106.79292944335936,2.3848190307617188,-2.6174535751342773,1.107746918996175,1.6887020491449295e+18,106.79292944335936,-0.9264211654663086,-11.568898518880207,3.435295740763346,1.6887020491449295e+18,106.79292944335936,-3.3170862197875977,-8.933940251668295,2.2648614247639975,1.6887020491535823e+18,106.80158235677084,-1.1111129919687908,-4.322940508524577,-3.2128966649373374,1.6887020491535823e+18,106.80158235677084,-1.112334708372752,-4.3183590571085615,-3.2106568018595376,,,,,,,,,,,,1.6887020491471818e+18,106.79518198242188,-8.94503993988037,47.84107971191406,-11.138599967956544,1.6887020491471818e+18,106.79518198242188,-263.48583984375,143.3060791015625,-144.35039978027345,1.6887020491449295e+18,106.79292944335936,0.5758657455444336,-0.8025902509689331,0.1451551417509714,0.0428749118000268,-2.51786740620931,1.1504450639088948,-0.7721104025840759
1.85,1.688702049196836e+18,106.84483601888024,17.93917226791382,-7.137473424275716,2.7892817656199136,1.688702049196836e+18,106.84483601888024,12.95693544546763,-15.301303227742514,5.05523665746053,1.688702049196836e+18,106.84483601888024,-4.988083203633626,-8.14632511138916,2.203267494837443,1.6887020492054848e+18,106.85348470052084,0.1337285836537679,3.677866816520691,-1.8687385444839797,1.6887020492054848e+18,106.85348470052084,0.1325068573156992,3.6824482679367065,-1.8664987136920292,1.6887020492227884e+18,106.87078833007811,0.0,0.0,1.0415269136428833,6.7779998779296875,1.491412878036499,254.7907257080078,43.10000228881836,-122.7563981,49.1905435,1.6887020491971825e+18,106.84518256835938,0.9101199626922608,47.753239440917966,-13.990959739685058,1.6887020491971825e+18,106.84518256835938,-253.63067626953125,143.2182373046875,-147.2027618408203,1.688702049196836e+18,106.84483601888024,0.157377670208613,-0.288278837998708,0.0541688899199167,0.0259915897622704,-2.715771277745565,0.983870486418406,-0.6687051852544149
1.9,1.6887020492487437e+18,106.89674365234374,-1.5496203104654949,-4.454590479532878,-1.3652904431025188,1.6887020492487437e+18,106.89674365234374,-5.928018728892009,-12.604791641235352,1.9806589086850483,1.6887020492487437e+18,106.89674365234374,-4.384244441986084,-8.132696469624838,3.2832619349161782,1.688702049257394e+18,106.90539371744792,0.1411098738511403,2.971910278002421,0.7074837485949198,1.688702049257394e+18,106.90539371744792,0.1398881524801254,2.9764917294184365,0.7097745140393575,,,,,,,,,,,,1.688702049247182e+18,106.89518208007811,-1.6713999807834623,47.98747863769531,-13.219919776916504,1.688702049247182e+18,106.89518208007811,-256.2121948242187,143.45247802734374,-146.4317199707031,1.6887020492487437e+18,106.89674365234374,0.511941154797872,-0.8407014211018881,0.1167786717414855,0.129860259592533,-2.4878434340159097,0.9807971914609274,-0.6344843506813049
1.95,1.6887020493006495e+18,106.94864957682292,0.0333429177602132,-7.122679710388184,-3.139976501464844,1.6887020493006495e+18,106.94864957682292,-3.807579060395559,-15.458032608032228,0.4209373941024144,1.6887020493006495e+18,106.94864957682292,-3.846767981847127,-8.317848523457846,3.4982265631357827,1.6887020493093005e+18,106.9573005371094,-0.3039563708007335,-1.9511544903119404,1.0798061192035675,1.6887020493093005e+18,106.9573005371094,-0.3052289932966232,-1.9466748237609863,1.0819950799147289,,,,,,,,,,,,1.688702049297182e+18,106.94518198242189,-4.987359809875488,47.843519592285155,-13.532239723205567,1.688702049297182e+18,106.94518198242189,-259.5281494140625,143.3085144042969,-146.74403686523436,1.6887020493006495e+18,106.94864957682292,0.5351625283559164,-0.8243387142817179,0.1163295482595761,0.1422521372636158,-2.392599900563558,1.0149777730305989,-0.7108106215794882
2.0,1.6887020493525558e+18,107.00055566406252,13.26099936167399,-6.783156077067058,-0.3600304921468098,1.6887020493525558e+18,107.00055566406252,10.057830810546877,-15.449657758076986,2.9960133085648217,1.6887020493525558e+18,107.00055566406252,-3.209014336268107,-8.64899730682373,3.293356418609619,1.688702049352555e+18,107.00055493164062,1.916284263134003,5.269094467163086,1.4343879222869873,1.688702049352555e+18,107.00055493164062,1.9150625467300415,5.273675918579102,1.4365260004997251,,,,,,,,,,,,1.6887020493471803e+18,106.99518061523436,-7.088199806213379,47.63855972290039,-12.805119705200196,1.6887020493471803e+18,106.99518061523436,-261.6289916992188,143.1035583496094,-146.01691589355468,1.6887020493525558e+18,107.00055566406252,0.5634234348932902,-0.8066204786300659,0.0948518514633178,0.1443142915765444,-2.326003154118856,1.0832475423812866,-0.7438404162724813
2.05,1.6887020494044654e+18,107.05246557617188,-3.4877344767252603,-2.4883909225463867,2.669863224029541,1.6887020494044654e+18,107.05246557617188,-5.1359944343566895,-11.903096199035645,4.950750192006429,1.6887020494044654e+18,107.05246557617188,-1.6541059811909993,-9.39720058441162,2.218199610710144,1.6887020493958175e+18,107.04381778971354,3.384855270385742,1.5273667474587758,2.475022315979004,1.6887020493958175e+18,107.04381778971354,3.383633534113566,1.5318464040756228,2.477262258529663,,,,,,,,,,,,1.6887020493971889e+18,107.04518876953124,-14.088559913635256,47.69955902099609,-4.2797599077224735,1.6887020493971889e+18,107.04518876953124,-268.6293518066406,143.16455688476563,-137.49155883789064,1.6887020494044654e+18,107.05246557617188,0.6280661424001058,-0.7623527447382609,-0.0053161128113667,0.1536376327276229,-2.187633434931437,1.2866627375284831,-0.7263062198956808
2.1,1.6887020494563768e+18,107.10437679036458,0.0886005361874898,-4.226256688435872,8.81922690073649,1.6887020494563768e+18,107.10437679036458,-0.5334000984827677,-13.940584818522137,10.20100180308024,1.6887020494563768e+18,107.10437679036458,-0.6278466582298279,-9.696823438008629,1.3190871477127075,1.6887020494477268e+18,107.09572680664064,1.4313081900278728,-1.9002490441004436,2.042071580886841,1.6887020494477268e+18,107.09572680664064,1.4300864537556963,-1.895718455314636,2.0443623463312783,,,,,,,,,,,,1.688702049447191e+18,107.0951908691406,-20.39595947265625,45.93055877685547,0.5245999813079834,1.688702049447191e+18,107.0951908691406,-274.9367614746094,141.39555969238282,-132.68719787597655,1.6887020494563768e+18,107.10437679036458,0.678501566251119,-0.7273545861244202,-0.0075993093972404,0.1004643912116686,-1.9674867788950603,1.4219194650650024,-1.0206440687179563
2.15,1.6887020495082852e+18,107.1562852376302,4.294249544541041,4.131805419921875,7.174227237701416,1.6887020495082852e+18,107.1562852376302,4.200998822848002,-5.680959701538086,7.679365475972493,1.6887020495082852e+18,107.1562852376302,-0.0990966608126958,-9.795260429382324,0.4424504538377126,1.6887020494996288e+18,107.14762906901042,1.934152086575826,1.130406141281128,0.9291260242462158,1.6887020494996288e+18,107.14762906901042,1.93293035030365,1.1348857680956523,0.9313149452209472,,,,,,,,,,,,1.6887020494971878e+18,107.14518784179684,-23.65823974609375,44.39823989868164,3.052439975738525,1.6887020494971878e+18,107.14518784179684,-278.19902954101565,139.8632385253906,-130.15935668945312,1.6887020495082852e+18,107.1562852376302,0.7018587589263916,-0.7074848810831705,-0.0374148900931079,0.0703708504637082,-1.4663012623786926,1.5205362637837727,-1.522641936937968
2.2,1.6887020495515397e+18,107.19953942871096,-4.6273417472839355,7.365566492080688,3.365556597709656,1.6887020495515397e+18,107.19953942871096,-4.3911285400390625,-2.45623242855072,3.2183464765548706,1.6887020495515397e+18,107.19953942871096,0.2303671538829803,-9.80429458618164,-0.2098975032567977,1.6887020495515402e+18,107.19954028320312,1.5124005873998003,1.555924693743388,0.6102543870608012,1.6887020495515402e+18,107.19954028320312,1.5111279090245564,1.5605061650276184,0.6124433080355326,,,,,,,,,,,,1.688702049547189e+18,107.19518916015625,-24.58787956237793,42.93423919677734,9.738039684295654,1.688702049547189e+18,107.19518916015625,-279.12868041992186,138.39923706054688,-123.47375793457032,1.6887020495515397e+18,107.19953942871096,0.7127872407436371,-0.6904183030128479,-0.0927812121808528,0.08108951151371,0.5443330556154251,1.5340992212295532,2.84382426738739
2.25,1.688702049594787e+18,107.2427869466146,-6.65733273824056,8.410070737202963,2.766618251800537,1.688702049594787e+18,107.2427869466146,-6.234100580215454,-1.383250892162323,2.140579263369242,1.688702049594787e+18,107.2427869466146,0.4173863430817922,-9.775817235310871,-0.6887264053026835,1.688702049603441e+18,107.25144099934896,0.8497135440508524,-1.5497142275174458,0.7730499903361002,1.688702049603441e+18,107.25144099934896,0.848440925280253,-1.5452345410982768,0.7752898136774699,,,,,,,,,,,,1.688702049597188e+18,107.24518803710936,-25.863999938964845,41.47999877929688,12.9783597946167,1.688702049597188e+18,107.24518803710936,-280.40479736328126,136.9449951171875,-120.23343811035156,1.688702049594787e+18,107.2427869466146,0.7217480540275574,-0.6813191970189413,-0.1051098977526028,0.0604866109788417,0.95306525627772,1.485598047574361,2.4234840075174966
2.3,1.6887020496466985e+18,107.29469848632812,-1.1988490025202434,9.745964368184408,2.3448715209960938,1.6887020496466985e+18,107.29469848632812,-0.415354127685229,-0.0175473683824141,1.6073785622914631,1.6887020496466985e+18,107.29469848632812,0.7776488264401754,-9.746007283528646,-0.8001802961031595,1.688702049655353e+18,107.303353515625,-0.0374663981298605,-0.5167410708963871,0.4484768956899643,1.688702049655353e+18,107.303353515625,-0.0387390367686748,-0.512159596507748,0.4507676561673482,,,,,,,,,,,,1.688702049647188e+18,107.295187890625,-28.887158966064455,39.90863952636719,12.26099967956543,1.688702049647188e+18,107.295187890625,-283.4279479980469,135.3736358642578,-120.95079803466795,1.6887020496466985e+18,107.29469848632812,0.736564834912618,-0.6701724926630656,-0.0848196297883987,0.0334447349111238,0.7441644668579102,1.451775272687276,2.5651745796203613
2.35,1.6887020496986043e+18,107.3466044921875,-3.778274695078532,8.188819408416748,1.58613787094752,1.6887020496986043e+18,107.3466044921875,-3.0492535829544067,-1.5972091058890026,1.1507482727368672,1.6887020496986043e+18,107.3466044921875,0.7231749892234802,-9.768524169921877,-0.4980769554773966,1.6887020497072543e+18,107.35525455729169,-1.173930287361145,-3.838219116131465,-0.6987280199925104,1.6887020497072543e+18,107.35525455729169,-1.1751519838968911,-3.83368855714798,-0.6964372843503952,,,,,,,,,,,,1.6887020496971889e+18,107.3451888183594,-29.28243980407715,40.05015869140625,11.22399959564209,1.6887020496971889e+18,107.3451888183594,-283.82322998046874,135.5151580810547,-121.98779754638672,1.6887020496986043e+18,107.3466044921875,0.735101044178009,-0.673632025718689,-0.0655329537888367,0.0353060973187287,0.5136613150437673,1.4736328125,2.770862023035685
2.4,1.6887020497505096e+18,107.398509765625,23.954554557800293,-15.442186991373696,3.107613960901896,1.6887020497505096e+18,107.398509765625,25.00978183746338,-25.17648188273112,3.8552360932032266,1.6887020497505096e+18,107.398509765625,1.049380322297414,-9.716790835062662,0.6849347104628881,1.6887020497591603e+18,107.40716031901044,-2.0958277384440103,-4.511596282323201,1.4892385403315227,1.6887020497591603e+18,107.40716031901044,-2.097049514452616,-4.507014830907186,1.491478423277537,1.6887020497280911e+18,107.37609106445312,0.0,0.0,1.0415269136428833,6.699999809265137,1.4486721754074097,250.09555053710935,43.10000228881836,-122.7564106,49.1905278,1.688702049747189e+18,107.3951888671875,-31.27103958129883,39.84763946533203,-1.239520025253296,1.688702049747189e+18,107.3951888671875,-285.81182861328125,135.31263427734376,-134.4513168334961,1.6887020497505096e+18,107.398509765625,-0.7467330495516459,0.6593735814094543,-0.0731671309719482,0.0264840877304473,-0.5132001141707102,1.4292710622151692,-2.769986391067505
2.45,1.6887020498024223e+18,107.45042236328123,0.1944620609283446,-4.780042330423991,4.695795853932698,1.6887020498024223e+18,107.45042236328123,1.1062816580136616,-14.480963706970217,6.026922067006429,1.6887020498024223e+18,107.45042236328123,0.9059736132621764,-9.683417002360024,1.2684388160705566,1.6887020498024207e+18,107.45042053222656,0.3399465046823025,0.8034405112266539,-1.4457653164863586,1.6887020498024207e+18,107.45042053222656,0.3387247808277606,0.8079456239938736,-1.4434745907783508,,,,,,,,,,,,1.688702049797186e+18,107.44518588867189,-31.41011962890625,39.342559051513675,-7.293160057067871,1.688702049797186e+18,107.44518588867189,-285.95091552734374,134.80755615234375,-140.5049560546875,1.6887020498024223e+18,107.45042236328123,-0.7418315013249716,0.6600486040115356,-0.1146753380695978,0.0263362607608238,-0.9310901165008544,1.3999103705088298,-2.4110156695048013
2.5,1.68870204985432e+18,107.50231998697916,0.5325407981872559,-1.1978782018025715,7.110535144805908,1.68870204985432e+18,107.50231998697916,0.8352944850921631,-10.955339113871256,8.272586027781168,1.68870204985432e+18,107.50231998697916,0.2969076335430145,-9.739956219991049,1.0993629296620686,1.6887020498456727e+18,107.49367252604166,0.2522873456279437,2.0220148960749307,-1.5338826378186543,1.6887020498456727e+18,107.49367252604166,0.2510656143228213,2.0265454053878784,-1.5315918326377869,,,,,,,,,,,,1.6887020498471905e+18,107.4951904785156,-28.960359573364254,41.38971939086914,-4.433479928970337,1.6887020498471905e+18,107.4951904785156,-283.50115356445315,136.8547149658203,-137.64527893066406,1.68870204985432e+18,107.50231998697916,0.2342823147773742,-0.2368370294570922,0.0163909470041593,0.0099928726752598,-1.2561326026916504,1.4437904755274455,-1.9867970148722331
2.55,1.688702049906234e+18,107.55423404947918,-1.105596939722697,6.360384941101074,2.352502226829529,1.688702049906234e+18,107.55423404947918,-1.8638094663619995,-3.3922248681386313,3.3336007595062256,1.688702049906234e+18,107.55423404947918,-0.764058530330658,-9.735105196634928,0.9184111754099528,1.6887020498975846e+18,107.5455847981771,0.5421938002109528,0.371456974496444,-1.9595539172490437,1.6887020498975846e+18,107.5455847981771,0.5409720838069916,0.3760384594400723,-1.957314093907674,,,,,,,,,,,,1.68870204989719e+18,107.54518979492188,-24.277999877929688,44.273799896240234,-2.347279930114746,1.68870204989719e+18,107.54518979492188,-278.818798828125,139.73879699707032,-135.55907592773437,1.688702049906234e+18,107.55423404947918,0.6827334960301717,-0.7282239397366842,0.0568286888301372,0.0142732153957088,-2.160991628964742,1.4498998324076335,-1.040900786717733
2.6,1.6887020499581366e+18,107.6061364746094,-1.567837476730347,2.088682015736898,3.427802483240763,1.6887020499581366e+18,107.6061364746094,-2.6091736555099487,-7.599604765574138,4.742574453353882,1.6887020499581366e+18,107.6061364746094,-1.0471821824709575,-9.670782089233398,1.2520845333735149,1.6887020499494815e+18,107.59748160807293,-0.8309294432401657,1.8774434328079224,-0.3448843459288279,1.6887020499494815e+18,107.59748160807293,-0.8322020918130875,1.8819739818573,-0.3426953951517741,,,,,,,,,,,,1.6887020499471903e+18,107.59519052734376,-21.95999946594238,45.227839660644534,-0.7954399943351745,1.6887020499471903e+18,107.59519052734376,-276.50079956054685,140.69283447265624,-134.00723571777343,1.6887020499581366e+18,107.6061364746094,0.6702248454093933,-0.7389249006907145,0.0396420036753018,0.0532271818568308,-2.2054248650868735,1.4066692193349202,-0.9168681899706522
2.65,1.6887020500013957e+18,107.6493953857422,-2.089919924736023,0.0443935394287109,3.1019113063812256,1.6887020500013957e+18,107.6493953857422,-2.7149564027786255,-9.59551763534546,4.960620641708374,1.6887020500013957e+18,107.6493953857422,-0.6308825612068176,-9.622406482696531,1.7960219383239746,1.6887020500013916e+18,107.64939176432291,-0.8534296353658041,1.687260667483012,1.1341222127278645,1.6887020500013916e+18,107.64939176432291,-0.8547022938728333,1.691791296005249,1.136412998040517,,,,,,,,,,,,1.6887020499971878e+18,107.64518784179688,-22.840839767456053,44.739838409423825,-1.1955999851226806,1.6887020499971878e+18,107.64518784179688,-277.3816345214844,140.204833984375,-134.4073974609375,1.6887020500013957e+18,107.6493953857422,0.6805981397628784,-0.7247576415538788,0.0265422211959957,0.1035551168024539,-1.8445673584938047,1.3757219910621643,-1.187534511089325
2.7,1.6887020500446436e+18,107.69264363606771,-0.6044309039910635,4.898927529652913,0.208066701889038,1.6887020500446436e+18,107.69264363606771,-0.6923233369986216,-4.688337087631226,2.4193430741628013,1.6887020500446436e+18,107.69264363606771,-0.09373847519358,-9.56976000467936,2.1485889752705893,1.6887020500532997e+18,107.70129956054689,-0.8437067071596781,0.3325652182102203,0.7049384738008181,1.6887020500532997e+18,107.70129956054689,-0.8449284633000692,0.3371467143297195,0.7071783244609833,,,,,,,,,,,,1.6887020500471898e+18,107.69518974609376,-26.012839126586915,43.23679885864258,-1.8641599655151369,1.6887020500471898e+18,107.69518974609376,-280.5536376953125,138.70180053710936,-135.07596130371093,1.6887020500446436e+18,107.69264363606771,0.6965531905492147,-0.7053626577059428,0.0298078265041112,0.1277017295360565,-1.5599863131841023,1.346869945526123,-1.4421732823053997
2.75,1.688702050096557e+18,107.74455712890624,-0.3131515185038249,3.4009879430135093,-0.4529925187428792,1.688702050096557e+18,107.74455712890624,-0.4847459892431895,-6.0677995681762695,2.2221346696217856,1.688702050096557e+18,107.74455712890624,-0.1774404924362897,-9.451282819112144,2.6124397913614907,1.688702050105208e+18,107.75320800781247,-0.9401725133260092,-0.2956587672233582,-1.4621059894561768,1.688702050105208e+18,107.75320800781247,-0.9413942495981852,-0.291128195822239,-1.459815243879954,,,,,,,,,,,,1.6887020500971917e+18,107.74519184570312,-25.49067916870117,43.05380020141602,-3.193959951400757,1.6887020500971917e+18,107.74519184570312,-280.03147583007814,138.518798828125,-136.4057586669922,1.688702050096557e+18,107.74455712890624,0.6892420848210653,-0.7076740860939026,0.0418140900631745,0.1491655359665552,-1.586781024932861,1.2979090611139934,-1.4014136791229248
2.8,1.6887020501484644e+18,107.79646435546874,-0.0932321349779764,-1.3476931254069011,-0.3038817246754964,1.6887020501484644e+18,107.79646435546874,-1.5134603182474773,-10.578469276428224,2.7702903747558594,1.6887020501484644e+18,107.79646435546874,-1.426074206829071,-9.213271458943684,3.011484702428182,1.6887020501571146e+18,107.80511450195311,-1.1317297220230105,-3.045315980911255,-2.76920493443807,1.6887020501571146e+18,107.80511450195311,-1.132747769355774,-3.040785471598307,-2.766812324523926,,,,,,,,,,,,1.688702050147189e+18,107.79518891601565,-20.87663917541504,44.905758666992185,-6.4781999588012695,1.688702050147189e+18,107.79518891601565,-275.41742553710935,140.37075500488282,-139.68999633789062,1.6887020501484644e+18,107.79646435546874,0.6426526506741842,-0.7483407258987427,0.0760455963512261,0.1426491638024647,-1.9643748203913372,1.2235801617304485,-1.0816191434860227
2.85,1.6887020502003692e+18,107.8483690592448,1.8970080614089968,-5.11808967590332,1.197980562845866,1.6887020502003692e+18,107.8483690592448,-1.4669996897379558,-13.791831016540527,4.362514495849609,1.6887020502003692e+18,107.8483690592448,-3.3698538144429526,-8.65623664855957,3.10184653600057,1.6887020502090191e+18,107.8570193684896,-1.2459614872932434,-4.753346125284831,-3.015078147252401,1.6887020502090191e+18,107.8570193684896,-1.246979554494222,-4.7488663991292315,-3.012634595235189,,,,,,,,,,,,1.6887020501971922e+18,107.84519204101562,-12.077999782562255,46.59423980712891,-12.063359642028807,1.6887020501971922e+18,107.84519204101562,-266.61879272460936,142.05923461914062,-145.27515869140626,1.6887020502003692e+18,107.8483690592448,0.5693684816360474,-0.8019077976544698,0.148763303955396,0.0962034091353416,-2.3634140491485596,1.087430993715922,-0.8550844589869181
2.9,1.6887020502522696e+18,107.9002696126302,19.905962467193604,-6.876439253489177,3.677661021550497,1.6887020502522696e+18,107.9002696126302,14.672389189402262,-14.534004847208658,6.9020969072977705,1.6887020502522696e+18,107.9002696126302,-5.239420255025228,-7.640060742696126,3.16174840927124,1.6887020502522765e+18,107.90027648925782,-0.1049161106348037,3.903887271881103,-4.884631156921387,1.6887020502522765e+18,107.90027648925782,-0.1059851199388504,3.908315658569336,-4.882340431213379,1.6887020502609272e+18,107.90892724609375,0.0,0.0,1.0519165992736816,6.60099983215332,1.4276918172836304,247.63784790039065,43.10000228881836,-122.7564112,49.1905215,1.6887020502471857e+18,107.89518559570313,0.6880800485610962,46.708920288085935,-16.101559448242188,1.6887020502471857e+18,107.89518559570313,-253.85271911621095,142.17391967773438,-149.3133544921875,1.6887020502522696e+18,107.9002696126302,0.4766202867031097,-0.8537605802218119,0.1802295098702112,0.0916293300688266,-2.582745313644409,0.9004443287849426,-0.6910605033238729
2.95,1.6887020503041823e+18,107.95218269856773,-3.5966714223225913,-2.659783204396566,-3.064877986907959,1.6887020503041823e+18,107.95218269856773,-7.881758530934651,-10.232108434041342,1.542572945356369,1.6887020503041823e+18,107.95218269856773,-4.290933132171631,-7.554820537567139,4.544763565063477,1.6887020502955315e+18,107.94353165690104,1.1656327148278554,6.010252356529236,0.0805324042836824,1.6887020502955315e+18,107.94353165690104,1.164563665787379,6.014731963475545,0.082924964527289,,,,,,,,,,,,1.688702050297187e+18,107.94518715820313,-0.6636799320578575,46.9114387512207,-15.14751968383789,1.688702050297187e+18,107.94518715820313,-255.20447998046876,142.37643737792968,-148.35931701660155,1.6887020503041823e+18,107.95218269856773,0.4813921054204305,-0.8408281604448954,0.0760982384284337,0.2341141402721404,-2.3103369871775308,0.8858997424443563,-0.5934964418411255
3.0,1.688702050356089e+18,108.00408911132811,9.066887299219768,-7.182576020558675,-4.617819786071777,1.688702050356089e+18,108.00408911132811,5.282355308532716,-15.108880360921225,-0.1686940093835195,1.688702050356089e+18,108.00408911132811,-3.7903780142466226,-7.908799966176351,4.386438369750977,1.688702050347438e+18,107.99543790690105,0.008144865433375,-1.5189673503239949,1.8528560400009155,1.688702050347438e+18,107.99543790690105,0.0071776608626047,-1.5144876440366108,1.8552486499150591,,,,,,,,,,,,1.688702050347187e+18,107.99518696289064,-4.101639914512634,46.982199096679686,-14.588759803771971,1.688702050347187e+18,107.99518696289064,-258.64243469238284,142.44719543457032,-147.8005584716797,1.688702050356089e+18,108.00408911132811,0.5128208696842194,-0.8250642021497091,0.082744484146436,0.2214339176813761,-2.2648799419403076,0.9438387552897136,-0.670032282670339
3.05,1.6887020504079885e+18,108.05598844401042,-0.8077417214711508,-5.10456911722819,-0.9744951725006102,1.6887020504079885e+18,108.05598844401042,-3.2624142169952393,-13.894323348999023,2.6709882418314614,1.6887020504079885e+18,108.05598844401042,-2.4605185190836587,-8.772249539693197,3.582796017328898,1.6887020503993467e+18,108.04734684244792,2.784883737564087,1.222239539027214,2.867197831471761,1.6887020503993467e+18,108.04734684244792,2.7838655710220337,1.2267192403475444,2.8696413040161133,,,,,,,,,,,,1.6887020503971937e+18,108.04519345703125,-10.435879802703855,46.95535888671875,-11.397239875793456,1.6887020503971937e+18,108.04519345703125,-264.9766784667969,142.42035522460938,-144.60903625488282,1.6887020504079885e+18,108.05598844401042,0.5818739334742228,-0.7859912316004435,0.0440949723124503,0.2016688634951909,-2.1453542709350586,1.1146471897761028,-0.7668839693069458
3.1,1.6887020504512525e+18,108.09925244140624,-0.3656918406486512,-6.030005931854248,3.8781100511550903,1.6887020504512525e+18,108.09925244140624,-1.8161523938179016,-15.428621292114258,6.401996850967407,1.6887020504512525e+18,108.09925244140624,-1.4563065767288208,-9.381110668182371,2.461199402809143,1.6887020504512553e+18,108.09925528971354,2.3982569376627603,-1.063923647006353,1.9603174527486165,1.6887020504512553e+18,108.09925528971354,2.3971879482269287,-1.0594948530197144,1.9627609252929688,,,,,,,,,,,,1.688702050447184e+18,108.09518413085937,-17.719279861450197,46.7235595703125,-4.870239925384522,1.688702050447184e+18,108.09518413085937,-272.2600830078125,142.1885559082031,-138.08203735351563,1.6887020504512525e+18,108.09925244140624,0.6375771164894104,-0.7541318535804749,0.0140732573345303,0.1562255173921585,-2.068767786026001,1.2778819799423218,-0.8692248463630676
3.15,1.6887020504945055e+18,108.1425057779948,7.337181409200032,-5.185575485229492,10.060601234436035,1.6887020504945055e+18,108.1425057779948,6.194020907084147,-14.805590311686196,11.748759269714355,1.6887020504945055e+18,108.1425057779948,-1.1490064859390257,-9.602510452270508,1.6254701614379885,1.688702050503155e+18,108.15115494791668,2.045889457066854,2.435621606806914,0.3029891550540923,1.688702050503155e+18,108.15115494791668,2.0449222723642984,2.440101221203804,0.3054326176643371,,,,,,,,,,,,1.688702050497192e+18,108.14519189453124,-19.6346794128418,46.30875930786133,-0.1049200266599655,1.688702050497192e+18,108.14519189453124,-274.17547607421875,141.7737579345703,-133.31671752929688,1.6887020504945055e+18,108.1425057779948,0.6557684739430746,-0.7434723377227783,-0.0166420492654045,0.1280372142791747,-2.1394973595937095,1.369802474975586,-0.7960777680079142
3.2,1.6887020505464095e+18,108.19440934244793,-1.4566121101379397,4.264169534047444,5.887407382329305,1.6887020505464095e+18,108.19440934244793,-2.227917273839315,-5.494518995285034,6.7774709065755205,1.6887020505464095e+18,108.19440934244793,-0.7771512071291605,-9.7411839167277,0.8273760875066122,1.6887020505550636e+18,108.20306380208336,1.7431039810180664,0.821308339635531,0.702087789773941,1.6887020505550636e+18,108.20306380208336,1.7421876589457197,0.8257370938857397,0.7044294476509094,,,,,,,,,,,,1.68870205054719e+18,108.19518994140624,-20.354479598999024,45.44743957519531,6.912520027160644,1.68870205054719e+18,108.19518994140624,-274.89528198242186,140.91243591308594,-126.29927520751951,1.6887020505464095e+18,108.19440934244793,0.6669699947039286,-0.7251029014587402,-0.092137391368548,0.1438350429137547,-2.2619561354319253,1.4604514439900715,-0.5438156127929688
3.25,1.6887020505983188e+18,108.24631884765624,-4.313458522160848,7.928384780883789,2.919490655263265,1.6887020505983188e+18,108.24631884765624,-4.613362153371175,-1.8903298775355024,3.16470734278361,1.6887020505983188e+18,108.24631884765624,-0.3057496572534243,-9.801210085550943,0.1825292315334081,1.68870205060697e+18,108.25497013346354,0.9988664786020914,-0.3613267888625462,1.4345152378082275,1.68870205060697e+18,108.25497013346354,0.997848391532898,-0.3567453026771545,1.43695867061615,,,,,,,,,,,,1.688702050597187e+18,108.24518706054688,-22.606599807739254,44.14935989379883,10.872639846801755,1.688702050597187e+18,108.24518706054688,-277.14739379882815,139.61435241699218,-122.3391571044922,1.6887020505983188e+18,108.24631884765624,0.6886704166730245,-0.7044655879338583,-0.11540616552035,0.1265452628334362,-1.8983880480130513,1.542031725247701,-0.8992904921372732
3.3,1.688702050650225e+18,108.29822493489584,-3.409068743387858,9.403271993001304,2.6045382022857666,1.688702050650225e+18,108.29822493489584,-3.021137992540995,-0.4143571282426516,2.545963207880656,1.688702050650225e+18,108.29822493489584,0.382084662715594,-9.800124804178871,-0.1212623889247576,1.688702050658873e+18,108.3068732096354,0.36672276755174,-1.3359622955322266,1.281951626141866,1.688702050658873e+18,108.3068732096354,0.3657046606143315,-1.3314826488494873,1.28434419631958,,,,,,,,,,,,1.688702050647189e+18,108.29518901367187,-25.91523971557617,41.897239685058594,12.187799644470214,1.688702050647189e+18,108.29518901367187,-280.4560302734375,137.36223754882812,-121.0239974975586,1.688702050650225e+18,108.29822493489584,0.7178175250689188,-0.6796446641286215,-0.1076532304286956,0.105132887760798,0.2224481801191965,1.5166763464609785,-3.0618344942728677
3.35,1.6887020507021228e+18,108.35012263997396,-1.5454206466674805,9.413805643717446,2.3218098878860474,1.6887020507021228e+18,108.35012263997396,-0.8374879360198975,-0.388235479593277,2.326022942860922,1.6887020507021228e+18,108.35012263997396,0.7020867069562277,-9.784536361694336,-0.0584744005464017,1.6887020507021317e+18,108.3501317138672,-0.0584139907732606,-0.9511935710906982,0.1730275759473442,1.6887020507021317e+18,108.3501317138672,-0.0594830026384443,-0.9466883838176728,0.1754710376262664,,,,,,,,,,,,1.6887020506971835e+18,108.3451837890625,-28.474799346923827,40.46983947753906,10.977559852600098,1.6887020506971835e+18,108.3451837890625,-283.0155944824219,135.9348358154297,-122.23423614501954,1.6887020507021228e+18,108.35012263997396,0.7320139606793722,-0.6707197030385336,-0.0822274362047512,0.0865149895350138,0.0498800817877054,1.4837451378504436,-2.9520325660705566
3.4,1.6887020507540398e+18,108.40203963216146,8.68039321899414,0.4445036252339681,1.4759939511617024,1.6887020507540398e+18,108.40203963216146,9.045667250951132,-9.361918489138285,1.962912122408549,1.6887020507540398e+18,108.40203963216146,0.3594271938006083,-9.788917859395346,0.4242308189471562,1.6887020507453893e+18,108.39338932291666,-1.1352421343326569,-4.703102350234985,-0.9207266569137572,1.6887020507453893e+18,108.39338932291666,-1.1362602214018505,-4.698520898818969,-0.9182832141717276,,,,,,,,,,,,1.6887020507471846e+18,108.39518486328124,-29.021360015869146,40.9627197265625,8.35699987411499,1.6887020507471846e+18,108.39518486328124,-283.562158203125,136.42771911621094,-124.85479888916016,1.6887020507540398e+18,108.40203963216146,0.7233169078826904,-0.6863271991411845,-0.0153298812607924,0.0511347725987434,-0.6894406725962957,1.4927677710851033,-2.357969284057617
3.45,1.6887020508059446e+18,108.45394474283854,17.27039368947347,-15.245111465454102,5.372529665629069,1.6887020508059446e+18,108.45394474283854,17.7718931833903,-24.95434856414795,6.8630140622456866,1.6887020508059446e+18,108.45394474283854,0.4956530431906382,-9.691733042399088,1.427796721458435,1.6887020507972938e+18,108.44529386393228,-1.5475253065427144,-4.178063719222943,0.9252572456995646,1.6887020507972938e+18,108.44529386393228,-1.5484925111134846,-4.17358406012257,0.9277007182439168,1.688702050779994e+18,108.427994140625,0.0,0.0,1.0519165992736816,6.38100004196167,1.386637806892395,242.73838806152344,43.10000228881836,-122.7564236,49.1905084,1.68870205079719e+18,108.44518994140624,-30.16327896118164,40.7284797668457,-5.094719928503037,1.68870205079719e+18,108.44518994140624,-284.7040771484375,136.1934783935547,-138.3065185546875,1.6887020508059446e+18,108.45394474283854,-0.7297843297322592,0.6735067963600159,-0.1164414013425508,0.0112007864130039,-1.167526364326477,1.4015010197957356,-2.1554931004842124
3.5,1.6887020508578516e+18,108.50585139973958,-3.1018704573313394,-4.769560178120931,8.063437938690186,1.6887020508578516e+18,108.50585139973958,-2.7647071282068887,-14.484553019205729,9.569495995839436,1.6887020508578516e+18,108.50585139973958,0.3313173751036325,-9.6974884668986,1.443370342254639,1.6887020508491968e+18,108.49719694010416,0.1438587655623754,2.8505517641703286,-0.5517131189505259,1.6887020508491968e+18,108.49719694010416,0.142942468325297,2.8550314903259277,-0.5493205587069193,,,,,,,,,,,,1.6887020508471823e+18,108.49518247070314,-30.03883934020996,40.88951950073242,-6.778320026397705,1.6887020508471823e+18,108.49518247070314,-284.5796325683594,136.3545166015625,-139.99011840820313,1.6887020508578516e+18,108.50585139973958,0.7237304051717123,-0.6842807730038961,0.0818269004424412,0.0267283166758715,-1.261422872543335,1.4072651465733843,-1.9583926995595295
3.55,1.6887020509011072e+18,108.54910705566404,-2.146517276763916,3.339962959289551,3.866217851638794,1.6887020509011072e+18,108.54910705566404,-2.06949245929718,-6.378068923950195,5.376971483230591,1.6887020509011072e+18,108.54910705566404,0.0711787417531013,-9.70052719116211,1.448066234588623,1.6887020509011034e+18,108.549103515625,0.1487456895411014,1.514640361070633,-1.5258905092875164,1.6887020509011034e+18,108.549103515625,0.1477784862120946,1.5190691550572712,-1.5234979391098022,,,,,,,,,,,,1.688702050897193e+18,108.54519296875,-28.528479385375977,42.25591888427734,-2.5863999366760253,1.688702050897193e+18,108.54519296875,-283.06928100585935,137.72091674804688,-135.798193359375,1.6887020509011072e+18,108.54910705566404,0.7124602496623993,-0.6971785128116608,0.0428875852376222,0.0663664191961288,-1.4180790781974792,1.4134978652000427,-1.6902058124542236
3.6,1.6887020509443643e+18,108.5923644205729,-1.375973383585612,7.774893124898274,0.8603628476460775,1.6887020509443643e+18,108.5923644205729,-1.9730816682179768,-1.9407786130905151,2.2620150248209634,1.6887020509443643e+18,108.5923644205729,-0.6029542883237203,-9.69816748301188,1.3389647801717122,1.6887020509530132e+18,108.60101310221354,0.2005165219306945,0.2067269786881904,-0.9572258392969768,1.6887020509530132e+18,108.60101310221354,0.1995493173599243,0.2112066678431195,-0.9548333088556924,,,,,,,,,,,,1.6887020509471862e+18,108.5951860839844,-25.031959533691406,43.97855987548828,-1.0443199634552005,1.6887020509471862e+18,108.5951860839844,-279.5727600097656,139.4435577392578,-134.25611877441406,1.6887020509443643e+18,108.5923644205729,0.688192884127299,-0.7215987046559652,0.0327888615429401,0.0674225563804308,-1.8674349784851072,1.4204201698303225,-1.2250350713729858
3.65,1.6887020509962688e+18,108.64426871744791,-0.5201627711455027,1.1914555231730144,4.4222447872161865,1.6887020509962688e+18,108.64426871744791,-1.31086798508962,-8.447062492370605,6.208178202311198,1.6887020509962688e+18,108.64426871744791,-0.7965512275695801,-9.621013323465982,1.723245898882548,1.688702051004916e+18,108.6529161783854,-1.3273083766301472,2.853351593017578,0.142637034257253,1.688702051004916e+18,108.6529161783854,-1.3283264636993408,2.8579330841700235,0.145080491900444,,,,,,,,,,,,1.68870205099719e+18,108.64518994140626,-23.90467987060547,44.74471817016602,-1.0882399916648864,1.68870205099719e+18,108.64518994140626,-278.4454772949219,140.209716796875,-134.30003356933594,1.6887020509962688e+18,108.64426871744791,0.6765433748563131,-0.7285372416178385,0.0234786551445722,0.1021336341897646,-1.9137123028437295,1.3778776327768962,-1.1159985065460205
3.7,1.6887020510481754e+18,108.69617513020836,-2.184060295422872,1.6350191434224446,2.1666415532430015,1.6887020510481754e+18,108.69617513020836,-2.3786651690800986,-7.910073439280192,4.548755884170532,1.6887020510481754e+18,108.69617513020836,-0.2004509357114632,-9.527587890625,2.3194268544514975,1.6887020510568266e+18,108.70482666015624,-0.534456193447113,1.8631389538447063,0.8483391006787618,1.6887020510568266e+18,108.70482666015624,-0.5354743003845215,1.8676186800003052,0.850782593091329,,,,,,,,,,,,1.6887020510471857e+18,108.69518564453124,-25.510199737548827,43.93463897705078,0.102480000257492,1.6887020510471857e+18,108.69518564453124,-280.0510009765625,139.3996368408203,-133.10931701660155,1.6887020510481754e+18,108.69617513020836,0.6850599646568298,-0.7074252963066101,-0.0045814158705373,0.1731084336837132,-1.5776859124501543,1.329213301340739,-1.3100565274556475
3.75,1.6887020511000812e+18,108.74808105468747,-1.4365097085634868,4.806738058725993,-0.3538767496744792,1.6887020511000812e+18,108.74808105468747,-1.4859429200490315,-4.621138731638591,2.4705893198649087,1.6887020511000812e+18,108.74808105468747,-0.0552791878581047,-9.410372098286947,2.7617786725362143,1.6887020511087332e+18,108.7567333170573,-1.2263119618097942,0.4107559770345688,-1.1987721423308055,1.6887020511087332e+18,108.7567333170573,-1.2272791862487793,0.4152356535196304,-1.1963796019554138,,,,,,,,,,,,1.6887020510971912e+18,108.74519125976562,-25.978679656982425,43.61255874633789,0.3098799884319305,1.6887020510971912e+18,108.74519125976562,-280.51947631835935,139.0775573730469,-132.90191650390625,1.6887020511000812e+18,108.74808105468747,0.6808743278185526,-0.701868454615275,-0.0079182695286968,0.208720992008845,-1.5162156025568645,1.2838084697723389,-1.314544637997945
3.8,1.6887020511519826e+18,108.79998258463542,-0.8426803350448608,0.4143376350402832,-0.7137472629547119,1.6887020511519826e+18,108.79998258463542,-1.7704893747965496,-8.769495805104574,2.6979075272878013,1.6887020511519826e+18,108.79998258463542,-0.933655083179474,-9.16632874806722,3.3489673932393393,1.6887020511519916e+18,108.79999157714845,-1.23784202337265,-1.193019837141037,-1.9039142727851868,1.6887020511519916e+18,108.79999157714845,-1.2389110922813416,-1.1885910332202911,-1.9014707803726196,,,,,,,,,,,,1.6887020511471877e+18,108.795187890625,-22.72371940612793,45.376679229736325,-2.7010799646377563,1.6887020511471877e+18,108.795187890625,-277.26451416015624,140.8416778564453,-135.91287536621093,1.6887020511519826e+18,108.79998258463542,0.6418812473615011,-0.732842226823171,0.0104757355487284,0.2246284633874893,-1.7808636824289958,1.211369474728902,-1.05168879032135
3.85,1.6887020512038953e+18,108.8518955078125,0.3743308782577514,-3.101637840270996,-0.549070676167806,1.6887020512038953e+18,108.8518955078125,-1.9266209999720256,-11.877971649169922,3.253241777420044,1.6887020512038953e+18,108.8518955078125,-2.306797901789347,-8.758829116821289,3.739625056584676,1.6887020511952435e+18,108.84324348958334,-1.4980452060699463,-3.2688417434692383,-1.841504176457723,1.6887020511952435e+18,108.84324348958334,-1.49906329313914,-3.264362096786499,-1.8391116460164387,,,,,,,,,,,,1.688702051197189e+18,108.84518916015628,-17.07511959075928,46.64059982299805,-7.366359806060791,1.688702051197189e+18,108.84518916015628,-271.61591186523435,142.10559692382813,-140.57815856933593,1.6887020512038953e+18,108.8518955078125,0.5945831537246704,-0.7760665416717529,0.0691193466385205,0.1958488176266351,-2.0756093660990396,1.1119165023167927,-0.8817901213963827
3.9,1.688702051255805e+18,108.9038046061198,22.705705960591633,-6.5232570966084795,2.5131452878316245,1.688702051255805e+18,108.9038046061198,17.97687753041585,-14.3641144434611,5.9760745366414385,1.688702051255805e+18,108.9038046061198,-4.7346750895182295,-7.823352654774983,3.4002418518066406,1.68870205124715e+18,108.89515006510418,-1.351742962996165,-6.816390832265218,-4.377511223157247,1.68870205124715e+18,108.89515006510418,-1.3527610898017883,-6.811911106109619,-4.375169595082601,,,,,,,,,,,,1.6887020512471877e+18,108.89518784179688,-7.6689199924469,46.769918060302736,-14.42527961730957,1.6887020512471877e+18,108.89518784179688,-262.20970764160154,142.23491516113282,-147.63707885742187,1.688702051255805e+18,108.9038046061198,0.5017249782880148,-0.8388467232386271,0.1686920175949732,0.1130260700980821,-2.4768298467000327,0.9355666637420654,-0.7484857042630514
3.95,1.6887020513077076e+18,108.95570751953124,-3.3082100550333657,-5.706365426381429,-0.1008928616841634,1.6887020513077076e+18,108.95570751953124,-8.003393650054932,-12.940584182739258,4.607579340537389,1.6887020513077076e+18,108.95570751953124,-4.701029618581136,-7.216714064280192,4.645784695943196,1.6887020512990484e+18,108.94704842122395,0.8983282397190729,8.536128997802734,-0.8969029287497202,1.6887020512990484e+18,108.94704842122395,0.8974119772513708,8.540609041849772,-0.8944594065348307,1.6887020512990584e+18,108.94705834960938,0.0,0.0,1.0615018606185913,6.335000038146973,1.356114625930786,237.8294982910156,43.10000228881836,-122.7564256,49.1904998,1.68870205129719e+18,108.94518984375,2.420479953289032,46.76015930175781,-16.999479484558105,1.68870205129719e+18,108.94518984375,-252.1203125,142.22515869140625,-150.21127624511718,1.6887020513077076e+18,108.95570751953124,0.4638860026995341,-0.8483186364173889,0.1029617587725321,0.227095733086268,-2.3367977142333984,0.8371626337369283,-0.6166261235872904
4.0,1.6887020513596137e+18,109.00761368815104,-3.0335286458333335,-5.522561073303223,-4.431000550587972,1.6887020513596137e+18,109.00761368815104,-6.744569301605225,-13.085748672485352,0.67796640843153,1.6887020513596137e+18,109.00761368815104,-3.7168866793314614,-7.545682907104492,5.046279589335124,1.688702051350963e+18,108.9989629720052,0.0412843053539594,0.2631810903549196,1.1065824031829834,1.688702051350963e+18,108.9989629720052,0.0403171082337697,0.267609844605128,1.1090258359909058,,,,,,,,,,,,1.688702051347188e+18,108.99518793945312,-4.27487998008728,47.206678771972655,-15.14263973236084,1.688702051347188e+18,108.99518793945312,-258.815673828125,142.6716735839844,-148.35443725585938,1.6887020513596137e+18,109.00761368815104,0.493562509616216,-0.8223521113395691,0.0665048609177271,0.2745550374190012,-2.1807804902394614,0.8875397642453512,-0.647123654683431
4.05,1.6887020514028652e+18,109.05086511230468,14.144259452819824,-5.7588348388671875,-4.66808009147644,1.6887020514028652e+18,109.05086511230468,10.311569690704346,-13.62174129486084,-0.1423729360103607,1.6887020514028652e+18,109.05086511230468,-3.838536262512207,-7.845401763916016,4.463019847869873,1.688702051402865e+18,109.05086507161458,0.3017165238658587,-2.7427340547243753,1.097521203259627,1.688702051402865e+18,109.05086507161458,0.300749318053325,-2.7382543484369912,1.099862859894832,,,,,,,,,,,,1.6887020513971896e+18,109.04518974609375,-6.4684398651123045,46.69183883666992,-15.755079650878908,1.6887020513971896e+18,109.04518974609375,-261.0092407226563,142.1568359375,-148.96687927246094,1.6887020514028652e+18,109.05086511230468,0.5180298984050751,-0.8215031325817108,0.111798658967018,0.209779068827629,-2.2542946338653564,0.9347566664218904,-0.7412458956241608
4.1,1.6887020514461258e+18,109.09412573242189,3.443976322809855,-5.373414357503255,0.5303782622019451,1.6887020514461258e+18,109.09412573242189,0.4011966387430828,-13.774084409077965,4.615156650543213,1.6887020514461258e+18,109.09412573242189,-3.0486257076263428,-8.38316535949707,4.022090991338094,1.6887020514547722e+18,109.10277229817709,3.7596210638682046,3.027040958404541,2.5136595567067466,1.6887020514547722e+18,109.10277229817709,3.7586028575897217,3.031469782193502,2.516102989514669,,,,,,,,,,,,1.68870205144719e+18,109.09518999023436,-9.662399578094483,46.99927978515625,-12.880759811401369,1.68870205144719e+18,109.09518999023436,-264.2031982421875,142.4642791748047,-146.09256286621093,1.6887020514461258e+18,109.09412573242189,0.5531029105186462,-0.8013299306233724,0.0649493218710024,0.2144173582394918,-2.1839257876078286,1.035380979379018,-0.7382997075716654
4.15,1.6887020514980247e+18,109.14602465820312,-0.7669997215270996,-4.436039924621582,4.140006065368652,1.6887020514980247e+18,109.14602465820312,-2.4795624812444053,-13.79721450805664,6.601598421732585,1.6887020514980247e+18,109.14602465820312,-1.7184087832768755,-9.343669891357422,2.39890476067861,1.688702051506682e+18,109.15468188476562,2.626364310582479,-0.6601417263348898,1.6430238882700603,1.688702051506682e+18,109.15468188476562,2.625397006670634,-0.6557129224141439,1.645365556081136,,,,,,,,,,,,1.68870205149719e+18,109.14518989257812,-17.323999404907227,47.22131881713867,-1.559160017967224,1.68870205149719e+18,109.14518989257812,-271.86480102539065,142.68631286621093,-134.77095947265624,1.6887020514980247e+18,109.14602465820312,0.6235575874646505,-0.7609440088272095,-0.0176550889542946,0.1767128010590871,-2.1447459856669107,1.2723534107208252,-0.717858095963796
4.2,1.688702051549937e+18,109.19793684895832,3.51668647925059,-4.37205441792806,10.661118189493816,1.688702051549937e+18,109.19793684895832,2.2985054651896157,-14.00239912668864,12.229716300964355,1.688702051549937e+18,109.19793684895832,-1.2240270376205444,-9.61284033457438,1.5059101978937786,1.6887020515585884e+18,109.20658846028644,1.6486234664916992,-0.7998262494802475,1.0575095613797505,1.6887020515585884e+18,109.20658846028644,1.6476563215255735,-0.7953974554936091,1.059902091821035,,,,,,,,,,,,1.6887020515471913e+18,109.19519125976562,-19.78595962524414,46.22823791503906,2.086199951171875,1.6887020515471913e+18,109.19519125976562,-274.3267578125,141.6932342529297,-131.12559814453124,1.688702051549937e+18,109.19793684895832,0.6541946132977804,-0.743995726108551,-0.0303365755826234,0.131759151816368,-2.18134339650472,1.3788942495981853,-0.7293969392776489
4.25,1.6887020516018414e+18,109.24984147135416,-0.2131731708844502,5.17699400583903,3.706350644429525,1.6887020516018414e+18,109.24984147135416,-0.7461618383725485,-4.611567417780559,4.386841535568237,1.6887020516018414e+18,109.24984147135416,-0.5388346910476685,-9.77105681101481,0.6178034842014313,1.6887020516018442e+18,109.24984423828126,1.9120846390724184,0.4031710624694824,1.462793231010437,1.6887020516018442e+18,109.24984423828126,1.9110155701637268,0.4076762050390243,1.4652366638183594,,,,,,,,,,,,1.688702051597191e+18,109.24519096679688,-23.140959548950196,44.54951934814453,6.217119884490967,1.688702051597191e+18,109.24519096679688,-277.68175048828124,140.01451721191407,-126.9946746826172,1.6887020516018414e+18,109.24984147135416,0.6855539282162985,-0.7184191544850668,-0.058105615278085,0.1013233239452043,-2.0831708113352456,1.4938584566116333,-0.8322828014691671
4.3,1.688702051653752e+18,109.3017520345052,-3.727135340372721,8.136247316996256,2.306660811106364,1.688702051653752e+18,109.3017520345052,-3.847260077794393,-1.6889340082804365,2.3126631577809653,1.688702051653752e+18,109.3017520345052,-0.1259707597394783,-9.807676951090494,-0.0566850552956263,1.6887020516450993e+18,109.2930994466146,1.2874493996302288,0.54596080382665,0.7425067027409872,1.6887020516450993e+18,109.2930994466146,1.2864313125610352,0.5504405001799265,0.7448992729187012,,,,,,,,,,,,1.6887020516471877e+18,109.29518764648438,-25.737119674682617,42.67315902709961,10.643279647827148,1.6887020516471877e+18,109.29518764648438,-280.2779174804688,138.1381591796875,-122.56851806640626,1.688702051653752e+18,109.3017520345052,0.703020711739858,-0.6997527281443278,-0.0905743092298507,0.0884656806786854,0.0145235657691955,1.5550264914830525,1.2865728735923767
4.35,1.688702051705649e+18,109.35364884440104,-2.283319354057312,8.78360112508138,2.3654887278874717,1.688702051705649e+18,109.35364884440104,-1.9389838973681133,-1.0317053596178691,2.101496458053589,1.688702051705649e+18,109.35364884440104,0.3384893884261449,-9.797801971435549,-0.3266796668370564,1.6887020516970025e+18,109.34500227864582,0.420529818860814,-1.4300355315208435,1.1307624578475952,1.6887020516970025e+18,109.34500227864582,0.4195117103323961,-1.425454040368398,1.1331550081570942,,,,,,,,,,,,1.688702051697189e+18,109.34518916015624,-28.526039123535156,40.85047912597656,11.858399772644043,1.688702051697189e+18,109.34518916015624,-283.06683349609375,136.3154754638672,-121.35339813232422,1.688702051705649e+18,109.35364884440104,0.7228052814801534,-0.6830422083536783,-0.0817988862593968,0.0641935865084329,0.5435859660307566,1.5087636709213257,2.8049554030100503
4.4,1.688702051757564e+18,109.40556388346351,-0.6144974728425344,8.735246340433756,3.0776267051696777,1.688702051757564e+18,109.40556388346351,-0.1300100312413027,-1.0795617898305256,3.0975089073181152,1.688702051757564e+18,109.40556388346351,0.4786413908004761,-9.797303835550943,-0.0428052296241124,1.6887020517489132e+18,109.39691308593753,-0.4914919833342234,-0.8075129687786102,-0.0615446691711743,1.6887020517489132e+18,109.39691308593753,-0.4924082855383555,-0.803084154923757,-0.0592030162612597,,,,,,,,,,,,1.6887020517471898e+18,109.39518984375,-30.016879653930665,40.17460021972656,9.645319747924804,1.6887020517471898e+18,109.39518984375,-284.55767211914065,135.6396026611328,-123.5664779663086,1.688702051757564e+18,109.40556388346351,0.728590706984202,-0.6806529959042867,-0.0521967373788356,0.0555970345934231,-0.0093134536097447,1.5016822814941406,-0.8851998647054037
4.45,1.6887020518094664e+18,109.45746647135418,11.034015576044718,-1.0742378234863277,1.624989628791809,1.6887020518094664e+18,109.45746647135418,11.123035589853922,-10.8743816614151,2.3447667956352234,1.6887020518094664e+18,109.45746647135418,0.0831735258301099,-9.782639503479004,0.6570897698402405,1.688702051800818e+18,109.44881811523436,-1.58203919728597,-4.000098486741384,-0.7082982410987219,1.688702051800818e+18,109.44881811523436,-1.5830063621203103,-3.995618780454,-0.7058547784884771,1.6887020518181212e+18,109.46612133789064,0.0,0.0,1.0615018606185913,6.3520002365112305,1.3445254564285278,235.1124725341797,43.10000228881836,-122.7564296,49.1904914,1.68870205179719e+18,109.44519003906252,-29.67283935546875,41.460478973388675,6.361079835891724,1.68870205179719e+18,109.44519003906252,-284.21363525390626,136.92547607421875,-126.85071563720705,1.6887020518094664e+18,109.45746647135418,0.7154280543327332,-0.6958145499229431,0.0128998876510498,0.0393317205210526,-1.1565922300020854,1.4893855651219683,-1.947615623474121
4.5,1.6887020518527252e+18,109.50072534179688,18.260957717895508,-16.134170055389404,4.245501279830933,1.6887020518527252e+18,109.50072534179688,19.18295955657959,-25.793131828308105,5.860321760177612,1.6887020518527252e+18,109.50072534179688,0.9161558747291564,-9.64145803451538,1.5521329641342163,1.6887020518527242e+18,109.50072428385415,-1.4857261180877686,-5.053382794062297,2.618983040253321,1.6887020518527242e+18,109.50072428385415,-1.4866423805554707,-5.04885212580363,2.6214264035224915,,,,,,,,,,,,1.6887020518471913e+18,109.49519150390624,-32.12503929138184,39.56215896606445,-5.6437198460102085,1.6887020518471913e+18,109.49519150390624,-286.66582641601565,135.02715454101562,-138.85552062988282,1.6887020518527252e+18,109.50072534179688,-0.7444029152393341,0.6526987254619598,-0.1370004080235957,0.0263187605887651,-0.9963950514793396,1.367147147655487,-2.3779715299606323
4.55,1.6887020518959808e+18,109.54398087565104,1.9831724166870115,-0.4212849934895832,2.9895293712615967,1.6887020518959808e+18,109.54398087565104,2.7884358565012612,-10.035298983256022,4.920241673787435,1.6887020518959808e+18,109.54398087565104,0.7994175354639689,-9.596509297688804,1.8680249055226643,1.6887020519046285e+18,109.55262849934896,0.0249945670366287,1.5746578474839528,-1.021163046360016,1.6887020519046285e+18,109.55262849934896,0.023925557732582,1.5791885157426198,-1.01882141828537,,,,,,,,,,,,1.6887020518971878e+18,109.54518784179687,-32.70575942993164,37.951759338378906,-11.428960037231446,1.6887020518971878e+18,109.54518784179687,-287.2465576171875,133.41675415039063,-144.64075927734376,1.6887020518959808e+18,109.54398087565104,-0.7402473290761312,0.6530472834904989,-0.1575364122788111,0.0235105942313869,-1.12454358736674,1.3437921206156414,-2.2754923502604165
4.6,1.6887020519478802e+18,109.5958801269531,-2.6301019539435706,-4.989575703938802,9.24839448928833,1.6887020519478802e+18,109.5958801269531,-2.178066854675611,-14.64586893717448,11.070194562276203,1.6887020519478802e+18,109.5958801269531,0.4461890459060669,-9.63878885904948,1.7591121196746826,1.68870205195653e+18,109.60452962239584,-0.1607593695322672,1.958688497543335,-1.5054773886998494,1.68870205195653e+18,109.60452962239584,-0.1617265741030374,1.963219126065572,-1.5030848383903503,,,,,,,,,,,,1.6887020519471803e+18,109.59518037109372,-31.419879531860353,39.49627914428711,-8.239879703521728,1.6887020519471803e+18,109.59518037109372,-285.96067504882814,134.96127624511718,-141.45167846679686,1.6887020519478802e+18,109.5958801269531,0.7286222378412882,-0.6745864550272623,0.1163785209258397,0.0147344580230613,-1.2535961469014485,1.368791103363037,-2.032623171806335
4.65,1.688702051999792e+18,109.64779174804688,-1.5627814133961997,5.199137528737386,2.6054752270380654,1.688702051999792e+18,109.64779174804688,-1.7046867609024048,-4.4378883838653564,4.583252350489299,1.688702051999792e+18,109.64779174804688,-0.1477513474722703,-9.619521458943684,1.9150896867116292,1.6887020520084493e+18,109.6564491373698,-0.1348994101087251,3.041141668955485,-1.296154220898946,1.6887020520084493e+18,109.6564491373698,-0.1359684218962986,3.045621395111084,-1.2938125928243,,,,,,,,,,,,1.6887020519971896e+18,109.64518979492188,-28.84323921203613,41.670319366455075,-5.394839859008789,1.6887020519971896e+18,109.64518979492188,-283.384033203125,137.13531494140625,-138.606640625,1.688702051999792e+18,109.64779174804688,0.704879621664683,-0.7014825145403544,0.0775190430382887,0.0668015417953331,-1.5538790225982666,1.3657673994700117,-1.602949817975362
4.7,1.688702052051696e+18,109.69969596354169,-1.925220807393392,6.1188985506693525,0.1620511611302693,1.688702052051696e+18,109.69969596354169,-2.499502698580424,-3.454438328742981,2.3599213361740112,1.688702052051696e+18,109.69969596354169,-0.5801278750101725,-9.555832227071129,2.135182778040568,1.6887020520516992e+18,109.69969934082032,-0.4776966273784637,1.8243491053581236,-1.2853367924690249,1.6887020520516992e+18,109.69969934082032,-0.4786129295825958,1.8287778496742249,-1.2828933596611023,,,,,,,,,,,,1.6887020520471895e+18,109.69518950195312,-26.403239440917968,43.28803939819336,-2.2960399389266968,1.6887020520471895e+18,109.69518950195312,-280.94403686523435,138.75303955078124,-135.5078369140625,1.688702052051696e+18,109.69969596354169,0.6826433936754862,-0.719590405623118,0.0358758655687172,0.1210150172313054,-1.7384092807769775,1.3419278462727864,-1.281882365544637
4.75,1.688702052103607e+18,109.75160701497396,-3.301382621129354,0.5373322168986002,2.1033260822296143,1.688702052103607e+18,109.75160701497396,-3.9282171726226807,-8.90987459818522,4.790431022644043,1.688702052103607e+18,109.75160701497396,-0.6326805551846822,-9.429702123006184,2.624417543411255,1.6887020520949558e+18,109.74295589192708,-0.9297369321187338,1.4380277395248413,0.0146098534266153,1.6887020520949558e+18,109.74295589192708,-0.9308059215545654,1.4425073862075806,0.0170533309380213,,,,,,,,,,,,1.6887020520971853e+18,109.74518549804688,-24.21455955505371,44.0127197265625,-1.566479992866516,1.6887020520971853e+18,109.74518549804688,-278.75535278320314,139.47771606445312,-134.7782775878906,1.688702052103607e+18,109.75160701497396,0.6716323494911194,-0.7215784390767416,0.0238293670117854,0.1659753074248632,-1.7279961109161377,1.292169451713562,-1.2102320194244385
4.8,1.6887020521555136e+18,109.80351350911458,-0.6187873880068461,3.521794160207113,-0.1089437007904052,1.6887020521555136e+18,109.80351350911458,-1.4719847838083904,-5.768895943959554,3.0259236494700112,1.6887020521555136e+18,109.80351350911458,-0.8590434193611145,-9.27318541208903,3.0721799532572427,1.688702052146858e+18,109.79485799153645,-0.7817547917366028,0.4475097060203552,-1.1786645216246443,1.688702052146858e+18,109.79485799153645,-0.782721996307373,0.4519384602705638,-1.1763228873411815,,,,,,,,,,,,1.6887020521471877e+18,109.79518764648438,-23.929079437255854,44.08835906982422,-2.6278799295425417,1.6887020521471877e+18,109.79518764648438,-278.4698791503906,139.55335998535156,-135.8396789550781,1.6887020521555136e+18,109.80351350911458,0.6557161211967468,-0.7291312416394552,0.0258072931319474,0.1936641881863275,-1.7696116367975872,1.241181214650472,-1.130723237991333
4.85,1.6887020522074184e+18,109.85541829427082,-0.0308201710383096,-0.139138380686442,-0.2718003590901692,1.6887020522074184e+18,109.85541829427082,-1.861017823219299,-9.13360325495402,3.279961665471395,1.6887020522074184e+18,109.85541829427082,-1.83604367574056,-8.976960182189941,3.48907462755839,1.6887020521987694e+18,109.84676953125,-1.0003936688105266,-0.2800817092259725,-2.045482317606608,1.6887020521987694e+18,109.84676953125,-1.001360833644867,-0.2756020377079646,-2.043038765589396,,,,,,,,,,,,1.6887020521971825e+18,109.84518251953124,-19.512679672241212,46.15503921508789,-4.4188398838043215,1.6887020521971825e+18,109.84518251953124,-274.053466796875,141.6200378417969,-137.6306365966797,1.6887020522074184e+18,109.85541829427082,0.6110567053159078,-0.7623315453529358,0.031575451294581,0.2101958493391672,-1.9974981943766277,1.1641563177108765,-0.8854512969652811
4.9,1.688702052259323e+18,109.90732283528644,0.9357624053955078,-2.606716791788737,-1.1614686648050945,1.688702052259323e+18,109.90732283528644,-1.998206297556559,-11.132806777954102,2.7814568678538003,1.688702052259323e+18,109.90732283528644,-2.939814726511637,-8.508585294087728,3.880238135655721,1.688702052250679e+18,109.89867903645832,-1.572265346844991,-2.3580925861994424,-1.519272804260254,1.688702052250679e+18,109.89867903645832,-1.5733343362808228,-2.353663762410482,-1.51688019434611,,,,,,,,,,,,1.688702052247189e+18,109.89518916015624,-14.391119766235352,47.22863922119141,-8.361879825592041,1.688702052247189e+18,109.89518916015624,-268.9319091796875,142.69364013671876,-141.57367858886718,1.688702052259323e+18,109.90732283528644,0.5675160884857178,-0.7952631513277689,0.0785494086643059,0.19657830397288,-2.1743485927581787,1.0599181254704793,-0.794623335202535
4.95,1.688702052302575e+18,109.95057495117186,26.26678681373596,-7.7201337814331055,0.0677332878112793,1.688702052302575e+18,109.95057495117186,21.28744673728943,-15.267703533172607,3.88803768157959,1.688702052302575e+18,109.95057495117186,-4.985186576843262,-7.530065774917603,3.7576169967651367,1.688702052302581e+18,109.9505809733073,-1.9103792508443196,-3.3553808530171714,-5.20284104347229,1.688702052302581e+18,109.9505809733073,-1.911346435546875,-3.35095206896464,-5.200397729873657,,,,,,,,,,,,1.688702052297182e+18,109.94518203125,-5.331399965286255,47.05051879882812,-15.169479370117188,1.688702052297182e+18,109.94518203125,-259.8721984863281,142.51551208496093,-148.3812744140625,1.688702052302575e+18,109.95057495117186,0.4835484623908996,-0.8478162586688995,0.1604397594928741,0.1413361057639122,-2.459516763687134,0.8871148228645325,-0.7112332880496979
5.0,1.6887020523458296e+18,109.99382967122396,3.8976292610168457,-6.961136976877849,0.4538044929504394,1.6887020523458296e+18,109.99382967122396,-1.2703895568847656,-13.592428843180338,5.538387457529704,1.6887020523458296e+18,109.99382967122396,-5.173865000406901,-6.6137871742248535,5.021895567576091,1.6887020523544822e+18,110.0024823404948,1.17657736937205,7.280393918355306,-0.9502008805672328,1.6887020523544822e+18,110.0024823404948,1.1756101648012798,7.2848226229349775,-0.9478591978549958,1.6887020523371889e+18,109.98518896484374,0.0,0.0,1.0719009637832642,6.366000175476074,1.322968363761902,229.83851623535156,43.10000228881836,-122.7564316,49.1904795,1.6887020523471898e+18,109.99518969726562,2.7157198667526243,46.15503921508789,-18.17067985534668,1.6887020523471898e+18,109.99518969726562,-251.82507934570313,141.62003479003906,-151.38247680664062,1.6887020523458296e+18,109.99382967122396,0.4248191813627878,-0.8617056012153625,0.1058310195803641,0.2493235617876052,-2.347780386606852,0.7513666152954102,-0.5718434055646261
5.05,1.688702052397744e+18,110.0457440592448,-1.9006538391113283,-2.0619025230407715,-5.690691312154134,1.688702052397744e+18,110.0457440592448,-6.191029866536458,-8.885746637980143,-0.020338992277781,1.688702052397744e+18,110.0457440592448,-4.2962220509847,-6.806339422861735,5.607665061950684,1.6887020524063946e+18,110.05439453125,-0.4486805299917857,-1.7584265023469925,1.4189890225728352,1.6887020524063946e+18,110.05439453125,-0.4497495392958323,-1.7538450360298157,1.42138160020113,,,,,,,,,,,,1.6887020523971855e+18,110.045185546875,-0.5514399990439415,46.81627807617187,-16.784759712219238,1.6887020523971855e+18,110.045185546875,-255.092236328125,142.28128051757812,-149.9965576171875,1.688702052397744e+18,110.0457440592448,0.43933966755867,-0.8404642542203268,0.058441013097763,0.3113924463589985,-2.201527833938598,0.7786076863606771,-0.549758513768514
5.1,1.6887020524496466e+18,110.0976465657552,9.984843174616495,-8.738447666168213,-4.134279489517212,1.6887020524496466e+18,110.0976465657552,5.604190111160278,-15.953347524007162,0.9411769111951191,1.6887020524496466e+18,110.0976465657552,-4.386499404907227,-7.1973958015441895,5.012769063313802,1.6887020524583014e+18,110.10630143229169,0.8398888011773428,-1.291979988416036,1.6687311728795369,1.6887020524583014e+18,110.10630143229169,0.8389215966065725,-1.2875511646270752,1.6711745659510295,,,,,,,,,,,,1.6887020524471877e+18,110.09518759765626,-2.427799940109253,46.29167938232422,-17.499679565429688,1.6887020524471877e+18,110.09518759765626,-256.9685913085938,141.75668029785157,-150.71147766113282,1.6887020524496466e+18,110.0976465657552,0.4727603296438853,-0.8386074900627136,0.1078016981482505,0.2473505735397338,-2.2649819056193032,0.8330608805020651,-0.6644547979036967
5.15,1.688702052501554e+18,110.1495537109375,2.618571917215983,-5.582823753356934,-1.7028212547302246,1.688702052501554e+18,110.1495537109375,-0.6145566403865814,-13.732409159342447,2.7487549980481467,1.688702052501554e+18,110.1495537109375,-3.238974650700887,-8.132080713907877,4.388888835906982,1.6887020525015567e+18,110.14955688476564,2.922532081604004,2.5350908041000366,2.5912903547286987,1.6887020525015567e+18,110.14955688476564,2.9215394258499146,2.5395959615707397,2.5936574935913086,,,,,,,,,,,,1.6887020524971855e+18,110.14518569335937,-7.471279907226562,46.84067916870117,-13.734759521484374,1.6887020524971855e+18,110.14518569335937,-262.0120788574219,142.30567626953126,-146.9465576171875,1.688702052501554e+18,110.1495537109375,0.5340076287587484,-0.8077501853307089,0.0606037378311156,0.2400759557882944,-2.174237092336019,0.9870818257331848,-0.7016791701316833
5.2,1.688702052553463e+18,110.20146329752606,0.2751246293385823,-7.143525123596191,3.339838981628418,1.688702052553463e+18,110.20146329752606,-1.7864415049552915,-16.217754364013672,6.5146590868632,1.688702052553463e+18,110.20146329752606,-2.067412177721659,-9.05672518412272,3.1121325492858887,1.6887020525448087e+18,110.19280875651044,3.0489302476247153,-0.1450805068016052,2.207616090774536,1.6887020525448087e+18,110.19280875651044,3.0479630629221597,-0.1406517128149668,2.210059563318888,,,,,,,,,,,,1.6887020525471877e+18,110.19518764648436,-14.069039916992187,47.48727951049805,-6.192719888687134,1.6887020525471877e+18,110.19518764648436,-268.6098388671875,142.95227661132813,-139.4045196533203,1.688702052553463e+18,110.20146329752606,0.6000745892524719,-0.7725822329521179,0.0020821890987765,0.20576573908329,-2.1142274538675943,1.1862705945968628,-0.7326900561650594
5.25,1.688702052605359e+18,110.25335904947916,3.7854029337565103,-5.564324378967285,9.839984258015951,1.688702052605359e+18,110.25335904947916,2.456431825955709,-15.069000244140623,11.99143123626709,1.688702052605359e+18,110.25335904947916,-1.3348171710968018,-9.48717180887858,2.0887592236200967,1.6887020525967112e+18,110.24471110026042,1.8686367670694988,-0.1741475065549214,1.301702916622162,1.6887020525967112e+18,110.24471110026042,1.8676696221033733,-0.169718712568283,1.304146409034729,,,,,,,,,,,,1.688702052597182e+18,110.24518208007812,-19.585879135131837,46.74795837402344,-0.7490799635648727,1.688702052597182e+18,110.24518208007812,-274.1266723632813,142.21295471191405,-133.96087646484375,1.688702052605359e+18,110.25335904947916,0.6422239144643148,-0.7477716406186422,-0.024850217004617,0.1659487585226694,-2.075381278991699,1.320910056432088,-0.7933948238690695
5.3,1.688702052657269e+18,110.30526912434895,0.3051832119623821,4.4908755620320635,4.910449345906575,1.688702052657269e+18,110.30526912434895,-0.3347957630952199,-5.220142046610515,6.3052873611450195,1.688702052657269e+18,110.30526912434895,-0.6458249986171722,-9.69351291656494,1.3321504195531209,1.6887020526486157e+18,110.29661555989584,1.7221309343973796,1.096401313940684,1.2590442101160686,1.6887020526486157e+18,110.29661555989584,1.7211637496948242,1.100880960623423,1.2613349358240764,,,,,,,,,,,,1.6887020526471823e+18,110.29518237304688,-21.933159255981444,45.2815185546875,3.601439905166626,1.6887020526471823e+18,110.29518237304688,-276.4739501953125,140.74651794433595,-129.61035919189453,1.688702052657269e+18,110.30526912434895,0.6708944042523702,-0.7211987376213074,-0.0670452651878197,0.1582173556089401,-1.9014086723327637,1.4230133295059204,-0.9193464517593384
5.35,1.688702052709173e+18,110.35717293294272,-4.5746486981709795,7.995168685913086,3.2883057594299316,1.688702052709173e+18,110.35717293294272,-4.720640301704407,-1.8049858411153157,4.04426908493042,1.688702052709173e+18,110.35717293294272,-0.1518375743180513,-9.782649993896484,0.6932759284973145,1.6887020527005215e+18,110.34852172851562,1.313614805539449,0.988074541091919,0.845437486966451,1.6887020527005215e+18,110.34852172851562,1.3125967184702556,0.9926050901412964,0.847830057144165,,,,,,,,,,,,1.688702052697182e+18,110.34518208007812,-24.69767951965332,43.212399291992185,9.086559677124024,1.688702052697182e+18,110.34518208007812,-279.2384765625,138.67740173339843,-124.12523651123048,1.688702052709173e+18,110.35717293294272,0.6907369295756022,-0.6985524694124857,-0.1043185020486513,0.1546058058738708,-1.5076422691345217,1.497806429862976,-1.2654381195704143
5.4,1.6887020527524332e+18,110.40043322753904,-4.299480676651001,9.536628723144531,2.7222543954849243,1.6887020527524332e+18,110.40043322753904,-4.001397728919983,-0.2805584669113159,3.106781125068665,1.6887020527524332e+18,110.40043322753904,0.2922369837760925,-9.7996826171875,0.32183937728405,1.688702052752428e+18,110.40042789713544,0.8534296353658041,-1.0687596400578816,1.328937331835429,1.688702052752428e+18,110.40042789713544,0.8524115482966105,-1.0642799933751423,1.3313298622767131,,,,,,,,,,,,1.6887020527471816e+18,110.39518159179688,-26.334919357299803,41.382398986816405,12.42935962677002,1.6887020527471816e+18,110.39518159179688,-280.87571411132814,136.84739685058594,-120.78243865966796,1.6887020527524332e+18,110.40043322753904,0.7108219563961029,-0.6807129383087158,-0.1093776449561118,0.1390097364783286,-0.6188517361879349,1.510087966918945,-2.169464349746704
5.45,1.6887020527956849e+18,110.4436848144531,-0.7601525982220968,9.854351997375488,2.117024819056193,1.6887020527956849e+18,110.4436848144531,-0.1746760544677575,0.0456630333016316,2.358126719792684,1.6887020527956849e+18,110.4436848144531,0.5796305139859518,-9.791184425354004,0.1784145385026931,1.6887020528043323e+18,110.45233227539065,0.3478368545571963,-1.074104726314545,0.0521271570275227,1.6887020528043323e+18,110.45233227539065,0.3468187476197878,-1.0696759621302288,0.054519726584355,,,,,,,,,,,,1.688702052797181e+18,110.44518076171876,-29.221439361572266,39.747599029541014,11.670519828796388,1.688702052797181e+18,110.44518076171876,-283.7622375488281,135.21259460449218,-121.54127960205078,1.6887020527956849e+18,110.4436848144531,0.7255482077598572,-0.67206209897995,-0.092715414861838,0.1150917063156762,-0.2494707057873407,1.488730510075887,-2.5969111919403076
5.5,1.6887020528475904e+18,110.49559041341143,-2.0979225238164267,8.852130254109701,0.9260165691375732,1.6887020528475904e+18,110.49559041341143,-1.80917327105999,-0.96191468834877,1.3425728877385457,1.6887020528475904e+18,110.49559041341143,0.2829033099114894,-9.79654026031494,0.3538689364989598,1.6887020528562422e+18,110.5042421061198,-1.2126184006532033,-3.342094719409942,-1.3819808562596638,1.6887020528562422e+18,110.5042421061198,-1.213636537392934,-3.3376659154891968,-1.3795882662137349,1.6887020528562412e+18,110.5042412109375,0.0,0.0,1.0719009637832642,6.320000171661377,1.3104190826416016,226.81167602539065,43.10000228881836,-122.7564342,49.1904693,1.6887020528471818e+18,110.49518188476564,-29.177519607543942,40.506439971923825,10.355359840393067,1.6887020528471818e+18,110.49518188476564,-283.7183044433594,135.9714385986328,-122.85643768310548,1.6887020528475904e+18,110.49559041341143,0.717435379823049,-0.685637354850769,-0.0688428866366545,0.1007368614276249,-0.6906859576702118,1.5029534101486206,-2.2103457848230996
5.55,1.6887020528995e+18,110.5475000813802,25.78128178914388,-13.693532943725586,1.9813483953475952,1.6887020528995e+18,110.5475000813802,26.146173159281417,-23.366909662882488,3.5998022158940635,1.6887020528995e+18,110.5475000813802,0.3590440352757771,-9.65587329864502,1.555766503016154,1.688702052908155e+18,110.55615502929686,-3.078099091847738,-7.248781601587932,2.9814296762148538,1.688702052908155e+18,110.55615502929686,-3.079015334447225,-7.244251012802124,2.983873118956884,,,,,,,,,,,,1.6887020528971835e+18,110.54518349609376,-30.68787956237793,40.01355895996094,-3.530679923295975,1.6887020528971835e+18,110.54518349609376,-285.2286743164062,135.4785583496094,-136.7424758911133,1.6887020528995e+18,110.5475000813802,-0.2561845779418945,0.2045739293098449,-0.0847621926416953,0.01929402211681,-1.3174432516098022,1.3885308901468914,-1.9590403238932292
5.6,1.6887020529514138e+18,110.59941381835938,2.8461618423461914,-9.97125244140625,7.703575134277344,1.6887020529514138e+18,110.59941381835938,3.321038564046224,-19.482960383097332,10.181260744730633,1.6887020529514138e+18,110.59941381835938,0.4690305888652801,-9.49420420328776,2.4149975776672363,1.6887020529514076e+18,110.59940771484376,0.3590360581874847,1.725083410739899,-1.859626591205597,1.6887020529514076e+18,110.59940771484376,0.3579670190811157,1.729512244462967,-1.8571830987930296,,,,,,,,,,,,1.6887020529471852e+18,110.59518500976564,-32.14943885803223,37.43935928344727,-13.317519760131836,1.6887020529471852e+18,110.59518500976564,-286.69024047851565,132.90435485839845,-146.5293182373047,1.6887020529514138e+18,110.59941381835938,0.2378565073013305,-0.2292393445968628,0.0457607309023539,0.010943552168707,-1.3283164103825886,1.30020538965861,-2.0407822529474893
5.65,1.6887020530033196e+18,110.65131974283854,-4.155411720275879,1.9973495801289876,5.352847536404927,1.6887020530033196e+18,110.65131974283854,-4.06261404355367,-7.625925858815511,7.399006366729736,1.6887020530033196e+18,110.65131974283854,0.0869516084591547,-9.60577074686686,1.983471433321635,1.6887020529946616e+18,110.64266162109377,0.8328129649162292,4.533587217330933,-1.5576554934183755,1.6887020529946616e+18,110.64266162109377,0.8317948381106058,4.538016080856323,-1.5552629232406616,,,,,,,,,,,,1.6887020529971884e+18,110.64518837890624,-30.23647956848145,39.840318298339845,-6.824680042266846,1.6887020529971884e+18,110.64518837890624,-284.77727661132815,135.30531616210936,-140.0364776611328,1.6887020530033196e+18,110.65131974283854,0.7132150729497274,-0.6922636032104492,0.0765545591711997,0.0731804470221201,-1.4378690719604492,1.355854908625285,-1.70855979124705
5.7,1.688702053055225e+18,110.70322526041669,-1.8810404936472576,7.424892743428548,0.5283391873041788,1.688702053055225e+18,110.70322526041669,-2.2600209712982178,-2.2203400135040283,2.430908441543579,1.688702053055225e+18,110.70322526041669,-0.3848265210787455,-9.6277281443278,1.8398818572362263,1.688702053046575e+18,110.6945752766927,0.3464115013678868,1.9001472393671672,-1.101695458094279,1.688702053046575e+18,110.6945752766927,0.3454442967971166,1.904626925786336,-1.0993029276529949,,,,,,,,,,,,1.6887020530471887e+18,110.695188671875,-27.913599014282227,41.85087890625,-1.188279974460602,1.6887020530471887e+18,110.695188671875,-282.45439453125,137.3158752441406,-134.4000732421875,1.688702053055225e+18,110.70322526041669,0.6920239528020223,-0.7125706275304159,0.0247097043320535,0.1119588017463683,-1.6580188671747844,1.3746708234151204,-1.3595006465911863
5.75,1.6887020531071337e+18,110.7551337076823,-2.837912082672119,-0.4175724983215332,4.634220361709595,1.6887020531071337e+18,110.7551337076823,-3.486143191655477,-9.95912726720174,6.94596529006958,1.6887020531071337e+18,110.7551337076823,-0.6540770729382833,-9.524050076802572,2.2490575313568115,1.6887020530984768e+18,110.74647705078124,-1.0598003268241882,1.3628912766774497,-0.633569081624349,1.6887020530984768e+18,110.74647705078124,-1.0608183940251668,1.3673200209935503,-0.6311765213807423,,,,,,,,,,,,1.6887020530971873e+18,110.74518730468748,-25.829839324951173,43.12699890136719,0.3050000011920929,1.6887020530971873e+18,110.74518730468748,-280.3706359863281,138.5919952392578,-132.90679931640625,1.6887020531071337e+18,110.7551337076823,0.6745761434237162,-0.7220670580863953,0.0100025376304984,0.1525767346223195,-1.7534538507461548,1.3306653102238972,-1.184654990832011
5.8,1.6887020531590395e+18,110.80703963216143,-1.2626967827479043,3.13341760635376,1.2450974782307942,1.6887020531590395e+18,110.80703963216143,-1.71246337890625,-6.299703756968181,4.021138509114583,1.6887020531590395e+18,110.80703963216143,-0.4556126296520233,-9.415616671244305,2.7133536338806152,1.688702053150391e+18,110.7983907877604,-0.6252205769220988,0.4062253882487615,0.5039129157861074,1.688702053150391e+18,110.7983907877604,-0.6262386838595072,0.41070506721735,0.5062545637289683,,,,,,,,,,,,1.6887020531471908e+18,110.79519086914064,-25.6273193359375,42.96351928710938,-0.6051199734210968,1.6887020531471908e+18,110.79519086914064,-280.168115234375,138.428515625,-133.8169189453125,1.6887020531590395e+18,110.80703963216143,0.6753371556599935,-0.7147144476572672,0.0157601513589421,0.1811683426300684,-1.6504586537679036,1.2857221364974976,-1.2542589902877808
5.85,1.6887020532022948e+18,110.85029479980469,0.3782128840684891,5.581624507904053,-0.6921583414077759,1.6887020532022948e+18,110.85029479980469,-0.1950150504708289,-3.72113835811615,2.4792633056640625,1.6887020532022948e+18,110.85029479980469,-0.5790739804506302,-9.285258293151855,3.108734250068665,1.6887020532022958e+18,110.85029573567708,-1.0512990951538086,0.187026580174764,-1.0671815623839696,1.6887020532022958e+18,110.85029573567708,-1.0523171822230022,0.1915062516927719,-1.06483992934227,,,,,,,,,,,,1.68870205319719e+18,110.84519008789064,-26.081159591674805,42.63899993896485,-1.915399956703186,1.68870205319719e+18,110.84519008789064,-280.6219543457031,138.10399780273437,-135.1272003173828,1.6887020532022948e+18,110.85029479980469,0.6663279831409454,-0.7186201214790344,0.0281660575419664,0.1968146115541458,-1.6769394278526306,1.2425066828727722,-1.222297728061676
5.9,1.6887020532455506e+18,110.89355045572916,-0.1523188948631286,1.680390993754069,-0.7285257975260416,1.6887020532455506e+18,110.89355045572916,-1.4476577043533323,-7.39422067006429,2.8568308353424072,1.6887020532455506e+18,110.89355045572916,-1.3011848330497742,-9.057106971740724,3.522669235865275,1.6887020532541975e+18,110.90219767252604,-1.0675379236539204,-0.4999932050704956,-2.025018334388733,1.6887020532541975e+18,110.90219767252604,-1.0685051083564758,-0.4955135236183802,-2.022676666577657,,,,,,,,,,,,1.688702053247188e+18,110.89518803710936,-22.44799919128418,44.13227844238281,-4.328559923171997,1.688702053247188e+18,110.89518803710936,-276.9888000488281,139.59727783203124,-137.5403564453125,1.6887020532455506e+18,110.89355045572916,0.6320640444755554,-0.7435384392738342,0.0338254397114117,0.2150103002786636,-1.8574705521265664,1.1819603045781453,-1.0222055117289226
5.95,1.6887020532974597e+18,110.94545963541668,0.5206330617268881,-2.185908317565918,-0.8952835400899252,1.6887020532974597e+18,110.94545963541668,-1.9411774079004924,-10.830314000447592,3.112663427988688,1.6887020532974597e+18,110.94545963541668,-2.4676565329233804,-8.626900990804037,3.945259571075439,1.6887020533061076e+18,110.95410766601564,-1.5891659657160442,-2.2509875297546387,-1.9224947293599448,1.6887020533061076e+18,110.95410766601564,-1.590184013048808,-2.24650776386261,-1.9201021591822307,,,,,,,,,,,,1.6887020532971873e+18,110.94518740234376,-17.07267951965332,46.072079467773435,-7.922679710388183,1.6887020532971873e+18,110.94518740234376,-271.61347045898435,141.53707885742188,-141.1344757080078,1.6887020532974597e+18,110.94545963541668,0.5839875539143881,-0.7805612683296204,0.0662992969155311,0.2115940749645233,-2.077699581782023,1.084118366241455,-0.8518384496370951
6.0,1.6887020533493604e+18,110.99736010742188,2.833899895350138,-5.760621229807536,0.093834400177002,1.6887020533493604e+18,110.99736010742188,-1.233500103155772,-13.662419001261393,4.273581186930339,1.6887020533493604e+18,110.99736010742188,-4.073246002197266,-7.884293079376221,4.117059389750163,1.6887020533580145e+18,111.00601432291668,-1.8500053882598877,-6.109568913777669,-3.88393215338389,1.6887020533580145e+18,111.00601432291668,-1.850972572962443,-6.105140129725139,-3.8814886808395386,1.6887020533753162e+18,111.02331616210938,0.0,0.0,1.0814777612686155,6.375,1.2974538803100586,221.5694580078125,43.10000228881836,-122.7564349,49.1904586,1.6887020533471903e+18,110.99519028320312,-9.052399730682373,46.135519409179686,-14.461879539489749,1.6887020533471903e+18,110.99519028320312,-263.59319458007815,141.60051879882812,-147.67367858886718,1.6887020533493604e+18,110.99736010742188,0.5214149355888367,-0.822319229443868,0.1407824084162711,0.1729176342487335,-2.307366927464803,0.9445878465970358,-0.7870099743207296
6.05,1.6887020534012695e+18,111.0492697753906,24.018895149230957,-9.380962053934732,1.79216202100118,1.6887020534012695e+18,111.0492697753906,18.389241019884743,-15.96212100982666,6.392027060190837,1.6887020534012695e+18,111.0492697753906,-5.635500272115071,-6.563655058542888,4.537177483240764,1.6887020534012698e+18,111.04926977539064,0.3464369475841522,8.946808815002441,-2.815783351659775,1.6887020534012698e+18,111.04926977539064,0.3454443216323852,8.951237678527832,-2.813339978456497,,,,,,,,,,,,1.68870205339719e+18,111.04518979492188,3.0475599348545073,45.24735870361328,-18.939279556274418,1.68870205339719e+18,111.04518979492188,-251.49323425292968,140.7123565673828,-152.1510772705078,1.6887020534012695e+18,111.0492697753906,0.4234053492546081,-0.8674073815345764,0.156821459531784,0.196379780769348,-2.4393676122029624,0.7442654172579447,-0.6405349175135294
6.1,1.6887020534531707e+18,111.10117057291669,-3.978412389755249,-3.7966462771097818,-5.52903954188029,1.6887020534531707e+18,111.10117057291669,-8.065008481343588,-10.658629099527994,0.2450649191935856,1.6887020534531707e+18,111.10117057291669,-4.092442115147908,-6.844478130340576,5.711417198181152,1.6887020534445215e+18,111.0925215657552,1.086525668700536,3.755548682063818,0.4761694620052973,1.6887020534445215e+18,111.0925215657552,1.0855075418949127,3.759977515786886,0.4785620222489039,,,,,,,,,,,,1.688702053447188e+18,111.09518808593752,-2.9475199222564696,46.11599960327148,-16.694479370117186,1.688702053447188e+18,111.09518808593752,-257.4883148193359,141.58099670410155,-149.90627746582032,1.6887020534531707e+18,111.10117057291669,0.4483706951141357,-0.8333116968472799,0.0647525340318679,0.3166545430819192,-2.166639963785807,0.7842889626820883,-0.5868352055549622
6.15,1.6887020535050765e+18,111.15307666015626,9.016605377197266,-8.151317755381266,-3.849105278650919,1.6887020535050765e+18,111.15307666015626,5.123033046722412,-15.615560213724772,1.2564313213030498,1.6887020535050765e+18,111.15307666015626,-3.899418274561564,-7.446737925211589,5.042849063873291,1.6887020534964316e+18,111.1444317220052,0.8267043034235636,-3.14040736357371,2.173204024632772,1.6887020534964316e+18,111.1444317220052,0.8256861766179403,-3.1359276374181113,2.175647536913554,,,,,,,,,,,,1.6887020534971896e+18,111.14518969726562,-6.080479955673217,45.99399871826172,-15.48179931640625,1.6887020534971896e+18,111.14518969726562,-260.62127685546875,141.45899963378906,-148.6936004638672,1.6887020535050765e+18,111.15307666015626,0.4908857047557831,-0.8255006472269694,0.0861023515462874,0.263237918416659,-2.20123291015625,0.8724242448806763,-0.6725629369417826
6.2,1.688702053556986e+18,111.20498608398437,2.6900660196940103,-6.304815769195557,0.8171049753824869,1.688702053556986e+18,111.20498608398437,-0.2803591092427571,-14.683157602945965,5.002993265787761,1.688702053556986e+18,111.20498608398437,-2.976271073023478,-8.36083714167277,4.1232008934021,1.6887020535483343e+18,111.19633439127604,2.9431487719217935,2.46148149172465,2.247576812903086,1.6887020535483343e+18,111.19633439127604,2.9421815077463784,2.465961158275604,2.2500203450520835,,,,,,,,,,,,1.688702053547188e+18,111.19518813476562,-9.257359981536863,46.69183883666992,-11.541199684143066,1.688702053547188e+18,111.19518813476562,-263.79815673828125,142.15684204101564,-144.75299682617188,1.688702053556986e+18,111.20498608398437,0.5470727682113647,-0.8000174363454183,0.0373498888996739,0.2403994351625442,-2.1554969946543374,1.0323672691980998,-0.6872389912605286
6.25,1.6887020536088916e+18,111.25689168294272,0.506415327390035,-5.599653561909993,5.913827816645305,1.6887020536088916e+18,111.25689168294272,-1.2650055785973866,-14.784653027852375,8.964909394582113,1.6887020536088916e+18,111.25689168294272,-1.7772669394810994,-9.167494773864744,2.988394021987915,1.6887020536002447e+18,111.24824479166666,2.520989974339803,0.1439605752627055,1.6813048124313354,1.6887020536002447e+18,111.24824479166666,2.520022749900818,0.1484911541144053,1.6836973428726196,,,,,,,,,,,,1.6887020535971896e+18,111.24518964843747,-16.228439712524413,46.45027847290039,-3.325719964504242,1.6887020535971896e+18,111.24518964843747,-270.76923217773435,141.91527709960937,-136.5375183105469,1.6887020536088916e+18,111.25689168294272,0.6088168621063232,-0.7619384924570719,-0.0221697657058635,0.2191367397705713,-2.0563530127207437,1.2160433133443196,-0.7367138663927714
6.3,1.6887020536521472e+18,111.30014721679689,3.2694226503372192,-2.6638708114624023,7.556793212890626,1.6887020536521472e+18,111.30014721679689,2.0057836174964905,-12.10379409790039,10.031011581420898,1.6887020536521472e+18,111.30014721679689,-1.2694851160049438,-9.422418594360352,2.411530613899231,1.6887020536521485e+18,111.3001486002604,1.477173964182536,0.6364707040290037,1.166905363400777,1.6887020536521485e+18,111.3001486002604,1.4761558771133425,0.6408994570374489,1.1692978938420613,,,,,,,,,,,,1.6887020536471857e+18,111.29518574218748,-19.039319610595705,45.664598846435545,0.8564399838447571,1.6887020536471857e+18,111.29518574218748,-273.5801086425781,141.1295959472656,-132.35535583496093,1.6887020536521472e+18,111.30014721679689,0.6354956030845642,-0.7440285384654999,-0.0413362383842468,0.2019346728920936,-1.989503264427185,1.2957541942596436,-0.8029993772506714
6.35,1.688702053695407e+18,111.34340698242188,0.5941532055536906,5.246931552886963,2.6165656646092734,1.688702053695407e+18,111.34340698242188,-0.0504486958185831,-4.392025868097941,4.456233263015747,1.688702053695407e+18,111.34340698242188,-0.6504479050636292,-9.621452967325846,1.77698016166687,1.688702053704058e+18,111.35205794270831,1.777923305829366,1.1201741496721904,1.0681487719217937,1.688702053704058e+18,111.35205794270831,1.777007023493449,1.1246029337247212,1.070592224597931,,,,,,,,,,,,1.688702053697192e+18,111.34519199218748,-21.062079620361327,44.01271896362304,5.948719882965088,1.688702053697192e+18,111.34519199218748,-275.6028747558594,139.47771911621095,-127.26307830810546,1.688702053695407e+18,111.34340698242188,0.6605490644772848,-0.7192593614260355,-0.0792332192262013,0.1994790385166803,-1.8174278736114504,1.3809365034103394,-0.9255613883336384
6.4,1.6887020537473167e+18,111.39531689453126,-5.9998453458150225,8.268040974934896,1.8554904460906985,1.6887020537473167e+18,111.39531689453126,-6.19780953725179,-1.5020944476127625,2.9353951613108316,1.6887020537473167e+18,111.39531689453126,-0.2038102696339289,-9.752631187438965,1.0172173182169597,1.688702053755965e+18,111.4039646809896,1.3885475794474285,-0.9397143969933192,0.9882272283236184,1.688702053755965e+18,111.4039646809896,1.387580434481303,-0.935234675804774,0.9905688762664796,,,,,,,,,,,,1.6887020537471854e+18,111.395185546875,-22.940879821777344,42.40719909667969,10.538359832763671,1.6887020537471854e+18,111.395185546875,-277.48167724609374,137.8721954345703,-122.6734375,1.6887020537473167e+18,111.39531689453126,0.682661791642507,-0.6983747879664103,-0.1116564149657884,0.1833523859580358,-1.556540568669637,1.466399351755778,-1.1641443967819214
6.45,1.688702053799217e+18,111.447216796875,-2.3874948422114053,8.934610366821289,1.9369340737660723,1.688702053799217e+18,111.447216796875,-2.1852453152338662,-0.871785044670105,2.6023940245310464,1.688702053799217e+18,111.447216796875,0.1964036002755164,-9.788890838623049,0.6027725338935852,1.688702053807872e+18,111.4558721516927,0.2294308145840962,-1.278082807858785,0.8621853788693746,1.688702053807872e+18,111.4558721516927,0.2284127026796341,-1.2736540635426838,0.864527016878128,,,,,,,,,,,,1.688702053797191e+18,111.44519072265624,-26.003079223632813,40.53572006225586,11.392359924316406,1.688702053797191e+18,111.44519072265624,-280.5438720703125,136.00071716308594,-121.8194351196289,1.688702053799217e+18,111.447216796875,0.7074439525604248,-0.6852498650550842,-0.0953027307987212,0.1440459539492924,-0.9825264811515808,1.4942611455917358,-1.8186732133229573
6.5,1.6887020538511263e+18,111.49912630208333,-1.0192155838012695,8.918241500854492,1.646843433380127,1.6887020538511263e+18,111.49912630208333,-0.6961119671662649,-0.8715856472651163,2.499502658843994,1.6887020538511263e+18,111.49912630208333,0.3172575632731119,-9.77232297261556,0.7899718483289083,1.6887020538511276e+18,111.49912756347656,-0.4445571899414062,-1.1062769293785095,-0.0902553461492061,1.6887020538511276e+18,111.49912756347656,-0.4455498456954956,-1.101695477962494,-0.0878118835389613,,,,,,,,,,,,1.6887020538471905e+18,111.49519038085936,-27.872119522094728,39.781759643554686,10.284599876403808,1.6887020538471905e+18,111.49519038085936,-282.4129211425781,135.24675903320312,-122.92719879150393,1.6887020538511263e+18,111.49912630208333,0.7141271432240804,-0.6831859350204468,-0.0709459409117698,0.1348108996947606,-0.9676399230957032,1.4699641068776448,-1.8815547625223796
6.55,1.6887020539030264e+18,111.55102661132813,13.847111225128174,-2.3706437746683755,0.510617216428121,1.6887020539030264e+18,111.55102661132813,13.60040513674418,-12.088141481081644,1.978864351908366,1.6887020539030264e+18,111.55102661132813,-0.2525531860689322,-9.699993133544922,1.405559738477071,1.6887020538943754e+18,111.54237548828124,-1.607746422290802,-5.178304553031922,-1.014698068300883,1.6887020538943754e+18,111.54237548828124,-1.6087645292282104,-5.173824946085612,-1.012356420358022,1.6887020538943718e+18,111.54237182617187,0.0,0.0,1.0814777612686155,6.421999931335449,1.2961771488189695,218.96324157714844,43.10000228881836,-122.7564364,49.1904504,1.6887020538971858e+18,111.54518569335936,-27.51343955993652,41.00907897949219,4.7360399007797245,1.6887020538971858e+18,111.54518569335936,-282.0542358398437,136.4740753173828,-128.47575836181642,1.6887020539030264e+18,111.55102661132813,0.6988905072212219,-0.7059979240099589,0.0054588876664638,0.1009326900045076,-1.554832935333252,1.4187801678975422,-1.4511821667353313
