seconds_elapsed_rounded,accelerometer_time,accelerometer_seconds_elapsed,accelerometer_z,accelerometer_y,accelerometer_x,accelerometeruncalibrated_time,accelerometeruncalibrated_seconds_elapsed,accelerometeruncalibrated_z,accelerometeruncalibrated_y,accelerometeruncalibrated_x,gravity_time,gravity_seconds_elapsed,gravity_z,gravity_y,gravity_x,gyroscope_time,gyroscope_seconds_elapsed,gyroscope_z,gyroscope_y,gyroscope_x,gyroscopeuncalibrated_time,gyroscopeuncalibrated_seconds_elapsed,gyroscopeuncalibrated_z,gyroscopeuncalibrated_y,gyroscopeuncalibrated_x,location_time,location_seconds_elapsed,location_bearingAccuracy,location_speedAccuracy,location_verticalAccuracy,location_horizontalAccuracy,location_speed,location_bearing,location_altitude,location_longitude,location_latitude,magnetometer_time,magnetometer_seconds_elapsed,magnetometer_z,magnetometer_y,magnetometer_x,magnetometeruncalibrated_time,magnetometeruncalibrated_seconds_elapsed,magnetometeruncalibrated_z,magnetometeruncalibrated_y,magnetometeruncalibrated_x,orientation_time,orientation_seconds_elapsed,orientation_qz,orientation_qy,orientation_qx,orientation_qw,orientation_roll,orientation_pitch,orientation_yaw
0.0,1.688701972349323e+18,29.997322835286457,-1.0287435452143352,-1.2964633305867512,1.4328055381774902,1.6887019723579758e+18,30.00597566731771,-2.1998016436894736,-9.366106033325195,5.510271628697713,1.688701972349323e+18,29.997322835286457,-1.227751612663269,-8.588529268900553,4.566922664642334,1.688701972349323e+18,29.997322835286457,-1.549408753712972,-1.4700472553571065,-1.431919018427531,1.688701972349323e+18,29.997322835286457,-1.5504269003868103,-1.4655674894650776,-1.4295264879862468,,,,,,,,,,,,1.6887019723471926e+18,29.995192480468752,4.565239953994751,45.420599365234374,5.150839853286743,1.6887019723471926e+18,29.995192480468752,-249.97555541992188,140.88560180664064,-128.0609573364258,1.688701972349323e+18,29.997322835286457,0.3129292527834574,-0.6199779510498047,-0.4235921502113342,0.5813225309054056,-1.842666308085124,1.077213128407796,0.3460931479930877
0.05,1.6887019724012332e+18,30.049233072916667,0.8597491582234701,2.9168480237325034,-2.274327278137207,1.688701972401235e+18,30.04923486328125,-1.174576848745346,-5.052145719528198,2.474477767944336,1.6887019724012332e+18,30.049233072916667,-2.1363834142684937,-8.254679997762045,4.84514061609904,1.6887019724012332e+18,30.049233072916667,-1.1619674960772195,-2.3308581511179605,-0.4842634201049804,1.6887019724012332e+18,30.049233072916667,-1.1630365252494812,-2.3263275623321533,-0.4818708697954814,1.688701972401233e+18,30.04923291015625,0.0,0.0,1.4118130207061768,9.10200023651123,1.188264012336731,265.2215881347656,41.400001525878906,-122.7546981,49.1905724,1.6887019723971958e+18,30.045195849609375,6.187839984893799,45.471839141845706,2.8084399700164795,1.6887019723971958e+18,30.045195849609375,-248.3529541015625,140.93683471679688,-130.40335388183593,1.6887019724012332e+18,30.049233072916667,0.3063654601573944,-0.6702455083529154,-0.400454302628835,0.5442337393760681,-1.9961491028467817,1.0100898543993633,0.3920380473136902
0.1,1.6887019724531397e+18,30.101139973958336,1.008368968963623,-0.9073085784912108,-2.541767120361328,1.6887019724444897e+18,30.09248974609375,-1.628714640935262,-7.771090189615886,2.7094728151957193,1.6887019724531397e+18,30.101139973958336,-2.7974661191304526,-7.813376108805339,5.224843660990397,1.6887019724531397e+18,30.101139973958336,-1.7696257432301838,-1.994220534960429,-0.2687807083129882,1.6887019724531397e+18,30.101139973958336,-1.7705928881963091,-1.9896390438079832,-0.2663372457027435,,,,,,,,,,,,1.6887019724471967e+18,30.0951966796875,6.810039806365967,45.30835952758789,-0.4025999888777732,1.6887019724471967e+18,30.0951966796875,-247.7307556152344,140.7733612060547,-133.6144012451172,1.6887019724531397e+18,30.101139973958336,0.3013028005758921,-0.7169053157170614,-0.3588738044102986,0.515867014726003,-2.0707098642985025,0.9316415786743164,0.348501722017924
0.15,1.688701972505047e+18,30.153046875,2.059728185335795,-3.9165703455607095,-3.5440428256988525,1.688701972496397e+18,30.14439697265625,-1.714258035024007,-11.285747845967611,2.127219319343567,1.688701972505047e+18,30.153046875,-3.6298820972442623,-7.312789599100749,5.4295118649800616,1.688701972505047e+18,30.153046875,-1.2102258602778118,-2.1428644259770713,-1.130966107050578,1.688701972505047e+18,30.153046875,-1.211193044980367,-2.138333797454834,-1.1286244591077168,,,,,,,,,,,,1.688701972497193e+18,30.14519306640625,8.044679832458495,44.88379974365235,-3.5257999897003174,1.688701972497193e+18,30.14519306640625,-246.4961151123047,140.3487976074219,-136.73759765625,1.688701972505047e+18,30.153046875,0.287559578816096,-0.7606135805447897,-0.3261813322703044,0.4816799362500508,-2.1667839686075845,0.8509212334950765,0.338348110516866
0.2,1.6887019725569536e+18,30.204953613281248,16.39067776997884,-6.894933700561523,-2.299062410990397,1.6887019725483028e+18,30.19630297851562,7.105088134606679,-12.976077715555826,2.6544378995895386,1.6887019725569536e+18,30.204953613281248,-5.317355632781982,-6.239312171936035,5.30816109975179,1.6887019725569536e+18,30.204953613281248,-0.880664070447286,-1.343801736831665,-5.784893751144409,1.6887019725569536e+18,30.204953613281248,-0.8815803527832031,-1.339372992515564,-5.782501220703125,,,,,,,,,,,,1.6887019725471908e+18,30.195190722656253,13.859199714660644,43.52715911865234,-5.0654397964477536,1.6887019725471908e+18,30.195190722656253,-240.6815979003906,138.99216003417968,-138.27723693847656,1.6887019725569536e+18,30.204953613281248,0.2292906542619069,-0.8161507844924927,-0.3234576483567555,0.4173425436019897,-2.360295375188192,0.7001761198043823,0.4518030385176341
0.25,1.688701972608859e+18,30.256858642578123,0.9378134409586588,-8.638185818990072,-0.9906875292460124,1.6887019726002107e+18,30.24821077473958,1.4793626467386882,-13.723236401875814,6.378467718760173,1.688701972608859e+18,30.256858642578123,-5.033392429351807,-4.7203874588012695,6.910654862721761,1.688701972608859e+18,30.256858642578123,1.1094331182539463,8.725141048431396,-2.7101037154595056,1.688701972608859e+18,30.256858642578123,1.1084658751885097,8.729671637217203,-2.7077619979778924,,,,,,,,,,,,1.688701972597194e+18,30.2451939453125,25.93963966369629,37.26367874145508,-9.742919826507569,1.688701972597194e+18,30.2451939453125,-228.60115661621097,132.72867736816406,-142.9547149658203,1.688701972608859e+18,30.256858642578123,0.0644465970496336,-0.774820884068807,-0.3960635562737782,0.4842646916707356,-2.208733240763346,0.5085210998853048,0.6855653325716654
0.3,1.6887019726521165e+18,30.300116577148437,-0.3067243099212647,-5.5656538009643555,-10.660301685333252,1.6887019726521106e+18,30.300110677083335,-3.152144988377889,-11.64905802408854,-1.5742779175440471,1.6887019726521165e+18,30.300116577148437,-3.5844675302505493,-5.008970260620117,7.635299444198608,1.6887019726521165e+18,30.300116577148437,0.0149661898612976,0.7847327291965485,0.6370560675859451,1.6887019726521165e+18,30.300116577148437,0.0140499025583267,0.789237916469574,0.6394232176244259,,,,,,,,,,,,1.6887019726471936e+18,30.295193652343748,24.314599609375,36.434078979492185,-16.518799591064454,1.6887019726471936e+18,30.295193652343748,-230.2261932373047,131.89907531738282,-149.7305938720703,1.6887019726521165e+18,30.300116577148437,0.0317371059209107,-0.7135020792484283,-0.4198250323534012,0.5600319802761078,-2.0181901454925537,0.5416241884231567,0.717743307352066
0.35,1.6887019726953687e+18,30.34336873372396,6.0941535631815595,-12.09955596923828,-7.652532895406087,1.6887019727040233e+18,30.352023274739583,3.3102707862854004,-16.993826230367024,0.6207381089528402,1.6887019726953687e+18,30.34336873372396,-3.256727933883667,-5.526217778523763,7.4131754239400225,1.6887019726953687e+18,30.34336873372396,1.1595749706029892,-0.7878125508626302,2.804431358973185,1.6887019726953687e+18,30.34336873372396,1.1585059414307275,-0.7833328743775686,2.806874910990397,,,,,,,,,,,,1.6887019726971932e+18,30.3451931640625,20.247119903564453,38.45683898925781,-16.55051956176758,1.6887019726971932e+18,30.3451931640625,-234.29367370605468,133.92183532714844,-149.76231994628907,1.6887019726953687e+18,30.34336873372396,0.0834512412548064,-0.7161040107409159,-0.3940912783145904,0.5695260365804037,-1.9921510616938272,0.6048849821090698,0.6071643034617106
0.4,1.688701972747279e+18,30.395279134114585,0.6409231026967367,-5.733978430430095,-2.566131830215454,1.688701972755929e+18,30.403929524739585,-2.4458634853363037,-13.210773785909018,4.20977258682251,1.688701972747279e+18,30.395279134114585,-2.4473681449890137,-7.080028374989827,6.297663529713948,1.688701972747279e+18,30.395279134114585,3.6909495989481607,-0.499687780936559,3.2537736892700195,1.688701972747279e+18,30.395279134114585,3.6899824142456055,-0.4952081044514974,3.2562171618143716,,,,,,,,,,,,1.688701972747194e+18,30.395193945312503,14.347200012207033,42.834198760986325,-10.877519798278808,1.688701972747194e+18,30.395193945312503,-240.19359130859377,138.2991973876953,-144.08931579589844,1.688701972747279e+18,30.395279134114585,0.1878690918286641,-0.6791844964027405,-0.4061145385106404,0.5806381106376648,-1.9478789567947388,0.814854085445404,0.5062986512978872
0.45,1.6887019727991826e+18,30.44718253580729,-0.4422750870386759,-8.917594273885092,3.955591360727946,1.6887019728078377e+18,30.455837890625,-1.58444740374883,-17.53121503194173,10.094521045684814,1.6887019727991826e+18,30.44718253580729,-1.5631730556488037,-8.316354751586914,4.946430842081706,1.6887019727991826e+18,30.44718253580729,2.4658594131469727,-1.3276137908299763,2.4347561597824097,1.6887019727991826e+18,30.44718253580729,2.464841286341349,-1.323134144147237,2.4371487299601235,,,,,,,,,,,,1.688701972797197e+18,30.44519716796875,6.585559844970703,46.28679885864258,-3.391599941253662,1.688701972797197e+18,30.44519716796875,-247.95523376464843,141.75179443359374,-136.6033966064453,1.6887019727991826e+18,30.44718253580729,0.2995252609252929,-0.6453471382459005,-0.4053147335847218,0.5735263029734293,-1.883869131406148,1.0196958184242249,0.3485243320465088
0.5,1.6887019728510968e+18,30.499096842447916,2.4932724634806314,-2.412832578023275,7.943002382914226,1.688701972851093e+18,30.499092895507815,2.119143486022949,-11.29502010345459,12.259028434753418,1.6887019728510968e+18,30.499096842447916,-1.0307230552037556,-8.906856536865234,3.966797908147176,1.6887019728510968e+18,30.499096842447916,1.9877046346664429,-0.115046286334594,1.3729705413182576,1.6887019728510968e+18,30.499096842447916,1.986737370491028,-0.1106175122161706,1.3753630717595418,,,,,,,,,,,,1.6887019728471946e+18,30.495194775390623,2.278959941864014,47.084678649902344,2.1667199581861496,1.6887019728471946e+18,30.495194775390623,-252.26183471679687,142.54967651367187,-131.04507751464843,1.6887019728510968e+18,30.499096842447916,0.3636178870995839,-0.6204626758893331,-0.4102549751599629,0.5605515042940775,-1.83138378461202,1.1465176741282146,0.2470097442468007
0.55,1.688701972903e+18,30.55099991861979,-0.7858303884665171,6.475715001424153,2.698853095372518,1.6887019728943434e+18,30.542343587239586,-0.7948159066339334,-3.4153555234273276,6.951747894287109,1.688701972903e+18,30.55099991861979,-0.1940938519934813,-9.24644692738851,3.260396401087443,1.688701972903e+18,30.55099991861979,1.449939529101054,0.5201517442862192,1.4990633328755696,1.688701972903e+18,30.55099991861979,1.4489214817682905,0.5246314207712809,1.5014558633168538,1.6887019729203023e+18,30.56830224609375,0.0,0.0,1.421470284461975,8.753000259399414,1.198811411857605,265.5604248046875,41.400001525878906,-122.7547094,49.1905721,1.6887019728971978e+18,30.5451978515625,-2.1715999603271485,46.677198028564455,6.89543981552124,1.6887019728971978e+18,30.5451978515625,-256.71239318847654,142.14219665527344,-126.31635894775393,1.688701972903e+18,30.55099991861979,0.4062003493309021,-0.5814016461372375,-0.4154452482859294,0.5693781773249308,-1.6334103345870972,1.2388817469278972,0.0597905806886652
0.6,1.6887019729549066e+18,30.60290673828125,-4.368805011113484,8.725061734517416,0.3049116134643554,1.6887019729462556e+18,30.594255533854167,-3.465604861577352,-0.93399844566981,3.3336006800333657,1.6887019729549066e+18,30.60290673828125,0.2806041886409123,-9.422811508178713,2.70957088470459,1.6887019729549066e+18,30.60290673828125,1.1632401545842488,0.1140790780385335,0.7574220101038615,1.6887019729549066e+18,30.60290673828125,1.162323832511902,0.1185587545235951,0.7598654429117838,,,,,,,,,,,,1.6887019729471956e+18,30.59519575195312,-4.779959869384766,46.03547821044922,10.184560012817382,1.6887019729471956e+18,30.59519575195312,-259.320751953125,141.50047607421874,-123.02723846435546,1.6887019729549066e+18,30.60290673828125,0.4329139788945516,-0.5548808177312216,-0.4226312537988027,0.5709657073020935,-1.4688644409179688,1.2982004483540852,-0.0960736696918805
0.65,1.6887019730068134e+18,30.65481363932292,-2.9332828521728516,9.413643519083658,-0.8105179071426392,1.6887019729981624e+18,30.64616251627604,-3.37687087059021,-0.0915254632321496,1.8364914258321128,1.6887019730068134e+18,30.65481363932292,0.4319221476713816,-9.504613558451334,2.3897056579589844,1.6887019730068134e+18,30.65481363932292,0.4653774996598561,-1.3882930676142375,0.5268203640977541,1.6887019730068134e+18,30.65481363932292,0.4643084903558095,-1.3838134209314985,0.5292129230995973,,,,,,,,,,,,1.6887019729971914e+18,30.64519150390625,-7.393199825286866,45.13999862670899,12.10483989715576,1.6887019729971914e+18,30.64519150390625,-261.9340026855469,140.60499267578126,-121.1069580078125,1.6887019730068134e+18,30.65481363932292,0.4635852674643199,-0.5562052329381307,-0.4112938543160756,0.5535346070925394,-1.3901187181472778,1.3301514784495037,-0.2360478440920511
0.7,1.6887019730587208e+18,30.70672062174479,-0.9455089370409648,8.84310531616211,-1.0658925374348958,1.6887019730500682e+18,30.698068359375,-0.5168496867020925,-0.3960121522347132,1.4077773094177246,1.6887019730587208e+18,30.70672062174479,0.1460433776179949,-9.48482354482015,2.4955288569132485,1.6887019730587208e+18,30.70672062174479,-0.3488549552857876,-0.7890851895014445,-0.6675229966640472,1.6887019730587208e+18,30.70672062174479,-0.3498221586147944,-0.7845546007156372,-0.6650795340538025,,,,,,,,,,,,1.688701973047195e+18,30.695194873046876,-7.666479969024659,45.15951919555664,11.75103988647461,1.688701973047195e+18,30.695194873046876,-262.207275390625,140.6245147705078,-121.46075897216797,1.6887019730587208e+18,30.70672062174479,0.4702831506729126,-0.5783906181653341,-0.3979021112124124,0.534688929716746,-1.5112224817276,1.3232420682907104,-0.1766252617041269
0.75,1.688701973101977e+18,30.749977294921877,8.490592241287231,-0.9999179840087892,-0.968643069267273,1.6887019731019745e+18,30.74997395833333,12.384452342987062,-11.287941177686056,1.8562321662902832,1.688701973101977e+18,30.749977294921877,-0.6434928327798843,-9.333031177520752,2.9383593797683716,1.688701973101977e+18,30.749977294921877,-1.949805498123169,-6.261445164680482,-0.3975205719470978,1.688701973101977e+18,30.749977294921877,-1.9508745074272156,-6.25701630115509,-0.395077109336853,,,,,,,,,,,,1.6887019730971935e+18,30.7451935546875,-6.758799839019775,45.97447891235352,9.291519927978516,1.6887019730971935e+18,30.7451935546875,-261.2995971679687,141.43948059082032,-123.92027740478515,1.688701973101977e+18,30.749977294921877,0.4681756198406219,-0.6322988867759705,-0.3630989044904709,0.4978706240653991,-1.7879136204719543,1.269115328788757,-0.0259966310113668
0.8,1.688701973145232e+18,30.79323209635417,23.622264226277668,-17.26023292541504,1.872585693995158,1.6887019731538793e+18,30.801879557291667,16.321842193603516,-24.179871559143063,6.333203156789144,1.688701973145232e+18,30.79323209635417,-0.3938033580780029,-9.142016092936196,3.531728426615397,1.688701973145232e+18,30.79323209635417,-1.416443755229314,-4.269948124885559,2.203645408153534,1.688701973145232e+18,30.79323209635417,-1.417360097169876,-4.265519301096599,2.205987175305685,,,,,,,,,,,,1.6887019731471974e+18,30.795197412109378,-13.395599746704102,45.40595932006836,2.103279936313629,1.6887019731471974e+18,30.795197412109378,-267.9364013671875,140.87095947265624,-131.1085174560547,1.688701973145232e+18,30.79323209635417,0.5294598937034607,-0.6773430109024048,-0.2427326043446858,0.4484124183654785,-1.675881544748942,1.2101746797561646,-0.4255680243174235
0.85,1.688701973197139e+18,30.845138916015625,0.9136865933736166,-6.230792999267578,6.299086729685466,1.6887019732057866e+18,30.85378670247396,-0.8646065791447958,-15.543177286783854,11.594422340393066,1.688701973197139e+18,30.845138916015625,-0.7223241329193115,-9.094082832336426,3.60652502377828,1.688701973197139e+18,30.845138916015625,0.4796819388866424,2.3156882921854653,-1.3681344985961914,1.688701973197139e+18,30.845138916015625,0.4787147392829259,2.320117086172104,-1.3657419681549072,,,,,,,,,,,,1.6887019731971924e+18,30.845192333984375,-12.47327995300293,45.73047943115235,0.2830399759113788,1.6887019731971924e+18,30.845192333984375,-267.0140747070312,141.1954772949219,-132.9287567138672,1.688701973197139e+18,30.845138916015625,0.5208170612653097,-0.691109279791514,-0.23950623969237,0.4397516349951426,-1.7649959723154705,1.196688532829285,-0.3549051682154338
0.9,1.6887019732490383e+18,30.89703833007813,-1.923744201660156,2.803433100382487,4.106387694676717,1.6887019732576973e+18,30.905697265625,-2.462015151977539,-3.74456799030304,5.438486893971761,1.6887019732490383e+18,30.89703833007813,-0.5634589592615763,-9.128902435302736,3.546980142593384,1.6887019732490383e+18,30.89703833007813,0.5221879680951437,5.090849081675212,-1.7332792282104492,1.6887019732490383e+18,30.89703833007813,0.5212207635243734,5.0953288078308105,-1.7308866580327351,,,,,,,,,,,,1.6887019732471956e+18,30.895195703125,-8.093479919433594,46.06963882446289,3.6551198720932008,1.6887019732471956e+18,30.895195703125,-262.63427734375,141.53463745117188,-129.55667724609376,1.6887019732490383e+18,30.89703833007813,0.4698476890722909,-0.6518336733182272,-0.3207673331101735,0.5002217690149943,-1.731557051340739,1.20704193909963,-0.1463797849913437
0.95,1.688701973300953e+18,30.94895304361979,-0.9346327185630798,8.826200485229492,-1.788179874420166,1.6887019733096008e+18,30.957600748697917,-1.9936200380325315,-0.7270192548943063,1.847059686978658,1.688701973300953e+18,30.94895304361979,-0.8411044677098592,-9.147480010986328,3.4407474994659424,1.688701973300953e+18,30.94895304361979,0.5544620255629221,2.660572608311971,-1.685326337814331,1.688701973300953e+18,30.94895304361979,0.5535457332928976,2.665001471837362,-1.6829846700032551,,,,,,,,,,,,1.6887019732971932e+18,30.945193115234375,-3.128079915046692,46.09891967773437,6.595319843292236,1.6887019732971932e+18,30.945193115234375,-257.66887817382815,141.563916015625,-126.6164794921875,1.688701973300953e+18,30.94895304361979,0.4170498251914978,-0.6253785689671835,-0.390443742275238,0.5311535199483236,-1.8236137231191,1.2128541866938274,0.1299270627399285
1.0,1.6887019733528596e+18,31.00085978190104,-2.131638685862223,0.9167852401733398,2.139154036839803,1.6887019733528596e+18,31.000859741210935,-3.4893336296081543,-7.990531921386719,6.151049852371216,1.6887019733528596e+18,31.00085978190104,-1.1912577549616497,-8.950929323832193,3.820494095484415,1.6887019733528596e+18,31.00085978190104,-1.7196365594863892,0.8027278383572897,-0.7904596428076426,1.6887019733528596e+18,31.00085978190104,-1.7206546664237976,0.8072074999411901,-0.788067082564036,,,,,,,,,,,,1.688701973347194e+18,30.995193847656253,1.329799984395504,45.96959915161133,6.30251989364624,1.688701973347194e+18,30.995193847656253,-253.21099243164065,141.43459777832032,-126.90927581787108,1.6887019733528596e+18,31.00085978190104,0.371757666269938,-0.6256525119145712,-0.413230945666631,0.5470971663792928,-1.8902472654978435,1.1619764963785808,0.2815980911254883
1.05,1.688701973404767e+18,31.052766682942707,-1.44146196047465,-1.268233299255371,0.807377020517985,1.688701973396112e+18,31.04411197916667,-3.171088218688965,-11.06640593210856,6.503492434819539,1.688701973404767e+18,31.052766682942707,-1.270666480064392,-8.532411893208822,4.6697187423706055,1.688701973404767e+18,31.052766682942707,-1.3556626836458845,-1.3013975024223328,0.6812674601872762,1.688701973404767e+18,31.052766682942707,-1.3566808303197224,-1.2969178160031636,0.6836600204308828,,,,,,,,,,,,1.6887019733971914e+18,31.045191552734376,1.6421199679374694,46.164797973632815,1.4225199818611145,1.6887019733971914e+18,31.045191552734376,-252.8986785888672,141.62979431152343,-131.7892822265625,1.688701973404767e+18,31.052766682942707,0.3498190840085347,-0.6515814661979675,-0.3760310908158619,0.5580796202023824,-1.848535378774007,1.0669922828674316,0.2081974198420842
1.1,1.6887019734566738e+18,31.10467374674479,0.7311090230941772,2.88253386815389,-2.6073145071665444,1.688701973448025e+18,31.09602547200521,-0.7774679660797119,-4.980460961659749,2.445464769999186,1.6887019734566738e+18,31.10467374674479,-1.4498167832692463,-8.281781514485678,5.050311247507731,1.6887019734566738e+18,31.10467374674479,-1.4253013531366985,-2.117971579233805,0.4117231915394465,1.6887019734566738e+18,31.10467374674479,-1.426268498102824,-2.113441069920858,0.4141157319148381,1.688701973439369e+18,31.087368896484374,0.0,0.0,1.421470284461975,8.550000190734863,1.208683729171753,265.70098876953125,41.400001525878906,-122.7547187,49.1905718,1.6887019734471905e+18,31.095190576171877,0.0976000189781189,46.16235809326171,-1.5884399950504302,1.6887019734471905e+18,31.095190576171877,-254.4431915283203,141.62735595703126,-134.80023498535155,1.6887019734566738e+18,31.10467374674479,0.3633448779582977,-0.6838507652282715,-0.3264941970507304,0.5416504144668579,-1.858349561691284,1.0178231795628865,0.1010406961043675
1.15,1.6887019735085806e+18,31.15658081054687,1.185302217801412,-2.180973529815674,-2.8142250378926597,1.6887019734999288e+18,31.147928955078125,-1.005583723386129,-9.578469276428224,2.847658395767212,1.6887019735085806e+18,31.15658081054687,-2.302813728650411,-7.833231449127197,5.42491881052653,1.6887019735085806e+18,31.15658081054687,-1.149393876393636,-1.9765563408533733,-1.6266323526700337,1.6887019735085806e+18,31.15658081054687,-1.1504628856976826,-1.9721275170644124,-1.624290645122528,,,,,,,,,,,,1.6887019734971958e+18,31.145195703125,0.4416399836540222,45.48647918701172,-5.36799988746643,1.6887019734971958e+18,31.145195703125,-254.09915161132812,140.95147705078125,-138.57979736328124,1.6887019735085806e+18,31.15658081054687,0.346790075302124,-0.7290881276130676,-0.2930544714132945,0.5117376744747162,-1.9783562819163003,0.936806857585907,0.1211605841914812
1.2,1.688701973551832e+18,31.19983190917969,2.4576480388641357,-3.2054686546325684,-3.651609420776367,1.6887019735518298e+18,31.19982975260417,-1.1525429089864094,-10.68754227956136,1.9314066966374712,1.688701973551832e+18,31.19983190917969,-3.571969151496887,-7.330870151519775,5.443957805633545,1.688701973551832e+18,31.19983190917969,-1.1291080713272097,-2.617099404335022,-2.524629712104798,1.688701973551832e+18,31.19983190917969,-1.130100667476654,-2.612594246864319,-2.522186279296875,,,,,,,,,,,,1.6887019735471956e+18,31.19519565429688,6.451359844207763,44.64223937988281,-7.861680030822754,1.6887019735471956e+18,31.19519565429688,-248.0894317626953,140.10723876953125,-141.07347717285157,1.688701973551832e+18,31.19983190917969,0.3156847655773163,-0.7758789658546448,-0.2830867916345596,0.4668392241001129,-2.1589977741241455,0.8544825911521912,0.2212573140859603
1.25,1.688701973595086e+18,31.24308634440104,13.6575878461202,-7.429853757222493,-2.193711280822754,1.688701973603739e+18,31.25173893229167,14.89950829744339,-14.132010459899902,3.8299121061960855,1.688701973595086e+18,31.24308634440104,-5.227537473042806,-6.398311297098796,5.220955530802409,1.688701973595086e+18,31.24308634440104,-1.0527753432591755,-2.787632624308268,-4.8980192343393965,1.688701973595086e+18,31.24308634440104,-1.053793489933014,-2.7832038402557373,-4.895626703898112,,,,,,,,,,,,1.688701973597194e+18,31.245193994140624,15.584279823303223,42.104638671875,-9.171959686279298,1.688701973597194e+18,31.245193994140624,-238.9565185546875,137.56963500976562,-142.38375549316407,1.688701973595086e+18,31.24308634440104,0.263935163617134,-0.8311037222544352,-0.2747009297211965,0.4027989010016122,-2.3609447479248047,0.7209082643191019,0.327150563398997
1.3,1.6887019736469993e+18,31.294999186197916,5.868350505828857,-9.300175666809082,1.0091106096903484,1.688701973655647e+18,31.30364705403646,-7.916254838307698,-13.584053993225098,6.093921005725861,1.6887019736469993e+18,31.294999186197916,-5.323647975921631,-4.612136205037435,6.73518435160319,1.6887019736469993e+18,31.294999186197916,1.2598077431321144,9.77073891957601,-4.352160195509593,1.6887019736469993e+18,31.294999186197916,1.258789636194706,9.77521832784017,-4.349767724672954,,,,,,,,,,,,1.6887019736471936e+18,31.295193701171875,25.4906795501709,35.121358489990236,-15.179239463806152,1.6887019736471936e+18,31.295193701171875,-229.05011596679688,130.58635559082032,-148.3910369873047,1.6887019736469993e+18,31.294999186197916,0.0906414153675237,-0.8054328958193461,-0.3501808047294616,0.4624156653881073,-2.2492995262145996,0.4957638680934906,0.5814703305562338
1.35,1.6887019736989092e+18,31.34690901692709,1.422165075937907,-5.315565427144368,-9.887947718302408,1.6887019737075569e+18,31.355557047526037,0.014955182870229,-11.859028180440268,-1.7002998789151509,1.6887019736989092e+18,31.34690901692709,-3.962807814280192,-5.105419158935547,7.377203464508057,1.6887019736989092e+18,31.34690901692709,0.4321362450718879,-0.8910997013250986,1.993762324253718,1.6887019736989092e+18,31.34690901692709,0.4311690628528595,-0.8866199950377146,1.9962058464686077,,,,,,,,,,,,1.6887019736971973e+18,31.345197119140625,21.90631980895996,35.69963912963867,-18.43419952392578,1.6887019736971973e+18,31.345197119140625,-232.63447265625,131.16463928222657,-151.6459991455078,1.6887019736989092e+18,31.34690901692709,0.0731421535213788,-0.7454360524813334,-0.3855886956055959,0.5383276542027792,-2.0720452467600503,0.5521194934844971,0.6222259203592936
1.4,1.6887019737508058e+18,31.39880582682292,5.1899129549662275,-10.34390942255656,-5.5706939697265625,1.6887019737594642e+18,31.4074638671875,0.903290589650472,-15.571891466776528,1.8025930921236677,1.6887019737508058e+18,31.39880582682292,-3.514801104863485,-5.999710559844971,6.903420925140381,1.6887019737508058e+18,31.39880582682292,1.8623245159784951,-0.8337801496187845,2.818583091100057,1.6887019737508058e+18,31.39880582682292,1.8613064487775168,-0.8293004930019379,2.8209757010142007,,,,,,,,,,,,1.6887019737471962e+18,31.395196044921875,16.750599479675294,38.19087905883789,-16.66275978088379,1.6887019737471962e+18,31.395196044921875,-237.79019775390623,133.65587768554687,-149.8745574951172,1.6887019737508058e+18,31.39880582682292,0.1541163126627604,-0.7447551886240641,-0.3553556601206462,0.5427753329277039,-2.0486483573913574,0.6633268197377523,0.4772685468196869
1.45,1.68870197380272e+18,31.450719807942708,0.9016810655593872,-6.619331995646159,-1.137219826380412,1.6887019738027233e+18,31.450723510742183,-1.911566197872162,-13.996816158294678,4.507479667663574,1.68870197380272e+18,31.450719807942708,-2.603240728378296,-7.537447293599446,5.679120858510335,1.68870197380272e+18,31.450719807942708,3.168099880218506,-0.9500481883684794,3.572441816329956,1.68870197380272e+18,31.450719807942708,3.1671326955159507,-0.9456193844477334,3.5748852094014487,,,,,,,,,,,,1.688701973797193e+18,31.445192871093745,11.694919776916503,41.260398864746094,-10.672559642791748,1.688701973797193e+18,31.445192871093745,-242.84587707519532,136.72539978027345,-143.8843566894531,1.68870197380272e+18,31.450719807942708,0.2658983518679936,-0.7079917788505554,-0.3643089731534322,0.5422847072283427,-2.006211797396342,0.8826252222061157,0.3641598125298818
1.5,1.688701973854621e+18,31.502621175130205,1.8078677654266355,-9.381362915039062,6.856886386871338,1.6887019738459758e+18,31.493975748697917,-0.217348039150238,-17.948562622070312,10.180263996124268,1.688701973854621e+18,31.502621175130205,-1.6753288904825847,-8.57920773824056,4.436562220255534,1.688701973854621e+18,31.502621175130205,2.370157162348429,-0.1444187263647715,1.8021034002304075,1.688701973854621e+18,31.502621175130205,2.369139035542806,-0.1399390697479248,1.80454687277476,,,,,,,,,,,,1.688701973847194e+18,31.495193896484373,5.626639890670776,42.682919311523435,-4.299279975891113,1.688701973847194e+18,31.495193896484373,-248.9141540527344,138.14791870117188,-137.51107788085938,1.688701973854621e+18,31.502621175130205,0.3615498542785644,-0.6713895996411642,-0.3682552874088287,0.5315284331639608,-1.9385909636815388,1.0701076587041218,0.230225587884585
1.55,1.6887019739065336e+18,31.554533854166664,1.5716005365053811,1.362664540608724,6.964763641357422,1.6887019738978793e+18,31.54587923177083,1.073978518446287,-9.937392393747963,11.841082255045572,1.6887019739065336e+18,31.554533854166664,-0.9614941676457724,-9.074375788370768,3.5865116914113364,1.6887019739065336e+18,31.554533854166664,1.8886935313542683,1.0499755342801411,1.203608155250549,1.6887019739065336e+18,31.554533854166664,1.8877263466517131,1.0545061429341631,1.2060006856918335,,,,,,,,,,,,1.6887019738971927e+18,31.545192675781248,4.1577600002288815,42.778079223632815,0.1024799942970275,1.6887019738971927e+18,31.545192675781248,-250.38303833007816,138.24307556152343,-133.10931396484375,1.6887019739065336e+18,31.554533854166664,0.399538904428482,-0.6275076667467753,-0.3952482640743255,0.5385979612668356,-1.839541792869568,1.187293251355489,0.1737246662378311
1.6,1.688701973958445e+18,31.606444986979167,-2.6253936290740967,7.32308308283488,1.6138335069020588,1.688701973949789e+18,31.59778873697917,-2.0368902484575906,-2.501097838083903,5.215555667877197,1.688701973958445e+18,31.606444986979167,-0.1619094101091226,-9.34924856821696,2.9575788974761963,1.688701973958445e+18,31.606444986979167,1.2474377552668254,0.7437793612480164,1.3260866403579712,1.688701973958445e+18,31.606444986979167,1.2463687260945635,0.7482590277989706,1.3285301129023237,1.688701973958441e+18,31.60644091796875,0.0,0.0,1.2369487285614014,8.312999725341797,1.2248997688293457,265.9010009765625,41.400001525878906,-122.7547305,49.1905715,1.6887019739471887e+18,31.595188720703124,2.5790799379348757,42.670718383789065,3.106119966506958,1.6887019739471887e+18,31.595188720703124,-251.9617126464844,138.1357177734375,-130.10567321777344,1.688701973958445e+18,31.606444986979167,0.4325108826160431,-0.5866210063298544,-0.4064834117889404,0.5508432388305664,-1.6317777236302693,1.2705769538879397,-0.0015511823973307
1.65,1.6887019740016968e+18,31.64969677734375,-6.326749563217163,9.112754344940186,0.745398998260498,1.6887019740016947e+18,31.649694824218752,-5.495914777119954,-0.4452644139528274,3.3385857741038003,1.6887019740016968e+18,31.64969677734375,0.3606814220547676,-9.45207929611206,2.5977975130081177,1.6887019740016968e+18,31.64969677734375,0.8232172727584839,-0.165009967982769,1.5589281320571895,1.6887019740016968e+18,31.64969677734375,0.8223009705543518,-0.1605812162160873,1.5613715648651123,,,,,,,,,,,,1.6887019739971958e+18,31.645195654296874,1.3590799570083618,42.82931976318359,5.91943998336792,1.6887019739971958e+18,31.645195654296874,-253.1817169189453,138.29431762695313,-127.2923583984375,1.6887019740016968e+18,31.64969677734375,0.4532381147146224,-0.5618653297424316,-0.4087273329496383,0.5583720505237579,-1.4367530941963196,1.3082286715507507,-0.1824686825275421
1.7,1.6887019740449492e+18,31.692948974609376,-2.959373950958252,9.61590321858724,-0.3821505705515544,1.6887019740535962e+18,31.70159619140625,-1.6590236624081929,0.0510468855500221,2.0743778546651206,1.6887019740449492e+18,31.692948974609376,0.8524303237597147,-9.447850545247396,2.4971311887105307,1.6887019740449492e+18,31.692948974609376,0.2539672205845515,-0.977078934510549,1.3170763850212095,1.6887019740449492e+18,31.692948974609376,0.2530509357651074,-0.9725483655929564,1.319519817829132,,,,,,,,,,,,1.688701974047186e+18,31.695185986328124,-1.4029999375343325,43.04403915405273,7.0906397819519045,1.688701974047186e+18,31.695185986328124,-255.943798828125,138.5090362548828,-126.12115783691408,1.6887019740449492e+18,31.692948974609376,0.478517472743988,-0.5524208148320516,-0.3900778392950694,0.5599994460741679,-1.2371327479680378,1.307686487833659,-0.4152583877245584
1.75,1.688701974096857e+18,31.744857096354167,-1.678335666656494,9.09776528676351,-0.9103790124257406,1.6887019741055112e+18,31.753511393229164,-1.4951153819759686,-0.7168498014410337,1.791227142016093,1.688701974096857e+18,31.744857096354167,0.8352011243502299,-9.39870548248291,2.6787991523742676,1.688701974096857e+18,31.744857096354167,-0.4455752844611804,-0.8063420951366425,-0.4766785154740016,1.688701974096857e+18,31.744857096354167,-0.4465424865484237,-0.801913340886434,-0.4742350627978642,,,,,,,,,,,,1.6887019740971935e+18,31.745193505859373,-1.881239938735962,43.12699890136719,6.827119922637939,1.6887019740971935e+18,31.745193505859373,-256.4220367431641,138.5919952392578,-126.38467864990234,1.688701974096857e+18,31.744857096354167,0.4818401038646698,-0.5616690317789713,-0.3772383630275726,0.5567610263824463,-1.2580182154973347,1.2916505734125774,-0.4234223067760467
1.8,1.688701974148767e+18,31.79676725260417,22.438528696695965,-8.558742841084799,-1.038033763567607,1.6887019741574136e+18,31.80541357421875,20.60459550221761,-19.889739831288654,3.5982069969177246,1.688701974148767e+18,31.79676725260417,-0.2637080748875935,-9.220571200052897,3.3179197311401367,1.688701974148767e+18,31.79676725260417,-1.703601360321045,-7.003977298736572,0.8285368432601293,1.688701974148767e+18,31.79676725260417,-1.70456858476003,-6.999395847320557,0.8309294581413269,,,,,,,,,,,,1.6887019741471923e+18,31.7951921875,-0.9125599682331084,43.30999908447266,3.699039936065674,1.6887019741471923e+18,31.7951921875,-255.45335083007816,138.77499389648438,-129.51275482177735,1.688701974148767e+18,31.79676725260417,0.4897601902484894,-0.6405502756436666,-0.3156076967716217,0.49637570977211,-1.6427510976791382,1.2352661689122515,-0.2531471600135167
1.85,1.6887019742006735e+18,31.848673583984375,9.463249365488688,-9.153661727905272,1.5359254678090413,1.6887019742093212e+18,31.8573212890625,6.204389850298564,-15.303695678710938,5.11326265335083,1.6887019742006735e+18,31.848673583984375,-0.4627098739147186,-9.041005770365398,3.7728752295176182,1.6887019742006735e+18,31.848673583984375,-0.4892012625932693,-1.701565106709798,-0.6007350683212281,1.6887019742006735e+18,31.848673583984375,-0.4901684423287709,-1.6971363921960194,-0.5982915957768759,,,,,,,,,,,,1.6887019741971955e+18,31.845195654296873,-3.2549599170684815,43.988319396972656,1.215119981765747,1.6887019741971955e+18,31.845195654296873,-257.795751953125,139.4533203125,-131.9966796875,1.6887019742006735e+18,31.848673583984375,0.5250449776649475,-0.6845313906669617,-0.2297991216182708,0.4503222902615865,-1.6840248505274455,1.1829313437143962,-0.4331276913483937
1.9,1.6887019742525775e+18,31.900577555338543,1.4462235967318218,-4.100785891215007,6.823617140452067,1.6887019742525804e+18,31.90058020019531,-0.5988038778305054,-13.269397735595703,10.642676830291748,1.6887019742525775e+18,31.900577555338543,-1.0171741048494976,-9.02807648976644,3.7003402709960938,1.6887019742525775e+18,31.900577555338543,0.4931209683418274,2.5489370822906494,-1.616349458694458,1.6887019742525775e+18,31.900577555338543,0.4920519590377807,2.553416669368744,-1.6139059861501055,,,,,,,,,,,,1.688701974247189e+18,31.89518916015625,0.2586400061845779,45.23516006469727,2.308239960670471,1.688701974247189e+18,31.89518916015625,-254.2821533203125,140.70015869140624,-130.9035614013672,1.6887019742525775e+18,31.900577555338543,0.4897932012875874,-0.690359095732371,-0.2703421562910079,0.4579435288906097,-1.8367201089859009,1.1796456178029378,-0.1990590939919153
1.95,1.6887019743044872e+18,31.952487060546876,-1.313957969347636,3.083996136983236,3.3754941622416177,1.688701974295836e+18,31.943836018880205,-1.100698431332906,-8.620941162109375,9.256833712259928,1.6887019743044872e+18,31.952487060546876,-1.1281803448994954,-8.99271551767985,3.75364621480306,1.6887019743044872e+18,31.952487060546876,0.3947207629680633,3.83465568224589,-1.9596556822458904,1.6887019743044872e+18,31.952487060546876,0.3937535583972931,3.839084466298422,-1.9572122891743975,,,,,,,,,,,,1.6887019742971976e+18,31.9451974609375,4.82143988609314,45.47671890258789,4.23339991569519,1.6887019742971976e+18,31.9451974609375,-249.7193572998047,140.94171752929688,-128.9783935546875,1.6887019743044872e+18,31.952487060546876,0.4293531378110249,-0.6593356728553772,-0.3484868903954823,0.508391539255778,-1.8667738040288289,1.171575903892517,0.0588231335083643
2.0,1.688701974356391e+18,32.00439086914063,-0.987762173016866,5.645249048868815,-0.1531800429026285,1.6887019743477432e+18,31.99574332682292,-2.1860429445902505,-2.659422953923543,3.643869956334432,1.688701974356391e+18,32.00439086914063,-1.3588625987370808,-8.853668212890625,3.9965762297312417,1.688701974356391e+18,32.00439086914063,-0.4501567631959915,3.011514743169149,-1.7543540795644124,1.688701974356391e+18,32.00439086914063,-0.4512257948517799,3.0159435272216797,-1.7519106070200603,,,,,,,,,,,,1.6887019743471892e+18,31.995189306640626,10.53591995239258,44.92771911621094,4.648200035095215,1.6887019743471892e+18,31.995189306640626,-244.00487365722657,140.39271545410156,-128.5636016845703,1.688701974356391e+18,32.00439086914063,0.3595772484938304,-0.6309980948766073,-0.413687805334727,0.5483553012212118,-1.9090438683827715,1.1387388308842976,0.3091187179088592
2.05,1.6887019744083013e+18,32.05630135091146,-2.2822697957356772,-0.8037907282511393,1.4667223294576008,1.6887019743996498e+18,32.04764990234375,-3.577469269434611,-8.762715816497803,6.289534250895183,1.6887019744083013e+18,32.05630135091146,-1.3798092603683472,-8.507323265075684,4.6813608805338545,1.6887019744083013e+18,32.05630135091146,-1.219490647315979,1.8124881188074748,-0.5440773020188013,1.6887019744083013e+18,32.05630135091146,-1.2205596764882405,1.816967805226644,-0.5416338592767715,,,,,,,,,,,,1.688701974397191e+18,32.04519091796875,14.29595947265625,44.12739944458008,1.766559946537018,1.688701974397191e+18,32.04519091796875,-240.24483642578124,139.59239807128907,-131.4452392578125,1.6887019744083013e+18,32.05630135091146,0.2930283149083455,-0.6162536144256592,-0.4377947847048442,0.5851977467536926,-1.8698515892028809,1.062908927599589,0.4166751205921173
2.1,1.6887019744515569e+18,32.099556884765626,-0.939079225063324,1.8454318046569824,-1.9596470594406128,1.688701974451553e+18,32.09955305989583,-2.2237298488616943,-6.60099983215332,3.3884363969167075,1.6887019744515569e+18,32.099556884765626,-1.1874058246612549,-8.275686740875244,5.1311585903167725,1.6887019744515569e+18,32.099556884765626,-1.21890527009964,-0.2199115008115768,0.6094908118247986,1.6887019744515569e+18,32.099556884765626,-1.2198215126991272,-0.2154827117919922,0.6118578910827637,,,,,,,,,,,,1.6887019744471926e+18,32.095192773437496,14.19347972869873,43.89315948486328,-1.3419999957084656,1.6887019744471926e+18,32.095192773437496,-240.3473175048828,139.3581573486328,-134.55379943847657,1.6887019744515569e+18,32.099556884765626,0.2723773717880249,-0.6161452829837799,-0.4266516119241714,0.6034147441387177,-1.807800531387329,1.01704341173172,0.3842819035053252
2.15,1.688701974494809e+18,32.142809163411464,-0.1821708281834919,2.1654152870178223,-3.236548662185669,1.688701974503465e+18,32.15146476236979,-1.6281164089838664,-6.574280261993408,2.4466612339019775,1.688701974494809e+18,32.142809163411464,-1.2049320538838704,-7.988192558288574,5.562496503194173,1.688701974494809e+18,32.142809163411464,-1.3964379628499348,-1.010014792283376,0.3243185430765152,1.688701974494809e+18,32.142809163411464,-1.3975069522857666,-1.0054842233657837,0.3266092861692111,1.6887019744775076e+18,32.125507568359374,0.0,0.0,1.25,7.788000106811523,1.2329494953155518,266.07464599609375,41.400001525878906,-122.7547404,49.1905724,1.6887019744971935e+18,32.14519365234375,13.3175199508667,43.79555892944336,-3.125639963150024,1.6887019744971935e+18,32.14519365234375,-241.22327575683593,139.26055603027345,-136.33743896484376,1.688701974494809e+18,32.142809163411464,0.2653882205486297,-0.6339917381604513,-0.4001704752445221,0.6061013142267863,-1.7907886107762654,0.9643982847531636,0.3320190608501434
2.2,1.6887019745467164e+18,32.19471630859375,-0.3974673748016357,-2.8017821311950684,-3.301090161005656,1.6887019745553713e+18,32.20337133789062,-2.182453672091166,-10.836296081542969,2.639682133992513,1.6887019745467164e+18,32.19471630859375,-1.9515502452850344,-7.574735800425212,5.907197634379069,1.6887019745467164e+18,32.19471630859375,-1.178359071413676,-2.51717209815979,-1.157945990562439,1.6887019745467164e+18,32.19471630859375,-1.1793262561162312,-2.512641509373983,-1.15555344025294,,,,,,,,,,,,1.6887019745471918e+18,32.19519189453125,13.683519744873047,43.061119842529294,-5.5509998321533205,1.6887019745471918e+18,32.19519189453125,-240.857275390625,138.5261199951172,-138.76279907226564,1.6887019745467164e+18,32.19471630859375,0.2525757004817326,-0.6760944724082947,-0.3773859937985738,0.5797846714655558,-1.89424463113149,0.8935987750689188,0.3535454471906026
2.25,1.6887019745986266e+18,32.24662679036458,2.522015333175659,-4.893384138743083,-3.4473519325256348,1.688701974607277e+18,32.25527709960937,-0.9341978430747986,-12.11167049407959,2.436890443166097,1.6887019745986266e+18,32.24662679036458,-3.684791088104248,-7.000382900238037,5.77170451482137,1.6887019745986266e+18,32.24662679036458,-1.1762210528055828,-4.0158281326293945,-2.067066152890523,1.6887019745986266e+18,32.24662679036458,-1.177239139874776,-4.011297623316447,-2.064673662185669,,,,,,,,,,,,1.688701974597197e+18,32.2451970703125,18.578159904479985,41.15303955078125,-5.47047986984253,1.688701974597197e+18,32.2451970703125,-235.9626312255859,136.6180389404297,-138.68228149414062,1.6887019745986266e+18,32.24662679036458,0.2391676555077234,-0.7471377650896708,-0.3591835002104441,0.504444013039271,-2.142254670461019,0.8040056824684143,0.4387192527453105
2.3,1.6887019746505295e+18,32.29852945963541,21.92076365152995,-5.952481269836426,-0.660457452138265,1.6887019746591823e+18,32.30718221028646,15.580665588378906,-11.52782185872396,6.040680567423503,1.6887019746505295e+18,32.29852945963541,-5.772464752197266,-5.660328229268392,5.4898959795633955,1.6887019746505295e+18,32.29852945963541,-0.4039346364637216,0.5840890010197958,-6.405940055847168,1.6887019746505295e+18,32.29852945963541,-0.404901862765352,0.5885176658630371,-6.403598467508952,,,,,,,,,,,,1.6887019746471954e+18,32.295195458984374,26.864399337768553,37.36859893798828,-4.116279935836792,1.6887019746471954e+18,32.295195458984374,-227.6763946533203,132.8335968017578,-137.3280792236328,1.6887019746505295e+18,32.29852945963541,0.1678784787654876,-0.8093336423238119,-0.3724178075790405,0.4181714057922363,-2.3850292364756265,0.624081571896871,0.605143407980601
2.35,1.6887019747024366e+18,32.350436767578124,-4.907655239105225,-7.597739855448405,-3.2253165245056152,1.688701974702441e+18,32.350440795898436,-10.324132680892944,-13.18535041809082,5.221138954162598,1.6887019747024366e+18,32.350436767578124,-4.51255218187968,-4.564421812693278,7.372999827067058,1.6887019747024366e+18,32.350436767578124,1.5006413857142131,7.955196062723796,-1.6426166892051697,1.6887019747024366e+18,32.350436767578124,1.499725083510081,7.959624926249187,-1.6401731272538502,,,,,,,,,,,,1.6887019746971868e+18,32.34518696289062,34.1843994140625,27.88431930541992,-13.844559669494627,1.6887019746971868e+18,32.34518696289062,-220.356396484375,123.34931793212893,-147.05636291503907,1.6887019747024366e+18,32.350436767578124,0.0023681183035175,-0.7271237770716349,-0.448789228995641,0.5165102382500967,-2.124623934427897,0.4887865881125132,0.8296818534533182
2.4,1.6887019747543478e+18,32.40234781901042,5.739554087320964,-8.146021048227945,-9.066994190216064,1.6887019747457004e+18,32.393700520833335,0.8813561995824175,-11.29711373647054,-2.3062822048862777,1.6887019747543478e+18,32.40234781901042,-3.559357245763143,-4.92601219813029,7.694834391276042,1.6887019747543478e+18,32.40234781901042,-0.0953967769940694,0.0003054539362589,1.9015725602706273,1.6887019747543478e+18,32.40234781901042,-0.0964149037996928,0.0047341982523599,1.903965140382449,,,,,,,,,,,,1.6887019747471928e+18,32.395192919921875,31.802959823608397,27.60371971130371,-18.058440017700196,1.6887019747471928e+18,32.395192919921875,-222.7378356933594,123.06871948242188,-151.27023315429688,1.6887019747543478e+18,32.40234781901042,-0.0075713245508571,-0.6878020167350769,-0.4573645095030467,0.5633236368497213,-2.0069326559702554,0.5289682149887085,0.8312642176946005
2.45,1.6887019748062492e+18,32.45424926757813,0.8965136607487997,-8.988779226938883,-6.344845136006673,1.6887019747976036e+18,32.44560359700521,-1.3826526800791423,-15.675979296366371,0.5441677334407965,1.6887019748062492e+18,32.45424926757813,-2.687006632486979,-6.058329423268636,7.21256685256958,1.6887019748062492e+18,32.45424926757813,2.6605217456817627,-0.6547457153598467,2.9862656593322754,1.6887019748062492e+18,32.45424926757813,2.6595036983489995,-0.6502660463253657,2.9886582692464194,,,,,,,,,,,,1.6887019747971955e+18,32.4451955078125,27.806239700317384,31.3369197845459,-16.23331985473633,1.6887019747971955e+18,32.4451955078125,-226.73455505371095,126.80191802978516,-149.4451171875,1.6887019748062492e+18,32.45424926757813,0.0652803840736547,-0.6626352866490682,-0.4449662268161773,0.5981438755989075,-1.9278581142425537,0.6678364674250284,0.7095818916956583
2.5,1.6887019748581624e+18,32.50616259765625,1.0646021366119385,-8.99738041559855,-0.4229283332824708,1.6887019748495025e+18,32.497502766927084,-1.6791633168856304,-15.895121892293297,4.643671115239461,1.6887019748581624e+18,32.50616259765625,-2.0780258576075235,-7.564186096191406,5.863134860992432,1.6887019748581624e+18,32.50616259765625,3.0743321577707925,-2.4474825859069824,3.500410556793213,1.6887019748581624e+18,32.50616259765625,3.073263088862101,-2.442901055018107,3.502854029337565,,,,,,,,,,,,1.6887019748471892e+18,32.49518920898437,24.32191925048828,36.36087875366211,-7.973919868469238,1.6887019748471892e+18,32.49518920898437,-230.2188751220703,131.82587890625,-141.18572082519532,1.6887019748581624e+18,32.50616259765625,0.1887481212615966,-0.640033503373464,-0.4427590767542521,0.5978432297706604,-1.910266637802124,0.8819442987442017,0.5655613541603088
2.55,1.6887019749014175e+18,32.549417602539066,1.9346438646316528,-10.086978912353516,5.784503221511841,1.6887019749014175e+18,32.54941772460938,0.5858427584171295,-18.096120198567707,10.696714719136557,1.6887019749014175e+18,32.549417602539066,-1.5002105832099917,-8.424039840698242,4.79189658164978,1.6887019749014175e+18,32.549417602539066,2.322051525115967,-0.1826486885547638,2.0092121362686157,1.6887019749014175e+18,32.549417602539066,2.3210588693618774,-0.1781435906887054,2.0115792751312256,,,,,,,,,,,,1.6887019748971904e+18,32.54519052734375,20.29347953796387,39.80615997314453,2.1984400033950804,1.6887019748971904e+18,32.54519052734375,-234.2473175048828,135.27115783691406,-131.01335906982422,1.6887019749014175e+18,32.549417602539066,0.2700001448392868,-0.6156838238239288,-0.4439025223255157,0.5923094749450684,-1.8718026876449585,1.0321766138076782,0.4573218822479248
2.6,1.688701974944667e+18,32.59266715494791,1.977817515532176,-1.1835716565450032,8.004279772440592,1.6887019749533243e+18,32.601324381510416,0.8666005929311118,-7.807979583740234,11.063614209493002,1.688701974944667e+18,32.59266715494791,-0.8747896750768026,-8.885069847106934,4.052878141403198,1.688701974944667e+18,32.59266715494791,2.1453078190485635,1.2662218809127808,0.7833328644434611,1.688701974944667e+18,32.59266715494791,2.1443405946095786,1.27070152759552,0.785674512386322,,,,,,,,,,,,1.6887019749471913e+18,32.595191357421875,19.31991958618164,40.9627182006836,8.542439651489257,1.6887019749471913e+18,32.595191357421875,-235.2208740234375,136.42771606445314,-124.66935729980467,1.688701974944667e+18,32.59266715494791,0.2959437072277068,-0.5693683425585429,-0.4688925941785176,0.606666107972463,-1.7803985675175984,1.1342287063598633,0.4253496527671814
2.65,1.6887019749965804e+18,32.64458015950521,-0.958004593849182,6.578351974487305,2.476752281188965,1.688701975005223e+18,32.65322265625,-1.709472397963206,-2.195813496907552,5.260819911956787,1.6887019749965804e+18,32.64458015950521,-0.2197262893120448,-9.218475977579752,3.338329792022705,1.6887019749965804e+18,32.64458015950521,1.3916528224945068,0.844266672929128,1.1883365313212078,1.6887019749965804e+18,32.64458015950521,1.3906856377919514,0.8487463394800822,1.19077996412913,1.688701974996583e+18,32.6445830078125,0.0,0.0,1.2595840692520142,7.49399995803833,1.233792424201965,266.3313293457031,41.400001525878906,-122.7547493,49.1905737,1.6887019749971948e+18,32.64519462890625,18.04867973327637,41.3189582824707,14.35695972442627,1.6887019749971948e+18,32.64519462890625,-236.4921142578125,136.78395385742186,-118.85483856201172,1.6887019749965804e+18,32.64458015950521,0.3218106925487518,-0.5239049990971884,-0.4862562914689382,0.6207381884256998,-1.633528232574463,1.2253776788711548,0.3287356197834015
2.7,1.6887019750484877e+18,32.696487467447916,-5.753708362579346,8.878161748250326,0.884615977605184,1.6887019750571356e+18,32.70513549804687,-5.102893829345703,-0.2755733989179134,3.552743434906006,1.6887019750484877e+18,32.696487467447916,0.3925259560346603,-9.373120307922363,2.862668593724569,1.6887019750484877e+18,32.696487467447916,0.9725992480913798,-0.1419243775308132,1.2992594639460249,1.6887019750484877e+18,32.696487467447916,0.9716321031252544,-0.1374446588257948,1.3016520341237383,,,,,,,,,,,,1.6887019750471885e+18,32.69518842773438,16.07471981048584,41.52147903442383,18.785559844970702,1.6887019750471885e+18,32.69518842773438,-238.46607666015623,136.98648071289062,-114.42623748779296,1.6887019750484877e+18,32.696487467447916,0.3425514201323191,-0.4900030295054118,-0.4897585014502207,0.634487529595693,-1.430217742919922,1.2770590384801228,0.1553782448172569
2.75,1.6887019751003948e+18,32.74839501953125,-2.4216578801472983,9.54076099395752,-0.6842126051584879,1.688701975109049e+18,32.75704915364583,-1.3489537636439006,0.008574283371369,1.845863262812296,1.6887019751003948e+18,32.74839501953125,0.7500085234642029,-9.403615315755207,2.691316763559977,1.6887019751003948e+18,32.74839501953125,0.2493857381244499,-1.0198395450909932,0.8650869925816854,1.6887019751003948e+18,32.74839501953125,0.2484185347954431,-1.015410800774892,0.8674795428911845,,,,,,,,,,,,1.6887019750971976e+18,32.74519760742187,10.899479866027832,40.7894790649414,22.22351951599121,1.6887019750971976e+18,32.74519760742187,-243.6413146972656,136.25447692871094,-110.98827819824218,1.6887019751003948e+18,32.74839501953125,0.374494602282842,-0.4902004400889078,-0.4704575041929881,0.6309266885121664,-1.2904077370961506,1.2900148630142212,-0.0407702807569876
2.8,1.688701975152302e+18,32.80030224609375,-1.957977294921875,8.778091430664062,-1.7639087438583374,1.6887019751522995e+18,32.80029968261719,-0.8641081154346466,-0.436391033232212,1.1482557654380798,1.688701975152302e+18,32.80030224609375,0.7244139313697815,-9.357396761576334,2.8527672290802,1.688701975152302e+18,32.80030224609375,-0.4318817208210627,-0.5251404841740925,-0.125940054655075,1.688701975152302e+18,32.80030224609375,-0.4327980230251948,-0.5206608176231384,-0.1234965920448303,,,,,,,,,,,,1.6887019751471918e+18,32.795191748046875,7.581079769134521,39.610958862304685,22.57975959777832,1.6887019751471918e+18,32.795191748046875,-246.9597137451172,135.07595520019532,-110.63203735351564,1.688701975152302e+18,32.80030224609375,0.379215528567632,-0.5011261602242788,-0.4601758519808451,0.6271130839983622,-1.310791293780009,1.2773064772288003,-0.050427043189605
2.85,1.6887019752042084e+18,32.85220825195312,25.178781191507976,-12.99187676111857,2.002238114674886,1.688701975195557e+18,32.84355704752604,12.587443987528482,-15.889339764912924,4.054637889067332,1.6887019752042084e+18,32.85220825195312,-0.4071502139170964,-9.10528532663981,3.5954957803090415,1.6887019752042084e+18,32.85220825195312,-2.355801741282145,-9.925745805104574,1.5339844226837158,1.6887019752042084e+18,32.85220825195312,-2.35676900545756,-9.921266078948976,1.5364278157552085,,,,,,,,,,,,1.688701975197193e+18,32.84519311523437,2.6351999759674074,39.00827865600586,19.06371955871582,1.688701975197193e+18,32.84519311523437,-251.90559997558591,134.47327880859376,-114.14807739257812,1.6887019752042084e+18,32.85220825195312,0.4205449720223744,-0.6110392808914185,-0.3740808963775635,0.5489846666653951,-1.6688759326934814,1.2020896275838215,-0.0132840971151987
2.9,1.6887019752561083e+18,32.9041083984375,8.100759426752726,-5.699726422627767,1.7328591346740725,1.6887019752474616e+18,32.89546166992187,13.133406162261965,-19.420746167500813,6.762515465418498,1.6887019752561083e+18,32.9041083984375,-0.5568510393301646,-8.970114390055338,3.931674083073934,1.6887019752561083e+18,32.9041083984375,0.1236493090788523,0.2820161183675129,-0.4541273911794026,1.6887019752561083e+18,32.9041083984375,0.1225802898406982,0.2864958047866821,-0.4517348607381184,,,,,,,,,,,,1.6887019752471905e+18,32.8951904296875,-10.191879844665529,38.5275993347168,13.468799781799316,1.6887019752471905e+18,32.8951904296875,-264.7326721191406,133.9925964355469,-119.7429977416992,1.6887019752561083e+18,32.9041083984375,0.4732651909192403,-0.665014902750651,-0.2883373896280924,0.5004875063896179,-1.699919581413269,1.1634078423182168,-0.2296580672264098
2.95,1.6887019753080177e+18,32.95601782226563,-2.2322121461232505,-2.676135857899984,6.6362983385721845,1.6887019752993638e+18,32.94736368815104,-2.9244280656178794,-9.739785353342691,8.071389516194662,1.6887019753080177e+18,32.95601782226563,-0.6117209295431772,-9.056514739990234,3.718167781829834,1.6887019753080177e+18,32.95601782226563,0.7325801452000936,3.4690019289652505,-0.8168286482493082,1.6887019753080177e+18,32.95601782226563,0.7315620382626852,3.4734814961751304,-0.8144360780715942,,,,,,,,,,,,1.68870197529719e+18,32.94518999023437,-7.212639808654785,38.15183792114258,13.62739963531494,1.68870197529719e+18,32.94518999023437,-261.75343017578126,133.61683654785156,-119.5843978881836,1.6887019753080177e+18,32.95601782226563,0.4436837136745453,-0.6419146458307902,-0.3409195442994435,0.523554782072703,-1.724723219871521,1.187253713607788,-0.0719359765450159
3.0,1.6887019753512678e+18,32.99926794433594,-2.1827728748321533,0.8366479873657227,6.198768973350525,1.688701975351268e+18,32.99926782226563,-1.918046752611796,-8.893922408421835,10.324830532073976,1.6887019753512678e+18,32.99926794433594,-0.1967532634735107,-9.095617771148682,3.667560696601868,1.6887019753512678e+18,32.99926794433594,0.2360994219779968,5.982890367507935,-1.2785409092903135,1.6887019753512678e+18,32.99926794433594,0.235030397772789,5.987319231033325,-1.2761738300323486,,,,,,,,,,,,1.688701975347189e+18,32.995188818359374,-1.334680014848709,37.827318572998045,14.61315975189209,1.688701975347189e+18,32.995188818359374,-255.8754760742187,133.2923156738281,-118.59863891601564,1.6887019753512678e+18,32.99926794433594,0.3990363478660583,-0.5907248854637146,-0.3984916508197784,0.5756812989711761,-1.6180663704872131,1.1994923949241638,0.0313810501247644
3.05,1.6887019753945234e+18,33.04252360026042,-1.865003029505412,6.922449906667073,-0.7476143836975098,1.688701975403173e+18,33.05117333984375,-2.2518455584843955,-2.0901305278142295,2.72063938776652,1.6887019753945234e+18,33.04252360026042,-0.261083260178566,-9.06765842437744,3.731588443120321,1.6887019753945234e+18,33.04252360026042,-0.2048434851070245,3.145752271016439,-2.039526343345642,1.6887019753945234e+18,33.04252360026042,-0.2058106878151496,3.1501811345418296,-2.03708287080129,,,,,,,,,,,,1.6887019753971884e+18,33.045188427734374,6.419639778137207,37.617478942871095,14.120279693603516,1.6887019753971884e+18,33.045188427734374,-248.12115478515625,133.0824768066406,-119.09151763916016,1.6887019753945234e+18,33.04252360026042,0.3297898570696513,-0.5466044147809347,-0.462932139635086,0.6144139369328817,-1.6428395509719849,1.1938468217849731,0.2770590583483378
3.1,1.6887019754464315e+18,33.09443147786458,-2.0788721243540444,0.6365782419840494,0.7487310568491617,1.6887019754550833e+18,33.1030830078125,-3.266003449757894,-9.900902112325031,5.947759469350179,1.6887019754464315e+18,33.09443147786458,-0.9186005194981892,-8.755069096883139,4.313409487406413,1.6887019754464315e+18,33.09443147786458,-1.92234206199646,0.1697696497042974,-1.592932939529419,1.6887019754464315e+18,33.09443147786458,-1.9232583045959473,0.174249306321144,-1.5905404090881348,,,,,,,,,,,,1.6887019754471864e+18,33.09518637695312,11.650999641418457,36.68539962768555,11.060519790649414,1.6887019754471864e+18,33.09518637695312,-242.889794921875,132.1503936767578,-122.15127868652344,1.6887019754464315e+18,33.09443147786458,0.2660671969254811,-0.5555286804835001,-0.4888009925683339,0.6174999276796976,-1.7887114683787029,1.118640422821045,0.5111532708009084
3.15,1.6887019754983375e+18,33.14633780924479,-0.8145924210548401,-1.3751899401346843,0.0512653191884358,1.6887019755069893e+18,33.15498950195313,-1.8384853998819988,-8.19860808054606,4.241876443227132,1.6887019754983375e+18,33.14633780924479,-1.5719127257664998,-8.298835436503092,4.986149311065674,1.6887019754983375e+18,33.14633780924479,-1.2747739553451538,-2.1703023513158164,-0.0104865183432897,1.6887019754983375e+18,33.14633780924479,-1.275741179784139,-2.1658736864725747,-0.0080939630667368,1.6887019755156398e+18,33.163639892578125,0.0,0.0,1.2595840692520142,7.341000080108643,1.2452703714370728,266.6071472167969,41.400001525878906,-122.75476,49.1905741,1.6887019754971878e+18,33.14518793945312,12.695319938659669,36.71223907470703,8.173999881744384,1.6887019754971878e+18,33.14518793945312,-241.84547729492184,132.17723999023437,-125.03779754638671,1.6887019754983375e+18,33.14633780924479,0.2454570084810256,-0.6036365826924642,-0.4646995762983958,0.5992394288380941,-1.8849575519561768,1.0228493213653564,0.5377676288286845
3.2,1.688701975550246e+18,33.19824584960937,1.5721681118011477,2.6519562403361,-3.180715878804525,1.688701975558897e+18,33.20689705403646,-0.5118646522363027,-5.93778928120931,2.101097663243612,1.688701975550246e+18,33.19824584960937,-2.079509894053141,-7.995172023773193,5.286523977915446,1.688701975550246e+18,33.19824584960937,-1.3607532580693562,-1.9567540486653645,-0.0193949813644091,1.688701975550246e+18,33.19824584960937,-1.3617204030354817,-1.9523253043492632,-0.0170024211208025,,,,,,,,,,,,1.6887019755471892e+18,33.19518935546875,12.065799903869628,36.770799255371095,6.9271598815917965,1.6887019755471892e+18,33.19518935546875,-242.47499389648436,132.2357971191406,-126.28463592529296,1.688701975550246e+18,33.19824584960937,0.2556991775830586,-0.6500815153121948,-0.4275985658168793,0.5734970966974894,-1.9518868923187256,0.966953138510386,0.4808956185976664
3.25,1.6887019756021524e+18,33.250152343749996,1.4946840206782024,-2.4492181142171225,-3.2991678714752197,1.6887019756021517e+18,33.25015173339844,-1.48833566904068,-10.127920627593994,2.365604281425476,1.6887019756021524e+18,33.250152343749996,-2.861447890599569,-7.522314707438151,5.598794619242351,1.6887019756021524e+18,33.250152343749996,-1.267392675081889,-1.5613715648651123,-1.4953980843226116,1.6887019756021524e+18,33.250152343749996,-1.268308957417806,-1.5568918784459431,-1.4929546515146892,,,,,,,,,,,,1.68870197559719e+18,33.245189892578125,12.81243953704834,36.18519973754883,5.194759941101074,1.68870197559719e+18,33.245189892578125,-241.72835998535157,131.65019836425782,-128.01703796386718,1.6887019756021524e+18,33.250152343749996,0.238884483774503,-0.6923593084017435,-0.4071027835210163,0.5454475482304891,-2.0477909247080484,0.8867137432098389,0.4995327591896057
3.3,1.68870197565406e+18,33.30206013997395,5.776934067408244,-5.959564367930095,-3.122253179550171,1.688701975645408e+18,33.29340787760416,-0.9218349357446036,-12.14397398630778,2.5020949045817056,1.68870197565406e+18,33.30206013997395,-4.246986786524455,-6.789836088816325,5.640025615692139,1.68870197565406e+18,33.30206013997395,-1.236391266187032,-2.6332873503367105,-2.8258625666300454,1.68870197565406e+18,33.30206013997395,-1.2373584508895874,-2.628807703653971,-2.8235209782918296,,,,,,,,,,,,1.6887019756471864e+18,33.295186328125,16.150359535217284,34.92127914428711,3.918639898300171,1.6887019756471864e+18,33.295186328125,-238.39043273925785,130.386279296875,-129.29315795898438,1.68870197565406e+18,33.30206013997395,0.2055614193280537,-0.7450745701789856,-0.400506595770518,0.4913441439469655,-2.2195521195729575,0.7754349311192831,0.5847440560658773
3.35,1.6887019757059738e+18,33.353973632812504,15.153916994730633,-8.928416093190512,0.126354694366455,1.688701975697316e+18,33.34531608072917,13.840684334437052,-13.851651509602863,5.5433727105458575,1.6887019757059738e+18,33.353973632812504,-5.704524040222168,-5.047704537709554,6.1160454750061035,1.6887019757059738e+18,33.353973632812504,0.0597120573123296,5.317734718322755,-6.273535172144572,1.6887019757059738e+18,33.353973632812504,0.0587957749764124,5.322214444478353,-6.271142482757568,,,,,,,,,,,,1.688701975697191e+18,33.3451908203125,24.417079544067384,30.324319076538085,3.0304799556732176,1.688701975697191e+18,33.3451908203125,-230.12371826171875,125.78931884765623,-130.18131408691406,1.6887019757059738e+18,33.353973632812504,0.077662143545846,-0.768316646416982,-0.4469643731911977,0.445701797803243,-2.3298988342285156,0.5496997535228729,0.8151333729426066
3.4,1.6887019757578793e+18,33.40587939453125,-1.209888935089111,-5.1920545895894366,-8.133352597554525,1.6887019757492283e+18,33.39722835286458,-7.633502960205078,-11.190035025278728,1.7535401980082197,1.6887019757578793e+18,33.40587939453125,-3.8145035902659097,-4.859239101409912,7.614034811655681,1.6887019757578793e+18,33.40587939453125,0.9286678830782572,3.493589262167613,-0.2887356430292129,1.6887019757578793e+18,33.40587939453125,0.9275988737742106,3.4981199900309243,-0.2862921766936778,,,,,,,,,,,,1.6887019757471936e+18,33.39519375,30.392639923095704,25.078319549560547,-6.0829198360443115,1.6887019757471936e+18,33.39519375,-224.14815368652344,120.54331817626954,-139.29471740722656,1.6887019757578793e+18,33.40587939453125,-0.0349367515494425,-0.6697159012158712,-0.4971609910329183,0.5501603682835897,-2.0405515829722085,0.5242247581481934,0.9506295720736184
3.45,1.6887019758011412e+18,33.44914135742188,3.9380825757980342,-10.31908130645752,-8.375765800476074,1.6887019758011392e+18,33.44913907877604,1.7140586376190186,-14.919049898783364,-0.7918248971303304,1.6887019758011412e+18,33.44914135742188,-3.2425323724746704,-5.144079685211182,7.693935394287109,1.6887019758011412e+18,33.44914135742188,0.1172097772359848,0.6210208833217621,3.032258629798889,1.6887019758011412e+18,33.44914135742188,0.1161407679319381,0.6255260109901428,3.034625768661499,,,,,,,,,,,,1.6887019757971922e+18,33.4451921875,29.133599472045898,25.990879440307616,-9.054839706420898,1.6887019757971922e+18,33.4451921875,-225.40719604492188,121.45587615966797,-142.26663818359376,1.6887019758011412e+18,33.44914135742188,-0.0207131006754934,-0.6590228080749512,-0.4814043045043945,0.5772951245307922,-1.972811758518219,0.5567098259925842,0.8877117037773132
3.5,1.6887019758443922e+18,33.49239233398438,1.1983391841252644,-8.145576159159342,-6.218433221181233,1.688701975853046e+18,33.50104606119792,-2.0634107490380607,-13.78564961751302,1.621336778004964,1.6887019758443922e+18,33.49239233398438,-2.583049217859904,-6.178700923919678,7.147171974182129,1.6887019758443922e+18,33.49239233398438,2.7403414646784463,-0.7410813669363657,2.892955938975016,1.6887019758443922e+18,33.49239233398438,2.7393233378728232,-0.7365507582823435,2.8953484694163003,,,,,,,,,,,,1.6887019758471936e+18,33.49519365234375,25.563879776000977,30.61223907470703,-7.993439769744873,1.6887019758471936e+18,33.49519365234375,-228.97691040039064,126.07723846435547,-141.20523681640626,1.6887019758443922e+18,33.49239233398438,0.0475030504167079,-0.6383966207504272,-0.4734734992186228,0.6042407949765524,-1.918588399887085,0.6858641505241394,0.7852755586306254
3.55,1.6887019758962998e+18,33.54429972330729,0.7784602244695028,-8.57831875483195,-0.2458326816558838,1.6887019759049492e+18,33.55294930013021,-0.7519445170958837,-17.067205746968586,6.649853547414144,1.6887019758962998e+18,33.54429972330729,-1.936051567395528,-7.653037707010905,5.800495942433675,1.6887019758962998e+18,33.54429972330729,2.9641218185424805,-2.156354347864786,3.177059253056844,1.6887019758962998e+18,33.54429972330729,2.9631546338399253,-2.1518236796061196,3.1794517834981284,,,,,,,,,,,,1.6887019758971963e+18,33.54519663085937,17.74367961883545,39.796399688720705,-0.5563199877738952,1.6887019758971963e+18,33.54519663085937,-236.79711303710937,135.2613983154297,-133.76811828613282,1.6887019758962998e+18,33.54429972330729,0.1703444818655649,-0.614932139714559,-0.4691638549168904,0.6095729072888693,-1.8921181360880537,0.8984232544898987,0.6340128779411316
3.6,1.688701975948208e+18,33.596207845052085,2.8804210424423218,-8.033616065979004,6.657616297403972,1.68870197595686e+18,33.604859863281256,1.8073787490526836,-15.13759422302246,11.6945219039917,1.688701975948208e+18,33.596207845052085,-1.3546611467997234,-8.519774754842123,4.657168706258138,1.688701975948208e+18,33.596207845052085,2.1928534507751465,0.3380630016326904,1.3793336947758992,1.688701975948208e+18,33.596207845052085,2.1918863455454507,0.342542697985967,1.3817772070566814,,,,,,,,,,,,1.688701975947191e+18,33.59519116210937,11.123959922790528,44.41775894165039,6.3488799095153805,1.688701975947191e+18,33.59519116210937,-243.41683654785157,139.88275756835938,-126.8629165649414,1.688701975948208e+18,33.596207845052085,0.2545767178138097,-0.5891600648562113,-0.4703745941321055,0.6053787469863892,-1.8509782155354817,1.0546469291051228,0.5207247138023376
3.65,1.6887019760001167e+18,33.64811669921875,0.3025822043418884,3.0279456774393716,4.8021964232126875,1.688701976008762e+18,33.65676220703125,-0.9862417231003442,-4.69471796353658,7.677570978800456,1.6887019760001167e+18,33.64811669921875,-0.6559857130050659,-8.996685028076172,3.845388889312744,1.6887019760001167e+18,33.64811669921875,1.8453221321105957,0.9324349065621694,0.9053531885147096,1.6887019760001167e+18,33.64811669921875,1.8443548679351809,0.9369654655456544,0.9077457388242086,,,,,,,,,,,,1.6887019759971937e+18,33.64519375,8.110559844970703,45.149758911132814,10.792119979858398,1.6887019759971937e+18,33.64519375,-246.43023376464845,140.61475830078126,-122.419677734375,1.6887019760001167e+18,33.64811669921875,0.2841008305549621,-0.5386618574460348,-0.4927721619606018,0.621358056863149,-1.737411896387736,1.1644962231318157,0.4652152160803477
3.7,1.6887019760520215e+18,33.70002156575521,-2.376742204030355,7.488501866658528,1.1528457800547285,1.6887019760520223e+18,33.70002258300781,-2.2971097826957703,-1.7700905203819275,4.336691856384277,1.6887019760520215e+18,33.70002156575521,-0.1535317135664323,-9.260429700215658,3.228337367375692,1.6887019760520215e+18,33.70002156575521,1.2068661053975422,0.2186388447880744,0.9784533977508544,1.6887019760520215e+18,33.70002156575521,1.205898920694987,0.2231185237566629,0.9808459281921388,1.6887019760347313e+18,33.682731201171876,0.0,0.0,1.2699716091156006,7.256999969482422,1.264464259147644,267.1672668457031,41.400001525878906,-122.7547711,49.1905749,1.688701976047193e+18,33.69519331054688,4.462759923934937,45.05703964233398,14.515559768676756,1.688701976047193e+18,33.69519331054688,-250.0780334472656,140.52203674316405,-118.6962387084961,1.6887019760520215e+18,33.70002156575521,0.315468410650889,-0.5094082156817118,-0.4981606602668762,0.6266773144404093,-1.6166682243347168,1.2400459051132202,0.3511745035648345
3.75,1.68870197610393e+18,33.7519296875,-4.706435124079387,9.044713973999023,0.3813173770904541,1.6887019760952783e+18,33.7432783203125,-4.69611382484436,-0.3461616724962368,3.4620155493418374,1.68870197610393e+18,33.7519296875,0.3011852204799651,-9.373171806335453,2.8762361208597818,1.68870197610393e+18,33.7519296875,0.5844453175862631,-1.0642799735069275,1.3893111944198608,1.68870197610393e+18,33.7519296875,0.5834781130154928,-1.0598511795202892,1.391703724861145,,,,,,,,,,,,1.6887019760971914e+18,33.74519130859375,0.7515199601650238,44.954559326171875,16.713999557495118,1.6887019760971914e+18,33.74519130859375,-253.78927612304688,140.4195556640625,-116.49779815673828,1.68870197610393e+18,33.7519296875,0.3488743503888448,-0.4983630379041036,-0.4858942627906799,0.6273759603500366,-1.462692419687907,1.278210441271464,0.1616469944516817
3.8,1.688701976155837e+18,33.80383675130208,-1.1267613768577576,9.213496526082356,-0.6526851654052734,1.688701976147185e+18,33.79518481445313,-0.9569296638170878,-0.1096710376441478,2.455833673477173,1.688701976155837e+18,33.80383675130208,0.4941952029863993,-9.355114618937174,2.91043758392334,1.688701976155837e+18,33.80383675130208,-0.0924442758162816,-1.0539970795313518,0.398029616723458,1.688701976155837e+18,33.80383675130208,-0.0934114803870519,-1.0494664907455444,0.4004221633076668,,,,,,,,,,,,1.6887019761471951e+18,33.79519497070312,-3.4721198320388793,44.91795806884765,16.76279983520508,1.6887019761471951e+18,33.79519497070312,-258.0129150390625,140.38295288085936,-116.4489974975586,1.688701976155837e+18,33.80383675130208,0.3797494570414225,-0.5143155058224996,-0.4582228263219197,0.6174317598342896,-1.3952106634775798,1.274907469749451,0.0082703666218245
3.85,1.6887019762077412e+18,33.85574129231771,-4.248868664105733,5.685488700866699,-0.9280761082967124,1.688701976199094e+18,33.84709383138021,-2.300300151109695,-1.855833331743876,2.055833498636882,1.6887019762077412e+18,33.85574129231771,0.0866896559794743,-9.222921053568522,3.319627126057943,1.6887019762077412e+18,33.85574129231771,-1.3219632506370544,-3.2916473746299744,-0.7764606277147929,1.6887019762077412e+18,33.85574129231771,-1.3229814370473223,-3.2871676286061606,-0.7740680674711863,,,,,,,,,,,,1.688701976197193e+18,33.845193017578126,-5.01663990020752,45.12535934448242,14.730279541015625,1.688701976197193e+18,33.845193017578126,-259.55744018554685,140.59035949707032,-118.4815170288086,1.6887019762077412e+18,33.85574129231771,0.3836662868658702,-0.5524744987487793,-0.4348179697990417,0.5979941089948019,-1.5343426863352458,1.2363278071085613,0.0615671295672654
3.9,1.6887019762596472e+18,33.90764729817709,32.501644134521484,-18.203577359517418,2.566744089126587,1.6887019762509978e+18,33.89899780273438,25.398616472880047,-26.473990122477215,6.337390740712483,1.6887019762596472e+18,33.90764729817709,-0.4305073221524556,-8.948223114013672,3.9901130199432377,1.6887019762596472e+18,33.90764729817709,-1.4381803770860035,-6.971804936726888,3.5474472443262735,1.6887019762596472e+18,33.90764729817709,-1.4390967587629957,-6.967325528462728,3.549839735031128,,,,,,,,,,,,1.6887019762471951e+18,33.89519501953125,-10.196759700775146,45.847599029541016,8.081279754638672,1.6887019762471951e+18,33.89519501953125,-264.7375549316406,141.31259460449218,-125.130517578125,1.6887019762596472e+18,33.90764729817709,0.4677100479602813,-0.6563050150871277,-0.2944969932238261,0.5111625591913859,-1.668138861656189,1.1594746112823486,-0.2297645807266234
3.95,1.688701976302908e+18,33.95090771484375,3.4328227043151855,0.4448649883270262,-0.4261993169784546,1.6887019763029066e+18,33.95090657552083,3.6893335978190103,-10.293922742207846,4.771886587142944,1.688701976302908e+18,33.95090771484375,-0.4386671930551529,-8.90961742401123,4.081060886383057,1.688701976302908e+18,33.95090771484375,0.2940552663058042,0.7455610334873201,-1.3443617224693298,1.688701976302908e+18,33.95090771484375,0.2930626086890697,0.7499897927045821,-1.34199458360672,,,,,,,,,,,,1.6887019762971958e+18,33.94519580078125,-16.552959823608397,45.0082389831543,2.6522799491882325,1.6887019762971958e+18,33.94519580078125,-271.0937561035156,140.47323608398438,-130.55951538085938,1.688701976302908e+18,33.95090771484375,0.4878716617822647,-0.671967476606369,-0.2603235393762588,0.4925559163093567,-1.665451467037201,1.1484118700027466,-0.3246254324913025
4.0,1.6887019763461583e+18,33.99415852864583,-1.621073802312215,-5.819727261861165,10.040145874023438,1.6887019763548106e+18,34.00281038411458,-2.045065720876058,-14.243874867757162,14.206188201904297,1.6887019763461583e+18,33.99415852864583,-0.3626396482189496,-9.035158475240072,3.798069874445597,1.6887019763461583e+18,33.99415852864583,1.006095051765442,5.224984804789226,-1.1207850178082783,1.6887019763461583e+18,33.99415852864583,1.0051278869311016,5.2295154730478925,-1.1183415651321411,,,,,,,,,,,,1.6887019763471954e+18,33.995195507812504,-12.822199630737304,46.389279174804685,5.006879997253418,1.6887019763471954e+18,33.995195507812504,-267.3630004882813,141.85427551269532,-128.20491943359374,1.6887019763461583e+18,33.99415852864583,0.4601342876752217,-0.6432563861211141,-0.318043828010559,0.5210293432076772,-1.6546530723571775,1.1817182302474976,-0.1867283781369526
4.05,1.6887019763980703e+18,34.0460703125,-2.3128432035446167,5.808416366577148,1.9157997767130537,1.6887019764067187e+18,34.05471875,-2.0011972983678183,-2.413959185282389,4.540779749552409,1.6887019763980703e+18,34.0460703125,0.1739952142039934,-9.095599174499512,3.670568148295085,1.6887019763980703e+18,34.0460703125,0.0205657949360708,6.082894484202067,-1.8040887117385864,1.6887019763980703e+18,34.0460703125,0.0195476912582914,6.087374051411946,-1.8016961415608723,,,,,,,,,,,,1.6887019763971896e+18,34.04518969726563,-7.503000068664551,46.93339920043945,9.559919738769532,1.6887019763971896e+18,34.04518969726563,-262.0437927246094,142.39839782714844,-123.6518783569336,1.6887019763980703e+18,34.0460703125,0.3816235462824504,-0.5630757808685303,-0.4158249696095784,0.6022822062174479,-1.5197863976160686,1.2005596558252971,0.0237526018172502
4.1,1.6887019764499735e+18,34.097973714192705,-2.7571038405100503,5.947571277618408,-0.6114371617635092,1.6887019764586278e+18,34.10662784830729,-3.0632118384043374,-4.212165514628093,3.9597227573394775,1.6887019764499735e+18,34.097973714192705,-0.0457525098075469,-8.972740173339844,3.9565279483795166,1.6887019764499735e+18,34.097973714192705,-1.1651745438575745,2.326633016268412,-2.021556774775187,1.6887019764499735e+18,34.097973714192705,-1.1661926905314128,2.3310617804527283,-2.0192151069641113,,,,,,,,,,,,1.6887019764471992e+18,34.09519916992188,-0.4831200122833252,47.272559356689456,9.79171962738037,1.6887019764471992e+18,34.09519916992188,-255.02391967773437,142.73756103515626,-123.42007751464844,1.6887019764499735e+18,34.097973714192705,0.3017563124497731,-0.5296394427617391,-0.4724019368489583,0.6362499594688416,-1.587862849235535,1.1704631646474202,0.3010232051213582
4.15,1.6887019765018798e+18,34.149879720052084,-1.990268389383952,-1.124481836954753,1.2250688870747883,1.688701976501884e+18,34.1498837890625,-2.9742785692214966,-10.336096286773682,6.262315988540649,1.6887019765018798e+18,34.149879720052084,-0.9230565230051676,-8.563501675923666,4.684130668640137,1.6887019765018798e+18,34.149879720052084,-1.5014558633168538,-1.6161967118581135,-1.3010920882225037,1.6887019765018798e+18,34.149879720052084,-1.5024739901224773,-1.6117170254389446,-1.2986486156781514,,,,,,,,,,,,1.6887019764971914e+18,34.145191210937504,4.906839990615845,47.78983917236328,5.480239915847778,1.6887019764971914e+18,34.145191210937504,-249.6339538574219,143.2548370361328,-127.73155822753908,1.6887019765018798e+18,34.149879720052084,0.2548098663489024,-0.5680836836496989,-0.475092073281606,0.6214823722839355,-1.7757466236750286,1.0763710339864094,0.488125999768575
4.2,1.6887019765537902e+18,34.20179028320313,0.9439316193262736,2.64637819925944,-2.1935176054636636,1.68870197654514e+18,34.19313997395833,-1.1341979304949443,-6.114858150482178,3.2749764919281006,1.6887019765537902e+18,34.20179028320313,-1.7816823323567708,-8.239245096842447,5.012985070546468,1.6887019765537902e+18,34.20179028320313,-1.2255992889404297,-2.4719680150349936,-0.1369356276312221,1.6887019765537902e+18,34.20179028320313,-1.226617435614268,-2.4675392309824624,-0.134593974003413,1.6887019765537907e+18,34.201790771484376,0.0,0.0,1.2699716091156006,7.217000007629395,1.2738728523254397,267.4782409667969,41.400001525878906,-122.7547837,49.1905751,1.6887019765471923e+18,34.19519243164062,6.741719818115234,48.08995895385742,2.779159927368164,1.6887019765471923e+18,34.19519243164062,-247.7990753173828,143.55495910644532,-130.4326385498047,1.6887019765537902e+18,34.20179028320313,0.2608676552772522,-0.6262690822283427,-0.4462522864341736,0.5832479596138,-1.9232325156529744,1.0116290251413982,0.500625878572464
4.25,1.6887019766056952e+18,34.25369523111979,0.42957337697347,-0.7290329933166504,-2.583902359008789,1.6887019765970463e+18,34.24504638671875,-1.5292130907376609,-7.698707580566406,2.812762975692749,1.6887019766056952e+18,34.25369523111979,-2.3301361401875815,-7.822957674662272,5.4364705085754395,1.6887019766056952e+18,34.25369523111979,-1.6182329257329304,-1.6898568868637085,-0.1922189320127169,1.6887019766056952e+18,34.25369523111979,-1.619251052538554,-1.685377200444539,-0.1897754694024721,,,,,,,,,,,,1.6887019765971942e+18,34.245194091796876,6.836879825592041,48.041158294677736,-0.5294799923896789,1.6887019765971942e+18,34.245194091796876,-247.7039123535156,143.50615539550782,-133.74127502441405,1.6887019766056952e+18,34.25369523111979,0.2601907650629679,-0.6733395457267761,-0.4066022137800851,0.5597430467605591,-1.9839580059051511,0.9370798269907632,0.4476081629594167
4.3,1.6887019766576046e+18,34.30560465494792,1.497913479804993,-4.278787930806478,-3.254114151000977,1.6887019766489464e+18,34.29694612630208,-2.0572293202082315,-11.412168820699057,2.557129780451457,1.6887019766576046e+18,34.30560465494792,-3.1924940745035806,-7.368119557698567,5.6247280438741045,1.6887019766576046e+18,34.30560465494792,-1.2578733364741008,-2.7741426626841226,-0.8224791487058004,1.6887019766576046e+18,34.30560465494792,-1.258840600649516,-2.7696630160013833,-0.8200865785280863,,,,,,,,,,,,1.6887019766471954e+18,34.295195410156246,8.149599838256837,47.76299819946289,-3.4330799102783205,1.6887019766471954e+18,34.295195410156246,-246.39119567871097,143.22799682617188,-136.6448760986328,1.6887019766576046e+18,34.30560465494792,0.2567003766695658,-0.723935067653656,-0.3713285128275553,0.5211406350135803,-2.0924204190572104,0.861939549446106,0.4273942907651265
4.35,1.688701976709512e+18,34.35751171875,14.102801163991291,-7.001851399739583,-2.115397055943807,1.688701976700861e+18,34.34886067708334,4.220739682515462,-13.369497934977211,3.1469605763753257,1.688701976709512e+18,34.35751171875,-4.930776596069336,-6.48513666788737,5.3869086901346845,1.688701976709512e+18,34.35751171875,-1.0810788075129192,-3.254842678705851,-4.803080677986145,1.688701976709512e+18,34.35751171875,-1.082045952479045,-3.2503631909688315,-4.80068822701772,,,,,,,,,,,,1.6887019766971927e+18,34.34519262695313,12.048719787597657,46.61619873046875,-5.687639808654785,1.6887019766971927e+18,34.34519262695313,-242.49207458496093,142.0811981201172,-138.8994384765625,1.688701976709512e+18,34.35751171875,0.2263169387976328,-0.7916145324707031,-0.3513018190860748,0.4432299931844075,-2.312177499135335,0.7337424556414286,0.4957127173741658
4.4,1.688701976752768e+18,34.40076794433594,10.832462787628174,-8.887917280197144,1.806859254837036,1.688701976752767e+18,34.40076717122396,6.27557611465454,-13.620943705240885,6.920441786448161,1.688701976752768e+18,34.40076794433594,-5.680878400802612,-4.851214170455933,6.320785760879517,1.688701976752768e+18,34.40076794433594,0.427452951669693,9.231701135635376,-5.19685971736908,1.688701976752768e+18,34.40076794433594,0.426460325717926,9.236129999160768,-5.194416284561157,,,,,,,,,,,,1.6887019767471908e+18,34.395190625000005,25.98355941772461,40.7089599609375,-8.4423996925354,1.6887019767471908e+18,34.395190625000005,-228.55723571777344,136.17395629882813,-141.65419311523436,1.688701976752768e+18,34.40076794433594,0.0861458573490381,-0.7907594442367554,-0.4053630381822586,0.4476733803749084,-2.3100786209106445,0.5252572000026703,0.7123033702373505
4.45,1.6887019767960228e+18,34.44402262369792,-2.82969069480896,-5.243671576182048,-7.202673594156901,1.6887019768046707e+18,34.4526708984375,-4.705485622088115,-10.07398255666097,-0.7611169417699178,1.6887019767960228e+18,34.44402262369792,-3.693007866541544,-5.035937150319417,7.553146998087565,1.6887019767960228e+18,34.44402262369792,1.0387763381004331,4.36921368042628,-0.2535599768161773,1.6887019767960228e+18,34.44402262369792,1.0377582410971324,4.37369320789973,-0.2511674364407857,,,,,,,,,,,,1.6887019767971958e+18,34.44519580078125,25.20519943237305,38.83503952026367,-16.543199348449708,1.6887019767971958e+18,34.44519580078125,-229.335595703125,134.30003662109374,-149.75499572753907,1.6887019767960228e+18,34.44402262369792,0.0144930405852694,-0.6996214588483175,-0.4468338588873545,0.5566893418629965,-2.030130704243978,0.5448438922564188,0.7929678956667582
4.5,1.6887019768479304e+18,34.495930419921876,5.198613007863362,-10.549009005228678,-8.539342085520426,1.6887019768565814e+18,34.50458138020833,2.193021933237711,-15.94916025797526,-0.5521438121795654,1.6887019768479304e+18,34.495930419921876,-3.115126053492228,-5.393015702565511,7.570971171061198,1.6887019768479304e+18,34.495930419921876,0.5300783018271128,-0.1364774803320566,2.578054984410604,1.6887019768479304e+18,34.495930419921876,0.5291111270586649,-0.1319977839787801,2.580447554588318,,,,,,,,,,,,1.6887019768471936e+18,34.49519365234375,22.2381591796875,39.99647903442383,-17.528960037231446,1.6887019768471936e+18,34.49519365234375,-232.3026336669922,135.46147766113282,-150.74075622558593,1.6887019768479304e+18,34.495930419921876,0.0362284475316603,-0.6873436172803243,-0.431920180718104,0.5823665857315063,-1.9623904625574748,0.5856824517250061,0.7232223153114319
4.55,1.688701976899831e+18,34.54783129882812,1.0236361821492512,-6.276755968729655,-4.258790890375773,1.6887019769084887e+18,34.55648868815104,-2.077568292617798,-13.266406695048012,3.2709885438283286,1.688701976899831e+18,34.54783129882812,-2.3816263675689697,-6.7027543385823565,6.728906313578288,1.688701976899831e+18,34.54783129882812,3.1201469898223877,-0.814639687538147,3.05743145942688,1.688701976899831e+18,34.54783129882812,3.1191797256469727,-0.8101600209871928,3.059874931971232,,,,,,,,,,,,1.6887019768971924e+18,34.54519252929687,16.365080070495605,44.09811935424805,-13.566399765014648,1.6887019768971924e+18,34.54519252929687,-238.17571105957032,139.56311645507813,-146.7781982421875,1.688701976899831e+18,34.54783129882812,0.1286249210437138,-0.6615804235140482,-0.4280208845933278,0.6012004017829895,-1.9093609253565471,0.7552300691604614,0.6001102526982626
4.6,1.6887019769517458e+18,34.59974584960938,0.2360232671101888,-8.445266564687094,1.573491891225179,1.6887019769517445e+18,34.59974426269531,-1.3561322689056396,-16.590635299682617,7.077670335769653,1.6887019769517458e+18,34.59974584960938,-1.5934152603149414,-7.99945052464803,5.432019074757894,1.6887019769517458e+18,34.59974584960938,2.6386833985646567,-1.7532341480255127,2.754340569178263,1.6887019769517458e+18,34.59974584960938,2.637665271759033,-1.7488054037094116,2.756631294886271,,,,,,,,,,,,1.6887019769471954e+18,34.59519541015625,9.17683973312378,47.723959350585936,-6.114639759063721,1.6887019769471954e+18,34.59519541015625,-245.36395263671875,143.1889617919922,-139.3264373779297,1.6887019769517458e+18,34.59974584960938,0.2457293371359507,-0.6354517340660095,-0.4203714827696482,0.5985668301582336,-1.853053092956543,0.9547178745269777,0.4272446235020955
4.65,1.688701977003651e+18,34.65165120442708,2.878741184870402,-4.666379928588867,6.3710761070251465,1.688701976995e+18,34.643,1.4558331966400146,-14.697713534037272,10.711071650187174,1.688701977003651e+18,34.65165120442708,-1.027557373046875,-8.686410903930664,4.430049737294515,1.688701977003651e+18,34.65165120442708,1.946216622988383,0.2598722577095032,1.2944234609603882,1.688701977003651e+18,34.65165120442708,1.9452494780222576,0.2643519341945648,1.2968668937683108,,,,,,,,,,,,1.6887019769971922e+18,34.6451921875,3.3037598609924315,49.007398986816405,-0.0439200043678283,1.6887019769971922e+18,34.6451921875,-251.23703308105468,144.47239685058594,-133.2557159423828,1.688701977003651e+18,34.65165120442708,0.317543754975001,-0.6110559105873108,-0.4221528470516205,0.5893128315607706,-1.7942662636439006,1.088233749071757,0.308822363615036
4.7,1.6887019770555576e+18,34.703557454427084,-0.3111885587374369,4.685053984324138,3.473917007446289,1.6887019770469076e+18,34.69490747070312,0.1122632473707199,-5.614957888921102,8.146564165751139,1.6887019770555576e+18,34.703557454427084,-0.3387255221605301,-9.084101676940918,3.678553104400635,1.6887019770555576e+18,34.703557454427084,1.7022269169489543,0.9524407386779784,0.8979210058848063,1.6887019770555576e+18,34.703557454427084,1.701259732246399,0.9569204151630402,0.9003135561943054,1.688701977072858e+18,34.72085815429688,0.0,0.0,1.2762213945388794,7.170000076293945,1.289107322692871,268.0450744628906,41.400001525878906,-122.7547948,49.1905759,1.688701977047193e+18,34.69519345703125,1.3029599905014038,49.33191833496094,4.645759963989258,1.688701977047193e+18,34.69519345703125,-253.2378387451172,144.7969177246094,-128.5660369873047,1.6887019770555576e+18,34.703557454427084,0.3481662472089131,-0.5664331714312235,-0.4425557057062785,0.6015654603640238,-1.6586607694625854,1.1863147417704265,0.2199019243319828
4.75,1.6887019771074662e+18,34.75546622721354,-4.097445170084636,7.9792373975118,0.6933035055796305,1.6887019770988124e+18,34.74681241861979,-3.395016590754191,-1.6299110253651936,4.059423526128133,1.6887019771074662e+18,34.75546622721354,0.0172204406311114,-9.320258140563965,3.056772549947103,1.6887019771074662e+18,34.75546622721354,1.2264647086461384,0.0257581522067387,0.622624397277832,1.6887019771074662e+18,34.75546622721354,1.225497484207153,0.0302378286918004,0.6250169475873312,,,,,,,,,,,,1.6887019770971958e+18,34.74519580078125,-1.3053999423980711,48.9073600769043,8.908439826965331,1.6887019770971958e+18,34.74519580078125,-255.84620056152343,144.3723571777344,-124.30335845947266,1.6887019771074662e+18,34.75546622721354,0.3750174442927043,-0.5402881503105164,-0.4549433489640553,0.6003382205963135,-1.5627716382344563,1.2581489483515422,0.1338048304120699
4.8,1.688701977159372e+18,34.80737215169271,-3.065281867980957,9.249123573303224,-0.0137465000152587,1.688701977150724e+18,34.79872412109375,-3.787240028381348,-0.1908276105920473,2.805783907572428,1.688701977159372e+18,34.80737215169271,0.159534270564715,-9.42743174235026,2.70779021581014,1.688701977159372e+18,34.80737215169271,0.5542583962281545,-1.668985644976298,0.7872016827265421,1.688701977159372e+18,34.80737215169271,0.5531893869241079,-1.6645059982935588,0.7895433306694031,,,,,,,,,,,,1.6887019771471954e+18,34.795195410156246,-3.6111998558044434,48.35103912353516,11.665639877319336,1.6887019771471954e+18,34.795195410156246,-258.152001953125,143.8160369873047,-121.54615631103516,1.688701977159372e+18,34.80737215169271,0.4100922346115112,-0.5431179205576578,-0.4433439870675404,0.5831528306007385,-1.508524974187215,1.296946128209432,0.0117418812587857
4.85,1.688701977202631e+18,34.85063049316406,-0.4838478863239288,9.11897087097168,-0.3180309534072875,1.6887019772026248e+18,34.850624837239586,-0.5170490940411886,-0.4271188524241249,2.499901533126831,1.688701977202631e+18,34.85063049316406,0.1456985846161841,-9.41642141342163,2.7465710639953613,1.688701977202631e+18,34.85063049316406,-0.2200642004609107,-0.5514585971832275,-0.0033597573637961,1.688701977202631e+18,34.85063049316406,-0.2210568580776453,-0.5470298379659653,-0.0009162947535514,,,,,,,,,,,,1.6887019771971878e+18,34.845187939453126,-5.6217597961425785,48.25587844848633,11.704679679870605,1.6887019771971878e+18,34.845187939453126,-260.162548828125,143.72088012695312,-121.50711822509766,1.688701977202631e+18,34.85063049316406,0.4272855073213577,-0.556942343711853,-0.4266911149024963,0.5702350437641144,-1.513526737689972,1.296377658843994,-0.0444518420845269
4.9,1.6887019772458762e+18,34.893876302083335,-4.331927378972371,5.471118768056233,-0.666998545328776,1.6887019772545285e+18,34.902528401692706,-1.3335998058319092,-8.092127442359926,3.129213809967041,1.6887019772458762e+18,34.893876302083335,-0.1772107978661855,-9.288910230000814,3.1331259409586587,1.6887019772458762e+18,34.893876302083335,-1.357138951619466,-2.2665645318726697,-0.7676539818445841,1.6887019772458762e+18,34.893876302083335,-1.3580552538235982,-2.2619830678837993,-0.7652614414691925,,,,,,,,,,,,1.6887019772471908e+18,34.89519086914063,-5.309439945220947,48.74875946044922,9.813679885864255,1.6887019772471908e+18,34.89519086914063,-259.85023193359376,144.21375732421876,-123.39811706542967,1.6887019772458762e+18,34.893876302083335,0.4182837605476379,-0.581144392490387,-0.4128548006216685,0.5624257127443949,-1.6215531428654988,1.2562347253163657,0.0262358884016672
4.95,1.6887019772977882e+18,34.94578833007812,31.86901028951009,-19.07466983795166,3.830094973246256,1.6887019773064364e+18,34.95443611653646,27.862824122111004,-25.94657293955485,7.22732146581014,1.6887019772977882e+18,34.94578833007812,-0.7681637605031332,-9.02448876698812,3.76444935798645,1.6887019772977882e+18,34.94578833007812,-1.5847880244255066,-7.636528333028157,3.072244922320048,1.6887019772977882e+18,34.94578833007812,-1.5857044061024983,-7.632048686345418,3.0745356480280557,,,,,,,,,,,,1.6887019772971932e+18,34.94519321289063,-10.372439861297607,48.86831893920898,2.3667999267578126,1.6887019772971932e+18,34.94519321289063,-264.913232421875,144.33331909179688,-130.84499816894532,1.6887019772977882e+18,34.94578833007812,0.4902915358543396,-0.6788292527198792,-0.272131601969401,0.4711865385373433,-1.7648415962855022,1.178736646970113,-0.2441693705817063
5.0,1.6887019773496945e+18,34.997694580078125,1.823659340540568,0.6314051946004232,-1.0007257461547852,1.68870197735835e+18,35.00635009765625,-1.2644073168436687,-8.409176349639893,3.985246022542318,1.6887019773496945e+18,34.997694580078125,-0.8977004686991373,-8.998749732971191,3.799654881159464,1.6887019773496945e+18,34.997694580078125,0.4200207597265641,0.8673777679602305,-1.1563679178555806,1.6887019773496945e+18,34.997694580078125,0.4190026540309191,0.8718065222104391,-1.1539244254430134,,,,,,,,,,,,1.6887019773471974e+18,34.995197265625,-12.431799697875975,48.494999694824216,-0.2195999830961227,1.6887019773471974e+18,34.995197265625,-266.97259521484375,143.95999755859376,-133.4313995361328,1.6887019773496945e+18,34.997694580078125,0.5059845745563507,-0.6962404449780782,-0.2413585682710012,0.4481111168861389,-1.7943491141001384,1.170433561007182,-0.3058470487594604
5.05,1.6887019774016082e+18,35.0496083984375,-1.984996676445007,-3.8608725865681968,7.57408873240153,1.6887019774016e+18,35.04960009765625,-2.385046005249023,-14.355140686035156,12.685549259185793,1.6887019774016082e+18,35.0496083984375,-0.6013091703255972,-9.048248608907064,3.733119010925293,1.6887019774016082e+18,35.0496083984375,0.2706133027871449,4.919603268305461,-0.2895501255989074,1.6887019774016082e+18,35.0496083984375,0.2696461031834284,4.92408299446106,-0.2871066629886627,,,,,,,,,,,,1.6887019773971953e+18,35.045195410156246,-10.128439712524417,49.231878662109374,2.0154399394989015,1.6887019773971953e+18,35.045195410156246,-264.6692321777344,144.69688110351564,-131.19635925292968,1.6887019774016082e+18,35.0496083984375,0.4778691530227661,-0.6640080610911051,-0.2949374119440714,0.4922298391660054,-1.7234681844711304,1.1846344470977783,-0.2110305080811182
5.1,1.6887019774535094e+18,35.10150927734375,-1.8917682965596516,5.727567831675212,0.3902404308319092,1.688701977444861e+18,35.09286083984375,-2.0257237354914346,-4.26201589902242,5.077370325724284,1.6887019774535094e+18,35.10150927734375,0.1136383029321829,-9.079556147257486,3.711381196975708,1.6887019774535094e+18,35.10150927734375,0.2671008259057998,4.516024907430013,-0.8678358793258667,1.6887019774535094e+18,35.10150927734375,0.2660318166017532,4.520453770955403,-0.8653924465179443,,,,,,,,,,,,1.6887019774471916e+18,35.09519150390625,-8.208160018920898,49.4099983215332,5.321639919281006,1.6887019774471916e+18,35.09519150390625,-262.74895629882815,144.8749969482422,-127.89015655517578,1.6887019774535094e+18,35.10150927734375,0.4287964304288228,-0.5991451740264893,-0.3660984536012013,0.5676677227020264,-1.5350790818532307,1.1953589121500652,-0.1316799595952033
5.15,1.688701977505419e+18,35.1534189453125,-2.2672273317972818,2.912846406300863,0.6681795914967855,1.6887019774967685e+18,35.14476814778646,-2.2227328618367515,-4.707878589630127,4.049652894337972,1.688701977505419e+18,35.1534189453125,-0.1105041926105817,-8.965135256449381,3.9692348639170327,1.688701977505419e+18,35.1534189453125,-1.2788972854614258,0.846659262975057,-1.7327702045440674,1.688701977505419e+18,35.1534189453125,-1.279864490032196,0.8510879774888357,-1.7303266922632854,,,,,,,,,,,,1.6887019774971927e+18,35.14519262695312,-3.940599870681763,49.74671859741211,6.207359886169433,1.6887019774971927e+18,35.14519262695312,-258.4813934326172,145.2117156982422,-127.00443878173829,1.688701977505419e+18,35.1534189453125,0.3757697145144144,-0.5851397713025411,-0.4043005208174388,0.5938396453857422,-1.5981239080429075,1.1679342985153198,0.0653526255240043
5.2,1.688701977557331e+18,35.20533089192708,-0.5687881310780843,-0.7085188229878744,0.8033874829610189,1.688701977548668e+18,35.196667805989584,-1.8540387550989788,-10.147960980733236,6.085945129394531,1.688701977557331e+18,35.20533089192708,-1.195583164691925,-8.605586051940918,4.541704336802165,1.688701977557331e+18,35.20533089192708,-0.9676105578740438,-1.931148608525594,-1.6939802567164104,1.688701977557331e+18,35.20533089192708,-0.9685777823130288,-1.926669001579285,-1.6915367444356282,,,,,,,,,,,,1.688701977547194e+18,35.19519428710937,1.2004799991846085,50.02975921630859,2.8035598754882813,1.688701977547194e+18,35.19519428710937,-253.34031677246097,145.49475708007813,-130.40823669433593,1.688701977557331e+18,35.20533089192708,0.3377505441506703,-0.6326220035552979,-0.4009444812933603,0.5696970224380493,-1.8344496885935464,1.0848350922266643,0.2638760656118393
5.25,1.6887019776092234e+18,35.25722338867188,1.5238830248514812,2.9626854260762534,-2.115426540374756,1.6887019776005816e+18,35.24858154296874,-0.7351947625478109,-5.303691387176514,2.7870401541392007,1.6887019776092234e+18,35.25722338867188,-2.239998579025269,-8.29274050394694,4.731105327606201,1.6887019776092234e+18,35.25722338867188,-1.0423906445503237,-1.7209091981252034,-1.0400998989741008,1.6887019776092234e+18,35.25722338867188,-1.043408711751302,-1.7164804538091023,-1.0377582708994548,1.6887019775919212e+18,35.239921142578126,0.0,0.0,1.2762213945388794,7.182000160217285,1.3105666637420654,268.199951171875,41.400001525878906,-122.7548094,49.1905761,1.6887019775971978e+18,35.245197753906254,4.733599901199341,49.98583984375,0.5758399724960327,1.6887019775971978e+18,35.245197753906254,-249.80719299316405,145.45083923339843,-132.63595886230468,1.6887019776092234e+18,35.25722338867188,0.3258832593758901,-0.6817298928896586,-0.3860640525817871,0.5289269089698792,-2.021844466527303,1.0214834411938984,0.35471311211586
5.3,1.6887019776524902e+18,35.300490234375005,1.135610580444336,-0.3865163326263428,-2.1298186779022217,1.6887019776524897e+18,35.30048974609375,-1.6055840253829956,-8.253044764200846,2.930210749308268,1.6887019776524902e+18,35.300490234375005,-2.775455355644226,-7.925095319747925,5.070123672485352,1.6887019776524902e+18,35.300490234375005,-1.4207198023796082,-0.7106653451919556,-0.8532260358333588,1.6887019776524902e+18,35.300490234375005,-1.421636164188385,-0.7061602175235748,-0.8508589267730713,,,,,,,,,,,,1.688701977647193e+18,35.29519331054688,7.178479862213135,49.52223892211914,-2.0056799411773683,1.688701977647193e+18,35.29519331054688,-247.3623168945313,144.98723449707032,-135.21748046875,1.6887019776524902e+18,35.300490234375005,0.3063494563102722,-0.71033775806427,-0.3694542497396469,0.5147970914840698,-2.0803385972976685,0.9538658559322356,0.3704165518283844
5.35,1.6887019776957432e+18,35.34374348958334,1.3755578994750977,-2.310128370920817,-2.724433978398641,1.688701977704392e+18,35.35239217122396,-1.7942181428273518,-10.109675407409668,2.636890490849813,1.6887019776957432e+18,35.34374348958334,-3.27312962214152,-7.531793435414632,5.360252380371094,1.6887019776957432e+18,35.34374348958334,-1.368338147799174,-1.430493712425232,-0.8021169702212015,1.6887019776957432e+18,35.34374348958334,-1.3693053325017293,-1.426064908504486,-0.7997244199117025,,,,,,,,,,,,1.6887019776971935e+18,35.345193359375,9.901519775390623,49.31483840942383,-5.306999969482422,1.6887019776971935e+18,35.345193359375,-244.63927612304687,144.77983703613282,-138.518798828125,1.6887019776957432e+18,35.34374348958334,0.288347452878952,-0.7374480168024699,-0.3497976760069529,0.5004285474618276,-2.125624497731527,0.887615700562795,0.3681140939394633
5.4,1.6887019777476518e+18,35.395652018229164,5.611716588338216,-6.387318134307861,-1.8655299345652263,1.688701977756303e+18,35.40430314127604,8.439685026804606,-14.012369155883787,3.6797624429066977,1.6887019777476518e+18,35.395652018229164,-4.548569043477376,-6.812331994374593,5.340630849202474,1.6887019777476518e+18,35.395652018229164,-1.508837143580119,-4.186208566029866,-3.0629801750183105,1.6887019777476518e+18,35.395652018229164,-1.509804368019104,-4.181779861450195,-3.0605876048405967,,,,,,,,,,,,1.688701977747192e+18,35.39519204101562,15.20851993560791,47.26279907226562,-7.768959808349609,1.688701977747192e+18,35.39519204101562,-239.332275390625,142.72779846191406,-140.9807586669922,1.6887019777476518e+18,35.395652018229164,0.2628972927729289,-0.7925229867299398,-0.3199310501416524,0.4456619123617808,-2.277767817179362,0.7787618835767111,0.3907222847143809
5.45,1.6887019777995592e+18,35.44755900065104,17.05777629216512,-10.022952397664389,1.122759183247884,1.68870197780821e+18,35.45620996093751,1.4334999720255537,-14.451253255208334,7.188039461771647,1.6887019777995592e+18,35.44755900065104,-5.761324246724446,-5.1045152346293134,5.990827719370524,1.6887019777995592e+18,35.44755900065104,0.664214164018631,7.362504204114278,-4.466850241025289,1.6887019777995592e+18,35.44755900065104,0.6632469197114309,7.366933027903239,-4.464457750320435,,,,,,,,,,,,1.6887019777971932e+18,35.44519321289063,27.632999420166016,41.05543899536133,-11.184959888458252,1.6887019777971932e+18,35.44519321289063,-226.90779724121097,136.52043762207032,-144.39675903320312,1.6887019777995592e+18,35.44755900065104,0.1306136921048164,-0.8141724864641825,-0.3599496881167094,0.4294990102450053,-2.3443082173665366,0.5552898248036703,0.5959803064664205
5.5,1.6887019778514657e+18,35.499465983072916,-3.399030129114786,-4.117461204528809,-7.91177225112915,1.6887019778514662e+18,35.49946643066406,-7.401299715042114,-8.340482473373413,-1.8011972308158877,1.6887019778514657e+18,35.499465983072916,-3.7117043336232505,-5.369126319885254,7.32106876373291,1.6887019778514657e+18,35.499465983072916,0.6870706478754679,2.539621432622274,0.2533054550488789,1.6887019778514657e+18,35.499465983072916,0.68610347310702,2.5440500577290854,0.2557489275932312,,,,,,,,,,,,1.6887019778471908e+18,35.49519086914063,24.52199935913086,41.00176010131836,-17.892519378662108,1.6887019778471908e+18,35.49519086914063,-230.0187957763672,136.46675720214844,-151.10431518554688,1.6887019778514657e+18,35.499465983072916,0.0666916320721308,-0.7212960918744405,-0.4120948215325673,0.5525494416554769,-2.0443502267201743,0.584433396657308,0.6744228800137838
5.55,1.688701977903373e+18,35.5513729654948,7.355815490086873,-9.814550399780272,-7.641488552093506,1.6887019778947182e+18,35.54271818033854,2.9383863235513368,-15.305291493733725,-0.4945166607697804,1.688701977903373e+18,35.5513729654948,-3.3496957619984946,-5.816407203674316,7.1415127118428545,1.688701977903373e+18,35.5513729654948,1.190932735800743,0.1417716344197591,2.250274896621704,1.688701977903373e+18,35.5513729654948,1.1899146288633349,0.1463022033373515,2.2526673475901284,,,,,,,,,,,,1.688701977897195e+18,35.5451951171875,21.889239501953124,42.265679931640626,-17.72415962219238,1.688701977897195e+18,35.5451951171875,-232.65155334472655,137.73067932128907,-150.9359558105469,1.688701977903373e+18,35.5513729654948,0.1021106739838917,-0.715555747350057,-0.3985712627569834,0.5640894174575806,-2.0104045073191323,0.6382908622423807,0.6021114786465963
5.6,1.6887019779552763e+18,35.603276448567705,1.604041616121928,-7.310137589772542,-2.510090430577596,1.6887019779466289e+18,35.59462898763021,-1.708076536655426,-14.432309786478678,2.774278442064921,1.6887019779552763e+18,35.603276448567705,-2.5825700759887695,-7.257010618845622,6.041223208109538,1.6887019779552763e+18,35.603276448567705,3.4835100173950195,-1.413033147652944,2.9868255456288657,1.6887019779552763e+18,35.603276448567705,3.4824918111165366,-1.408604383468628,2.9892181555430093,,,,,,,,,,,,1.688701977947201e+18,35.5952009765625,15.989319610595704,46.75040054321289,-12.021879959106446,1.688701977947201e+18,35.5952009765625,-238.55147705078124,142.21539916992188,-145.23367614746093,1.6887019779552763e+18,35.603276448567705,0.1998632798592249,-0.6806374589602152,-0.4099426666895548,0.5722283323605856,-1.9744123617808025,0.836297333240509,0.5130544006824493
5.65,1.6887019780071862e+18,35.65518611653646,3.7032349904378257,-8.816762606302897,4.871382395426433,1.6887019779985357e+18,35.64653580729166,1.8648064533869424,-16.96311887105306,8.47876771291097,1.6887019780071862e+18,35.65518611653646,-1.7924301226933796,-8.415591875712076,4.694448788960774,1.6887019780071862e+18,35.65518611653646,2.4094561338424683,-0.2200133105119069,2.0260364214579263,1.6887019780071862e+18,35.65518611653646,2.408438046773275,-0.2154827316602071,2.028479814529419,,,,,,,,,,,,1.6887019779971948e+18,35.645194580078126,9.306159687042236,49.95655899047851,-3.5331199169158936,1.6887019779971948e+18,35.645194580078126,-245.2346343994141,145.4215576171875,-136.7449157714844,1.6887019780071862e+18,35.65518611653646,0.3010959923267364,-0.6462787787119547,-0.4161773920059204,0.5639339685440063,-1.93291970094045,1.033056139945984,0.3961064120133717
5.7,1.6887019780590948e+18,35.70709464518229,1.895327667395274,-1.0594480832417803,7.195254643758138,1.688701978050442e+18,35.69844197591146,1.635095477104187,-12.051650524139404,12.093524932861328,1.6887019780590948e+18,35.70709464518229,-0.9486308693885804,-8.92943286895752,3.938273906707764,1.6887019780590948e+18,35.70709464518229,1.7647897005081177,1.722538153330485,0.9438377022743224,1.6887019780590948e+18,35.70709464518229,1.7638224760691326,1.727017879486084,0.9462811748186748,,,,,,,,,,,,1.6887019780471954e+18,35.6951953125,5.023959922790527,50.842279052734376,1.9251599609851835,1.6887019780471954e+18,35.6951953125,-249.51683349609377,146.30727844238282,-131.28663635253906,1.6887019780590948e+18,35.70709464518229,0.3356689314047495,-0.5962989926338196,-0.4384952187538147,0.5823465784390768,-1.804662545522054,1.1464059750239055,0.3247566521167755
5.75,1.6887019781023498e+18,35.75034985351562,-2.6434457302093506,5.741764783859253,1.7017028331756592,1.6887019781023506e+18,35.75035042317708,-2.6307090520858765,-3.534597873687744,5.390830039978027,1.6887019781023498e+18,35.75034985351562,-0.3579151034355163,-9.20222806930542,3.377187490463257,1.6887019781023498e+18,35.75034985351562,1.4848607182502749,0.3841578923165797,1.2166908383369446,1.6887019781023498e+18,35.75034985351562,1.4837916493415833,0.3885866515338421,1.2190579175949097,1.688701978111001e+18,35.7590009765625,0.0,0.0,1.2866010665893557,7.210999965667725,1.3473492860794067,268.4254150390625,41.400001525878906,-122.7548214,49.1905768,1.6887019780971927e+18,35.745192724609375,2.469279932975769,50.156639099121094,6.551399803161621,1.6887019780971927e+18,35.745192724609375,-252.07151489257816,145.62164001464845,-126.6603988647461,1.6887019781023498e+18,35.75034985351562,0.358989879488945,-0.5602117776870728,-0.4520485401153564,0.5940395295619965,-1.6763460636138916,1.2206150889396667,0.2344982773065567
5.8,1.6887019781456018e+18,35.79360196940104,-4.87244979540507,7.895552476247151,0.8120464483896891,1.688701978154255e+18,35.802255208333335,-5.223332405090332,-1.1698908408482869,3.7284164428710938,1.6887019781456018e+18,35.79360196940104,0.0622147694230079,-9.352824529012045,2.953782399495443,1.6887019781456018e+18,35.79360196940104,1.0189741253852844,-0.2325360303123792,1.257669727007548,1.6887019781456018e+18,35.79360196940104,1.0180069208145142,-0.2280563612778981,1.2600622574488325,,,,,,,,,,,,1.688701978147193e+18,35.795193359375006,-0.4099199891090393,49.57591934204102,9.681920051574709,1.688701978147193e+18,35.795193359375006,-254.95071411132812,145.04091796875,-123.52987670898438,1.6887019781456018e+18,35.79360196940104,0.3857039113839467,-0.5414551695187887,-0.4513183931509654,0.5951977173487345,-1.5479644934336343,1.269405682881673,0.0979764536023139
5.85,1.6887019781975137e+18,35.84551359049479,-2.745970447858175,9.113167444864908,0.1348914305369059,1.688701978206163e+18,35.854163004557286,-1.6947166124979656,-0.4193421651919682,2.740380128224691,1.6887019781975137e+18,35.84551359049479,0.5347395936648051,-9.421884536743164,2.6775969664255777,1.6887019781975137e+18,35.84551359049479,0.5317582090695699,-1.1113165616989136,1.1679234504699707,1.6887019781975137e+18,35.84551359049479,0.5306891997655233,-1.1068369150161743,1.1703159809112549,,,,,,,,,,,,1.6887019781971953e+18,35.84519536132812,-4.9775999069213865,49.04644012451172,12.046279525756836,1.6887019781971953e+18,35.84519536132812,-259.5183959960938,144.51143798828124,-121.16551818847655,1.6887019781975137e+18,35.84551359049479,0.4239446620146433,-0.5357415278752645,-0.4309094448884327,0.5894488294919332,-1.3685352404912312,1.2953131993611653,-0.1409938807288805
5.9,1.688701978249416e+18,35.897416015625,-1.4363096555074055,9.08068052927653,-0.8800368706385294,1.6887019782580708e+18,35.906070963541666,-1.1320044994354248,-0.4295116712649663,1.65304168065389,1.688701978249416e+18,35.897416015625,0.4340524772802989,-9.419706662495932,2.7014978726704917,1.688701978249416e+18,35.897416015625,-0.1508328070243199,-0.2869030460715294,-0.6217590024073919,1.688701978249416e+18,35.897416015625,-0.1518000115950901,-0.2824742669860521,-0.6194173693656921,,,,,,,,,,,,1.688701978247193e+18,35.895193212890625,-6.268359851837158,48.87807922363281,12.580639839172363,1.688701978247193e+18,35.895193212890625,-260.8091552734375,144.34307861328125,-120.63115692138672,1.688701978249416e+18,35.897416015625,0.4320539534091949,-0.5457843343416849,-0.4242594838142395,0.5791419943173727,-1.4053436915079751,1.2978774706522624,-0.139649490515391
5.95,1.688701978301324e+18,35.94932373046875,14.51245673497518,-2.6648406982421875,-1.6254777908325195,1.6887019783013268e+18,35.949326782226564,4.6250269412994385,-11.163115620613098,1.2511471211910248,1.688701978301324e+18,35.94932373046875,-0.5629629325897744,-9.273393313090006,3.11613122622172,1.688701978301324e+18,35.94932373046875,-1.7050267259279888,-7.655872384707133,0.2826269467671712,1.688701978301324e+18,35.94932373046875,-1.7060448328653972,-7.651392618815104,0.2850195169448852,,,,,,,,,,,,1.6887019782971994e+18,35.94519946289063,-4.2504799365997314,49.341678619384766,10.831159973144532,1.6887019782971994e+18,35.94519946289063,-258.79127807617186,144.80667419433593,-122.3806365966797,1.688701978301324e+18,35.94932373046875,0.4385650356610616,-0.6133072177569071,-0.3848845859368641,0.5267578264077505,-1.7416559060414631,1.2504029273986816,0.0279232490186889
6.0,1.688701978353234e+18,36.001233723958336,14.79699961344401,-14.443535486857096,4.325759251912435,1.6887019783445804e+18,35.99258064778646,24.16531531016032,-25.684359232584637,7.358328501383464,1.688701978353234e+18,36.001233723958336,-0.8628590305646261,-9.046050071716309,3.6925140221913657,1.688701978353234e+18,36.001233723958336,-1.292947174360355,-2.500780463218689,0.7536040445168813,1.688701978353234e+18,36.001233723958336,-1.2939144174257915,-2.496300766865412,0.7559966246287028,,,,,,,,,,,,1.688701978347194e+18,35.995194140625,-12.148759651184085,49.18795928955078,1.9544399783015252,1.688701978347194e+18,35.995194140625,-266.68955688476564,144.65296020507813,-131.25736083984376,1.688701978353234e+18,36.001233723958336,0.5081165035565695,-0.6928812861442566,-0.2474957654873529,0.4475020865599314,-1.7921483914057414,1.1832418044408162,-0.3002838393052419
6.05,1.6887019784051407e+18,36.05314070638021,-1.661678433418274,-5.530544916788737,8.052866776784262,1.6887019783964905e+18,36.04449047851563,-1.9058832228183744,-15.831512769063314,11.707881927490234,1.6887019784051407e+18,36.05314070638021,-0.8691936930020651,-9.011479059855144,3.774779796600342,1.6887019784051407e+18,36.05314070638021,0.5102251867453257,4.7162870566050215,-1.1150836149851482,1.6887019784051407e+18,36.05314070638021,0.5092579821745554,4.720817645390828,-1.112691084543864,,,,,,,,,,,,1.6887019783971955e+18,36.045195361328126,-10.36267967224121,49.51247940063477,1.507919991016388,1.6887019783971955e+18,36.045195361328126,-264.9034729003906,144.97747497558595,-131.70387573242186,1.6887019784051407e+18,36.05314070638021,0.4786304136117299,-0.6789098580678304,-0.2839664717515309,0.477317065000534,-1.792069435119629,1.1745138963063555,-0.1860428005456924
6.1,1.688701978457048e+18,36.10504817708333,-2.097691535949707,6.558990478515625,-0.1540292104085286,1.688701978448394e+18,36.09639388020833,-2.7463622093200684,-3.6630126237869263,5.039683183034261,1.688701978457048e+18,36.10504817708333,-0.4602992633978526,-9.010879198710125,3.85066556930542,1.688701978457048e+18,36.10504817708333,0.183106854557991,4.183663288752238,-1.456506331761678,1.688701978457048e+18,36.10504817708333,0.1820887525876362,4.188143014907837,-1.4540628989537556,,,,,,,,,,,,1.6887019784471905e+18,36.09519038085937,-6.241519784927368,49.8955581665039,4.8873199939727785,1.6887019784471905e+18,36.09519038085937,-260.7823120117188,145.36055603027344,-128.32447967529296,1.688701978457048e+18,36.10504817708333,0.4179944396018982,-0.624088724454244,-0.3646393915017445,0.5496214429537455,-1.6898759206136067,1.1764013767242432,-0.0114040719345211
6.15,1.688701978508955e+18,36.15695475260417,-1.3890260855356853,5.879887421925862,-1.0142379601796467,1.688701978500303e+18,36.148303141276045,-1.8877376317977903,-2.1571295658747354,2.5722843011220298,1.688701978508955e+18,36.15695475260417,-0.7504201730092367,-8.92340119679769,4.000604708989461,1.688701978508955e+18,36.15695475260417,-0.5342016493280729,1.830508550008138,-1.7753780285517375,1.688701978508955e+18,36.15695475260417,-0.5351688837011656,1.8350392580032349,-1.7729345957438152,,,,,,,,,,,,1.6887019784971976e+18,36.145197460937496,-1.2590399578213691,50.00047912597656,6.0097198486328125,1.6887019784971976e+18,36.145197460937496,-255.79983520507812,145.4654754638672,-127.2020767211914,1.688701978508955e+18,36.15695475260417,0.3624568581581116,-0.6055576205253601,-0.4145744045575459,0.5742133259773254,-1.7627828518549602,1.1560546557108562,0.2132594436407089
6.2,1.6887019785522063e+18,36.20020617675782,-2.001532793045044,-2.4144344329833984,2.314293622970581,1.6887019785522117e+18,36.20021134440105,-3.221138079961141,-10.508279959360758,6.575277169545491,1.6887019785522063e+18,36.20020617675782,-1.2441951632499697,-8.585214614868164,4.576860666275024,1.6887019785522063e+18,36.20020617675782,-1.8182404041290283,0.2206750810146332,-1.3043500185012815,1.6887019785522063e+18,36.20020617675782,-1.819309413433075,0.2251038402318954,-1.3020592331886292,,,,,,,,,,,,1.688701978547194e+18,36.19519409179687,2.9914399862289427,49.71255874633789,2.784039926528931,1.688701978547194e+18,36.19519409179687,-251.54935302734376,145.17755737304688,-130.4277587890625,1.6887019785522063e+18,36.20020617675782,0.3158177584409714,-0.6214976906776428,-0.4218966066837311,0.5795794129371643,-1.846496343612671,1.079397439956665,0.3418634682893753
6.25,1.6887019785954657e+18,36.24346549479167,-0.7108368078867594,0.2457520167032877,-0.9145495096842446,1.6887019786041178e+18,36.25211775716146,-1.6650057435035706,-6.726423581441243,3.311068375905355,1.6887019785954657e+18,36.24346549479167,-1.568390130996704,-8.32256825764974,4.949570973714192,1.6887019785954657e+18,36.24346549479167,-0.938950796922048,-1.4711671272913616,0.1467094669739405,1.6887019785954657e+18,36.24346549479167,-0.9399688641230264,-1.4667383432388306,0.1491020272175471,,,,,,,,,,,,1.6887019785971914e+18,36.24519145507812,4.955639839172363,49.80039901733399,-0.3562399953603744,1.6887019785971914e+18,36.24519145507812,-249.58515319824215,145.26539916992186,-133.5680389404297,1.6887019785954657e+18,36.24346549479167,0.3064623673756917,-0.6473519404729208,-0.4016886949539184,0.5705158710479736,-1.8868541717529297,1.0261054039001465,0.3351186513900757
6.3,1.6887019786473746e+18,36.295374511718755,1.1981377204259236,2.81639830271403,-3.241381565729777,1.6887019786560246e+18,36.304024658203126,-0.9002995093663534,-5.9710893630981445,2.1926232179005942,1.6887019786473746e+18,36.295374511718755,-1.9034855365753176,-8.042365550994873,5.281387011210124,1.6887019786473746e+18,36.295374511718755,-1.3563753763834636,-1.3951653242111206,-0.1056287735700607,1.6887019786473746e+18,36.295374511718755,-1.357393503189087,-1.3907365401585896,-0.1032362232605616,1.688701978630074e+18,36.27807397460938,0.0,0.0,1.2866010665893557,7.323999881744385,1.3879990577697754,268.6016845703125,41.400001525878906,-122.7548333,49.1905771,1.688701978647193e+18,36.295193164062496,4.130919933319092,49.76379928588867,-2.6522799253463747,1.688701978647193e+18,36.295193164062496,-250.40987854003907,145.22879638671876,-135.86407470703125,1.6887019786473746e+18,36.295374511718755,0.3085914353529612,-0.679716149965922,-0.367329587539037,0.5546520551045736,-1.9234349330266316,0.974033792813619,0.2831658422946929
6.35,1.688701978699277e+18,36.34727709960938,0.9863793055216472,-2.0025110244750977,-2.8657955328623452,1.6887019787079278e+18,36.35592757161458,-1.5453646580378215,-10.026923815409342,2.8241289456685386,1.688701978699277e+18,36.34727709960938,-2.6755760510762534,-7.602521260579427,5.582371711730957,1.688701978699277e+18,36.34727709960938,-1.1157963275909424,-2.0581576824188232,-1.230842550595601,1.688701978699277e+18,36.34727709960938,-1.1167125701904297,-2.053678035736084,-1.2285518248875935,,,,,,,,,,,,1.688701978697195e+18,36.345194970703126,6.563599872589111,49.205039978027344,-5.55831995010376,1.688701978697195e+18,36.345194970703126,-247.977197265625,144.6700408935547,-138.7701171875,1.688701978699277e+18,36.34727709960938,0.291740467151006,-0.7199455897013346,-0.3429647584756215,0.527783731619517,-2.022612969080607,0.898282786210378,0.3022529681523641
6.4,1.6887019787511836e+18,36.39918334960937,3.296884298324585,-5.300153414408366,-2.0254626274108887,1.6887019787511782e+18,36.399178222656246,-0.9460622668266296,-12.064910888671877,3.346362471580506,1.6887019787511836e+18,36.39918334960937,-4.083388805389404,-7.015149116516113,5.486804803212483,1.6887019787511836e+18,36.39918334960937,-1.2485576470692952,-3.321121613184611,-1.929672400156657,1.6887019787511836e+18,36.39918334960937,-1.2495757738749187,-3.3166419665018716,-1.9273816347122192,,,,,,,,,,,,1.6887019787471867e+18,36.39518686523438,11.790079879760745,48.221720123291014,-7.032079792022705,1.6887019787471867e+18,36.39518686523438,-242.75071411132816,143.68671875,-140.24387817382814,1.6887019787511836e+18,36.39918334960937,0.2709330221017201,-0.7770899136861166,-0.3214876155058542,0.4675003985563914,-2.214193026224772,0.8067620396614075,0.3629634579022725
6.45,1.6887019788030892e+18,36.45108919270833,22.133238792419434,-8.814671516418459,1.6941890716552734,1.6887019787944394e+18,36.442439453125,18.832112312316895,-14.261821428934732,6.313462416330974,1.6887019788030892e+18,36.45108919270833,-6.072078704833984,-5.472715854644775,5.352797667185466,1.6887019788030892e+18,36.45108919270833,-0.0922406514485677,2.8861345450083413,-5.947842280069987,1.6887019788030892e+18,36.45108919270833,-0.0932078560193379,2.89061427116394,-5.945398728052775,,,,,,,,,,,,1.6887019787971912e+18,36.44519111328125,22.26011962890625,44.20791931152344,-7.302919960021972,1.6887019787971912e+18,36.44519111328125,-232.28067626953128,139.67291870117188,-140.51471557617188,1.6887019788030892e+18,36.45108919270833,0.1778546497225761,-0.833798905213674,-0.3369190692901611,0.3945278922716776,-2.4260193506876626,0.601006031036377,0.538212925195694
6.5,1.6887019788506734e+18,36.49867346191406,-4.84728741645813,-6.00696063041687,-4.666175603866576,1.6887019788463434e+18,36.49434358723958,-9.195019404093424,-12.013365427652994,4.04845662911733,1.6887019788506734e+18,36.49867346191406,-4.1492908000946045,-5.158092021942139,7.204785585403442,1.6887019788549962e+18,36.50299641927083,1.6042848825454712,6.681745847066243,-0.0567595660686493,1.6887019788549962e+18,36.50299641927083,1.6032666961352031,6.686174710591634,-0.0543670107920964,,,,,,,,,,,,1.688701978847191e+18,36.49519116210938,26.683839797973633,40.00135955810547,-15.281719970703126,1.688701978847191e+18,36.49519116210938,-227.8569549560547,135.466357421875,-148.49351806640624,1.6887019788506734e+18,36.49867346191406,0.0694900825619697,-0.7416639924049377,-0.402218297123909,0.530408188700676,-2.0977399349212646,0.5598874390125275,0.6654559969902039
6.55,1.6887019788982477e+18,36.54624763997395,-1.8362609545389812,-7.949919859568278,-7.838105837504069,1.6887019788982477e+18,36.54624763997395,-5.262215733528136,-13.571890513102211,-0.4967101116975148,1.6887019788982477e+18,36.54624763997395,-3.4318007628122964,-5.604465802510579,7.278708299001058,1.6887019789068997e+18,36.55489998372396,0.4241441066066424,-2.6416358153025308,2.0951151053110757,1.6887019789068997e+18,36.55489998372396,0.4232278056442737,-2.6371562083562217,2.09750763575236,,,,,,,,,,,,1.6887019788971878e+18,36.54518774414063,21.979519653320313,41.43607940673828,-17.711960220336913,1.6887019788971878e+18,36.54518774414063,-232.5612762451172,136.9010772705078,-150.92375793457032,1.6887019788982477e+18,36.54624763997395,0.0838944129645824,-0.7161098122596741,-0.4033835927645365,0.5627759496370951,-2.015145341555278,0.6123977700869242,0.632231593132019
6.6,1.6887019789501542e+18,36.59815421549479,8.41751495997111,-9.27890888849894,-3.198775847752889,1.6887019789501542e+18,36.59815421549479,5.2584272623062125,-15.937594413757324,3.318246761957804,1.6887019789501542e+18,36.59815421549479,-3.1649338404337564,-6.6411811510721845,6.4543352127075195,1.688701978958806e+18,36.606805989583336,3.533702770868937,1.0769045154253645,2.799137274424235,1.688701978958806e+18,36.606805989583336,3.5327864487965903,1.081435094277064,2.801529804865519,,,,,,,,,,,,1.6887019789471877e+18,36.595187744140624,17.75587978363037,45.06923904418945,-12.526959800720215,1.6887019789471877e+18,36.595187744140624,-236.78491821289063,140.53423767089845,-145.73876037597657,1.6887019789501542e+18,36.59815421549479,0.1666988929112751,-0.7087574601173401,-0.3983827133973439,0.556759774684906,-2.0265512069066367,0.7484930157661438,0.5425331989924113
