seconds_elapsed_rounded,accelerometer_time,accelerometer_seconds_elapsed,accelerometer_z,accelerometer_y,accelerometer_x,accelerometeruncalibrated_time,accelerometeruncalibrated_seconds_elapsed,accelerometeruncalibrated_z,accelerometeruncalibrated_y,accelerometeruncalibrated_x,gravity_time,gravity_seconds_elapsed,gravity_z,gravity_y,gravity_x,gyroscope_time,gyroscope_seconds_elapsed,gyroscope_z,gyroscope_y,gyroscope_x,gyroscopeuncalibrated_time,gyroscopeuncalibrated_seconds_elapsed,gyroscopeuncalibrated_z,gyroscopeuncalibrated_y,gyroscopeuncalibrated_x,location_time,location_seconds_elapsed,location_bearingAccuracy,location_speedAccuracy,location_verticalAccuracy,location_horizontalAccuracy,location_speed,location_bearing,location_altitude,location_longitude,location_latitude,magnetometer_time,magnetometer_seconds_elapsed,magnetometer_z,magnetometer_y,magnetometer_x,magnetometeruncalibrated_time,magnetometeruncalibrated_seconds_elapsed,magnetometeruncalibrated_z,magnetometeruncalibrated_y,magnetometeruncalibrated_x,orientation_time,orientation_seconds_elapsed,orientation_qz,orientation_qy,orientation_qx,orientation_qw,orientation_roll,orientation_pitch,orientation_yaw,totalacceleration_time,totalacceleration_seconds_elapsed,totalacceleration_z,totalacceleration_y,totalacceleration_x
0.05,,,,,,,,,,,,,,,,1.6888759154146962e+18,0.0716962890625,-0.2096794992685318,0.0847575515508651,0.0540615729987621,,,,,,,,,,,,,,,,,,,,,,,,,,,,,,,,,,,,,,,,
0.1,,,,,,1.6888759154449597e+18,0.1019598388671875,9.467502117156982,0.0269192554987967,0.6134598851203918,,,,,,1.68887591544929e+18,0.10628987630208335,-0.2680171281099319,0.10257445524136223,0.07136942322055494,1.6888759154449597e+18,0.1019598388671875,-0.24900395423173904,0.10140362754464144,0.07719809561967844,,,,,,,,,,,,1.6888759154461102e+18,0.1031103515625,-50.48664951324463,1.4700999855995178,14.51800012588501,1.6888759154461102e+18,0.1031103515625,-306.1132507324219,96.32509803771973,-118.6083984375,,,,,,,,,,1.6888759154363133e+18,0.093313232421875,9.419545809427897,0.1240279776975512,0.5252245664596558
0.15000000000000002,1.688875915488214e+18,0.14521402994791666,-0.1643069585164388,0.5925003985563914,-0.2866023282210032,1.688875915488214e+18,0.14521402994791666,9.65503978729248,0.8879365821679431,0.1806581070025762,1.688875915488214e+18,0.14521402994791666,9.796545346577963,0.3111813763777415,0.4025469521681468,1.6888759154925466e+18,0.149546630859375,-0.5170974433422089,0.3471241742372512,0.2848922833800316,1.688875915488214e+18,0.14521402994791666,-0.4789692560831706,0.33317609628041583,0.276874665170908,,,,,,,,,,,,1.6888759154911217e+18,0.14812172851562502,-50.005358123779295,1.2931999444961548,14.91083984375,1.6888759154911217e+18,0.14812172851562502,-305.6319519042969,96.14819793701172,-118.21555786132812,1.6888759154968689e+18,0.15386873372395835,0.6531455516815186,-0.006786573336285066,0.022486079484224264,0.756842315196991,-0.039644153788685764,-0.025150104736288332,-1.4244438409805298,1.688875915488214e+18,0.14521402994791666,9.632308006286621,0.9034899671872457,0.11605189895878233
0.2,1.6888759155401208e+18,0.1971209309895833,-0.006544748942057292,2.692276040712992,1.2109396159648895,1.6888759155401208e+18,0.1971209309895833,9.804590861002604,3.3048868974049888,1.4177473783493042,1.6888759155401208e+18,0.1971209309895833,9.788334210713705,0.6283560196558634,0.14209426442782083,1.6888759155357955e+18,0.19279565429687498,0.1922189344962438,0.560163418451945,0.6334163496891657,1.6888759155401208e+18,0.1971209309895833,0.2491821267952522,0.615955779949824,0.5370523519814014,,,,,,,,,,,,1.688875915541122e+18,0.1981220703125,-50.43967895507812,0.053680005669593814,15.611119842529297,1.688875915541122e+18,0.1981220703125,-306.06626586914064,94.90868072509765,-117.51527709960938,1.6888759155487726e+18,0.20577270507812498,0.6540810465812683,0.014277936580280435,0.0246011267105738,0.7558616201082865,-0.010621578277399133,-0.055922740449507964,-1.4269649187723796,1.6888759155401208e+18,0.1971209309895833,9.781859079996744,3.3204402128855386,1.3531411786874135
0.25,1.6888759155920197e+18,0.24901969401041665,-1.5584643681844075,-1.689777284860611,0.170680562655131,1.6888759155920197e+18,0.24901969401041665,8.249056816101074,-1.2376875032981236,-0.2446661194165547,1.6888759155920197e+18,0.24901969401041665,9.784719785054525,0.46783504883448285,-0.4800601800282796,1.6888759155877007e+18,0.24470076497395832,0.06867143511772156,1.4567099610964458,-0.6611598134040833,1.6888759155920197e+18,0.24901969401041665,0.03410664200782773,1.3245085875193279,-0.7136942346890768,,,,,,,,,,,,1.6888759155911183e+18,0.24811835937499999,-49.57591934204102,0.07564000189304351,17.99499931335449,1.6888759155911183e+18,0.24811835937499999,-305.2025146484375,94.93063659667969,-115.1313980102539,1.6888759156006756e+18,0.257675537109375,0.6573251684506735,0.030449151992797834,-0.006450759712606634,0.7529184619585673,0.05438320090373353,-0.0303231353561083,-1.4346611102422078,1.6888759155920197e+18,0.24901969401041665,8.226325035095215,-1.2221341927846272,-0.3092723091443379
0.30000000000000004,1.6888759156439242e+18,0.300924072265625,-2.4742952982584634,-2.5482965310414634,2.5329926013946533,1.6888759156439242e+18,0.300924072265625,7.348158836364746,-2.7375884850819907,2.516451835632324,1.6888759156439242e+18,0.300924072265625,9.799652735392252,-0.17354673643906912,-0.08125423019131024,1.6888759156396004e+18,0.29660026041666665,-0.799113541841507,-1.87499996026357,-1.6078482468922932,1.6888759156439242e+18,0.300924072265625,-0.8877908289432526,-1.9391916990280151,-1.6845118204752605,,,,,,,,,,,,1.6888759156411185e+18,0.29811845703125,-49.461239624023435,2.6132399082183837,18.336599349975586,1.6888759156411185e+18,0.29811845703125,-305.08783569335935,97.4682388305664,-114.78979797363282,1.688875915643924e+18,0.300924072265625,0.6505513787269592,-0.0080037030857056,-0.011873890180140699,0.7591841816902161,0.003216677345335499,0.028345818631350952,-1.4168388843536377,1.6888759156439242e+18,0.300924072265625,7.325427055358887,-2.7220351298650107,2.451845645904541
0.35000000000000003,1.6888759156958216e+18,0.3528212890625,-0.10107739766438802,-3.7386528650919595,1.9191872676213582,1.6888759156958216e+18,0.3528212890625,9.687541961669922,-4.640480836232503,1.9665013949076335,1.6888759156958216e+18,0.3528212890625,9.765817960103353,-0.8860828081766764,-0.017399327208598454,1.6888759156915044e+18,0.34850447591145833,-1.5081244707107544,1.3842206249634426,-1.0032952626546223,1.6888759156958216e+18,0.3528212890625,-1.563051462173462,1.6664912700653076,-0.8503753393888474,,,,,,,,,,,,1.6888759156911188e+18,0.34811884765625,-49.8150390625,8.330159664154053,15.48423957824707,1.6888759156911188e+18,0.34811884765625,-305.44163208007814,103.1851577758789,-117.64215850830078,1.6888759156871754e+18,0.34417569986979163,0.6269104480743408,-0.03505211633940533,-0.03162496040264764,0.7774686018625895,-0.015058704962333034,0.0935069695115089,-1.356627384821574,1.6888759156958216e+18,0.3528212890625,9.664810180664062,-4.624927361806233,1.9018951654434204
0.4,1.6888759157477253e+18,0.40472550455729167,-3.3465933799743652,-3.434731403986613,1.2183961470921834,1.6888759157477253e+18,0.40472550455729167,6.369893232981364,-4.45284366607666,0.19122642278671265,1.6888759157477253e+18,0.40472550455729167,9.693685213724772,-1.0023670196533203,-1.0918832421302795,1.6888759157434022e+18,0.40040226236979165,-2.6758952140808105,2.3539183139801025,0.13372858613729474,1.6888759157477253e+18,0.40472550455729167,-2.7829492886861167,2.313143014907837,0.11545353382825851,,,,,,,,,,,,1.688875915741119e+18,0.39811904296875,-47.57267837524414,10.562759590148925,19.837199401855468,1.688875915741119e+18,0.39811904296875,-303.199267578125,105.41775817871094,-113.28919830322266,1.6888759157390774e+18,0.3960773111979166,0.5816661516825358,0.0044412623780469,-0.07090701038638743,0.809915820757548,0.09039102246363954,0.1105451881885528,-1.2506399552027385,1.6888759157477253e+18,0.40472550455729167,6.347161451975505,-4.437290191650391,0.1266201833883922
0.45,1.6888759157996257e+18,0.4566258951822917,-3.1264214515686035,-2.887829860051473,-1.994191567103068,1.6888759157996257e+18,0.4566258951822917,6.365307013193767,-4.340979099273682,-4.0147576332092285,1.6888759157996257e+18,0.4566258951822917,9.468927065531412,-1.4374040762583415,-2.0852795441945395,1.6888759157953024e+18,0.452302490234375,-3.2736777464548745,2.6620489756266275,-0.6400849719842275,1.6888759157996257e+18,0.4566258951822917,-3.2710816065470376,2.7978137334187827,-0.7072801391283671,,,,,,,,,,,,1.6888759157911222e+18,0.44812216796875,-45.149759674072264,14.149559783935548,23.101919174194336,1.6888759157911222e+18,0.44812216796875,-300.77635498046874,109.00455627441406,-110.02447662353515,1.6888759157909727e+18,0.4479724934895833,0.5095384021600088,0.0441083069890737,-0.11026044686635329,0.8516772985458374,0.19041109085083005,0.14416783054669693,-1.092281182607015,1.6888759157996257e+18,0.4566258951822917,6.342575232187907,-4.325425783793132,-4.079363822937012
0.5,1.6888759158428672e+18,0.499867431640625,-3.5893266201019287,-2.222006916999817,-5.088047981262207,1.6888759158428672e+18,0.499867431640625,5.426622629165649,-4.4243292808532715,-8.26032280921936,1.6888759158428672e+18,0.499867431640625,8.993147850036621,-2.1865772008895874,-3.2369881868362427,1.688875915847202e+18,0.5042023111979167,-2.679865757624308,3.74918540318807,-1.1695524056752522,1.6888759158428672e+18,0.499867431640625,-2.7948611974716187,3.711693525314331,-1.1636219024658203,,,,,,,,,,,,1.6888759158411215e+18,0.4981214843749999,-39.37671966552735,19.666400146484374,27.95751953125,1.6888759158411215e+18,0.4981214843749999,-295.00330810546876,114.52139739990234,-105.16887664794922,1.6888759158428767e+18,0.4998768717447917,0.42941810687383014,0.09681122004985805,-0.17798804243405653,0.879447321097056,0.3385854164759318,0.2329423626263936,-0.9489272832870483,1.6888759158428672e+18,0.499867431640625,5.40389084815979,-4.408775806427002,-8.324928760528564
0.55,1.6888759158861248e+18,0.5431246744791667,-2.856640021006266,0.8163400093714396,-5.854806264241536,1.6888759158861248e+18,0.5431246744791667,5.306881904602051,-2.246860464413961,-10.291131655375162,1.6888759158861248e+18,0.5431246744791667,8.14072052637736,-3.0474552313486734,-4.501038869222005,1.6888759158991043e+18,0.5561043294270833,-2.049860119819641,4.686201731363933,-1.6899077892303467,1.6888759158861248e+18,0.5431246744791667,-2.115579128265381,4.456516583760579,-1.4593062003453572,,,,,,,,,,,,1.6888759158911206e+18,0.548120556640625,-31.719998931884767,25.110039520263673,32.17872009277344,1.6888759158911206e+18,0.548120556640625,-287.3466003417969,119.9650390625,-100.94767761230469,1.688875915894771e+18,0.5517710774739584,0.35827698310216266,0.16672943532466886,-0.25908830265204114,0.8804691036542257,0.5351408223311106,0.3444158732891083,-0.8691499829292297,1.6888759158861248e+18,0.5431246744791667,5.284150123596191,-2.2313071489334106,-10.355737368265787
0.6000000000000001,1.6888759159380296e+18,0.5950294596354166,-3.6923763751983643,2.8797012170155845,-7.231377601623535,1.6888759159380296e+18,0.5950294596354166,2.8628129164377847,-1.4666008949279785,-13.031910260518393,1.6888759159380296e+18,0.5950294596354166,6.532387892405192,-4.3305567900339765,-5.865246295928955,1.6888759159423516e+18,0.5993515625,-1.6455182433128357,3.70963191986084,-2.5299746990203857,1.6888759159380296e+18,0.5950294596354166,-1.6972382068634033,3.90093461672465,-2.4438681602478027,,,,,,,,,,,,1.6888759159411192e+18,0.598119189453125,-20.613119506835936,30.661039352416992,35.99487838745117,1.6888759159411192e+18,0.598119189453125,-276.2397155761719,125.51603698730469,-97.13151702880859,1.6888759159466783e+18,0.6036780598958332,0.2959213058153788,0.23045221467812851,-0.35463037093480426,0.8559179504712423,0.7565973599751791,0.4903232554594676,-0.8651432394981384,1.6888759159380296e+18,0.5950294596354166,2.8400811354319253,-1.4510475397109985,-13.096516609191895
0.65,1.688875915989929e+18,0.646928955078125,0.030743519465128582,1.2048895359039307,-8.822566668192545,1.688875915989929e+18,0.646928955078125,5.09770925839742,-4.283152500788371,-15.132409731547037,1.688875915989929e+18,0.646928955078125,5.044164339701335,-5.4722968737284345,-6.374556541442871,1.6888759159856046e+18,0.6426044921875,-0.5281948372721672,1.8234836657842,-2.9321022828420005,1.688875915989929e+18,0.646928955078125,-0.3826052745183309,1.7803158362706502,-2.96106751759847,,,,,,,,,,,,1.6888759159911204e+18,0.648120361328125,-10.931199741363525,34.560159301757814,36.58535995483398,1.6888759159911204e+18,0.648120361328125,-266.5577880859375,129.4151580810547,-96.5410385131836,1.6888759159985748e+18,0.6555750325520834,0.2751752138137817,0.24960171182950333,-0.43719911575317383,0.8186658024787903,0.9229697386423746,0.6164169311523438,-0.9637333552042643,1.688875915989929e+18,0.646928955078125,5.074977477391561,-4.267599264780681,-15.197016080220541
0.7000000000000001,1.6888759160418294e+18,0.6988294270833334,3.726390997568766,1.2376651763916016,-6.156771183013916,1.6888759160418294e+18,0.6988294270833334,7.230312347412109,-4.761717160542806,-13.026925086975098,1.6888759160418294e+18,0.6988294270833334,3.481119950612386,-5.98363717397054,-6.9348673820495605,1.688875916037505e+18,0.6945052083333333,0.6410521666208903,2.2077178955078125,-2.702162424723307,1.6888759160418294e+18,0.6988294270833334,0.6703736980756124,2.2089905738830566,-2.605034907658895,,,,,,,,,,,,1.6888759160411187e+18,0.69811865234375,-1.7445999324321746,35.2213996887207,37.72727890014649,1.6888759160411187e+18,0.69811865234375,-257.3711883544922,130.07639770507814,-95.3991195678711,1.6888759160504783e+18,0.707478515625,0.2787323296070099,0.2790934741497039,-0.5059972405433655,0.7667211294174194,1.134058674176534,0.6686190565427145,-1.1335051854451497,1.6888759160418294e+18,0.6988294270833334,7.20758056640625,-4.746163686116536,-13.0915314356486
0.75,1.6888759160937298e+18,0.7507298990885417,7.467611312866211,1.6061620712280273,-3.745973587036133,1.6888759160937298e+18,0.7507298990885417,9.642476717631022,-4.357130686442058,-11.171889623006185,1.6888759160937298e+18,0.7507298990885417,2.152064085006714,-5.947547594706218,-7.490629514058431,1.6888759160894103e+18,0.7464103190104167,0.7140505711237589,2.5433883666992188,-0.667013923327128,1.6888759160937298e+18,0.7507298990885417,0.7106907963752747,2.7072529792785645,-0.3606650233268738,,,,,,,,,,,,1.6888759160911217e+18,0.7481216796875,6.546519708633423,34.003839111328126,39.115640258789064,1.6888759160911217e+18,0.7481216796875,-249.0800750732422,128.85883483886718,-94.01075897216796,1.6888759160937298e+18,0.7507298583984374,0.2736356109380722,0.315640851855278,-0.538077712059021,0.7319868803024292,1.2858871221542358,0.6624601781368256,-1.219734787940979,1.6888759160937298e+18,0.7507298990885417,9.619744936625162,-4.341577370961507,-11.236495971679688
0.8,1.6888759161456238e+18,0.8026236979166667,2.2015613516171775,0.2741986910502116,-0.39325586954752606,1.6888759161456238e+18,0.8026236979166667,3.4285159707069397,-5.234100182851155,-8.360721588134766,1.6888759161456238e+18,0.8026236979166667,1.2041532198588054,-5.4925537109375,-8.032179196675619,1.688875916141307e+18,0.7983069661458333,0.8972083330154419,4.04632043838501,2.7557149728139243,1.6888759161456238e+18,0.8026236979166667,0.9210320711135864,4.0435716311136884,2.807689348856608,,,,,,,,,,,,1.6888759161411203e+18,0.7981203125,10.416359901428223,33.15716018676758,38.86675872802734,1.6888759161411203e+18,0.7981203125,-245.21023559570312,128.012158203125,-94.25964050292968,1.6888759161369805e+18,0.7939805501302084,0.22923095027605692,0.3909185727437337,-0.5247312784194946,0.7196960846583048,1.3957725365956624,0.6154531439145406,-1.1369595925013225,1.6888759161456238e+18,0.8026236979166667,3.405784179766973,-5.218546708424886,-8.425327936808268
0.8500000000000001,1.6888759161975324e+18,0.8545323079427084,-1.287760317325592,2.3422587712605796,1.5554534594217937,1.6888759161975324e+18,0.8545323079427084,-0.97288179397583,-2.701895554860433,-6.794419765472412,1.6888759161975324e+18,0.8545323079427084,0.2920769993215799,-5.0284091631571455,-8.414586702982584,1.6888759161932004e+18,0.8502005208333333,0.7506515880425771,2.5689428647359214,0.8440630324184893,1.6888759161975324e+18,0.8545323079427084,0.6808602114518484,2.3593143224716187,0.650367857888341,1.688875916194e+18,0.850999755859375,0.0,0.0,1.3112045526504517,58.297000885009766,0.0,0.0,35.36842170898609,-122.7499312,49.1920453,1.6888759161911183e+18,0.848118359375,13.864079666137695,32.17872009277344,38.81795959472656,1.6888759161911183e+18,0.848118359375,-241.76251831054688,127.03371734619141,-94.30843658447266,1.6888759161888801e+18,0.8458802897135417,0.17664517958958945,0.47999080022176105,-0.4940999050935109,0.702766497929891,1.5112989743550618,0.552980899810791,-1.014719525973002,1.6888759161975324e+18,0.8545323079427084,-0.9956136345863342,-2.686342199643453,-6.859025955200195
0.9,1.6888759162494318e+18,0.9064317220052084,1.4239596823851268,3.2386906941731772,1.2243177096048992,1.6888759162494318e+18,0.9064317220052084,1.3066805303096771,-1.7062819401423137,-7.191428979237874,1.6888759162494318e+18,0.9064317220052084,-0.14008058359225592,-4.929227352142334,-8.480460166931152,1.688875916245108e+18,0.9021079101562499,0.015984307974576967,0.7335473299026489,0.444048136472702,1.6888759162494318e+18,0.9064317220052084,0.0010181091104944368,0.6737843652566274,0.4936809440453847,,,,,,,,,,,,1.6888759162411182e+18,0.898118212890625,16.887239456176758,31.827358627319335,38.437319946289065,1.6888759162411182e+18,0.898118212890625,-238.73935546875,126.68235778808594,-94.68907928466797,1.6888759162407826e+18,0.8977826334635416,0.16002036134401953,0.5120078921318054,-0.49021562933921814,0.6869433720906576,1.576566457748413,0.534805695215861,-0.9954633315404257,1.6888759162494318e+18,0.9064317220052084,1.2839487393697102,-1.6907286246617634,-7.256035327911377
0.9500000000000001,1.6888759162926843e+18,0.949684326171875,-0.11407055705785751,2.6483739614486694,0.45506811141967773,1.6888759162926843e+18,0.949684326171875,-0.27846473827958107,-2.245365023612976,-7.989335775375366,1.6888759162926843e+18,0.949684326171875,-0.18719569593667978,-4.877993822097778,-8.509117603302002,1.6888759162970033e+18,0.9540032552083334,0.335517739256223,0.07162395119667052,0.10944669445355737,1.6888759162926843e+18,0.949684326171875,0.3311653137207031,0.13553572352975604,0.15309810638427732,,,,,,,,,,,,1.6888759162911186e+18,0.9481185546875001,17.489919662475586,31.622399520874023,38.569078826904295,1.6888759162911186e+18,0.9481185546875001,-238.1366760253906,126.47739868164062,-94.55731506347657,1.6888759162926825e+18,0.9496825358072917,0.15187975764274594,0.5224136511484782,-0.4827323059240977,0.6862782041231791,1.584579348564148,0.5281006296475729,-0.9706844091415405,1.6888759162926843e+18,0.949684326171875,-0.3011965528130531,-2.2298115491867065,-8.05394172668457
1.0,1.6888759163359286e+18,0.992928466796875,-0.8084938327471415,2.142086664835612,1.844247817993164,1.6888759163359286e+18,0.992928466796875,-0.9389834900697073,-2.6217360496520996,-6.6739810307820635,1.6888759163359286e+18,0.992928466796875,-0.1532911956310272,-4.748077551523845,-8.582942326863607,1.6888759163489014e+18,1.0059011230468748,0.14589498564600942,-0.5490660468737284,-0.2641483147939046,1.6888759163359286e+18,0.992928466796875,0.2450078651309013,-0.3530801137288411,-0.26394468545913696,,,,,,,,,,,,1.688875916341123e+18,0.9981229980468751,16.721319580078124,31.26859931945801,38.6959587097168,1.688875916341123e+18,0.9981229980468751,-238.9052734375,126.12359771728515,-94.43043823242188,1.688875916344577e+18,1.0015769856770833,0.16222213705380756,0.521834154923757,-0.4804648260275523,0.6859341065088908,1.5780610243479412,0.5119160016377767,-0.9799408117930094,1.6888759163359286e+18,0.992928466796875,-0.9617152810096741,-2.60618261496226,-6.738587538401286
1.05,1.6888759163878339e+18,1.044833740234375,0.18828744937976202,1.2100255489349365,1.2896323204040527,1.6888759163878339e+18,1.044833740234375,0.2955136063198249,-3.5481571356455484,-7.2325059572855634,1.6888759163878339e+18,1.044833740234375,0.08442463710283236,-4.742437521616618,-8.586851755777994,1.6888759163921597e+18,1.049159912109375,-0.2144137024879455,-0.3627775870263576,0.15935947746038434,1.6888759163878339e+18,1.044833740234375,-0.16045393981039524,-0.45850527410705894,0.08603018522262573,,,,,,,,,,,,1.6888759163911183e+18,1.048118408203125,15.623320007324219,31.070959091186523,39.05951843261719,1.6888759163911183e+18,1.048118408203125,-240.00327758789064,125.92595825195312,-94.06687622070312,1.6888759163964854e+18,1.0534854329427084,0.1687931766112645,0.510943333307902,-0.4795016348361969,0.6931934952735901,1.5500795046488445,0.5147155920664469,-0.9823114077250162,1.6888759163878339e+18,1.044833740234375,0.2727817818522454,-3.5326038201649985,-7.297112147013347
1.1,1.688875916439733e+18,1.0967329915364583,-0.8534764250119528,2.9150962829589844,0.15619309743245444,1.688875916439733e+18,1.0967329915364583,-0.5443671345710754,-1.927219271659851,-8.313862164815268,1.688875916439733e+18,1.0967329915364583,0.28630776206652325,-4.826570351918538,-8.5347687403361,1.688875916435411e+18,1.0924107259114584,-0.14100805918375647,-0.7159340778986613,-0.024332797775665934,1.688875916439733e+18,1.0967329915364583,-0.13836097531020639,-0.8592328826586405,-0.024790948256850232,,,,,,,,,,,,1.6888759164411172e+18,1.0981171875000002,14.637559700012208,31.49063911437988,38.839918518066405,1.6888759164411172e+18,1.0981171875000002,-240.9890350341797,126.34563751220703,-94.2864776611328,1.6888759164483832e+18,1.1053833007812501,0.1724066336949666,0.49842960635821026,-0.47889845569928485,0.7017192840576172,1.5195283889770508,0.5239284435907999,-0.9806550542513529,1.688875916439733e+18,1.0967329915364583,-0.567098985115687,-1.9116658767064412,-8.378468672434488
1.1500000000000001,1.6888759164916326e+18,1.1486327311197917,-0.023080746332804363,1.7485625743865967,-4.415872573852539,1.6888759164916326e+18,1.1486327311197917,0.9676973521709442,-3.2476585308710733,-12.744173367818197,1.6888759164916326e+18,1.1486327311197917,0.9679765899976095,-4.980475902557373,-8.393014272054037,1.6888759164873114e+18,1.1443116048177082,-0.5008585949738821,-1.7271196444829304,0.06037385016679764,1.6888759164916326e+18,1.1486327311197917,-0.4859433174133301,-1.736231764157613,0.04133521020412443,,,,,,,,,,,,1.6888759164911163e+18,1.1481162597656251,11.587559700012207,32.222639083862305,39.16443939208985,1.6888759164911163e+18,1.1481162597656251,-244.03903503417968,127.0776382446289,-93.96195983886719,1.6888759165002793e+18,1.1572792154947917,0.1846275428930918,0.46367717782656354,-0.4754593273003896,0.7243539094924927,1.432708501815796,0.5441315372784933,-0.975642184416453,1.6888759164916326e+18,1.1486327311197917,0.9449655413627625,-3.2321051756540933,-12.80877939860026
1.2000000000000002,1.6888759165435348e+18,1.200534912109375,-0.07637737194697063,-0.781555970509847,-4.359933535257976,1.6888759165435348e+18,1.200534912109375,1.589831292629242,-5.859823385874431,-12.53420352935791,1.6888759165435348e+18,1.200534912109375,1.6434071858723958,-5.062522252400716,-8.238983472188314,1.6888759165392118e+18,1.1962119954427084,-0.016646077856421432,-1.570534586906433,-0.23004167775313056,1.6888759165435348e+18,1.200534912109375,-0.0110464797665675,-1.5398894548416138,-0.23727024098237348,,,,,,,,,,,,1.6888759165411167e+18,1.1981166015625,8.569280052185059,32.33731880187988,40.01355972290039,1.6888759165411167e+18,1.1981166015625,-247.05731811523438,127.19231872558593,-93.11283721923829,1.688875916543536e+18,1.2005360107421876,0.20124965906143183,0.4359569400548935,-0.4725421071052551,0.7389865517616272,1.3661040663719177,0.5503261089324951,-0.9833877384662628,1.6888759165435348e+18,1.200534912109375,1.5670993725458782,-5.844269911448161,-12.598809242248535
1.25,1.6888759165954355e+18,1.2524357096354166,-0.7160612742106119,-1.162145773569743,-2.3895692825317383,1.6888759165954355e+18,1.2524357096354166,1.5192430019378662,-6.185845375061035,-10.463614145914715,1.6888759165954355e+18,1.2524357096354166,2.2125027974446616,-5.007954438527425,-8.138758341471354,1.6888759165911122e+18,1.2481123860677084,0.3333288033803304,-1.3898711204528809,-0.16401731471220649,1.6888759165954355e+18,1.2524357096354166,0.37863463163375854,-1.3440562884012859,-0.15729780246814087,,,,,,,,,,,,1.688875916591123e+18,1.2481229003906251,6.060959911346435,32.23972053527832,40.57720031738281,1.688875916591123e+18,1.2481229003906251,-249.56563415527344,127.09471740722657,-92.54919738769532,1.6888759165867866e+18,1.243786376953125,0.22067519028981522,0.41221503416697186,-0.4680929978688558,0.7497734626134237,1.3080608050028484,0.5469426115353903,-0.9960927367210388,1.6888759165954355e+18,1.2524357096354166,1.4965111414591472,-6.170291900634766,-10.528220176696777
1.3,1.6888759166473372e+18,1.3043373209635416,-0.785544753074646,0.4060054620107015,-0.2894706726074219,1.6888759166473372e+18,1.3043373209635416,1.9469600518544514,-4.4053858915964765,-8.340781529744467,1.6888759166473372e+18,1.3043373209635416,2.7097033659617105,-4.7956461906433105,-8.116024335225424,1.6888759166430106e+18,1.3000105794270833,0.5689700643221537,-1.372715989748637,-0.2512183388074239,1.6888759166473372e+18,1.3043373209635416,0.538274089495341,-1.3653347094853718,-0.24684046208858487,,,,,,,,,,,,1.6888759166411185e+18,1.29811845703125,3.5257999420166017,31.405238723754884,41.099359130859376,1.6888759166411185e+18,1.29811845703125,-252.10079650878907,126.26023559570312,-92.02703857421875,1.6888759166386844e+18,1.2956844075520833,0.24917924404144284,0.39197834332784015,-0.45848073561986286,0.7575785716374716,1.2512080272038777,0.5229492584864298,-1.0174726645151775,1.6888759166473372e+18,1.3043373209635416,1.9242282311121623,-4.389832417170207,-8.405388196309408
1.35,1.6888759166992294e+18,1.3562295735677081,-0.5159329970677694,1.3652780055999756,-0.6896305084228516,1.6888759166992294e+18,1.3562295735677081,2.4777678648630777,-3.3591241041819253,-8.701898256937662,1.6888759166992294e+18,1.3562295735677081,2.9708994229634604,-4.708656946818034,-8.07698122660319,1.6888759166949133e+18,1.3519133300781252,0.24281893173853553,-0.3657046544055143,-0.2666935920715332,1.6888759166992294e+18,1.3562295735677081,0.2536617964506149,-0.26313020785649616,-0.23630303516983983,,,,,,,,,,,,1.688875916691121e+18,1.3481208984375,1.6421199560165405,30.68055953979492,41.81427917480469,1.688875916691121e+18,1.3481208984375,-253.9844757080078,125.53555755615234,-91.31211853027344,1.6888759166905876e+18,1.3475877278645834,0.27033321062723786,0.37515942255655926,-0.4539632797241211,0.7616298397382101,1.212030251820882,0.5105733275413513,-1.0399889945983887,1.6888759166992294e+18,1.3562295735677081,2.4550360838572183,-3.343570868174235,-8.766504605611166
1.4000000000000001,1.68887591674249e+18,1.3994901123046875,-1.4042269587516785,2.4845975637435913,0.43290829658508306,1.68887591674249e+18,1.3994901123046875,1.5131612420082095,-2.072184443473816,-7.701897859573364,1.68887591674249e+18,1.3994901123046875,2.894586682319641,-4.54103684425354,-8.199519634246826,1.6888759167468157e+18,1.4038158365885416,0.6520477334658304,0.3001384536425272,-0.05910121276974673,1.68887591674249e+18,1.3994901123046875,0.672028124332428,0.32650746405124664,-0.07017314434051511,,,,,,,,,,,,1.6888759167411228e+18,1.398122705078125,1.8055999279022217,29.63867950439453,42.52187957763672,1.6888759167411228e+18,1.398122705078125,-253.82099609375,124.4936767578125,-90.60451812744141,1.6888759167424888e+18,1.39948876953125,0.280004878838857,0.3814011514186859,-0.45248396197954815,0.7558830380439758,1.2243905862172444,0.48981452981630963,-1.0569542249043782,1.68887591674249e+18,1.3994901123046875,1.490429401397705,-2.056631028652191,-7.766504287719727
1.4500000000000002,1.6888759167857375e+18,1.4427373860677084,-1.0089912017186482,2.7100957234700522,2.3624744415283203,1.6888759167857375e+18,1.4427373860677084,1.7377874453862507,-1.659821351369222,-5.930212020874023,1.6888759167857375e+18,1.4427373860677084,2.7239771684010825,-4.354171911875407,-8.357399940490723,1.68887591679871e+18,1.4557101236979166,0.22199861519038674,0.6852380832036337,-0.25213463107744855,1.6888759167857375e+18,1.4427373860677084,0.3850996245940526,0.5559891859690348,-0.1813760673006375,,,,,,,,,,,,1.6888759167911224e+18,1.448122509765625,3.120759868621826,28.547999572753906,43.456399536132814,1.6888759167911224e+18,1.448122509765625,-252.5058349609375,123.40299835205079,-89.66999816894531,1.6888759167943872e+18,1.4513870442708334,0.2861003577709198,0.3953166604042053,-0.45334593454996736,0.7458664178848267,1.2561175028483074,0.4668322404225667,-1.0744682550430298,1.6888759167857375e+18,1.4427373860677084,1.7150556445121765,-1.6442679564158122,-5.994818210601807
1.5,1.6888759168376394e+18,1.4946395670572918,-0.37062331040700275,2.7389458815256753,1.530130386352539,1.6888759168376394e+18,1.4946395670572918,1.8783657948176067,-1.6588242848714192,-6.892326354980469,1.6888759168376394e+18,1.4946395670572918,2.2261876662572226,-4.382024923960368,-8.487170219421387,1.6888759168506163e+18,1.5076162923177083,-0.44832417865594226,1.7870862483978271,-0.06149376928806307,1.6888759168376394e+18,1.4946395670572918,-0.26022860159476596,1.4764612913131714,-0.1829541455954313,,,,,,,,,,,,1.6888759168411182e+18,1.498118017578125,5.770600032806397,28.086839294433595,43.546678924560545,1.6888759168411182e+18,1.498118017578125,-249.85599365234376,122.94183654785157,-89.57971954345703,1.6888759168462907e+18,1.50329052734375,0.272441307703654,0.41515102982521057,-0.4673907955487569,0.7312866846720377,1.3228737115859985,0.4751589000225067,-1.0859291553497314,1.6888759168376394e+18,1.4946395670572918,1.8556339740753174,-1.6432709296544392,-6.956932544708252
1.55,1.6888759168895404e+18,1.5465402832031252,-0.816711405913035,3.162513573964437,1.672183354695638,1.6888759168895404e+18,1.5465402832031252,0.6687939365704855,-1.5704892873764038,-6.736194610595703,1.6888759168895404e+18,1.5465402832031252,1.462703824043274,-4.717257658640544,-8.47309144337972,1.688875916893867e+18,1.5508670654296874,-1.3862822651863098,1.5637386441230774,0.5351179540157318,1.6888759168895404e+18,1.5465402832031252,-1.2766065796216328,1.6417512496312459,0.4342742959658305,,,,,,,,,,,,1.6888759168911196e+18,1.54811953125,9.21343994140625,29.948559188842772,41.60443878173828,1.6888759168911196e+18,1.54811953125,-246.4131591796875,124.80355682373047,-91.52195739746094,1.688875916898187e+18,1.5551870117187498,0.22908740739027653,0.43815310796101886,-0.4848982095718384,0.7212379773457845,1.4019245704015095,0.5223015050093333,-1.0588155190149944,1.6888759168895404e+18,1.5465402832031252,0.6460621257623037,-1.5549359321594238,-6.800800800323486
1.6,1.688875916941441e+18,1.598441162109375,2.267842690149943,0.8320941925048828,-1.160788853963216,1.688875916941441e+18,1.598441162109375,3.432504097620646,-4.683152874310811,-9.13360325495402,1.688875916941441e+18,1.598441162109375,1.1418598890304565,-5.499501864115397,-8.037527879079184,1.6888759169371126e+18,1.5941127115885418,-2.045889536539714,0.40535998344421387,-0.24943663676579794,1.688875916941441e+18,1.598441162109375,-2.02232031027476,0.4127921809752782,-0.39156461755434674,,,,,,,,,,,,1.6888759169411195e+18,1.5981195312499998,11.4631196975708,33.90135879516602,37.98835906982422,1.6888759169411195e+18,1.5981195312499998,-244.1634735107422,128.75636138916016,-95.1380386352539,1.6888759169500915e+18,1.6070914713541669,0.18525383869806925,0.4250055154164632,-0.5112174053986868,0.7235161662101746,1.4280794064203899,0.6216488083203634,-1.0445115566253662,1.688875916941441e+18,1.598441162109375,3.409772197405497,-4.667599439620972,-9.198209762573242
1.6500000000000001,1.6888759169933384e+18,1.6503382161458333,-4.196774959564209,0.6501871744791666,-2.9791207313537598,1.6888759169933384e+18,1.6503382161458333,-3.3964122931162515,-5.738586902618408,-10.324431737263998,1.6888759169933384e+18,1.6503382161458333,0.7775612076123556,-6.373028914133708,-7.410024483998616,1.6888759169890148e+18,1.6460148111979167,-2.1381301085154214,-0.2623666326204936,-1.2947797377904255,1.6888759169933384e+18,1.6503382161458333,-2.181297938028971,-0.42297328511873883,-1.283376971880595,,,,,,,,,,,,1.6888759169911163e+18,1.6481162109374998,13.124759864807128,37.03919982910156,34.49671859741211,1.6888759169911163e+18,1.6481162109374998,-242.5018341064453,131.89419860839843,-98.62967834472656,1.688875916993342e+18,1.650341796875,0.16327998787164685,0.3976186662912369,-0.547919899225235,0.7175565958023071,1.4604055881500244,0.7162482738494873,-1.09415203332901,1.6888759169933384e+18,1.6503382161458333,-3.419144074122111,-5.723033587137858,-10.389037450154623
1.7000000000000002,1.688875917045245e+18,1.7022450358072916,-2.6109672387441,2.877990961074829,-1.3352131843566897,1.688875917045245e+18,1.7022450358072916,-1.77607262134552,-4.4412782192230225,-7.755138079325358,1.688875917045245e+18,1.7022450358072916,0.8120931188265482,-7.303524017333984,-6.484638373057048,1.6888759170409188e+18,1.6979187825520832,-2.706132968266805,-1.6476053794225056,-0.9666942159334818,1.688875917045245e+18,1.7022450358072916,-2.787938117980957,-1.7275269428888957,-0.8615236083666483,,,,,,,,,,,,1.6888759170411254e+18,1.6981252441406247,14.061719703674317,40.29171905517578,30.072999572753908,1.6888759170411254e+18,1.6981252441406247,-241.56487731933595,135.14671630859374,-103.05339813232422,1.688875917036587e+18,1.6935869954427083,0.15063246587912235,0.34561626116434735,-0.5820706685384115,0.7200678388277689,1.448380947113037,0.8250580032666525,-1.1508971055348713,1.688875917045245e+18,1.7022450358072916,-1.7988044023513794,-4.425724824269612,-7.819744427998862
1.75,1.6888759170971433e+18,1.7541432291666668,1.0641551812489827,-4.055756727854411,2.4474778970082602,1.6888759170971433e+18,1.7541432291666668,2.384447773297628,-12.319048404693604,-2.6191437244415283,1.6888759170971433e+18,1.7541432291666668,1.297491153081258,-8.247546513875326,-5.131335099538167,1.688875917092821e+18,1.74982080078125,-3.150486628214518,-1.2255993088086445,0.37435858448346454,1.6888759170971433e+18,1.7541432291666668,-3.0421090126037598,-1.0752755403518677,0.3584251826008161,,,,,,,,,,,,1.6888759170911214e+18,1.74812138671875,11.75835952758789,44.26403884887695,24.573239898681642,1.6888759170911214e+18,1.74812138671875,-243.86823425292968,139.11903686523436,-108.55315856933593,1.6888759170884908e+18,1.745490966796875,0.11941878000895177,0.2657425552606582,-0.6040970087051392,0.7413293719291687,1.3341845671335857,0.9836077690124512,-1.1174479722976685,1.6888759170971433e+18,1.7541432291666668,2.3617159922917685,-12.303495407104492,-2.6837499539057412
1.8,1.6888759171490404e+18,1.806040283203125,0.7596733172734579,-2.4283429781595864,-1.3716319402058919,1.6888759171490404e+18,1.806040283203125,2.102294087409973,-11.112467924753824,-5.705286820729573,1.6888759171490404e+18,1.806040283203125,1.3198193311691284,-8.668379783630371,-4.3983683586120605,1.6888759171447196e+18,1.8017196451822917,-0.7527895967165629,-0.23981551422427103,-0.5415829420089722,1.6888759171490404e+18,1.806040283203125,-0.6227262318134308,-0.19786943246920907,-0.5608761111895243,,,,,,,,,,,,1.6888759171411205e+18,1.798120361328125,10.606679534912109,46.62595977783203,19.700559997558592,1.6888759171411205e+18,1.798120361328125,-245.01991577148436,141.48095703125,-113.42583618164062,1.6888759171403927e+18,1.7973926595052083,0.09108443061510717,0.22126334408919013,-0.6167355378468832,0.7498950362205505,1.2629687786102295,1.0858378410339355,-1.0730236768722534,1.6888759171490404e+18,1.806040283203125,2.0795623064041138,-11.096914132436117,-5.7698930104573565
1.85,1.6888759171922944e+18,1.8492943115234375,0.6365519165992737,3.6693904399871826,-2.6713037490844727,1.6888759171922944e+18,1.8492943115234375,1.7958133816719055,-5.128417253494263,-6.827321290969849,1.6888759171922944e+18,1.8492943115234375,1.1364599466323853,-8.782062530517578,-4.220731019973755,1.6888759171966208e+18,1.8536208496093751,-0.8134688933690389,-0.145487738152345,-0.5436191558837891,1.6888759171922944e+18,1.8492943115234375,-0.6872997581958771,-0.09980011358857155,-0.5059491246938705,,,,,,,,,,,,1.6888759171911153e+18,1.84811513671875,11.809599876403809,46.967559051513675,18.485439682006835,1.6888759171911153e+18,1.84811513671875,-243.8169952392578,141.82255859375,-114.64095916748047,1.688875917192291e+18,1.8492908528645833,0.08562446137269335,0.2099729478359222,-0.6296618779500326,0.7430077791213989,1.2952032486597698,1.119229515393575,-1.1145139535268147,1.6888759171922944e+18,1.8492943115234375,1.7730816006660461,-5.112863779067993,-6.891927480697632
1.9000000000000001,1.6888759172355428e+18,1.8925425618489582,0.25862298409144086,3.9968080520629883,-3.029623031616211,1.6888759172355428e+18,1.8925425618489582,1.2540384928385417,-5.06101926167806,-6.632306098937988,1.6888759172355428e+18,1.8925425618489582,0.9726139903068542,-9.042082150777182,-3.6673965454101562,1.6888759172485153e+18,1.9055153808593752,-2.0955731868743896,-0.6055201888084412,-0.5232569773991903,1.6888759172355428e+18,1.8925425618489582,-1.8546886841456096,-0.47102801005045575,-0.5679010550181071,,,,,,,,,,,,1.6888759172411226e+18,1.8981226074218749,12.897839736938476,47.59219970703125,15.803879928588866,1.6888759172411226e+18,1.8981226074218749,-242.72875366210937,142.44720153808595,-117.32251739501953,1.6888759172441928e+18,1.9011927897135417,0.06675003344813978,0.17720419665177659,-0.6470909317334493,0.7383458216985067,1.291709343592326,1.200271487236023,-1.1325717369715373,1.6888759172355428e+18,1.8925425618489582,1.2313066522280376,-5.04546594619751,-6.6969122886657715
1.9500000000000002,1.6888759172874452e+18,1.944445068359375,-0.1818538705507914,1.8159356117248535,-0.6970129013061525,1.6888759172874452e+18,1.944445068359375,0.7052844713131586,-7.5862447420756025,-3.3417762915293374,1.6888759172874452e+18,1.944445068359375,0.8643368283907572,-9.386435190836588,-2.709476868311564,1.688875917300422e+18,1.9574219563802082,-1.096706748008728,-1.6783522764841716,-0.5095634162425995,1.6888759172874452e+18,1.944445068359375,-1.5284357865651448,-1.397659699122111,-0.5626068909962972,,,,,,,,,,,,1.6888759172911186e+18,1.9481186035156248,13.861639595031738,48.54623947143555,11.509479904174805,1.6888759172911186e+18,1.9481186035156248,-241.76495361328125,143.40123901367187,-121.61691741943359,1.688875917296097e+18,1.9530968424479165,0.05394882336258883,0.12481667101383205,-0.6629650791486105,0.7360458175341288,1.233246922492981,1.2968082825342815,-1.1319936911265056,1.6888759172874452e+18,1.944445068359375,0.6825526605049769,-7.5706915855407715,-3.4063824812571206
2.0,1.688875917339347e+18,1.9963470052083334,0.8521142999331156,2.019369602203369,-0.8945721785227457,1.688875917339347e+18,1.9963470052083334,1.8965113162994385,-7.4807610511779785,-3.1136604150136313,1.688875917339347e+18,1.9963470052083334,1.021595537662506,-9.48438549041748,-2.283801714579264,1.6888759173436698e+18,2.0006695556640626,-0.33841934800148005,-1.6443728804588318,0.575587771832943,1.688875917339347e+18,1.9963470052083334,-0.38209622104962665,-1.7017178932825725,0.4373286118110021,,,,,,,,,,,,1.688875917341121e+18,1.9981208984375,13.590799713134766,47.74347839355469,10.831159782409669,1.688875917341121e+18,1.9981208984375,-242.03579406738282,142.59847717285157,-122.2952377319336,1.6888759173479895e+18,2.004989501953125,0.07363697886466973,0.08197398732105887,-0.6600262522697449,0.7430006663004557,1.0875909924507141,1.3202053705851238,-1.0757100582122803,1.688875917339347e+18,1.9963470052083334,1.873779535293579,-7.4652078946431475,-3.178266684214274
2.0500000000000003,1.6888759173912412e+18,2.0482413736979166,4.673646529515584,3.579859892527262,-3.887392203013102,1.6888759173912412e+18,2.0482413736979166,6.485546429951985,-5.874578972657521,-5.791228850682576,1.6888759173912412e+18,2.0482413736979166,1.789098620414734,-9.438693682352701,-1.9685499668121338,1.688875917386925e+18,2.043925130208333,-0.6659449140230814,-1.6054047743479412,1.295237958431244,1.6888759173912412e+18,2.0482413736979166,-0.8087855875492096,-1.6659822463989258,1.164309134085973,,,,,,,,,,,,1.6888759173911178e+18,2.048117822265625,9.830759620666504,49.524679565429686,11.660759735107423,1.6888759173911178e+18,2.048117822265625,-245.79583129882812,144.3796813964844,-121.46563568115235,1.6888759173998968e+18,2.056896891276042,0.08882183084885276,0.0431778995941082,-0.6337321996688843,0.7670256495475769,0.7460108200709025,1.3036597569783528,-0.8111476500829061,1.6888759173912412e+18,2.0482413736979166,6.462814648946126,-5.859025537967682,-5.855835040410359
2.1,1.6888759174431444e+18,2.100144205729167,-0.7006910641988119,-10.27800178527832,-2.5039151708285012,1.6888759174431444e+18,2.100144205729167,1.1868400275707245,-19.873589197794598,-3.3822547594706216,1.6888759174431444e+18,2.100144205729167,1.864729603131612,-9.579842249552408,-0.9430531064669291,1.6888759174388255e+18,2.0958253580729167,-1.669342001279195,-3.4015522797902427,-0.8418232301870981,1.6888759174431444e+18,2.100144205729167,-1.5933401584625244,-3.4377969106038413,-0.8128580152988434,,,,,,,,,,,,1.6888759174411203e+18,2.0981201171875,8.542439937591553,50.45431823730469,8.335039710998535,1.6888759174411203e+18,2.0981201171875,-247.0841522216797,145.30931701660157,-124.79135589599609,1.6888759174431478e+18,2.10014794921875,0.1027714274823665,-0.030438028275966603,-0.6364491283893585,0.7636301517486572,0.4187901616096496,1.3631349802017212,-0.6084879040718079,1.6888759174431444e+18,2.100144205729167,1.1641082167625427,-19.85803476969401,-3.446860949198405
2.15,1.6888759174950482e+18,2.1520482584635414,-0.6158491373062134,-0.17252031962076822,2.6042058865229287,1.6888759174950482e+18,2.1520482584635414,1.3890335117660773,-9.79083220163981,2.3854448000590005,1.6888759174950482e+18,2.1520482584635414,1.9820811748504639,-9.602566719055176,-0.2834745893875758,1.6888759174907187e+18,2.1477188313802085,-0.3614795207977295,-2.115222771962484,0.5448917945226034,1.6888759174950482e+18,2.1520482584635414,-0.27931813647349674,-1.9706003665924072,0.6188064912954966,,,,,,,,,,,,1.6888759174911204e+18,2.148120263671875,8.2471999168396,50.417718505859376,6.221999835968018,1.6888759174911204e+18,2.148120263671875,-247.3793975830078,145.27271728515626,-126.9043975830078,1.6888759174863933e+18,2.143393310546875,0.12731300542751947,-0.08856072028477979,-0.6284342010815939,0.7620806495348612,0.12981193015972767,1.373506983121236,-0.4378586808840434,1.6888759174950482e+18,2.1520482584635414,1.3663017190992832,-9.775278727213541,2.3208386103312173
2.2,1.6888759175469494e+18,2.2039491373697917,0.05004910628000895,1.4640002250671387,-0.6476079026858012,1.6888759175469494e+18,2.2039491373697917,2.42512575785319,-8.073583126068115,-0.7569295763969421,1.6888759175469494e+18,2.2039491373697917,2.3522752126057944,-9.521838188171387,-0.17403517166773472,1.6888759175426253e+18,2.199625325520833,0.3701334372162819,-1.5929838418960571,0.6426302393277487,1.6888759175469494e+18,2.2039491373697917,0.43478333950042725,-1.6555975278218586,0.6068946321805319,,,,,,,,,,,,1.6888759175411185e+18,2.19811826171875,5.192319869995117,50.92523880004883,6.407439708709717,1.6888759175411185e+18,2.19811826171875,-250.43427429199218,145.78023681640624,-126.71895599365234,1.6888759175383002e+18,2.195300211588542,0.15505998830000559,-0.11746650189161294,-0.6085402369499207,0.7692060867945353,0.034175620724757466,1.3368954261144002,-0.4247587323188782,1.6888759175469494e+18,2.2039491373697917,2.4023939768473306,-8.058029651641846,-0.8215357859929403
2.25,1.6888759175988467e+18,2.2558467610677084,1.4726850986480713,1.2062721252441406,-1.9617876211802165,1.6888759175988467e+18,2.2558467610677084,4.0765721797943115,-8.267800649007162,-2.226720849672953,1.6888759175988467e+18,2.2558467610677084,2.581085681915283,-9.458327611287435,-0.32964673638343805,1.6888759175945254e+18,2.251525390625,0.8203920125961304,-1.6446528434753418,0.3249803086121877,1.6888759175988467e+18,2.2558467610677084,0.7900523940722147,-1.5996524492899578,0.31286482016245526,,,,,,,,,,,,1.6888759175911183e+18,2.248118408203125,3.3452399730682374,50.52751846313477,8.769359970092774,1.6888759175911183e+18,2.248118408203125,-252.28135375976564,145.38251342773438,-124.35703887939454,1.6888759175901993e+18,2.2471993815104168,0.1976942867040634,-0.13900372882684067,-0.5937040646870931,0.767422636349996,0.08251757919788356,1.3105831543604534,-0.5675253669420878,1.6888759175988467e+18,2.2558467610677084,4.053840398788452,-8.252247333526611,-2.2913270394007363
2.3000000000000003,1.6888759176421002e+18,2.299100341796875,0.9215933084487915,3.0375542640686035,1.6511135697364807,1.6888759176421002e+18,2.299100341796875,3.6475590467453003,-6.40229606628418,1.3782658874988556,1.6888759176421002e+18,2.299100341796875,2.7031643390655518,-9.424105167388916,-0.337561085820198,1.688875917646423e+18,2.3034229329427087,0.02596177098651727,-1.1255191961924236,0.15266540398200348,1.6888759176421002e+18,2.299100341796875,0.05574145540595055,-1.1904236674308777,0.16798794269561765,,,,,,,,,,,,1.6888759176411197e+18,2.2981196777343746,2.134999966621399,50.46407928466797,10.050359916687011,1.6888759176411197e+18,2.2981196777343746,-253.49159240722656,145.31907653808594,-123.07603912353515,1.688875917642098e+18,2.29909814453125,0.22918181121349326,-0.15843664109706873,-0.5824962258338928,0.7635475794474283,0.09220923980077107,1.2950088580449421,-0.6529773871103922,1.6888759176421002e+18,2.299100341796875,3.6248271465301514,-6.386742830276489,1.3136595785617828
2.35,1.6888759176853435e+18,2.34234375,2.1911749045054116,3.224332809448242,2.4010413885116577,1.6888759176853435e+18,2.34234375,4.950550715128581,-6.210371653238933,2.299303094546,1.6888759176853435e+18,2.34234375,2.736574411392212,-9.418959299723307,-0.1664518192410469,1.6888759176983232e+18,2.3553229166666667,-0.24414246777693424,-0.3925827344258626,-0.16025031233827272,1.6888759176853435e+18,2.34234375,-0.22586742540200552,-0.5168938140074412,-0.07401650895675023,,,,,,,,,,,,1.68887591769112e+18,2.348120166015625,1.8690399646759033,50.432360076904295,9.650199890136719,1.68887591769112e+18,2.348120166015625,-253.75755310058594,145.2873565673828,-123.4761978149414,1.6888759176940004e+18,2.3510004069010417,0.23649149636427558,-0.17549579342206315,-0.5765427152315775,0.7621419429779053,0.018844859441742298,1.2935869296391804,-0.6159571607907613,1.6888759176853435e+18,2.34234375,4.927818775177002,-6.194818496704102,2.234696904818217
2.4000000000000004,1.6888759177372506e+18,2.3942504069010417,2.063736915588379,1.93326203028361,-0.5796249707539877,1.6888759177372506e+18,2.3942504069010417,4.737390041351318,-7.527421156565349,-0.5126622517903646,1.6888759177372506e+18,2.3942504069010417,2.6508517265319824,-9.444938023885092,0.002249229388932366,1.688875917750228e+18,2.4072280273437503,-0.16849699616432182,-0.4263839324315389,-0.2563597857952118,1.6888759177372506e+18,2.3942504069010417,-0.19822577138741806,-0.3807726701100667,-0.2460768868525823,,,,,,,,,,,,1.6888759177411174e+18,2.3981174804687497,2.3423999547958374,50.92279891967773,8.98652000427246,1.6888759177411174e+18,2.3981174804687497,-253.28419494628906,145.77779846191407,-124.13987731933594,1.6888759177458947e+18,2.402894612630208,0.23672994971275327,-0.18734009067217505,-0.577154278755188,0.7587772409121195,-0.04198722417155897,1.3038070996602376,-0.5727587342262268,1.6888759177372506e+18,2.3942504069010417,4.714658260345459,-7.511868000030518,-0.5772684415181478
2.45,1.6888759177891523e+18,2.4461521809895834,2.6323249340057373,0.7989939053853353,-1.2404861847559612,1.6888759177891523e+18,2.4461521809895834,5.186642487843831,-8.693323930104574,-1.0360922118028004,1.6888759177891523e+18,2.4461521809895834,2.531516154607137,-9.476572672526041,0.13968053708473835,1.6888759177934735e+18,2.450473388671875,-0.1435533314943313,-0.6159048974514008,-0.25305092334747314,1.6888759177891523e+18,2.4461521809895834,-0.14670946945746732,-0.5867869853973389,-0.24953845640023545,1.6888759178151025e+18,2.4721025390625,0.0,0.0,1.347071647644043,58.3380012512207,0.0002442166442051,0.0,34.36890980587159,-122.7499304,49.1920471,1.6888759177911235e+18,2.4481234375,2.7035199642181396,50.80811996459961,8.898679733276367,1.6888759177911235e+18,2.4481234375,-252.9230712890625,145.66311950683593,-124.22771759033203,1.688875917797802e+18,2.4548018391927084,0.24085029462973273,-0.20125336945056915,-0.5777387817700704,0.7534475723902384,-0.09911526491244631,1.3153622945149739,-0.5421863993008932,1.6888759177891523e+18,2.4461521809895834,5.163910706837972,-8.677770773569742,-1.1006984114646912
2.5,1.688875917841051e+18,2.4980507812500004,5.792683283487956,-1.2204869588216145,0.7680912812550863,1.688875917841051e+18,2.4980507812500004,8.27218755086263,-10.730214754740397,1.0863414804140727,1.688875917841051e+18,2.4980507812500004,2.4567028681437177,-9.493982632954916,0.25353674093882234,1.688875917836729e+18,2.4937289225260417,-0.03950261821349459,-0.42704570790131885,-0.16147204736868537,1.688875917841051e+18,2.4980507812500004,-0.026928973694642366,-0.3706424882014592,-0.18387043972810105,,,,,,,,,,,,1.6888759178411185e+18,2.49811845703125,3.057319927215576,50.74223861694336,8.557079887390136,1.6888759178411185e+18,2.49811845703125,-252.56927490234375,145.59723510742188,-124.56931915283204,1.6888759178497032e+18,2.5067029622395833,0.24602434535821274,-0.21256837745507554,-0.5771638949712118,0.7491081158320109,-0.14074481030305222,1.3224317232767742,-0.5250680446624756,1.688875917841051e+18,2.4980507812500004,8.249455769856771,-10.714661280314127,1.021735241015752
2.5500000000000003,1.688875917892951e+18,2.549950927734375,4.655037720998129,-1.0165707270304363,2.628404458363851,1.688875917892951e+18,2.549950927734375,6.91765038172404,-10.580663045247396,2.8901309172312417,1.688875917892951e+18,2.549950927734375,2.2398113409678144,-9.548347155253092,0.1970129758119583,1.6888759178886246e+18,2.5456245930989585,0.2846632053454717,-0.153276273359855,-0.6247115135192871,1.688875917892951e+18,2.549950927734375,0.3022255897521972,-0.17404568940401074,-0.6419684886932373,,,,,,,,,,,,1.6888759178911165e+18,2.5481166015625,4.001599931716919,50.46407928466797,8.766919898986817,1.6888759178911165e+18,2.5481166015625,-251.6249969482422,145.31907653808594,-124.3594757080078,1.6888759178929485e+18,2.5499486083984375,0.24840187281370157,-0.21496027708053583,-0.5849587917327881,0.7415525317192078,-0.125400960445404,1.3438469171524048,-0.5467161238193512,1.688875917892951e+18,2.549950927734375,6.894918600718181,-10.565109570821127,2.825524648030599
2.6,1.6888759179448527e+18,2.6018527018229167,2.0870099862416587,-5.4020382563273115,2.3501928647359214,1.6888759179448527e+18,2.6018527018229167,4.0259241461753845,-15.037693977355957,2.5357938210169473,1.6888759179448527e+18,2.6018527018229167,1.916112740834554,-9.61991055806478,0.1208874881267547,1.6888759179405302e+18,2.5975301920572917,-0.009315694371859204,0.504523773988088,-0.656069278717041,1.6888759179448527e+18,2.6018527018229167,-0.04489859441916146,0.6171266090435287,-0.6111706892649332,,,,,,,,,,,,1.6888759179411205e+18,2.5981203613281254,6.00483980178833,50.27131958007813,9.293959808349609,1.6888759179411205e+18,2.5981203613281254,-249.62175598144532,145.126318359375,-123.83243713378906,1.6888759179362015e+18,2.5932014160156247,0.24799357851346335,-0.21618177493413285,-0.5963726242383321,0.7321635683377584,-0.10630621761083599,1.3732319672902424,-0.5659577051798502,1.6888759179448527e+18,2.6018527018229167,4.003192355235417,-15.022140185038248,2.471187631289164
2.6500000000000004,1.6888759179967521e+18,2.65375244140625,-4.598359823226929,1.816848913828532,-3.673865636189779,1.6888759179967521e+18,2.65375244140625,-2.6536402702331543,-7.8179497718811035,-3.503890037536621,1.6888759179967521e+18,2.65375244140625,1.9219181934992473,-9.619053522745768,0.10526216775178905,1.6888759179924316e+18,2.649431640625,-0.10700323184331258,0.9458230137825012,0.33857206006844837,1.6888759179967521e+18,2.65375244140625,-0.03558289508024848,1.0254900455474854,0.31938071300586063,,,,,,,,,,,,1.6888759179911183e+18,2.64811826171875,7.129679870605469,49.87847900390625,8.9962797164917,1.6888759179911183e+18,2.64811826171875,-248.49691772460938,144.7334777832031,-124.13011627197265,1.6888759179881021e+18,2.64510205078125,0.2312694042921066,-0.20388138294219968,-0.603383203347524,0.7354078690210978,-0.10968005408843352,1.379813273747762,-0.5188386837641398,1.6888759179967521e+18,2.65375244140625,-2.6763720512390137,-7.802396456400554,-3.5684962272644043
2.7,1.6888759180486505e+18,2.705650716145833,-1.418502648671468,3.7049050331115723,0.45699119567871094,1.6888759180486505e+18,2.705650716145833,0.15174484749635062,-5.9864433606465655,0.14576280117034912,1.6888759180486505e+18,2.705650716145833,1.5474460522333782,-9.675603230794271,-0.3759418725967407,1.6888759180443308e+18,2.7013306477864583,0.7819584210713705,2.76752499739329,-1.2764029304186504,1.6888759180486505e+18,2.705650716145833,0.7614435354868571,3.0119219621022544,-1.3697125911712646,,,,,,,,,,,,1.6888759180411203e+18,2.698120458984375,7.829959774017334,50.03219909667969,9.44523983001709,1.6888759180411203e+18,2.698120458984375,-247.7966339111328,144.88719787597657,-123.68115844726563,1.6888759180400018e+18,2.697001953125,0.21116173764069876,-0.16604087253411612,-0.6234389940897623,0.7339397072792053,0.12782467156648636,1.4008945226669312,-0.6699557503064474,1.6888759180486505e+18,2.705650716145833,0.12901297708352422,-5.970889965693156,0.081156591574351
2.75,1.6888759181005558e+18,2.757555989583333,-3.3137571016947427,-0.07745583852132164,-1.8492643038431804,1.6888759181005558e+18,2.757555989583333,-2.6578278144200644,-9.854242006937662,-2.495714028676351,1.6888759181005558e+18,2.757555989583333,0.6331278582413992,-9.761041005452475,-0.7111632426579794,1.6888759180962378e+18,2.75323779296875,-0.15887587765852607,3.915289878845215,-1.4379258553187053,1.6888759181005558e+18,2.757555989583333,-0.2690352499485016,3.820249398549398,-1.3678800264994304,,,,,,,,,,,,1.6888759180911148e+18,2.748114697265625,13.395599555969238,49.187958526611325,9.247599601745605,1.6888759180911148e+18,2.748114697265625,-242.23099365234376,144.04295654296874,-123.87879791259766,1.6888759180919027e+18,2.7489027506510415,0.1507732917865117,-0.09673484911521273,-0.672270933787028,0.7176992495854696,0.7230850557486216,1.4697296222050984,-1.0755508740743,1.6888759181005558e+18,2.757555989583333,-2.680559595425924,-9.838688532511393,-2.5603202184041343
2.8000000000000003,1.688875918143807e+18,2.800806884765625,0.8317081332206726,1.5551185607910156,-1.2107771337032318,1.688875918143807e+18,2.800806884765625,0.972084179520607,-8.257331848144531,-1.6316059827804565,1.688875918143807e+18,2.800806884765625,0.11757449898868795,-9.79670524597168,-0.48554229736328125,1.6888759181481336e+18,2.8051337076822915,-0.7273368835449219,2.4198917547861734,-1.0151053468386333,1.688875918143807e+18,2.800806884765625,-0.7453319430351257,2.669252038002014,-0.9043859839439392,,,,,,,,,,,,1.68887591814112e+18,2.7981199707031252,17.541159248352052,48.085079193115234,5.285039949417114,1.68887591814112e+18,2.7981199707031252,-238.08544006347657,142.94007568359376,-127.84135589599609,1.6888759181438067e+18,2.8008068847656253,0.08012115334471061,-0.0508924064536889,-0.7015737493832906,0.7059849301973978,1.412818431854248,1.5270893971125286,-1.5984457731246948,1.688875918143807e+18,2.800806884765625,0.9493523836135864,-8.241778373718262,-1.696212112903595
2.85,1.6888759181870574e+18,2.844057373046875,-2.0002300341924033,2.455934206644694,-2.1157979170481362,1.6888759181870574e+18,2.844057373046875,-2.4161526759465537,-7.355536778767903,-2.262214422225952,1.6888759181870574e+18,2.844057373046875,-0.4387241055568059,-9.79572582244873,-0.21112990876038865,1.688875918200034e+18,2.857033935546875,-0.5193881740172704,0.980998694896698,-1.299972136815389,1.6888759181870574e+18,2.844057373046875,-0.6258823474248251,1.1164580782254536,-1.2903000911076863,,,,,,,,,,,,1.688875918191116e+18,2.848116064453125,21.459799575805665,47.3359992980957,1.9471199989318848,1.688875918191116e+18,2.848116064453125,-234.1667938232422,142.19100036621094,-131.1792755126953,1.6888759181957015e+18,2.8527014160156248,0.0395060324420531,-0.0364461243152618,-0.7258258660634359,0.6856759985287985,0.8591353098551431,1.5127512216567993,1.1277474562327068,1.6888759181870574e+18,2.844057373046875,-2.4388844966888428,-7.339983622233073,-2.3268206119537354
2.9000000000000004,1.6888759182389583e+18,2.8959584147135415,1.8179858525594075,1.1046902338663738,-2.795034964879354,1.6888759182389583e+18,2.8959584147135415,0.6452645460764567,-8.644669850667318,-2.764108896255493,1.6888759182389583e+18,2.8959584147135415,-1.1955228249231975,-9.733614921569824,-0.0337873579313357,1.6888759182432845e+18,2.9002844238281247,0.07345654442906381,1.8034268617630005,-1.826716125011444,1.6888759182389583e+18,2.8959584147135415,0.01898772828280923,1.6314174731572468,-1.714800516764323,,,,,,,,,,,,1.688875918241123e+18,2.898123095703125,24.851399612426757,45.52063903808594,0.13419999480247496,1.688875918241123e+18,2.898123095703125,-230.7751922607422,140.37563781738282,-132.99219970703126,1.688875918247605e+18,2.904604736328125,0.010459659621119466,-0.0169276113932331,-0.7535097996393839,0.6568482716878256,-3.0918867588043213,1.4336613814036052,3.0530800819396973,1.6888759182389583e+18,2.8959584147135415,0.6225326855977378,-8.629116376241049,-2.828715165456136
2.95,1.6888759182908562e+18,2.9478562825520833,2.8891802231470742,0.9788484573364258,-1.7997846603393555,1.6888759182908562e+18,2.9478562825520833,1.0061819553375244,-8.659226417541504,-1.691925009091695,1.6888759182908562e+18,2.9478562825520833,-1.905799667040507,-9.622329711914062,0.04314611972464863,1.688875918286535e+18,2.943534993489583,0.1287907510995865,1.9144007762273152,-1.095230499903361,1.6888759182908562e+18,2.9478562825520833,0.0951931675275167,1.820785681406657,-0.9791151881217957,,,,,,,,,,,,1.6888759182911214e+18,2.948121435546875,28.61631965637207,43.951718139648435,-1.8519599676132201,1.6888759182911214e+18,2.948121435546875,-227.0102752685547,138.8067169189453,-134.97835388183594,1.688875918299509e+18,2.9565090332031247,-0.0257489026213685,0.018926383306582698,-0.7740413943926493,0.6322279771169027,-3.062102715174357,1.3696614901224773,3.1256275177001953,1.6888759182908562e+18,2.9478562825520833,0.9834500749905905,-8.643672943115234,-1.7565311988194783
3.0,1.688875918342755e+18,2.999754801432292,2.643631895383199,-0.02323436737060547,-2.425808588663737,1.688875918342755e+18,2.999754801432292,0.43389848868052167,-9.585647583007812,-2.0666011571884155,1.688875918342755e+18,2.999754801432292,-2.232534885406494,-9.54666805267334,0.2944939533869425,1.688875918338436e+18,2.9954361165364585,-0.4810563921928406,1.040150801340739,-0.7716755370299021,1.688875918342755e+18,2.999754801432292,-0.52228977282842,1.0807224313418071,-0.828282376130422,1.6888759183341117e+18,2.99111181640625,0.0,0.0,1.347071647644043,58.37099838256836,0.0003152980061713,0.0,34.36890980587159,-122.7499302,49.1920474,1.6888759183411226e+18,2.998122412109375,29.828999328613282,42.83419952392578,-3.9723199367523194,1.6888759183411226e+18,2.998122412109375,-225.79759521484374,137.68919677734374,-137.09871826171874,1.6888759183427612e+18,2.99976123046875,-0.0477334856986999,0.02925743721425525,-0.7820543646812439,0.6206557750701904,-2.9735199213027954,1.340496301651001,3.0831886529922485,1.688875918342755e+18,2.999754801432292,0.4111666679382324,-9.570094108581543,-2.1312073469161987
3.0500000000000003,1.6888759183946568e+18,3.0516565755208336,2.233778198560079,-1.5651315053304036,-5.698378245035808,1.6888759183946568e+18,3.0516565755208336,-0.34536407391230267,-11.009377161661783,-4.888935565948486,1.6888759183946568e+18,3.0516565755208336,-2.6019438107808432,-9.428500493367514,0.7447292804718018,1.6888759183903332e+18,3.0473330891927084,-0.6984734932581583,0.9648616711298624,-0.6274095252156258,1.6888759183946568e+18,3.0516565755208336,-0.6788240075111389,0.8559749523798624,-0.5104797029246887,,,,,,,,,,,,1.6888759183911194e+18,3.048119384765625,31.29787940979004,41.565398406982425,-7.0198798179626465,1.6888759183911194e+18,3.048119384765625,-224.3287139892578,136.42040100097657,-140.14627685546876,1.68887591838601e+18,3.04301025390625,-0.07613803694645556,0.035623479634523364,-0.7927652994791666,0.6036280989646912,-2.8519581953684487,1.2962514559427898,3.0116991996765137,1.6888759183946568e+18,3.0516565755208336,-0.36809587478637695,-10.993823687235514,-4.9535417556762695
3.1,1.6888759184465605e+18,3.1035603841145836,3.5584147771199546,-1.9256951014200847,-7.16905419031779,1.6888759184465605e+18,3.1035603841145836,1.0456635157267253,-11.38066323598226,-6.265805562337239,1.6888759184465605e+18,3.1035603841145836,-2.5355528195699057,-9.439222971598307,0.8385350108146667,1.688875918442236e+18,3.099236083984375,0.0788525293270747,-0.1233438750108083,0.30660345156987506,1.6888759184465605e+18,3.1035603841145836,0.1529708355665207,-0.06347908576329546,0.3473277986049652,,,,,,,,,,,,1.6888759184411182e+18,3.0981183105468753,31.57603988647461,41.187198638916016,-8.08859987258911,1.6888759184411182e+18,3.0981183105468753,-224.05055236816406,136.04219970703124,-141.21499328613282,1.6888759184379113e+18,3.0949110514322915,-0.08531541874011354,0.03224214911460873,-0.7928343415260315,0.6025621294975281,-2.7856419881184897,1.290512998898824,2.9537402788798013,1.6888759184465605e+18,3.1035603841145836,1.022931694984436,-11.36510976155599,-6.3304117520650225
3.1500000000000004,1.6888759184984545e+18,3.1554545084635417,0.4779882033665975,-3.2766103744506836,-3.808539390563965,1.6888759184984545e+18,3.1554545084635417,-1.4691931307315826,-12.882757504781088,-3.219144105911255,1.6888759184984545e+18,3.1554545084635417,-1.9699828227361043,-9.590401967366537,0.524681806564331,1.688875918494135e+18,3.1511350911458336,0.6900232036908468,-0.8033895989259084,1.7501798470815022,1.6888759184984545e+18,3.1554545084635417,0.7459682822227478,-1.0212139909466107,1.903354287147522,,,,,,,,,,,,1.6888759184911204e+18,3.1481205078125,30.019319534301758,42.39255905151367,-7.13455982208252,1.6888759184911204e+18,3.1481205078125,-225.60727233886718,137.24755859375,-140.26095886230468,1.6888759184898143e+18,3.1468144531249997,-0.07525623589754103,0.037430631617705,-0.7783348361651102,0.6220041116078695,-2.8254860242207847,1.3427979548772175,2.9861032962799072,1.6888759184984545e+18,3.1554545084635417,-1.4919249316056569,-12.867204348246256,-3.283750295639038
3.2,1.6888759185503578e+18,3.207357666015625,-2.294778138399124,-3.952238082885742,-3.637038787206014,1.6888759185503578e+18,3.207357666015625,-3.0374889274438224,-13.735400199890137,-3.802195151646932,1.6888759185503578e+18,3.207357666015625,-0.7655122478802997,-9.767416954040527,-0.22986974194645882,1.688875918546037e+18,3.203037027994792,1.3529647588729858,-2.5218044916788735,2.604118585586548,1.6888759185503578e+18,3.207357666015625,1.3170255025227864,-2.5145249366760254,2.6644414265950522,,,,,,,,,,,,1.6888759185411182e+18,3.1981183105468753,25.31987953186035,45.31079940795898,-3.164679968357086,1.6888759185411182e+18,3.1981183105468753,-230.3067169189453,140.1657958984375,-136.29107666015625,1.6888759185417124e+18,3.1987124837239587,-0.021269567310810065,0.024653841430942198,-0.7410457928975424,0.6700866421063741,0.9426678021748862,1.4671531518300374,-0.8775718212127686,1.6888759185503578e+18,3.207357666015625,-3.0602207283178964,-13.719846725463867,-3.8668014208475747
3.25,1.688875918593613e+18,3.2506131591796876,3.125097155570984,-7.56523323059082,-1.9075890183448792,1.688875918593613e+18,3.2506131591796876,3.710968852043152,-17.363816261291504,-2.1798614263534546,1.688875918593613e+18,3.2506131591796876,0.5630703866481781,-9.782837867736816,-0.3369858711957931,1.6888759185979392e+18,3.2549390462239582,-1.7893770337104797,0.04332049687703451,2.9977193673451743,1.688875918593613e+18,3.2506131591796876,-1.4406492859125137,0.2615267038345337,3.219565272331238,,,,,,,,,,,,1.6888759185911158e+18,3.2481155761718754,18.504959869384766,48.282719421386716,0.5904799818992614,1.6888759185911158e+18,3.2481155761718754,-237.12163391113282,143.1377197265625,-132.53591613769532,1.688875918593613e+18,3.2506129557291668,0.009233558860917868,0.0040391366152713664,-0.6866890788078308,0.7263829906781515,0.6152919183174769,1.4963682889938354,-0.6226377238829931,1.688875918593613e+18,3.2506131591796876,3.688236951828003,-17.34826374053955,-2.244467616081238
3.3000000000000003,1.6888759186368635e+18,3.293863606770833,-4.210286617279053,-6.171368598937988,1.357559432586034,1.6888759186368635e+18,3.293863606770833,-2.867997328440348,-15.831911404927572,2.507079909245173,1.6888759186368635e+18,3.293863606770833,1.3194879293441772,-9.644797643025717,1.08480699857076,1.6888759186498378e+18,3.3068378906249998,-2.649780790011088,-5.242547353108724,1.5181528329849243,1.6888759186368635e+18,3.293863606770833,-3.1634674866994223,-4.286899626255035,1.5407548745473225,,,,,,,,,,,,1.6888759186411205e+18,3.2981206054687497,12.773399734497072,49.71499938964844,-5.265519809722901,1.6888759186411205e+18,3.2981206054687497,-242.8531951904297,144.56999816894532,-138.3919189453125,1.6888759186455094e+18,3.30250927734375,-0.004640003200620433,-0.09506581102808309,-0.6470945080121359,0.7548619707425436,-0.7897006273269653,1.3614228963851929,0.6607006390889486,1.6888759186368635e+18,3.293863606770833,-2.8907292683919272,-15.81635856628418,2.4424737095832825
3.35,1.6888759186887647e+18,3.3457644042968746,-4.893851240475972,0.07792075475056966,1.4538977146148682,1.6888759186887647e+18,3.3457644042968746,-2.9194430112838745,-9.301499843597412,3.678366502126058,1.6888759186887647e+18,3.3457644042968746,1.9516067902247112,-9.363675435384115,2.159755309422811,1.6888759186930908e+18,3.3500909423828125,0.1098030284047127,-2.0511327981948853,2.66505229473114,1.6888759186887647e+18,3.3457644042968746,-0.3001384387413661,-2.4579690297444663,2.5601362387339273,,,,,,,,,,,,1.6888759186911165e+18,3.348116455078125,9.189039993286134,49.98339920043945,-7.4785998344421385,1.6888759186911165e+18,3.348116455078125,-246.43755493164062,144.83839721679686,-140.60499877929686,1.6888759186974154e+18,3.3544153645833332,0.04301775246858589,-0.18245118359724677,-0.5997475584348043,0.7775643269220988,-0.8322822054227194,1.2489879926045735,0.5076925357182821,1.6888759186887647e+18,3.3457644042968746,-2.942174792289734,-9.285946369171143,3.613760312398275
3.4000000000000004,1.688875918740665e+18,3.3976650390625003,-9.312619845072428,11.261433919270834,-1.9886684815088909,1.688875918740665e+18,3.3976650390625003,-6.476972262064616,2.2107687989870706,0.645264521241188,1.688875918740665e+18,3.3976650390625003,2.8128462632497153,-9.034919738769531,2.5692195097605386,1.688875918736341e+18,3.393341145833334,-0.37690385555227596,-3.0034207503000894,2.541912078857422,1.688875918740665e+18,3.3976650390625003,-0.464461217323939,-3.0498464902242026,2.57566237449646,,,,,,,,,,,,1.6888759187411205e+18,3.39812041015625,3.20371994972229,50.73979873657227,-6.8515198707580565,1.6888759187411205e+18,3.39812041015625,-252.4228759765625,145.59479675292968,-139.97791748046876,1.6888759187493117e+18,3.4063118489583335,0.09210655341545737,-0.23906443516413367,-0.5423101385434469,0.7996113300323486,-0.7624560395876566,1.1484836339950562,0.27836988369623816,1.688875918740665e+18,3.3976650390625003,-6.499704043070476,2.226322034994761,0.5806583066781362
3.45,1.688875918792566e+18,3.44956591796875,-3.7034925619761148,10.801116307576498,-0.8988419373830158,1.688875918792566e+18,3.44956591796875,-0.15992029507954916,2.273380935192108,2.531606301665306,1.688875918792566e+18,3.44956591796875,3.520770788192749,-8.511990229288736,3.3657347361246743,1.6888759187882386e+18,3.445238525390625,-0.6573419024546941,-2.2630521059036255,2.1485148668289185,1.688875918792566e+18,3.44956591796875,-0.5689700574924549,-2.168011705080668,1.9273817141850789,,,,,,,,,,,,1.6888759187911194e+18,3.44811923828125,-2.967039942741394,50.52751770019531,-9.042639827728271,1.6888759187911194e+18,3.44811923828125,-258.5936340332031,145.38251953125,-142.16903686523438,1.6888759187925645e+18,3.4495644531250003,0.1211359985172748,-0.28872671723365784,-0.48727178573608393,0.8151018917560577,-0.7776266932487488,1.0440155267715454,0.16780599206686014,1.688875918792566e+18,3.44956591796875,-0.18265212575594592,2.288934330145518,2.4670001020034156
3.5,1.68887591884446e+18,3.501460123697916,0.5226093133290609,6.521583239237468,-0.14512189229329422,1.68887591884446e+18,3.501460123697916,3.700101375579834,-2.0518454114596048,3.5190444787343345,1.68887591884446e+18,3.501460123697916,3.154690663019816,-8.557683308919271,3.5994528929392495,1.688875918840143e+18,3.4971429850260414,0.6450736820697784,-1.3501649101575215,-1.3278173704942067,1.68887591884446e+18,3.501460123697916,0.7259624302387238,-1.2536481817563374,-1.5622878869374592,1.6888759188531164e+18,3.510116455078125,0.0,0.0,1.358263611793518,58.37900161743164,0.000602830084972,0.0,34.36890980587159,-122.7499303,49.192048,1.6888759188411205e+18,3.4981205566406253,-2.376559942960739,50.53971862792969,-9.210999870300293,1.6888759188411205e+18,3.4981205566406253,-258.00315246582034,145.39471740722655,-142.33739318847657,1.6888759188358136e+18,3.492813802083333,0.1408279091119766,-0.318281610806783,-0.48227186997731525,0.8037888407707214,-0.8481316367785136,1.0452170372009277,0.16239585975805917,1.68887591884446e+18,3.501460123697916,3.6773695945739746,-2.036292095979055,3.4544382890065513
3.5500000000000003,1.6888759188963676e+18,3.553367594401042,9.932056983311972,-4.415797710418701,0.49190711975097656,1.6888759188963676e+18,3.553367594401042,12.152149359385172,-13.372688134511312,3.93958314259847,1.6888759188963676e+18,3.553367594401042,2.1972907384236655,-8.941145261128744,3.3829625447591147,1.6888759188920435e+18,3.5490436197916666,0.3694716493288676,-0.23187426726023355,-1.2669853766759236,1.6888759188963676e+18,3.553367594401042,0.1412626107533773,-0.3420336302369833,-0.8520042896270752,,,,,,,,,,,,1.688875918891117e+18,3.5481170898437497,3.6038798809051515,50.94963836669922,-7.254119968414306,1.688875918891117e+18,3.5481170898437497,-252.02271118164063,145.80463562011718,-140.3805145263672,1.6888759188877156e+18,3.5447155761718747,0.15075486898422238,-0.3325560887654622,-0.5260520776112875,0.7679776151974996,-1.0035101373990376,1.1391539176305134,0.28861449162165326,1.6888759188963676e+18,3.553367594401042,12.129417578379313,-13.35713497797648,3.874976913134257
3.6,1.688875918948268e+18,3.60526806640625,8.591055552164713,-7.235230763753255,7.090251445770264,1.688875918948268e+18,3.60526806640625,10.909277280171713,-15.798810958862305,11.375478744506836,1.688875918948268e+18,3.60526806640625,2.2954204082489014,-8.547835032145182,4.220513820648193,1.6888759189439398e+18,3.600939860026042,-1.4938200414180756,-3.4282267093658447,1.8062266906102498,1.688875918948268e+18,3.60526806640625,-1.3656401832898457,-3.32504141330719,1.7381152709325154,,,,,,,,,,,,1.6888759189411205e+18,3.5981204589843747,2.525399935245514,50.412838745117185,-9.92103967666626,1.6888759189411205e+18,3.5981204589843747,-253.1011962890625,145.26784057617186,-143.0474365234375,1.6888759189396175e+18,3.596617594401042,0.16288890441258744,-0.3782171110312144,-0.49256641666094464,0.7659513354301453,-1.0727843443552654,1.07343856493632,0.2604106416304906,1.688875918948268e+18,3.60526806640625,10.886545181274414,-15.783257643381754,11.310872713724772
3.6500000000000004,1.688875919000165e+18,3.6571652018229166,-10.449150085449219,-3.3990092277526855,2.700136343638102,1.688875919000165e+18,3.6571652018229166,-7.945367654164632,-11.681361039479574,7.426524003346761,1.688875919000165e+18,3.6571652018229166,2.4809811115264897,-8.266606648763021,4.66167418162028,1.6888759189958418e+18,3.652841878255208,-0.9987646738688151,1.373988668123881,-0.20514889558156332,1.688875919000165e+18,3.6571652018229166,-1.0204503734906514,1.550426870584488,-0.3793473293383916,,,,,,,,,,,,1.6888759189911206e+18,3.648120556640625,0.1024800032377243,50.25667877197266,-12.41227970123291,1.6888759189911206e+18,3.648120556640625,-255.52411499023438,145.11167907714844,-145.53867797851564,1.688875918991519e+18,3.6485188802083335,0.1679832935333251,-0.4095441500345866,-0.45878971616427094,0.7702598373095194,-1.0986498196919758,1.0058287978172302,0.22015157341957092,1.688875919000165e+18,3.6571652018229166,-7.968099594116211,-11.665807882944742,7.361917654673259
3.7,1.6888759190434196e+18,3.700419677734375,-0.9925653934478764,-4.763797283172607,-8.73484182357788,1.6888759190434196e+18,3.700419677734375,1.3229317665100102,-13.184751987457275,-4.167100667953491,1.6888759190434196e+18,3.700419677734375,2.2926957607269287,-8.4052095413208,4.50302791595459,1.6888759190477458e+18,3.7047458496093753,1.3504703640937805,2.0487401882807412,-2.586912433306376,1.6888759190434196e+18,3.700419677734375,1.268308937549591,1.3645202219486234,-2.17506206035614,,,,,,,,,,,,1.688875919041123e+18,3.6981229980468746,1.2443999528884888,49.495398712158206,-12.858799743652344,1.688875919041123e+18,3.6981229980468746,-254.38219299316407,144.35039367675782,-145.98519592285157,1.6888759190434194e+18,3.7004193522135416,0.13287237286567685,-0.38256988922754925,-0.4895811975002289,0.771780530611674,-1.1142393747965496,1.0310885508855183,0.3382107714811961,1.6888759190434196e+18,3.700419677734375,1.3001999855041504,-13.169198513031006,-4.231706857681274
3.75,1.6888759190866698e+18,3.743669921875,-3.593910296758016,-0.2149314880371093,-2.7483455737431846,1.6888759190866698e+18,3.743669921875,-2.360320190588633,-9.278368949890137,0.8582257429758707,1.6888759190866698e+18,3.743669921875,1.2107885678609211,-9.04769229888916,3.541857878367106,1.6888759190996406e+18,3.756640462239583,0.8038477463026842,4.711043834686279,-5.42534875869751,1.6888759190866698e+18,3.743669921875,1.3762284914652507,4.762712637583415,-5.477068583170573,,,,,,,,,,,,1.6888759190911206e+18,3.7481205078125,9.569679737091064,49.20015869140625,-9.84539966583252,1.6888759190911206e+18,3.7481205078125,-246.05691223144532,144.0551544189453,-142.9717987060547,1.6888759190953193e+18,3.7523193359375,0.06822763507564861,-0.2966228822867076,-0.6045403281847636,0.734147310256958,-1.3343876997629802,1.1918023427327473,0.8019719918568929,1.6888759190866698e+18,3.743669921875,-2.3830519914627075,-9.262815793355307,0.7936194886763891
3.8000000000000003,1.6888759191385674e+18,3.7955673014322913,-6.092550595601399,-1.5056289037068684,-4.105419397354126,1.6888759191385674e+18,3.7955673014322913,-6.2247287432352705,-10.742178599039713,-0.7020940482616425,1.6888759191385674e+18,3.7955673014322913,-0.15497950464487076,-9.220804532368978,3.338611920674642,1.6888759191428956e+18,3.7998955078125,-0.5402339398860931,1.7899879217147827,-2.063197433948517,1.6888759191385674e+18,3.7955673014322913,-0.4110613962014516,2.2516493002573648,-2.52302622795105,,,,,,,,,,,,1.6888759191411185e+18,3.7981185058593754,18.299999618530272,46.4039192199707,-12.004799842834473,1.6888759191411185e+18,3.7981185058593754,-237.3265960693359,141.25891723632813,-145.13119812011718,1.688875919147217e+18,3.8042167154947912,-0.009753570115814568,-0.24284050365289048,-0.6755426923433939,0.6959447860717773,-1.6572253704071045,1.2097999652226765,1.320553223292033,1.6888759191385674e+18,3.7955673014322913,-6.24746052424113,-10.726625124613443,-0.766700267791748
3.85,1.6888759191904714e+18,3.8474713541666667,-0.16461284955342612,2.742991288503011,-1.2311219374338787,1.6888759191904714e+18,3.8474713541666667,-1.240678568681081,-6.356134573618571,2.3517459084590278,1.6888759191904714e+18,3.8474713541666667,-1.0988671978314717,-9.083380699157715,3.5181543827056885,1.6888759191861512e+18,3.8431509602864584,-0.47026441991329193,-0.5418883959452311,-2.249969402949015,1.6888759191904714e+18,3.8474713541666667,-0.4915938079357147,-0.7480044858530164,-2.3451117277145386,,,,,,,,,,,,1.6888759191911217e+18,3.84812177734375,22.95551986694336,44.437278747558594,-13.742079734802246,1.6888759191911217e+18,3.84812177734375,-232.67107849121095,139.2922790527344,-146.86847534179688,1.688875919199117e+18,3.8561170247395835,-0.027516085033615367,-0.25158428649107617,-0.7108154892921448,0.6559223333994547,-1.9231222073237102,1.1641907294591267,1.5980981985727947,1.6888759191904714e+18,3.8474713541666667,-1.2634103894233706,-6.340581099192302,2.2871397137641907
3.9000000000000004,1.6888759192423724e+18,3.8993724772135416,7.970728715260823,2.479041258494059,0.22663124402364096,1.6888759192423724e+18,3.8993724772135416,5.615954717000325,-6.329614162445068,3.9262231091658273,1.6888759192423724e+18,3.8993724772135416,-2.377575397491455,-8.79291025797526,3.634878476460775,1.6888759192380488e+18,3.8950487467447914,-0.14691309072077272,0.15663600464661923,-2.4689645767211914,1.6888759192423724e+18,3.8993724772135416,-0.12660182267427444,0.584699809551239,-2.3959662119547525,,,,,,,,,,,,1.688875919241116e+18,3.898115771484375,28.899359130859374,40.76751861572266,-13.62739963531494,1.688875919241116e+18,3.898115771484375,-226.72723388671875,135.62251892089844,-146.75379638671876,1.6888759192423726e+18,3.8993726806640625,-0.0345631577074527,-0.2649325877428055,-0.744129091501236,0.6121746003627777,-2.1534096002578735,1.1035565733909607,1.8169410228729248,1.6888759192423724e+18,3.8993724772135416,5.593222935994466,-6.314060688018799,3.8616169095039368
3.95,1.6888759192942723e+18,3.951272135416667,0.34294176101684576,3.057354132334391,-5.062457005182902,1.6888759192942723e+18,3.951272135416667,-2.4319053888320923,-5.477370421091716,-1.0211370289325712,1.6888759192942723e+18,3.951272135416667,-2.7976485888163247,-8.51897939046224,3.976606607437134,1.688875919289949e+18,3.9469488932291665,-0.12482012746234729,2.451656778653463,-1.8040887117385864,1.6888759192942723e+18,3.951272135416667,-0.13825916312634942,2.296038866043091,-1.7640769879023235,,,,,,,,,,,,1.6888759192911247e+18,3.948124853515625,31.805399322509764,37.539398956298825,-16.46267967224121,1.6888759192911247e+18,3.948124853515625,-223.82119750976562,132.39439697265624,-149.58907470703124,1.6888759192856195e+18,3.942619384765625,-0.08679409076770143,-0.23069189985593155,-0.7659325003623962,0.5933884779612223,-2.1733959515889487,1.0538923740386963,1.9625402291615803,1.6888759192942723e+18,3.951272135416667,-2.4546372095743814,-5.461816946665446,-1.0857433031002681
4.0,1.6888759193461727e+18,4.003172444661458,5.221843242645264,-1.5367552439371746,-1.5745232105255127,1.6888759193461727e+18,4.003172444661458,1.9050857027371724,-9.760523160298666,2.692324241002401,1.6888759193461727e+18,4.003172444661458,-3.3395590782165527,-8.208022753397623,4.202133973439534,1.6888759193418499e+18,3.9988500162760414,-0.45641815662384033,-0.2269873321056366,-1.5321518182754517,1.6888759193461727e+18,4.003172444661458,-0.4668537775675456,-0.34233906865119934,-1.5166256825129192,,,,,,,,,,,,1.6888759193411182e+18,3.998118359375,33.90135955810547,34.67483978271484,-19.15399932861328,1.6888759193411182e+18,3.998118359375,-221.72523803710936,129.52983703613282,-152.2803985595703,1.688875919337524e+18,3.9945236816406253,-0.12128467112779613,-0.2145406603813171,-0.7861831386884054,0.5666102965672811,-2.2179479598999023,0.9952546755472819,2.080289920171102,1.6888759193461727e+18,4.003172444661458,1.8823537528514862,-9.744969685872396,2.6277180512746177
4.05,1.6888759193980774e+18,4.055077473958334,3.8740997314453125,-4.975568771362305,-7.663313865661621,1.6888759193980774e+18,4.055077473958334,0.36111679176489514,-13.002797444661459,-3.18026069800059,1.6888759193980774e+18,4.055077473958334,-3.5357844829559326,-8.011483510335287,4.418339570363362,1.688875919393751e+18,4.050750813802083,-0.18020524581273398,1.3752612719933193,-0.25254187484582263,1.6888759193980774e+18,4.055077473958334,-0.08933903773625688,1.5050701300303142,-0.10002917548020684,1.688875919372124e+18,4.0291240234375,0.0,0.0,1.358263611793518,58.39699935913086,0.0008488384191878,0.0,34.36890980587159,-122.7499304,49.1920484,1.688875919391121e+18,4.04812109375,35.62643890380859,32.43491973876953,-20.50575942993164,1.688875919391121e+18,4.04812109375,-220.00015258789062,127.2899169921875,-153.6321594238281,1.6888759193894234e+18,4.0464233398437495,-0.1358527864019076,-0.2163892189661661,-0.7975033322970072,0.5464079976081848,-2.2499757607777915,0.9490194718043009,2.130272626876831,1.6888759193980774e+18,4.055077473958334,0.3383849983414014,-12.987244606018066,-3.244866927464803
4.1000000000000005,1.688875919449972e+18,4.1069718424479165,6.407151182492574,-3.6727329889933267,-4.778393427530925,1.688875919449972e+18,4.1069718424479165,3.548755407333374,-11.963514963785807,-0.31984059264262515,1.688875919449972e+18,4.1069718424479165,-2.8811970551808677,-8.275036811828613,4.393839200337728,1.6888759194456484e+18,4.1026484375,0.18478673758606112,0.12904525951792797,2.090075413386027,1.688875919449972e+18,4.1069718424479165,0.17954347531000772,0.27840187152226764,2.339817523956299,,,,,,,,,,,,1.6888759194411205e+18,4.09812041015625,34.26248016357422,33.65491981506348,-21.137719345092773,1.6888759194411205e+18,4.09812041015625,-221.36411743164064,128.50991516113282,-154.2641174316406,1.6888759194413253e+18,4.098325358072917,-0.14347788194815317,-0.20370836555957791,-0.7838719487190247,0.5684762597084045,-2.1692524751027427,0.9840890169143677,2.0802807807922363,1.688875919449972e+18,4.1069718424479165,3.5260236263275146,-11.947961807250977,-0.38444678982098884
4.15,1.6888759194932262e+18,4.150226196289062,-5.283261299133301,-11.284039974212646,-0.5843075513839722,1.6888759194932262e+18,4.150226196289062,-6.7489564418792725,-20.006389617919922,3.739383578300476,1.6888759194932262e+18,4.150226196289062,-1.4884966015815735,-8.706604480743408,4.258977651596069,1.6888759194975508e+18,4.154550862630209,1.4608842531840007,0.9188431700070699,2.8091147740681968,1.6888759194932262e+18,4.150226196289062,1.3961325287818909,1.373835951089859,2.830673098564148,,,,,,,,,,,,1.6888759194911186e+18,4.14811875,27.869679260253907,38.659359741210935,-21.65499954223633,1.6888759194911186e+18,4.14811875,-227.75691833496094,133.51435546875,-154.78139953613282,1.6888759194932224e+18,4.150222330729167,-0.1397092938423156,-0.18349626163641605,-0.7373236417770386,0.6345251003901163,-1.9062923987706502,1.0853418111801147,1.8424498240152996,1.6888759194932262e+18,4.150226196289062,-6.771688222885132,-19.99083709716797,3.674777388572693
4.2,1.6888759195364762e+18,4.1934762369791665,-2.280379374821981,-10.45935026804606,3.5336390336354575,1.6888759195364762e+18,4.1934762369791665,-2.699702183405558,-19.585851033528648,7.179066340128581,1.6888759195364762e+18,4.1934762369791665,-0.44212426741917926,-9.110755602518717,3.5807138284047446,1.6888759195494495e+18,4.206449544270833,0.5824599862098694,-1.0775153636932373,4.03461217880249,1.6888759195364762e+18,4.1934762369791665,1.3391184210777283,-1.7020233074824016,3.6790377298990884,,,,,,,,,,,,1.6888759195411195e+18,4.198119580078125,21.769679260253906,43.89803924560547,-17.89007987976074,1.6888759195411195e+18,4.198119580078125,-233.85691833496094,138.75303649902344,-151.0164764404297,1.6888759195451267e+18,4.202126708984375,-0.08135777215162909,-0.18135289847850797,-0.6897439757982889,0.6954823931058248,-1.6163784265518188,1.193027178446452,1.472303032875061,1.6888759195364762e+18,4.1934762369791665,-2.7224339644114175,-19.57029851277669,7.114459991455078
4.25,1.6888759195883743e+18,4.245374104817708,-4.520941654841105,-9.576105435689291,8.945007165273031,1.6888759195883743e+18,4.245374104817708,-3.150948683420817,-18.641284942626953,12.527024904886881,1.6888759195883743e+18,4.245374104817708,1.3471916715304058,-9.049434343973795,3.5173041025797525,1.6888759195927035e+18,4.249703369140625,0.20609067380428314,-0.5209916830062866,3.2892802953720093,1.6888759195883743e+18,4.245374104817708,-0.08806638419628143,-0.2905173301696779,3.3558390935262046,,,,,,,,,,,,1.6888759195911183e+18,4.248118212890626,12.407399749755859,47.53119888305664,-17.333759307861328,1.6888759195911183e+18,4.248118212890626,-243.2191925048828,142.38619689941407,-150.46015625,1.6888759195970273e+18,4.2540275065104165,-0.05986095219850537,-0.19290139277776078,-0.6203229427337646,0.7574215730031332,-1.1717264652252197,1.1600590149561565,0.9791618585586548,1.6888759195883743e+18,4.245374104817708,-3.1736804644266763,-18.625731468200684,12.46241839726766
4.3,1.688875919640278e+18,4.2972780761718745,-1.9506974617640178,-1.1920210520426433,-3.3567846616109214,1.688875919640278e+18,4.2972780761718745,0.3038884798685708,-10.11346435546875,0.1411765217781067,1.688875919640278e+18,4.2972780761718745,2.2317846218744912,-8.90569814046224,3.433247725168864,1.6888759196359475e+18,4.292947347005208,0.9253590106964111,-2.711274524529775,3.2204306920369468,1.688875919640278e+18,4.2972780761718745,0.9697485963503519,-2.389552136262258,3.3804773489634194,,,,,,,,,,,,1.6888759196411208e+18,4.298120654296875,7.654279804229736,48.931758880615234,-14.330119514465332,1.6888759196411208e+18,4.298120654296875,-247.972314453125,143.78675537109376,-147.4565216064453,1.688875919648927e+18,4.305926839192709,0.0167121871684988,-0.2346001863479614,-0.5663130680720011,0.7893856366475424,-0.9612231055895487,1.1234512329101562,0.5945787926514944,1.688875919640278e+18,4.2972780761718745,0.2811566988627116,-10.09791088104248,0.07657033205032349
4.3500000000000005,1.6888759196921787e+18,4.349178629557291,-7.850555260976155,12.249256451924643,-2.6152722040812173,1.6888759196921787e+18,4.349178629557291,-4.415356079737346,3.6269209881623587,0.6871389051278433,1.6888759196921787e+18,4.349178629557291,3.4123977025349936,-8.606590270996094,3.2376976013183594,1.6888759196878482e+18,4.344848388671875,0.8495608568191528,-1.9745201269785564,2.751795212427775,1.6888759196921787e+18,4.349178629557291,0.7705555856227875,-2.145562370618184,2.5196155309677124,,,,,,,,,,,,1.6888759196911135e+18,4.3481134765625,-0.5685199618339538,50.10539932250977,-11.228879737854005,1.6888759196911135e+18,4.3481134765625,-256.1951110839844,144.96039733886718,-144.35527954101562,1.688875919692167e+18,4.3491668701171875,0.0686543304473161,-0.2476096972823143,-0.5139886438846588,0.8182733356952667,-0.765169233083725,1.0660938024520874,0.29898627102375025,1.6888759196921787e+18,4.349178629557291,-4.438087860743205,3.642474412918091,0.6225326855977377
4.4,1.6888759197440812e+18,4.401081217447916,-8.373891989390055,15.61704953511556,-2.0242547194163003,1.6888759197440812e+18,4.401081217447916,-5.105485916137695,7.144968509674072,1.7978073755900066,1.6888759197440812e+18,4.401081217447916,3.245604991912842,-8.4563357035319,3.757348616917928,1.6888759197397558e+18,4.396756022135417,-0.10954850167036052,-3.4777066707611084,0.2782491308947404,1.6888759197440812e+18,4.401081217447916,-0.14701490166286632,-3.509624401728312,0.19130262856682143,,,,,,,,,,,,1.6888759197411215e+18,4.398121484374999,-1.898319935798645,50.24447860717773,-10.81651973724365,1.6888759197411215e+18,4.398121484374999,-257.52492065429686,145.09947814941407,-143.9429168701172,1.6888759197354237e+18,4.392423583984375,0.11061665664116534,-0.3002954920132955,-0.490677813688914,0.8100563089052836,-0.8417514165242513,1.0390545129776,0.22975372771422065,1.6888759197440812e+18,4.401081217447916,-5.128217697143555,7.160521666208903,1.7332011858622234
4.45,1.6888759197959724e+18,4.452972412109375,-1.1884620984395344,7.641955216725667,-1.4162101745605469,1.6888759197959724e+18,4.452972412109375,1.2993026475111644,-0.8480562965075175,2.9256245295206704,1.6888759197959724e+18,4.452972412109375,2.4649632771809897,-8.474266370137533,4.277121225992839,1.6888759197916623e+18,4.448662353515625,0.25300001601378125,-2.7812185287475586,-0.4677191476027171,1.6888759197959724e+18,4.452972412109375,0.3332269961635272,-2.61521585782369,-0.5023348480463028,,,,,,,,,,,,1.6888759197911186e+18,4.4481185546874995,0.6734399914741516,50.39087829589844,-11.58755989074707,1.6888759197911186e+18,4.4481185546874995,-254.95315551757812,145.24587707519532,-144.71395568847657,1.6888759197873306e+18,4.444330647786458,0.14766358335812882,-0.3722942074139913,-0.48116350173950195,0.7795322140057882,-1.036796549956004,1.0360465447107952,0.25446132322152454,1.6888759197959724e+18,4.452972412109375,1.2765708367029827,-0.8325028618176779,2.861018180847168
4.5,1.688875919847881e+18,4.504881103515625,13.802090644836426,-7.408494313557942,4.170257488886516,1.688875919847881e+18,4.504881103515625,15.835501035054525,-15.964115142822266,8.620542287826538,1.688875919847881e+18,4.504881103515625,2.0106082757314048,-8.539875666300455,4.385571161905925,1.688875919843557e+18,4.50055712890625,-0.3741040825843811,-1.186962087949117,-0.10766499737898509,1.688875919847881e+18,4.504881103515625,-0.5898412962754568,-1.2731958627700803,-0.01674788196881612,,,,,,,,,,,,1.688875919841126e+18,4.49812607421875,3.1500399112701416,50.290838623046874,-10.85067958831787,1.688875919841126e+18,4.49812607421875,-252.47655334472657,145.14583740234374,-143.97707824707032,1.6888759198392307e+18,4.496230712890625,0.1715072343746821,-0.4043901761372884,-0.4844675262769063,0.7565075953801473,-1.1423954168955486,1.0587507088979085,0.27340758840243023,1.688875919847881e+18,4.504881103515625,15.812769254048666,-15.948561986287435,8.555936257044474
4.55,1.6888759198997821e+18,4.556782063802083,5.4176249504089355,-1.9907128016153972,8.189334551493326,1.6888759198997821e+18,4.556782063802083,7.369096279144287,-10.286345402399698,13.148759524027506,1.6888759198997821e+18,4.556782063802083,1.928669850031535,-8.279887517293295,4.894711812337239,1.688875919895454e+18,4.5524541015625,-0.17781270047028863,-2.1411335865656533,1.2705487807591755,1.6888759198997821e+18,4.556782063802083,0.011351913213729858,-1.9023870825767517,1.2860240538914998,1.6888759198911283e+18,4.54812841796875,0.0,0.0,1.358263611793518,58.42300033569336,0.0015930077061057,0.0,34.36890980587159,-122.7499306,49.1920491,1.6888759198911188e+18,4.5481189453125,3.1646799564361574,50.04439849853516,-12.851479721069335,1.6888759198911188e+18,4.5481189453125,-252.4619171142578,144.89939880371094,-145.97787780761718,1.6888759198911263e+18,4.54812646484375,0.1865830967823664,-0.4474725623925527,-0.45314014951388043,0.7478245894114176,-1.2106373310089111,1.0066646337509155,0.23907400667667386,1.6888759198997821e+18,4.556782063802083,7.346364498138428,-10.270792563756308,13.084153652191162
4.6000000000000005,1.6888759199430313e+18,4.60003125,-3.2696712017059326,-10.910372734069824,6.406226634979248,1.6888759199430313e+18,4.60003125,-1.048654556274414,-19.09203290939331,11.439785957336426,1.6888759199430313e+18,4.60003125,2.1982152462005615,-8.165914535522461,4.968845844268799,1.688875919947352e+18,4.60435205078125,-0.8936449587345123,2.2300653606653214,0.09789115190505981,1.6888759199430313e+18,4.60003125,-1.0540479719638824,2.14871846139431,0.25198191404342646,,,,,,,,,,,,1.6888759199411185e+18,4.5981186035156245,0.5587599873542786,50.17127990722656,-12.963719940185547,1.6888759199411185e+18,4.5981186035156245,-255.06783142089844,145.02627868652343,-146.09011535644532,1.6888759199430295e+18,4.600029622395834,0.1930249035358428,-0.4477483928203583,-0.434251070022583,0.7570952375729879,-1.1617541710535686,0.980632464090983,0.17491598427295685,1.6888759199430313e+18,4.60003125,-1.0713863372802725,-19.0764799118042,11.375179767608643
4.65,1.6888759199862838e+18,4.643284098307292,-10.193233172098795,-1.6237651507059734,-3.6065098444620767,1.6888759199862838e+18,4.643284098307292,-7.86361265182495,-9.848060448964437,1.2975080385804176,1.6888759199862838e+18,4.643284098307292,2.3068182865778604,-8.208550135294596,4.839304447174072,1.68887591999926e+18,4.656259765624999,1.492547372976939,1.6860389709472656,-3.189683755238851,1.6888759199862838e+18,4.643284098307292,0.6470590432484945,1.5750651160875957,-2.1342613697052,,,,,,,,,,,,1.6888759199911178e+18,4.64811796875,0.39284000396728513,49.48807907104492,-13.876279830932617,1.6888759199911178e+18,4.64811796875,-255.23375244140624,144.34307861328125,-147.00267639160157,1.6888759199949345e+18,4.651934407552083,0.1522785574197769,-0.4118608832359314,-0.47202548384666443,0.7639664808909098,-1.158266266187032,1.0103585124015808,0.30174584190050757,1.6888759199862838e+18,4.643284098307292,-7.886344432830811,-9.832506815592447,1.2329018426438172
4.7,1.688875920038183e+18,4.695182779947917,-6.9572679201761884,-1.5872036616007488,-2.213423569997152,1.688875920038183e+18,4.695182779947917,-6.211169322331745,-10.538389523824057,1.7633108695348103,1.688875920038183e+18,4.695182779947917,0.7232973128557205,-8.93544069925944,3.9120209217071533,1.6888759200425093e+18,4.69950927734375,0.67638055421412,5.010087490081787,-7.720649242401123,1.688875920038183e+18,4.695182779947917,0.9927068750063578,4.627609729766846,-7.028157393137614,,,,,,,,,,,,1.6888759200411203e+18,4.6981203125,12.931999778747558,48.32907943725586,-11.241079902648925,1.6888759200411203e+18,4.6981203125,-242.69459838867186,143.1840789794922,-144.3674774169922,1.6888759200468326e+18,4.703832600911459,0.07286645472049706,-0.33988656600316364,-0.6075478394826254,0.7111929257710775,-1.5087147156397502,1.1509867509206135,0.901959498723348,1.688875920038183e+18,4.695182779947917,-6.2339011033376055,-10.522836367289225,1.698704679807027
4.75,1.6888759200900846e+18,4.747084798177084,-8.041710217793783,-4.373537699381511,-2.830232302347819,1.6888759200900846e+18,4.747084798177084,-9.327222983042398,-13.27119255065918,1.1802597443262737,1.6888759200900846e+18,4.747084798177084,-1.308314025402069,-8.881909688313803,3.9457785288492837,1.688875920085758e+18,4.742758138020833,-0.03390302757422129,2.5634960333506265,-4.091829935709636,1.6888759200900846e+18,4.747084798177084,0.11051569630702336,2.2699243426322937,-3.646611054738363,,,,,,,,,,,,1.6888759200911142e+18,4.7481142578125,24.290199279785156,43.11479797363281,-14.896199989318848,1.6888759200911142e+18,4.7481142578125,-231.33639221191407,137.96979675292968,-148.02259826660156,1.6888759200987318e+18,4.755731770833333,-0.020846209799249935,-0.28991028666496277,-0.7016944289207458,0.6501664717992147,-1.9312284787495935,1.1202489137649536,1.538305679957072,1.6888759200900846e+18,4.747084798177084,-9.349954764048258,-13.25563907623291,1.1156535545984905
4.800000000000001,1.6888759201419848e+18,4.798984700520833,7.246219038963318,2.1357582410176597,-2.290779987970988,1.6888759201419848e+18,4.798984700520833,4.500101804733276,-6.582655111948649,1.3070794343948364,1.6888759201419848e+18,4.798984700520833,-2.768918752670288,-8.702668190002441,3.5331459840138755,1.6888759201376622e+18,4.794662109375,1.0162761410077412,-0.17073682447274527,-4.07971437772115,1.6888759201419848e+18,4.798984700520833,0.975348154703776,0.0009162922700246545,-4.236197789510091,,,,,,,,,,,,1.6888759201411167e+18,4.79811650390625,31.28080024719238,39.50115966796875,-13.419999694824218,1.6888759201411167e+18,4.79811650390625,-224.34579772949218,134.3561584472656,-146.54639587402343,1.6888759201506358e+18,4.807635823567709,-0.0345162271211544,-0.2645690937836965,-0.7659117579460144,0.5840115348498026,-2.2790505886077885,1.0676827430725098,1.9415679772694905,1.6888759201419848e+18,4.798984700520833,4.477370023727417,-6.567101796468099,1.2424732049306233
4.8500000000000005,1.688875920193886e+18,4.850885986328126,6.971047719319661,1.3504071235656738,-1.8180358012517293,1.688875920193886e+18,4.850885986328126,3.3006993730862937,-6.9226352373758955,2.0372890631357827,1.688875920193886e+18,4.850885986328126,-3.6931498845418296,-8.257297197977701,3.7906113465627036,1.688875920189562e+18,4.846562337239583,0.3259984248628219,3.916867971420288,-2.2669209241867065,1.688875920193886e+18,4.850885986328126,0.2622139087567727,3.9599339962005615,-2.0236437718073526,,,,,,,,,,,,1.6888759201911188e+18,4.848118798828125,36.2803596496582,34.108758544921876,-16.121079635620116,1.6888759201911188e+18,4.848118798828125,-219.3462371826172,128.96375579833983,-149.24747314453126,1.6888759201938808e+18,4.850880737304688,-0.09861515834927556,-0.21491983532905576,-0.8012353479862213,0.549291342496872,-2.3336212635040283,0.9940053224563599,2.1618502140045166,1.688875920193886e+18,4.850885986328126,3.2779675722122192,-6.907081921895345,1.9726828734079997
4.9,1.6888759202457838e+18,4.902784016927083,3.1878504753112793,-0.37653064727783203,-5.6988779703776045,1.6888759202457838e+18,4.902784016927083,-0.5276174048582712,-8.356334845225016,-1.2971092462539675,1.6888759202457838e+18,4.902784016927083,-3.7382694085439048,-7.964059034983317,4.337055206298828,1.6888759202414625e+18,4.898462727864583,-0.3453424920638402,1.8862500588099163,-1.4151711463928223,1.6888759202457838e+18,4.902784016927083,-0.40306923786799115,1.6939802368481953,-1.357393503189087,,,,,,,,,,,,1.6888759202411151e+18,4.89811513671875,36.058319091796875,31.300319290161134,-21.369519805908205,1.6888759202411151e+18,4.89811513671875,-219.5682800292969,126.15531768798829,-154.49591674804688,1.6888759202371372e+18,4.8941372070312505,-0.15439863999684647,-0.1782172471284866,-0.8103685776392618,0.5361044406890869,-2.277825435002645,0.9512226581573486,2.2425284385681152,1.6888759202457838e+18,4.902784016927083,-0.5503492106993993,-8.340781529744467,-1.3617154558499653
4.95,1.688875920297689e+18,4.954689046223958,7.164041201273601,-3.756824493408203,-7.7306772867838545,1.688875920297689e+18,4.954689046223958,3.5090744495391846,-11.512667338053385,-2.8965118726094565,1.688875920297689e+18,4.954689046223958,-3.6777679920196533,-7.740097681681315,4.769451936086019,1.6888759202933617e+18,4.9503616536458335,-0.5789984365304311,1.358920653661092,-0.06388632208108898,1.688875920297689e+18,4.954689046223958,-0.5152648389339447,1.5030339062213898,0.11087204019228618,,,,,,,,,,,,1.6888759202911163e+18,4.948116259765625,36.47555923461914,29.040879440307616,-24.12183952331543,1.6888759202911163e+18,4.948116259765625,-219.15103454589843,123.89587860107422,-157.24823608398438,1.6888759202890376e+18,4.946037841796875,-0.1895007838805516,-0.16925258437792456,-0.813665529092153,0.52274489402771,-2.237122058868408,0.9052599867184957,2.2674376964569096,1.688875920297689e+18,4.954689046223958,3.48634264866511,-11.497113863627115,-2.9611180623372397
5.0,1.6888759203495877e+18,5.006587727864583,3.76299782594045,-1.8648838996887207,-5.269855340321858,1.6888759203495877e+18,5.006587727864583,1.1684950590133667,-9.893125057220459,-0.20857439438501993,1.6888759203495877e+18,5.006587727864583,-2.6173041661580405,-8.012495994567871,4.996567567189534,1.688875920345261e+18,5.002261149088542,0.18631390482187268,1.2999212344487507,2.4663174947102866,1.6888759203495877e+18,5.006587727864583,0.25503624230623245,1.3905329306920369,2.6836328903834024,,,,,,,,,,,,1.6888759203411185e+18,4.99811826171875,32.542279434204104,30.419479751586913,-26.85219955444336,1.6888759203411185e+18,4.99811826171875,-223.08431701660157,125.27447662353515,-159.97859802246094,1.6888759203409426e+18,4.997942464192708,-0.21712778011957803,-0.15619255105654392,-0.7879756093025208,0.55422576268514,-2.0831450621287027,0.9363778630892435,2.173871119817098,1.6888759203495877e+18,5.006587727864583,1.1457631985346477,-9.87757158279419,-0.27318059404691053
5.050000000000001,1.6888759203928381e+18,5.049838256835937,-10.804117202758789,-13.371750831604004,-3.689410924911499,1.6888759203928381e+18,5.049838256835937,-11.886944770812988,-21.945773124694824,1.030708372592926,1.6888759203928381e+18,5.049838256835937,-1.1056287288665771,-8.558277130126953,4.655405759811401,1.6888759203971597e+18,5.054159586588542,2.1666372617085776,0.129757950703303,3.0076460043589273,1.6888759203928381e+18,5.049838256835937,2.258292496204376,0.565584808588028,3.112358331680298,1.6888759204101445e+18,5.06714453125,0.0,0.0,1.3705590963363647,58.46200180053711,0.0023434865288436,0.0,33.084436181679635,-122.7499307,49.1920497,1.688875920391123e+18,5.048123046875,24.97339973449707,35.82407989501953,-27.63055992126465,1.688875920391123e+18,5.048123046875,-230.65319213867187,130.6790771484375,-160.7569580078125,1.6888759203928394e+18,5.049839518229167,-0.2125156074762344,-0.131873644888401,-0.7356859048207601,0.6288615465164185,-1.8077349265416462,1.05411696434021,1.9258498350779216,1.6888759203928381e+18,5.049838256835937,-11.909676551818848,-21.930219650268555,0.9661021232604979
5.1000000000000005,1.6888759204360937e+18,5.093093505859375,-0.3811625639597575,-10.728416124979654,5.704378445943196,1.6888759204360937e+18,5.093093505859375,-0.5385845303535461,-19.777476628621418,9.55912701288859,1.6888759204360937e+18,5.093093505859375,-0.18022341032822928,-9.033315340677897,3.790035088857015,1.6888759204490668e+18,5.1060667317708335,1.5122987031936646,-1.329242726167043,4.188295841217041,1.6888759204360937e+18,5.093093505859375,1.7852537234624226,-1.7926349639892578,3.735949913660685,,,,,,,,,,,,1.6888759204411203e+18,5.098120458984375,20.02019920349121,42.06559829711914,-22.560239410400392,1.6888759204411203e+18,5.098120458984375,-235.606396484375,136.92059936523438,-155.6866424560547,1.6888759204447404e+18,5.101740234375,-0.14351258426904673,-0.13034261763095853,-0.6912484566370646,0.695343554019928,-1.5394465525945027,1.1768003702163696,1.558497389157613,1.6888759204360937e+18,5.093093505859375,-0.5613163411617279,-19.76192347208659,9.494520982106527
5.15,1.688875920487987e+18,5.144986897786459,-1.438796877861023,-9.447563807169596,12.583568572998047,1.688875920487987e+18,5.144986897786459,0.21076778570810953,-18.575881004333496,15.863018353780113,1.688875920487987e+18,5.144986897786459,1.6267633040746052,-9.112572034200033,3.214736541112264,1.6888759204923164e+18,5.14931640625,0.750142514705658,0.9829585254192352,3.201086640357971,1.688875920487987e+18,5.144986897786459,0.8874853849411011,0.5405648276209831,3.3953417936960855,,,,,,,,,,,,1.68887592049112e+18,5.1481201171875,11.380159759521485,46.57471923828125,-19.31259956359863,1.68887592049112e+18,5.1481201171875,-244.24643249511718,141.42971801757812,-152.43899536132812,1.688875920496646e+18,5.153645833333333,-0.113813670972983,-0.1224575042724609,-0.6242879827817281,0.7628312309583029,-1.0493349432945251,1.1790757576624553,1.0368715325991313,1.688875920487987e+18,5.144986897786459,0.1880359649658203,-18.560327847798664,15.798412322998047
5.2,1.6888759205398915e+18,5.196891276041667,-4.592790762583415,-4.05409590403239,-1.6930515766143799,1.6888759205398915e+18,5.196891276041667,-1.9316060543060303,-13.062219619750977,1.2536396185557048,1.6888759205398915e+18,5.196891276041667,2.638383229573568,-8.99237855275472,2.8819777965545654,1.6888759205355684e+18,5.192568603515625,1.2288063565889995,-1.4956017831961315,2.42722217241923,1.6888759205398915e+18,5.196891276041667,1.3124948740005493,-1.4511104027430217,2.5326982339223227,,,,,,,,,,,,1.6888759205411205e+18,5.19812060546875,5.4387599468231205,48.20951919555664,-16.68715934753418,1.6888759205411205e+18,5.19812060546875,-250.18783569335938,143.06451721191405,-149.8135559082031,1.6888759205485391e+18,5.205538899739583,-0.06645623967051503,-0.13409603138764695,-0.5819932222366333,0.7989287376403809,-0.7980362971623739,1.1476221481959026,0.7001259724299113,1.6888759205398915e+18,5.196891276041667,-1.9543379147847493,-13.046666145324707,1.189033418893814
5.25,1.6888759205917893e+18,5.248789388020833,-8.755104382832846,10.181342124938965,-1.43663493792216,1.6888759205917893e+18,5.248789388020833,-5.001198768615723,1.4801602363586426,1.2374881108601887,1.6888759205917893e+18,5.248789388020833,3.7311039765675864,-8.685436884562174,2.6094095706939697,1.688875920587466e+18,5.244466064453125,0.8401433428128561,-2.240857402483622,2.893465042114258,1.6888759205917893e+18,5.248789388020833,0.7132361034552255,-2.4465152819951377,2.7661505540211997,,,,,,,,,,,,1.6888759205911158e+18,5.24811572265625,-0.9735599637031556,49.76135940551758,-12.751439666748047,1.6888759205911158e+18,5.24811572265625,-256.600146484375,144.61636047363282,-145.87783203125,1.688875920600439e+18,5.257439046223959,-0.008815928051869065,-0.16177107890446976,-0.5272888541221619,0.8336605628331503,-0.6209976673126221,1.0695111751556396,0.3970119555791219,1.6888759205917893e+18,5.248789388020833,-5.023930549621582,1.4957135915756226,1.1728819211324055
5.300000000000001,1.6888759206436918e+18,5.3006918945312504,-7.661645571390788,16.0917755762736,-1.5552392800649006,1.6888759206436918e+18,5.3006918945312504,-3.6807594299316406,7.700302759806315,1.728415568669637,1.6888759206436918e+18,5.3006918945312504,3.9580844243367515,-8.375727335611979,3.2189413706461587,1.6888759206393705e+18,5.296370686848959,-0.06755151599645613,-3.248530467351278,1.0101674993832905,1.6888759206436918e+18,5.3006918945312504,-0.10410161564747493,-3.2609004974365234,0.8742499848206838,,,,,,,,,,,,1.6888759206411228e+18,5.2981227539062505,-3.8991198539733887,49.69303894042969,-12.685559844970703,1.6888759206411228e+18,5.2981227539062505,-259.5257141113281,144.54803771972655,-145.81195678710938,1.6888759206436936e+18,5.300693481445313,0.03274403046816585,-0.2194947376847267,-0.5002317577600479,0.8368383944034576,-0.6928737759590149,1.0194140672683716,0.3199290931224823,1.6888759206436918e+18,5.3006918945312504,-3.7034912109375,7.715856234232585,1.6638093789418538
5.3500000000000005,1.6888759206955958e+18,5.352595540364583,-2.699876387914022,9.319190979003906,-2.433535099029541,1.6888759206955958e+18,5.352595540364583,0.46480576197306317,0.878365159034729,1.5304095270112157,1.6888759206955958e+18,5.352595540364583,3.141880671183268,-8.42508061726888,3.8992311159769693,1.6888759206912717e+18,5.348271647135417,0.4353942150870959,-3.8934005896250405,-1.0051278521617253,1.6888759206955958e+18,5.352595540364583,0.5445863927404085,-3.8494182427724204,-1.1442523797353108,,,,,,,,,,,,1.6888759206911148e+18,5.348114892578125,-0.9564800143241883,49.68571853637695,-13.154039764404297,1.6888759206911148e+18,5.348114892578125,-256.5830780029297,144.54071655273438,-146.28043518066406,1.6888759206869443e+18,5.343944173177083,0.06917830184102053,-0.2859855393568675,-0.4982328613599141,0.8150357206662496,-0.865401824315389,1.0204075177510579,0.33726435899734497,1.6888759206955958e+18,5.352595540364583,0.4420739809672038,0.8939185937245687,1.465803250670433
5.4,1.6888759207474952e+18,5.404495035807291,16.437531153361004,-9.728991826375326,2.4073967933654785,1.6888759207474952e+18,5.404495035807291,19.48176383972168,-18.113069534301758,6.580860614776611,1.6888759207474952e+18,5.404495035807291,3.021430730819702,-8.368332544962565,4.108750343322754,1.6888759207431677e+18,5.4001676432291665,-0.4069889535506566,-1.9588920871416728,2.1368065401911736,1.6888759207474952e+18,5.404495035807291,-0.6350962519645692,-2.1895447274049125,2.366746505101522,,,,,,,,,,,,1.6888759207411164e+18,5.398116357421875,0.6831999778747558,50.11027908325195,-12.775839614868165,1.6888759207411164e+18,5.398116357421875,-254.94339599609376,144.96528015136718,-145.90223693847656,1.6888759207388454e+18,5.3958452148437495,0.1118979305028915,-0.32905479272206617,-0.49439822634061176,0.7963271339734396,-0.9554001490275065,1.0377322832743328,0.29688283304373414,1.6888759207474952e+18,5.404495035807291,19.45903205871582,-18.09751605987549,6.516254226366679
5.45,1.6888759207993958e+18,5.45639599609375,-0.43439873059590656,3.8719441095987954,-0.3210222721099853,1.6888759207993958e+18,5.45639599609375,2.462015151977539,-4.021537284056346,4.831507603327434,1.6888759207993958e+18,5.45639599609375,2.873612403869629,-7.8777360916137695,5.08781639734904,1.6888759207950687e+18,5.45206884765625,-0.31255937864383065,-3.832873980204264,1.6048957109451294,1.6888759207993958e+18,5.45639599609375,-0.3067561785380046,-3.3072752952575684,1.6864462693532307,,,,,,,,,,,,1.68887592079112e+18,5.448119970703125,-1.4908399820327758,49.2611587524414,-15.162159729003907,1.68887592079112e+18,5.448119970703125,-257.1174377441406,144.11615600585938,-148.28855895996094,1.688875920790745e+18,5.447744873046875,0.1573901722828547,-0.4115804433822632,-0.4300640821456909,0.7873210509618124,-1.055580695470174,0.9403000275293986,0.18105450272560117,1.6888759207993958e+18,5.45639599609375,2.4392832120259604,-4.005983889102935,4.76690141359965
5.5,1.6888759208426424e+18,5.499642456054687,-9.173208713531494,-17.634209632873535,13.591197729110718,1.6888759208426424e+18,5.499642456054687,-5.603691577911377,-25.103700637817383,18.952950477600098,1.6888759208426424e+18,5.499642456054687,3.546716094017029,-7.45374608039856,5.297038793563843,1.6888759208469732e+18,5.50397314453125,-0.7470881938934326,2.4636704524358115,0.3733404874801636,1.6888759208426424e+18,5.499642456054687,-1.2795336395502093,2.9141327142715454,0.8308530747890472,,,,,,,,,,,,1.6888759208411205e+18,5.498120654296875,-6.339119911193848,48.24611892700195,-16.92627944946289,1.6888759208411205e+18,5.498120654296875,-261.96571655273436,143.1011169433594,-150.05267333984375,1.6888759208426463e+18,5.499646321614584,0.15943559010823563,-0.41396428147951764,-0.39187825719515484,0.8057160576184591,-0.9982211589813232,0.8692993720372518,0.10525577267010999,1.6888759208426424e+18,5.499642456054687,-5.626423358917236,-25.088147163391113,18.888343334197998
5.550000000000001,1.688875920885896e+18,5.542895751953125,-4.33448855082194,-6.115889390309651,1.3223976294199626,1.688875920885896e+18,5.542895751953125,-1.0321041345596313,-14.027125040690104,6.168497323989868,1.688875920885896e+18,5.542895751953125,3.279582977294922,-7.895490646362305,4.781386216481526,1.6888759208988733e+18,5.555873535156249,1.6496924956639607,3.3416873613993325,-4.678769588470459,1.688875920885896e+18,5.542895751953125,1.3979651133219402,2.2871812184651694,-3.5913785696029663,,,,,,,,,,,,1.688875920891118e+18,5.548118212890625,-3.8673999130725862,49.0122802734375,-15.486679649353027,1.688875920891118e+18,5.548118212890625,-259.49399719238284,143.86728210449218,-148.61307678222656,1.6888759208945477e+18,5.551547688802084,0.12812813868125275,-0.3685084879398346,-0.45576366782188416,0.7988269130388895,-0.9931079745292664,0.9683284759521484,0.23870455225308732,1.688875920885896e+18,5.542895751953125,-1.0548359553019206,-14.011571248372396,6.103891134262085
5.6000000000000005,1.6888759209377974e+18,5.594797363281249,-8.79590368270874,4.04844872156779,-0.6142249902089436,1.6888759209377974e+18,5.594797363281249,-7.15254545211792,-4.8893342812856035,3.1250263849894204,1.6888759209377974e+18,5.594797363281249,1.6205567717552185,-8.922037760416666,3.6745378971099854,1.6888759209421253e+18,5.599125366210938,0.3455970287322998,4.319886326789856,-6.834971189498901,1.6888759209377974e+18,5.594797363281249,0.6104579965273539,4.510730743408203,-6.558707396189372,1.6888759209291374e+18,5.586137451171875,0.0,0.0,1.3705590963363647,57.59799957275391,0.0002667701046448,0.0,33.084436181679635,-122.7499338,49.1920489,1.688875920941117e+18,5.598116845703125,7.973920059204102,49.15379943847656,-12.290279960632324,1.688875920941117e+18,5.598116845703125,-247.65267639160157,144.00879821777343,-145.41668090820312,1.688875920946445e+18,5.603444824218751,0.039936256750176334,-0.28123653928438824,-0.5986354549725851,0.7468533317248026,-1.2671250502268474,1.1587249040603638,0.7982839345932007,1.6888759209377974e+18,5.594797363281249,-7.175277233123779,-4.873780886332194,3.060420115788778
5.65,1.6888759209896947e+18,5.6466944173177085,-8.187419573465982,-3.6159815788269043,-3.653000076611837,1.6888759209896947e+18,5.6466944173177085,-8.561718940734863,-12.570892810821533,0.4177469809850057,1.6888759209896947e+18,5.6466944173177085,-0.39710050572951633,-8.939166069030762,4.0060335000356035,1.6888759209853747e+18,5.642374674479167,-1.451212207476298,2.711885372797648,-4.18554671605428,1.6888759209896947e+18,5.6466944173177085,-1.3872240384419758,2.520684520403544,-3.7786596218744912,,,,,,,,,,,,1.688875920991114e+18,5.648114013671875,19.629800033569335,44.63491973876953,-16.272359466552736,1.688875920991114e+18,5.648114013671875,-235.99679565429688,139.4899139404297,-149.3987548828125,1.6888759209983488e+18,5.655348876953124,-0.06409506996472673,-0.24611240625381467,-0.6845231453577677,0.6828292806943258,-1.7060418923695881,1.1276407639185588,1.4414286216100056,1.6888759209896947e+18,5.6466944173177085,-8.584450721740723,-12.555339813232422,0.35314077138900757
5.7,1.6888759210416003e+18,5.698600179036458,3.2756779988606772,-0.13336499532063803,-4.744287649790446,1.6888759210416003e+18,5.698600179036458,1.6344971656799316,-8.918050130208334,-0.6454639236132304,1.6888759210416003e+18,5.698600179036458,-1.6639822324117024,-8.768939971923828,4.034110148747762,1.6888759210372772e+18,5.694277180989583,0.5521203863124052,-0.6828455440700054,-3.2887458006540933,1.6888759210416003e+18,5.698600179036458,0.6509278118610382,-0.6940956264734268,-3.514664093653361,,,,,,,,,,,,1.6888759210411177e+18,5.6981174316406245,25.712719345092772,41.16035919189453,-17.924239349365234,1.6888759210411177e+18,5.6981174316406245,-229.91387634277345,136.0153594970703,-151.05064086914064,1.68887592105025e+18,5.7072500813802085,-0.077753742535909,-0.23615156610806778,-0.7377627293268839,0.6268755992253622,-2.0222734212875366,1.0918172200520833,1.7911744515101116,1.6888759210416003e+18,5.698600179036458,1.6117653846740723,-8.902496655782064,-0.7100701332092285
5.75,1.688875921093501e+18,5.750500732421874,10.853739579518637,3.98714017868042,-1.1336328188578289,1.688875921093501e+18,5.750500732421874,7.942575772603353,-4.454638083775838,3.001397212346395,1.688875921093501e+18,5.750500732421874,-2.9339652856191,-8.426033020019531,4.070316553115845,1.6888759210891748e+18,5.746174967447916,0.056250498940547344,3.1203505595525107,-2.979851563771566,1.688875921093501e+18,5.750500732421874,-0.076052725315094,3.393814484278361,-2.676913301150004,,,,,,,,,,,,1.6888759210911176e+18,5.74811748046875,32.847279739379886,36.46335906982422,-18.016959762573244,1.6888759210911176e+18,5.74811748046875,-222.77931518554686,131.318359375,-151.1433563232422,1.6888759210935004e+18,5.750500244140625,-0.1206473745405674,-0.1996714025735855,-0.7824764847755432,0.5769205689430237,-2.199333667755127,1.0258139371871948,2.0832784175872803,1.688875921093501e+18,5.750500732421874,7.919843991597493,-4.439084768295288,2.936791022618612
5.800000000000001,1.6888759211454e+18,5.802399820963541,-0.2673949400583902,-0.9938279787699381,-8.89084800084432,1.6888759211454e+18,5.802399820963541,-3.136192818482717,-9.113065083821615,-4.1168514887491865,1.6888759211454e+18,5.802399820963541,-2.8915993372599282,-8.103491942087809,4.709282875061035,1.688875921141078e+18,5.798078043619792,-0.7219918171564738,1.7759889165560405,-1.2246321042378743,1.6888759211454e+18,5.802399820963541,-0.7438811659812927,1.49529633919398,-1.2426016926765442,,,,,,,,,,,,1.6888759211411203e+18,5.7981203125,33.110799407958986,33.34991989135742,-23.350799560546875,1.6888759211411203e+18,5.7981203125,-222.5157958984375,128.20491943359374,-156.477197265625,1.6888759211367519e+18,5.793751871744791,-0.18446547786394754,-0.16636992494265232,-0.7856966058413187,0.5663352211316427,-2.1159605185190835,0.976909856001536,2.1427930990854898,1.6888759211454e+18,5.802399820963541,-3.158924698829651,-9.097511927286783,-4.18145767847697
5.8500000000000005,1.6888759211973059e+18,5.8543057454427085,5.44103479385376,-4.573931694030762,-7.551186879475911,1.6888759211973059e+18,5.8543057454427085,2.1856440901756287,-12.397413889567057,-2.534597396850586,1.6888759211973059e+18,5.8543057454427085,-3.2781920433044434,-7.807737032572429,4.951876163482666,1.6888759211929766e+18,5.849976806640625,-0.5196936130523682,-0.20341813564300537,-0.7791586319605509,1.6888759211973059e+18,5.8543057454427085,-0.43702317277590436,-0.129757950703303,-0.6688465302189192,,,,,,,,,,,,1.6888759211911183e+18,5.84811845703125,34.199039459228516,30.558559799194335,-25.907919692993165,1.6888759211911183e+18,5.84811845703125,-221.42755432128905,125.41355590820312,-159.03431701660156,1.688875921188649e+18,5.845648763020833,-0.2061556130647659,-0.16634541253248847,-0.7976707617441813,0.5417600870132446,-2.1428488890329995,0.9201909701029459,2.20226780573527,1.6888759211973059e+18,5.8543057454427085,2.1629123091697693,-12.381860415140785,-2.599203586578369
5.9,1.6888759212492035e+18,5.906203531901042,5.199769735336304,-5.008079528808594,-3.695460319519043,1.6888759212492035e+18,5.906203531901042,2.304886440436045,-12.987244288126627,1.290528972943624,1.6888759212492035e+18,5.906203531901042,-2.91768471399943,-7.963419596354167,4.921275933583577,1.6888759212448796e+18,5.901879475911458,0.8135707179705302,1.6835955381393433,0.6966918210188547,1.6888759212492035e+18,5.906203531901042,0.867326815923055,1.871691107749939,0.8983282645543417,,,,,,,,,,,,1.688875921241116e+18,5.8981158203124995,33.823280334472656,30.321879577636718,-26.69360008239746,1.688875921241116e+18,5.8981158203124995,-221.80331420898438,125.1768798828125,-159.81999816894532,1.6888759212405535e+18,5.897553385416667,-0.21622854471206657,-0.15194760759671525,-0.7952256600062052,0.545500655968984,-2.1185920238494873,0.9306974212328593,2.2143456935882573,1.6888759212492035e+18,5.906203531901042,2.282154659430186,-12.971691131591797,1.2259227832158406
5.95,1.688875921292459e+18,5.949458984375,-6.489908456802368,-5.999208450317383,1.3032338619232178,1.688875921292459e+18,5.949458984375,-8.099106311798096,-14.441282749176025,6.107380628585815,1.688875921292459e+18,5.949458984375,-1.6319991946220396,-8.426329135894775,4.739433288574219,1.6888759212967803e+18,5.953780273437499,1.3745995163917542,0.6090326309204104,3.3337461153666177,1.688875921292459e+18,5.949458984375,1.3082442879676819,1.0742828771471977,3.5023958683013916,,,,,,,,,,,,1.6888759212911199e+18,5.948119824218749,27.025439834594728,34.78463859558106,-27.72083969116211,1.6888759212911199e+18,5.948119824218749,-228.6011535644531,129.63963623046874,-160.84723205566405,1.688875921292454e+18,5.949453857421875,-0.22940138479073835,-0.11607713003953295,-0.7551331917444865,0.6024267276128134,-1.8988242944081624,1.0283227960268657,2.065412441889445,1.688875921292459e+18,5.949458984375,-8.121838092803955,-14.425729751586914,6.042774438858032
6.0,1.6888759213357074e+18,5.992707438151041,-0.12858291467030844,-9.797542572021484,2.255300601323446,1.6888759213357074e+18,5.992707438151041,-0.6757730121413866,-18.7222417195638,6.362914244333903,1.6888759213357074e+18,5.992707438151041,-0.5699915687243143,-8.908953984578451,4.042900164922078,1.6888759213486815e+18,6.005681396484374,1.954259713490804,-1.0778717199961345,3.441105683644613,1.6888759213357074e+18,5.992707438151041,1.8946494658788045,-1.415934721628825,3.3012684981028237,,,,,,,,,,,,1.6888759213411205e+18,5.9981205078125,21.762359619140625,40.735799407958986,-23.624079895019534,1.6888759213411205e+18,5.9981205078125,-233.86423950195314,135.5907958984375,-156.75047607421874,1.6888759213443512e+18,6.001351318359375,-0.17296250661214188,-0.11615494638681408,-0.7097584009170532,0.6722722053527832,-1.6506187121073406,1.1532651980717976,1.7328743537267048,1.6888759213357074e+18,5.992707438151041,-0.698504813015461,-18.706689198811848,6.2983078956604
