seconds_elapsed_rounded,accelerometer_time,accelerometer_seconds_elapsed,accelerometer_z,accelerometer_y,accelerometer_x,accelerometeruncalibrated_time,accelerometeruncalibrated_seconds_elapsed,accelerometeruncalibrated_z,accelerometeruncalibrated_y,accelerometeruncalibrated_x,gravity_time,gravity_seconds_elapsed,gravity_z,gravity_y,gravity_x,gyroscope_time,gyroscope_seconds_elapsed,gyroscope_z,gyroscope_y,gyroscope_x,gyroscopeuncalibrated_time,gyroscopeuncalibrated_seconds_elapsed,gyroscopeuncalibrated_z,gyroscopeuncalibrated_y,gyroscopeuncalibrated_x,location_time,location_seconds_elapsed,location_bearingAccuracy,location_speedAccuracy,location_verticalAccuracy,location_horizontalAccuracy,location_speed,location_bearing,location_altitude,location_longitude,location_latitude,magnetometer_time,magnetometer_seconds_elapsed,magnetometer_z,magnetometer_y,magnetometer_x,magnetometeruncalibrated_time,magnetometeruncalibrated_seconds_elapsed,magnetometeruncalibrated_z,magnetometeruncalibrated_y,magnetometeruncalibrated_x,orientation_time,orientation_seconds_elapsed,orientation_qz,orientation_qy,orientation_qx,orientation_qw,orientation_roll,orientation_pitch,orientation_yaw
0.0,1.688754963341263e+18,164.99826310221354,6.194813410441081,-3.30696709950765,6.157518784205119,1.688754963341263e+18,164.99826310221354,10.360523382822672,-11.952946980794271,8.331210295359293,1.688754963341263e+18,164.99826310221354,4.1598639488220215,-8.628475189208984,2.1110036373138428,1.6887549633499205e+18,165.00692049153645,0.2458732624848683,-1.752776026725769,-0.3754784961541493,1.6887549633369382e+18,164.99393798828126,0.2737185359001159,-2.8417451779047647,0.2757038275400797,,,,,,,,,,,,1.6887549633380672e+18,164.99506713867189,-37.134358978271486,36.25595932006836,-12.124359512329102,1.6887549633380672e+18,164.99506713867189,-291.6629577636719,129.57375793457032,-144.12835388183595,1.688754963341263e+18,164.99826310221354,0.2838187019030253,-0.1719161669413248,0.0323563118775685,0.0079409976218205,-0.472505917151769,1.074486573537191,-2.8452914555867515
0.05,1.6887549633931735e+18,165.0501735839844,-11.471649805704752,1.105286439259847,-1.179897944132487,1.6887549633931735e+18,165.0501735839844,-7.57228688398997,-7.67019279797872,0.9728817542394004,1.6887549633931735e+18,165.0501735839844,3.893517176310221,-8.757974624633789,2.090092500050863,1.6887549633931727e+18,165.0501727294922,-0.0490219375351443,1.1123092770576477,0.0768163055181503,1.6887549633888484e+18,165.04584838867189,0.0474438654879728,1.060003916422526,-0.3715587705373764,,,,,,,,,,,,1.6887549633880612e+18,165.0450611328125,-36.09735870361328,36.90988006591797,-13.405359649658203,1.6887549633880612e+18,165.0450611328125,-290.62595825195314,130.2276824951172,-145.40935363769532,1.6887549633931735e+18,165.0501735839844,0.2791632016499837,-0.1785384615262349,0.0363036766648292,0.0050065647034595,-0.495471994082133,1.1029181083043416,-2.821993589401245
0.1,1.68875496344508e+18,165.10207991536458,-2.487708806991577,0.5539002418518066,-0.4587204058965047,1.68875496344508e+18,165.10207991536458,1.0183454553286235,-8.495716571807861,1.1010972261428833,1.68875496344508e+18,165.10207991536458,3.5002082188924155,-9.032112121582031,1.497130235036214,1.688754963436424e+18,165.093423828125,0.3817907844980557,3.042719761530558,-1.8771379391352336,1.6887549634407498e+18,165.09774983723958,0.4283183366060257,3.2948543230692544,-2.1553361813227334,,,,,,,,,,,,1.6887549634380662e+18,165.0950662109375,-35.44587936401367,38.18600006103516,-9.791719818115237,1.6887549634380662e+18,165.0950662109375,-289.97446899414064,131.50379943847656,-141.79571838378905,1.68875496344508e+18,165.10207991536458,0.8227220972379049,-0.5621467034022013,0.0686569958925246,0.0357283297926186,-0.4039300481478373,1.171066681543986,-2.7854231198628745
0.15,1.6887549634969772e+18,165.15397729492187,-6.216304620107015,2.1677616437276206,0.1297423044840494,1.6887549634969772e+18,165.15397729492187,-4.512066046396892,-7.45224650700887,1.070987530052662,1.6887549634969772e+18,165.15397729492187,1.6983926097551982,-9.602503458658854,0.8785578409830729,1.6887549634883323e+18,165.1453322753906,-0.1570432788381973,3.8347066243489585,-4.611370881398519,1.6887549634926602e+18,165.14966015625,-0.3464623987674713,3.7625226179758706,-4.583118279774983,,,,,,,,,,,,1.688754963488067e+18,165.14506708984374,-30.387759017944337,42.90983963012695,-3.396479940414429,1.688754963488067e+18,165.14506708984374,-284.9163513183594,136.22763366699218,-135.40047912597657,1.6887549634969772e+18,165.15397729492187,0.7595638434092203,-0.6418363650639852,-0.0211304242257028,0.0944831992189089,-0.5251675645510355,1.3707642952601116,-2.45194411277771
0.2,1.688754963548889e+18,165.20588891601562,-4.980243941148122,-3.2826010386149087,-3.3644999663035073,1.688754963548889e+18,165.20588891601562,-4.674179633458455,-12.984851519266764,-1.793221155802409,1.688754963548889e+18,165.20588891601562,0.300218291580677,-9.68474578857422,1.5085914532343547,1.6887549635402383e+18,165.19723828124998,-1.829083244005839,2.13217427333196,-2.136755665143331,1.6887549635445604e+18,165.20156030273438,-1.7322102189064026,1.812691700955232,-1.9404643376668296,,,,,,,,,,,,1.6887549635380646e+18,165.19506474609375,-22.086878967285156,47.62147979736328,-1.7567999362945557,1.6887549635380646e+18,165.19506474609375,-276.615478515625,140.93927917480468,-133.76079711914062,1.688754963548889e+18,165.20588891601562,0.6983592907587687,-0.693852444489797,-0.054274292041858,0.1662134577830632,-1.357814351717631,1.4102731148401897,-1.469634215037028
0.25,1.6887549635921423e+18,165.24914221191406,4.244379878044128,-0.5051908493041992,-2.6169488430023193,1.6887549635921423e+18,165.24914221191406,3.738187313079834,-10.17637538909912,-0.9032905697822572,1.6887549635921423e+18,165.24914221191406,-0.5120386332273483,-9.653679847717283,1.6509708166122437,1.6887549635921388e+18,165.24913891601562,0.3100140988826751,-0.063377281030019,-2.355496406555176,1.6887549635964682e+18,165.25346834309894,0.4028147229303916,0.144418714257578,-2.4224878946940103,,,,,,,,,,,,1.6887549635880648e+18,165.24506499023437,-15.989319610595704,49.59056015014649,-3.1329599380493165,1.6887549635880648e+18,165.24506499023437,-270.5179138183594,142.90835876464843,-135.13695678710937,1.6887549635921423e+18,165.24914221191406,0.66780886054039,-0.7230213284492493,-0.0547008533030748,0.1677255108952522,-1.8648812174797056,1.3910436630249023,-0.9595514833927156
0.3,1.6887549636353897e+18,165.2923897298177,2.52933677037557,3.5218265851338706,-1.0947416027386982,1.6887549636353897e+18,165.2923897298177,1.2564313213030498,-6.118447462717692,0.3728815217812856,1.6887549636353897e+18,165.2923897298177,-1.2787514925003052,-9.622769355773926,1.4049357175827026,1.6887549636440476e+18,165.3010477701823,0.7688248157501221,2.0479257504145303,-1.487609585126241,1.6887549636483704e+18,165.30537036132813,0.7214827636877695,2.0111719369888306,-1.41746191183726,,,,,,,,,,,,1.6887549636380628e+18,165.29506293945312,-10.37731990814209,50.89839859008789,-1.210239976644516,1.6887549636380628e+18,165.29506293945312,-264.9059143066406,144.21619873046876,-133.2142364501953,1.6887549636353897e+18,165.2923897298177,0.6352505882581075,-0.7453959981600443,-0.0947681466738382,0.1774205515782038,-2.300943930943807,1.3746835390726726,-0.4513435661792755
0.35,1.6887549636873004e+18,165.34430037434893,1.8456116517384848,1.84846830368042,-1.2551780144373577,1.6887549636873004e+18,165.34430037434893,0.0660020193705956,-7.722436428070068,0.133998059357206,1.6887549636873004e+18,165.34430037434893,-1.7854556639989216,-9.553400039672852,1.3264886538187664,1.6887549636959488e+18,165.35294873046874,-0.161624764247487,0.9520843625068665,-1.164156476656596,1.68875496370028e+18,165.3572797851563,-0.2039780914783477,0.9171123504638672,-1.1464922428131104,,,,,,,,,,,,1.688754963688065e+18,165.34506513671874,-6.892999935150146,51.47179946899414,0.48799998909235,1.688754963688065e+18,165.34506513671874,-261.4216003417969,144.789599609375,-131.5159942626953,1.6887549636873004e+18,165.34430037434893,0.6084367434183756,-0.7567606170972189,-0.1339173913002014,0.1976861258347829,-2.495445648829142,1.3418604532877605,-0.169569969177246
0.4,1.6887549637392074e+18,165.39620735677082,0.8054182132085165,0.1873979568481445,-1.3403261105219524,1.6887549637392074e+18,165.39620735677082,-1.5036896467208862,-9.238688151041666,0.2448655155797799,1.6887549637392074e+18,165.39620735677082,-2.314953883488973,-9.408581415812174,1.522504210472107,1.6887549637478577e+18,165.40485774739582,-0.534150759379069,-0.3209078808625539,-1.3342824379603069,1.6887549637435338e+18,165.40053381347656,-0.4592179358005523,-0.1798234432935715,-1.3238213658332825,,,,,,,,,,,,1.6887549637380685e+18,165.39506840820314,-3.6233998775482177,51.715798950195314,-0.17567999958992,1.6887549637380685e+18,165.39506840820314,-258.15199584960936,145.03359375,-132.17967834472657,1.6887549637392074e+18,165.39620735677082,0.5817539294560751,-0.7726026177406311,-0.1438001294930775,0.2094447761774062,-2.5538882414499917,1.284329891204834,-0.0774338779350121
0.45,1.6887549637911112e+18,165.44811108398437,4.658163070678711,-3.4632533391316733,-4.02336319287618,1.6887549637911112e+18,165.44811108398437,1.7880367437998457,-12.690933227539062,-2.193221310774485,1.6887549637911112e+18,165.44811108398437,-2.875972270965576,-9.210175196329752,1.7674545447031658,1.68875496379976e+18,165.4567599283854,-0.5716171363989512,0.3530292113622029,-0.42628213763237,1.6887549637867878e+18,165.44378776041663,-0.724689801534017,-0.1209513147672017,-0.8403978434701761,,,,,,,,,,,,1.6887549637880694e+18,165.44506923828126,-0.814959978312254,51.73287811279297,-1.7494799613952636,1.6887549637880694e+18,165.44506923828126,-255.3435516357422,145.05067749023436,-133.75347290039062,1.6887549637911112e+18,165.44811108398437,0.5578085581461588,-0.793168822924296,-0.1308679630359013,0.2063106000423431,-2.587128162384033,1.2194184064865112,-0.0652934598426023
0.5,1.6887549638430185e+18,165.50001847330728,1.804846207300822,-7.598051389058431,-4.565078576405843,1.6887549638430185e+18,165.50001847330728,-1.0528419415156047,-16.829319953918457,-2.734996259212494,1.6887549638430185e+18,165.50001847330728,-2.863534132639567,-9.213764508565268,1.76739497979482,1.688754963843013e+18,165.50001306152345,0.7796167582273483,0.0216093584895133,-0.1595121845602988,1.688754963838693e+18,165.49569295247397,0.5819000527262688,0.222558569163084,0.0092647870381673,1.6887549638300431e+18,165.48704321289063,0.0,0.0,2.652964353561402,6.561999797821045,1.263461947441101,199.60545349121097,333.29998779296875,-122.9167769,49.2787581,1.6887549638380677e+18,165.49506777343748,-0.3684399902820587,51.53035888671875,-2.2399199485778807,1.6887549638380677e+18,165.49506777343748,-254.89703063964845,144.84815673828126,-134.2439208984375,1.6887549638430185e+18,165.50001847330728,0.5559712648391724,-0.7912396987279257,-0.1397417287031808,0.2127333482106526,-2.5856199264526367,1.2204330762227376,-0.0441792938800063
0.55,1.6887549638949225e+18,165.55192244466147,1.0574411551157634,-4.86217721303304,0.8825740019480387,1.6887549638949225e+18,165.55192244466147,-0.8737790783246359,-14.402399063110352,2.177069822947184,1.6887549638949225e+18,165.55192244466147,-1.937066356341044,-9.522717475891112,1.2318084239959717,1.6887549638862715e+18,165.54327172851563,1.1601349314053853,0.4011348448693752,2.734029253323873,1.688754963890598e+18,165.54759806315104,1.1181379159291585,0.3969606012105942,3.0391563971837363,,,,,,,,,,,,1.6887549638880655e+18,165.54506557617188,-2.566879892721772,51.6377197265625,0.4904399931430817,1.6887549638880655e+18,165.54506557617188,-257.09548034667966,144.95551452636718,-131.51355590820313,1.6887549638949225e+18,165.55192244466147,0.5984864830970764,-0.7573797901471456,-0.1564081460237502,0.2073218276103337,-2.5520809491475425,1.3334918816884358,-0.0653428736453255
0.6,1.6887549639468275e+18,165.60382755533854,-2.8299858570098877,-2.9168612162272134,1.5891326665878296,1.6887549639468275e+18,165.60382755533854,-2.914856751759847,-12.695120493570965,2.5198416709899902,1.6887549639468275e+18,165.60382755533854,-0.090716928243637,-9.760754585266112,0.8680216471354166,1.6887549639381768e+18,165.5951766764323,0.6372342705726624,-0.5985461076100668,3.6427930990854898,1.6887549639425032e+18,165.59950325520833,0.5857179562250773,-0.630311131477356,3.560479005177816,,,,,,,,,,,,1.688754963938069e+18,165.5950691894531,-12.380559730529786,50.2835189819336,2.437559986114502,1.688754963938069e+18,165.5950691894531,-266.9091491699219,143.601318359375,-129.56643676757812,1.6887549639468275e+18,165.60382755533854,0.6732609868049622,-0.6949022809664408,-0.1454621454079945,0.2051903009414672,-1.6212053696314497,1.470425367355347,-1.0185980796813965
0.65,1.688754963998733e+18,165.65573291015625,-3.6576834519704184,-5.610771497090657,7.587863127390544,1.688754963998733e+18,165.65573291015625,-1.9976080854733784,-15.238890329996744,8.57069190343221,1.688754963998733e+18,165.65573291015625,1.6542293230692546,-9.610614140828451,0.9201412002245584,1.6887549639900785e+18,165.64707836914064,-0.1677334159612655,-1.254106342792511,3.784513870875041,1.6887549639944123e+18,165.65141243489583,-0.2483167275786399,-1.380199094613393,3.847280184427897,,,,,,,,,,,,1.6887549639880627e+18,165.64506284179689,-21.589119720458985,47.42383880615235,2.518079948425293,1.6887549639880627e+18,165.64506284179689,-276.1177124023437,140.74164123535155,-129.4859191894531,1.688754963998733e+18,165.65573291015625,0.7377140919367472,-0.6348705291748047,-0.1083401093880335,0.2000689854224522,-0.5349868138631185,1.374561111132304,-2.1646331946055093
0.7,1.6887549640506355e+18,165.7076355794271,-1.5643903414408369,-1.7055851618448894,2.6291221380233765,1.6887549640506355e+18,165.7076355794271,1.7332011858622234,-10.83470090230306,4.175076524416606,1.6887549640506355e+18,165.7076355794271,3.29174542427063,-9.111611048380531,1.483266870180766,1.6887549640419835e+18,165.69898364257813,-0.3473277986049652,-2.7705793380737305,3.5475998719533286,1.6887549640463094e+18,165.70330924479163,-0.289295603831609,-2.700380722681681,3.471445401509603,,,,,,,,,,,,1.6887549640380652e+18,165.69506513671874,-31.080720138549804,42.92447967529297,-0.7612800061702728,1.6887549640380652e+18,165.69506513671874,-285.60932006835935,136.24227294921874,-132.76527709960936,1.6887549640506355e+18,165.7076355794271,0.7976865967114767,-0.5747514764467875,-0.0326864722495277,0.1771763116121292,-0.4259787499904632,1.1926512718200684,-2.41230837504069
0.75,1.6887549640938808e+18,165.7508809814453,-4.141897439956665,2.028366804122925,-2.409464955329895,1.6887549640938808e+18,165.7508809814453,0.2748755216598511,-6.6296141147613525,-0.9098708033561708,1.6887549640938808e+18,165.7508809814453,4.410926818847656,-8.64047622680664,1.4369066953659058,1.6887549640938836e+18,165.7508837890625,0.8082765142122904,0.1139772795140743,2.7232371966044107,1.6887549640982167e+18,165.7552166341146,0.8693630894025167,0.143298809727033,2.6174557209014893,,,,,,,,,,,,1.6887549640880596e+18,165.74505961914062,-37.74435958862305,37.66871948242188,-3.4281999588012697,1.6887549640880596e+18,165.74505961914062,-292.2729553222656,130.98651733398438,-135.43219604492188,1.6887549640938808e+18,165.7508809814453,0.8360596299171448,-0.5241888165473938,-0.0126614007167517,0.1609974950551986,-0.3181899636983871,1.07708740234375,-2.569437265396118
0.8,1.6887549641371397e+18,165.79413972981772,-10.840105056762695,8.122642676035563,-2.494473457336426,1.6887549641371397e+18,165.79413972981772,-5.795615911483765,-0.1964108000199,-1.0620144804318743,1.6887549641371397e+18,165.79413972981772,5.0386433601379395,-8.301548957824707,1.3697715202967329,1.688754964145786e+18,165.80278572591146,0.3125593910614649,-2.732603907585144,1.7858136494954426,1.6887549641501153e+18,165.8071153971354,0.2146682341893514,-2.8739173412323,1.7591901222864788,,,,,,,,,,,,1.688754964138061e+18,165.7950609375,-41.914319610595705,33.68907928466797,-3.3403599739074705,1.688754964138061e+18,165.7950609375,-296.4429138183594,127.00687713623049,-135.34435424804687,1.6887549641371397e+18,165.79413972981772,0.8595278064409891,-0.4926394323507945,0.0048878183200334,0.1339640095829963,-0.2667128791411717,1.0086103479067483,-2.6846718788146973
0.85,1.688754964189049e+18,165.84604931640624,-4.570490757624309,9.4260892868042,-1.0463743209838867,1.688754964189049e+18,165.84604931640624,0.8073782126108805,1.473579910894235,1.1102697253227234,1.688754964189049e+18,165.84604931640624,5.372022946675618,-7.9350050290425616,2.0939566691716514,1.688754964197703e+18,165.85470296223957,0.3299181337157885,-1.9553796847661336,0.228158175945282,1.6887549641933793e+18,165.85037939453125,0.1874592695385218,-2.145664155483246,0.5380195695906878,,,,,,,,,,,,1.6887549641880645e+18,165.8450642578125,-43.69795837402344,30.512199020385744,-8.732760047912597,1.6887549641880645e+18,165.8450642578125,-298.2265563964844,123.82999725341796,-140.73675842285155,1.688754964189049e+18,165.84604931640624,0.8743127783139547,-0.4700810909271239,0.0707633768518765,0.0966086039940515,-0.3732393483320872,0.9417080283164978,-2.7299516201019287
0.9,1.6887549642409562e+18,165.8979559733073,-0.9603366057078044,6.264930725097656,0.1160324414571125,1.6887549642409562e+18,165.8979559733073,3.907678683598837,-2.00159619251887,2.283550421396891,1.6887549642409562e+18,165.8979559733073,4.86216926574707,-8.249022483825684,2.104830582936605,1.688754964249607e+18,165.90660693359374,1.090139905611674,-0.3591378629207611,-2.3911301294962564,1.6887549642366323e+18,165.89363240559896,1.1020517945289612,-0.550440490245819,-1.910226543744405,,,,,,,,,,,,1.6887549642380698e+18,165.89506977539062,-41.37263946533203,32.57400016784668,-10.433439826965332,1.6887549642380698e+18,165.89506977539062,-295.90123291015624,125.891796875,-142.43743591308595,1.6887549642409562e+18,165.8979559733073,0.8619423309961954,-0.4946163793404897,0.0856881613532701,0.0689331615964571,-0.4107190271218617,0.9993406732877096,-2.7555461724599204
0.95,1.6887549642928558e+18,165.94985579427083,8.160932223002115,-9.72683048248291,2.6058180729548135,1.6887549642928558e+18,165.94985579427083,12.172886530558268,-18.47478421529134,4.653840700785319,1.6887549642928558e+18,165.94985579427083,4.006108363469441,-8.730449676513672,1.9853352308273315,1.6887549642928614e+18,165.949861328125,-0.233808659017086,-0.4218787997961044,-0.6091854274272919,1.6887549642885304e+18,165.9455305175781,-0.0467311839262644,-0.5936592221260071,-0.9876164197921752,,,,,,,,,,,,1.688754964288063e+18,165.94506318359373,-37.2148796081543,36.817160034179686,-10.186999702453614,1.688754964288063e+18,165.94506318359373,-291.74347534179685,130.13495788574218,-142.1909973144531,1.6887549642928558e+18,165.94985579427083,0.8372485438982645,-0.537084718545278,0.0854865908622741,0.0562387779355048,-0.4623835682868957,1.0968634684880574,-2.7217772006988525
1.0,1.6887549643447695e+18,166.00176953125,7.333053747812907,-3.3863704999287925,5.284787893295288,1.6887549643447695e+18,166.00176953125,11.539586544036863,-11.869198183218638,7.977869987487793,1.6887549643447695e+18,166.00176953125,4.200686772664388,-8.465323448181152,2.6303942998250327,1.6887549643361137e+18,165.99311385091144,0.0580321898063023,-3.040632645289103,1.2997685273488362,1.688754964340443e+18,165.99744278971357,0.218842476606369,-3.0237320264180503,1.152295450369517,,,,,,,,,,,,1.6887549643380695e+18,165.99506962890626,-37.4003189086914,35.50688018798828,-14.447239685058594,1.6887549643380695e+18,165.99506962890626,-291.9289123535156,128.82467956542968,-146.45123901367188,1.6887549643447695e+18,166.00176953125,0.844503660996755,-0.5147463877995809,0.1443567921717961,0.0246164750618238,-0.5614877939224243,1.0405863920847576,-2.755871295928955
1.05,1.6887549643966725e+18,166.05367252604165,-7.230916182200114,-2.800602912902832,1.3637475967407229,1.6887549643966725e+18,166.05367252604165,-3.130011558532715,-11.271191596984863,4.256632248560588,1.6887549643966725e+18,166.05367252604165,4.095058600107829,-8.453083992004395,2.8301971753438315,1.6887549643880184e+18,166.0450184733073,-0.1357648024956385,-0.0888299544652303,-0.1439605715374152,1.6887549643923476e+18,166.04934781901042,-0.2235257799426714,0.248011310895284,-0.1664607832208275,,,,,,,,,,,,1.6887549643880594e+18,166.045059375,-36.33891906738281,35.104278564453125,-17.131239318847655,1.6887549643880594e+18,166.045059375,-290.8675109863281,128.4220764160156,-149.13523864746094,1.6887549643966725e+18,166.05367252604165,0.8416923483212789,-0.5135308901468912,0.1663516114155451,0.009342688989515,-0.6069088578224182,1.0380962292353313,-2.7653690179189048
1.1,1.6887549644485742e+18,166.10557389322915,-3.722518523534139,-0.2814407348632813,-2.021666685740153,1.6887549644485742e+18,166.10557389322915,0.074376900990804,-9.039086977640787,0.3465604782104492,1.6887549644485742e+18,166.10557389322915,3.791049321492513,-8.74014155069987,2.305539766947428,1.6887549644399247e+18,166.09692488606768,0.5719734852512679,2.162055730819702,-1.6606880327065785,1.68875496444425e+18,166.10125032552082,0.6929248223702112,2.3300945361455283,-1.9167933265368144,,,,,,,,,,,,1.6887549644380652e+18,166.09506518554687,-36.37307968139648,35.64107894897461,-14.503359603881837,1.6887549644380652e+18,166.09506518554687,-290.90167236328125,128.95888061523436,-146.50736083984376,1.6887549644485742e+18,166.10557389322915,0.8318916360537211,-0.539961059888204,0.1210203195611635,0.0317899311582247,-0.5469229817390442,1.1003859043121338,-2.724754889806112
1.15,1.688754964500479e+18,166.15747900390625,-6.888440132141113,0.6632432937622069,0.3044206301371256,1.688754964500479e+18,166.15747900390625,-4.529812733332316,-8.752745628356934,1.808774511019389,1.688754964500479e+18,166.15747900390625,2.352781295776367,-9.398484230041504,1.4416664838790894,1.6887549644918282e+18,166.14882820638022,0.3992004593213398,3.83048152923584,-4.057010571161906,1.6887549644961585e+18,166.1531583658854,0.2388483186562856,3.817144076029459,-4.117129961649577,,,,,,,,,,,,1.6887549644880658e+18,166.14506582031248,-32.278759765625,40.87487869262695,-8.261839771270752,1.6887549644880658e+18,166.14506582031248,-286.80736083984374,134.19267883300782,-140.26583862304688,1.688754964500479e+18,166.15747900390625,0.7832031647364298,-0.6147559682528178,0.0330956525479753,0.0770062605539957,-0.564492811759313,1.283871014912923,-2.5145153204600015
1.2,1.6887549645437368e+18,166.20073706054689,-5.9273521900177,1.282311201095581,-1.6380819082260132,1.6887549645437368e+18,166.20073706054689,-4.96630334854126,-8.367401361465454,-0.0008973181247711,1.6887549645437368e+18,166.20073706054689,0.9552029371261596,-9.632207870483398,1.5744972229003906,1.688754964543735e+18,166.2007352701823,-1.404837330182393,2.5445592403411865,-3.126102924346924,1.688754964548061e+18,166.20506087239585,-1.4359405438105266,2.3889922300974527,-2.9529735247294107,,,,,,,,,,,,1.6887549645380682e+18,166.19506826171877,-24.356079483032225,45.967160034179685,-4.2285199642181395,1.6887549645380682e+18,166.19506826171877,-278.8846801757812,139.2849578857422,-136.23251647949218,1.6887549645437368e+18,166.20073706054689,0.7282399237155914,-0.6714609563350677,-0.0138792376965284,0.1351705305278301,-1.0283989012241364,1.3790020942687988,-1.9010236263275144
1.25,1.6887549645869937e+18,166.24399373372395,0.2408226331075032,-2.3367303212483725,-3.607858180999756,1.6887549645869937e+18,166.24399373372395,0.3290131092071533,-11.971092224121094,-1.6289140582084656,1.6887549645869937e+18,166.24399373372395,0.082344390451908,-9.616857210795084,1.916256666183472,1.688754964595635e+18,166.2526350097656,-0.009112074971199,0.5449936091899872,-2.178040027618408,1.688754964599965e+18,166.2569649251302,0.1352048416932424,0.5273803273836771,-2.216473619143168,,,,,,,,,,,,1.6887549645880653e+18,166.24506528320313,-18.797760009765625,48.28515853881836,-4.940999984741211,1.6887549645880653e+18,166.24506528320313,-273.32635498046875,141.6029541015625,-136.94499816894532,1.6887549645869937e+18,166.24399373372395,0.6900898416837057,-0.703324556350708,-0.028544258326292,0.1675457805395126,-1.5273024241129558,1.370949387550354,-1.3346752723058064
1.3,1.688754964638896e+18,166.29589632161458,2.910409132639567,1.8408385912577312,-1.916910727818807,1.688754964638896e+18,166.29589632161458,1.9926230510075889,-7.79442040125529,-0.17427725593249,1.688754964638896e+18,166.29589632161458,-0.9236320853233336,-9.617754300435385,1.6799460252126055,1.6887549646475471e+18,166.3045471191406,0.8010988632837931,1.6221017440160117,-1.889508048693339,1.688754964643223e+18,166.30022290039062,0.8264243006706238,1.5762614011764526,-2.0092885494232178,,,,,,,,,,,,1.6887549646380646e+18,166.29506474609374,-12.85879955291748,49.97363967895508,-3.6185198783874513,1.6887549646380646e+18,166.29506474609374,-267.38739013671875,143.29143676757812,-135.6225158691406,1.688754964638896e+18,166.29589632161458,0.6505776842435201,-0.7366111874580383,-0.0632783919572829,0.1726229389508564,-2.067428946495056,1.371808131535848,-0.7372700572013855
1.35,1.6887549646907976e+18,166.34779752604166,1.988692283630371,2.3167425791422525,-0.1424000263214111,1.6887549646907976e+18,166.34779752604166,0.4646063645680744,-7.27697245279948,1.3926227887471516,1.6887549646907976e+18,166.34779752604166,-1.529931942621867,-9.576210339864096,1.472335418065389,1.6887549646994516e+18,166.35645166015624,0.2093740552663803,1.6831373771031697,-1.392263690630595,1.6887549646864745e+18,166.3434745279948,0.4509203657507896,1.934202988942464,-1.4276429812113445,,,,,,,,,,,,1.688754964688068e+18,166.34506791992186,-8.635159873962403,51.02771987915039,-0.8295999839901924,1.688754964688068e+18,166.34506791992186,-263.16375122070315,144.34552001953125,-132.83359985351564,1.6887549646907976e+18,166.34779752604166,0.6199137568473816,-0.7513373891512553,-0.1142150238156318,0.1946113854646682,-2.3678127924601235,1.3520523309707642,-0.3307242343823114
1.4,1.688754964742699e+18,166.39969889322916,0.8735412359237671,0.3935445149739583,-1.027211308479309,1.688754964742699e+18,166.39969889322916,-1.1940185228983562,-9.079166730244957,0.6195416649182638,1.688754964742699e+18,166.39969889322916,-2.073405782381694,-9.455206553141275,1.584065556526184,1.6887549647427003e+18,166.3997004394531,-0.274965725839138,0.0139735490083694,-1.0878746807575226,1.688754964738374e+18,166.3953740234375,-0.2552398641904194,0.2128865371147791,-1.1625275015830994,,,,,,,,,,,,1.6887549647380634e+18,166.39506337890626,-5.477799940109253,51.30343856811523,-0.5050799787044525,1.6887549647380634e+18,166.39506337890626,-260.0063903808594,144.621240234375,-132.5090759277344,1.688754964742699e+18,166.39969889322916,0.5923988819122314,-0.7665573755900065,-0.1332009633382161,0.2089014301697412,-2.483496983846029,1.3013238112131755,-0.1648678680260975
1.45,1.6887549647902794e+18,166.4472794189453,5.864011883735657,-1.0808167457580566,-1.7121295630931854,1.6887549647946048e+18,166.45160473632814,3.01136722167333,-10.6917298634847,-0.3946163256963094,1.6887549647902794e+18,166.4472794189453,-2.7164167165756226,-9.26708698272705,1.7167402505874634,1.688754964785954e+18,166.44295402018227,-0.5304855505625407,-0.4465933988491694,-1.4332425793011982,1.688754964790276e+18,166.4472762858073,-0.5627087155977885,-0.2994766930739085,-1.3253739476203918,,,,,,,,,,,,1.6887549647880607e+18,166.44506059570313,-0.9198799848556518,51.75727996826172,-1.4298399686813354,1.6887549647880607e+18,166.44506059570313,-255.44847412109377,145.0750762939453,-133.4338409423828,1.6887549647902794e+18,166.4472794189453,0.56651172041893,-0.7888229489326477,-0.126068066805601,0.2021049559116363,-2.574007987976074,1.2369453310966492,-0.0924661494791507
1.5,1.6887549648378542e+18,166.49485416666667,1.0028924147288003,-6.147259712219238,-7.291104793548584,1.688754964846507e+18,166.50350708007812,-2.317847569783529,-16.189438819885254,-5.3992048899332685,1.6887549648378542e+18,166.49485416666667,-2.7580912113189697,-9.197556177775065,2.0068794886271157,1.6887549648378542e+18,166.49485416666667,-0.2478585739930471,0.9203703105449677,0.1268054445584614,1.688754964842183e+18,166.4991826171875,-0.1110756546258926,0.8123998815814654,0.1288416584332784,,,,,,,,,,,,1.6887549648380595e+18,166.49505947265624,-0.1976399987936019,51.8036392211914,-2.7083999633789064,1.6887549648380595e+18,166.49505947265624,-254.72623596191409,145.1214385986328,-134.7123992919922,1.6887549648378542e+18,166.49485416666667,0.5577356417973837,-0.7898743152618408,-0.1279608234763144,0.2204759816328684,-2.5092580318450928,1.2154759565989175,-0.1263014500339825
1.55,1.688754964889762e+18,166.54676212565104,2.185661514600118,-7.0669809977213545,-2.6678647994995117,1.6887549648984095e+18,166.55540950520833,-0.230907391756773,-16.12323792775472,0.289332111676534,1.688754964889762e+18,166.54676212565104,-2.4062633514404297,-9.360986709594728,1.6390753984451294,1.688754964889762e+18,166.54676212565104,1.1924089590708415,-0.0832812984784444,1.6996816222866376,1.6887549648940882e+18,166.5510882161458,1.2152145703633626,-0.0022398407260576,2.033417642116546,1.6887549648681372e+18,166.52513720703126,0.0,0.0,2.6633458137512207,6.132999897003174,1.2776498794555664,197.40542602539065,333.29998779296875,-122.916778,49.2787442,1.6887549648880604e+18,166.5450604980469,-1.5591599375009535,51.65723876953125,-1.06139996945858,1.6887549648880604e+18,166.5450604980469,-256.08775329589844,144.97503967285155,-133.06539916992188,1.688754964889762e+18,166.54676212565104,0.576050341129303,-0.7759857575098673,-0.1417255153258641,0.2135045528411865,-2.538607120513916,1.269145925839742,-0.0891230106353759
1.6,1.6887549649416673e+18,166.59866731770833,-1.2673195799191792,-2.0693187713623047,2.2507077852884927,1.6887549649503183e+18,166.60731852213542,-2.176870425542196,-12.081162134806316,3.759323755900065,1.6887549649416673e+18,166.59866731770833,-0.7837915966908137,-9.70500628153483,1.0937849084536235,1.6887549649416673e+18,166.59866731770833,0.8993972738583883,-0.1728748654325803,3.5348735650380454,1.6887549649459937e+18,166.60299381510416,0.8332711060841879,-0.1946623983482519,3.477604945500692,,,,,,,,,,,,1.6887549649380582e+18,166.595058203125,-9.484279823303222,50.854478454589845,1.3981199622154237,1.6887549649380582e+18,166.595058203125,-264.01287841796875,144.17227783203126,-130.60587463378906,1.6887549649416673e+18,166.59866731770833,0.64539768298467,-0.7199034293492635,-0.1454245795806248,0.2083396017551421,-2.1219950119654336,1.4284974733988445,-0.5125178247690201
1.65,1.688754964993572e+18,166.6505719401042,-4.245041211446126,-6.957879702250163,6.766563733418782,1.6887549649935726e+18,166.65057263183593,-3.5015968084335327,-17.313268661499023,8.02702260017395,1.688754964993572e+18,166.6505719401042,0.9394927422205608,-9.71315860748291,0.8515098889668783,1.688754964993572e+18,166.6505719401042,0.3021237660432234,-0.1510364313920339,3.741956869761149,1.6887549649978982e+18,166.65489819335937,0.2333505203326543,-0.3095050677657127,3.840000788370768,,,,,,,,,,,,1.6887549649880612e+18,166.64506123046877,-18.329279899597168,48.372998809814455,3.193959951400757,1.6887549649880612e+18,166.64506123046877,-272.8578735351563,141.6907958984375,-128.8100341796875,1.688754964993572e+18,166.6505719401042,0.7093043724695841,-0.6583017905553182,-0.1344648003578185,0.2114026447137197,-0.8205136060714722,1.434002955754598,-1.8256768782933552
1.7,1.6887549650454766e+18,166.7024765625,-3.3584696451822915,-2.3647114435831704,5.184675534566243,1.6887549650368256e+18,166.69382576497398,-1.6315062443415325,-12.493724505106607,7.378866672515869,1.6887549650454766e+18,166.7024765625,2.757209539413452,-9.324868202209473,1.2082731127738953,1.6887549650454766e+18,166.7024765625,-0.4421646296977997,-2.95327893892924,3.626859585444132,1.6887549650498038e+18,166.7068038736979,-0.4345288177331288,-3.1037553946177163,3.5120677947998047,,,,,,,,,,,,1.6887549650380603e+18,166.69506025390623,-27.8916389465332,44.04199905395508,1.6835999485105275,1.6887549650380603e+18,166.69506025390623,-282.42023315429685,137.35979614257812,-130.32040100097657,1.6887549650454766e+18,166.7024765625,0.7749377687772115,-0.5941413839658102,-0.0736927812298138,0.1997178395589192,-0.4144141872723897,1.2577104568481443,-2.333138863245646
1.75,1.6887549650973893e+18,166.7543893229167,-1.225908358891805,-0.4884552955627441,-2.287829319636027,1.688754965088736e+18,166.74573592122397,3.729413509368897,-9.926824251810707,-0.0279162327448526,1.6887549650973893e+18,166.7543893229167,4.060941139856975,-8.78995672861735,1.5168663263320925,1.6887549650973893e+18,166.7543893229167,0.6552038863301277,-0.3516547779242198,2.8891380627950034,1.6887549650930637e+18,166.75006372070314,0.4928918927907944,-0.4135557413101197,3.048370242118835,,,,,,,,,,,,1.6887549650880622e+18,166.74506240234376,-35.05547866821289,39.34743957519531,-2.7230399370193483,1.6887549650880622e+18,166.74506240234376,-289.5840698242188,132.6652374267578,-134.72703857421874,1.6887549650973893e+18,166.7543893229167,0.8232090870539347,-0.5405953725179037,-0.0178840548420945,0.1711237082878748,-0.3634889920552571,1.1112087170283,-2.5026790301005044
1.8,1.6887549651492974e+18,166.80629720052085,-11.27002970377604,8.402105490366617,-2.620189348856608,1.6887549651406449e+18,166.79764501953125,-6.760322093963623,-1.3970095713933308,-1.0989038149515789,1.6887549651492974e+18,166.80629720052085,5.03407096862793,-8.307632128397623,1.3365642229715984,1.6887549651492974e+18,166.80629720052085,0.6333654671907424,-2.583298166592916,2.30163844426473,1.6887549651363177e+18,166.79331795247398,0.9643525977929434,-1.4894421497980754,2.333047072092692,,,,,,,,,,,,1.6887549651380654e+18,166.79506547851562,-39.61828002929688,35.23115921020508,-1.9983599424362184,1.6887549651380654e+18,166.79506547851562,-294.146875,128.54895782470703,-134.00235900878906,1.6887549651492974e+18,166.80629720052085,0.8586930235226949,-0.4927664597829183,0.0003378899612774,0.1380588039755821,-0.2602577606836955,1.0101470549901326,-2.6784279346466064
1.85,1.6887549651925463e+18,166.84954626464844,-4.931892275810242,10.385259628295898,-1.0486725568771362,1.6887549651925504e+18,166.84955045572917,0.2606183091799418,2.3800609509150186,0.8410772085189819,1.6887549651925463e+18,166.84954626464844,5.533225059509277,-7.85230016708374,1.9846894145011904,1.6887549651925463e+18,166.84954626464844,0.0872010104358196,-2.67757511138916,1.5114333629608154,1.688754965188227e+18,166.84522713216143,0.1189660065186519,-2.799086411794027,1.6180293361345928,,,,,,,,,,,,1.6887549651880648e+18,166.84506494140624,-42.70487899780274,30.639079666137697,-6.658759880065918,1.6887549651880648e+18,166.84506494140624,-297.2334777832031,123.95687713623047,-138.66275634765626,1.6887549651925463e+18,166.84954626464844,0.8784180283546448,-0.4625919461250305,0.0620256680995225,0.1019089855253696,-0.3457438945770263,0.9276346564292908,-2.7364290952682495
1.9,1.6887549652358031e+18,166.89280314127606,-3.24708358446757,6.982039610544841,1.142929474512736,1.6887549652444572e+18,166.90145735677083,2.289532462755839,-1.6135600606600444,3.4035908381144204,1.6887549652358031e+18,166.89280314127606,5.34811798731486,-7.926649252573649,2.179828405380249,1.6887549652358031e+18,166.89280314127606,0.9618073503176372,-0.811127245426178,-1.0964522163073225,1.6887549652401252e+18,166.8971250813802,1.049619177977244,-0.6458882068594297,-1.2991576790809631,,,,,,,,,,,,1.6887549652380652e+18,166.89506513671876,-42.458438873291016,30.002239608764647,-10.062559700012208,1.6887549652380652e+18,166.89506513671876,-296.98704223632814,123.32003784179688,-142.06655883789062,1.6887549652358031e+18,166.89280314127606,0.8754237095514933,-0.4690520465373993,0.0856517329812049,0.0782663921515146,-0.3887445131937663,0.9406900008519492,-2.763794183731079
1.95,1.6887549652877115e+18,166.94471166992187,4.212390422821046,2.547675927480062,0.0323935349782308,1.6887549652963553e+18,166.95335522460937,11.97587807973226,-8.75733200709025,1.6753746668497722,1.6887549652877115e+18,166.94471166992187,4.43959379196167,-8.576435407002768,1.6833844979604085,1.6887549652877115e+18,166.94471166992187,1.2708542148272195,-0.0316122782727082,-2.3726006348927817,1.688754965292032e+18,166.9490321451823,1.1510737637678785,0.0012217313051223,-2.249867558479309,,,,,,,,,,,,1.6887549652880658e+18,166.94506596679688,-39.27667999267578,34.425959777832034,-8.798639869689941,1.6887549652880658e+18,166.94506596679688,-293.8052734375,127.74375762939454,-140.80263671875,1.6887549652877115e+18,166.94471166992187,0.8505924542744955,-0.518224447965622,0.070262831946214,0.0513744428753852,-0.3640319804350535,1.064779798189799,-2.8051437536875405
2.0,1.688754965339616e+18,166.99661580403645,10.417748928070068,-14.778388659159342,2.56934662659963,1.6887549653482678e+18,167.00526765950522,12.834901173909506,-19.7082842985789,4.372684001922607,1.688754965339616e+18,166.99661580403645,4.256571610768636,-8.652971267700195,1.780330975850423,1.688754965339616e+18,166.99661580403645,-0.1569414536158244,-2.3091724117596946,1.2060516079266863,1.688754965343944e+18,167.00094392903645,-0.1010472873846689,-2.647897164026896,1.3138184547424316,,,,,,,,,,,,1.6887549653380677e+18,166.99506767578126,-37.66871948242188,36.31207809448242,-8.627839946746827,1.6887549653380677e+18,166.99506767578126,-292.197314453125,129.6298797607422,-140.6318359375,1.688754965339616e+18,166.99661580403645,0.8458988467852274,-0.5245454907417297,0.0861932759483654,0.0346494174251953,-0.3967855672041575,1.08029309908549,-2.820123195648194
2.05,1.68875496539152e+18,167.04852010091145,-0.3034822146097819,2.4301161766052246,6.228822390238444,1.6887549654001684e+18,167.05716853841145,-0.8287142912546793,-9.833903223276138,9.351150830586752,1.68875496539152e+18,167.04852010091145,4.225055694580078,-8.557779312133789,2.2642269134521484,1.68875496539152e+18,167.04852010091145,0.4033746806283791,-1.3675745526949563,-0.5333362817764283,1.688754965395844e+18,167.05284415690105,0.3480913713574409,-0.9057095050811768,-0.6158030728499094,,,,,,,,,,,,1.688754965388063e+18,167.04506293945312,-36.97575912475586,35.382440185546876,-14.266679573059085,1.688754965388063e+18,167.04506293945312,-291.5043518066406,128.70023651123046,-146.27068176269532,1.68875496539152e+18,167.04852010091145,-0.8456249833106995,0.5141241947809855,-0.1427976290384928,0.0093475017541398,-0.49444580078125,1.0598254203796384,-2.8699865341186523
2.1,1.688754965443427e+18,167.10042716471352,-8.128235340118408,-3.6423397064208984,-3.6532986958821616,1.6887549654434263e+18,167.10042626953123,-0.2838486135005951,-12.153744220733644,-3.768396615982056,1.688754965443427e+18,167.10042716471352,4.2047403653462725,-8.60616366068522,2.1146384874979653,1.688754965443427e+18,167.10042716471352,-0.2244420746962229,1.591762105623881,0.1972585717837016,1.6887549654477527e+18,167.1047526041667,-0.2034690355261167,1.5125532547632854,0.0188350280125935,,,,,,,,,,,,1.6887549654380672e+18,167.09506728515626,-37.77851943969726,35.67768020629883,-13.22479991912842,1.6887549654380672e+18,167.09506728515626,-292.30711669921874,128.99547729492187,-145.22879943847656,1.688754965443427e+18,167.10042716471352,0.2847439050674438,-0.1699442068735758,0.034633440275987,0.0070281835117687,-0.468346099058787,1.0699159701665242,-2.848235289255778
2.15,1.6887549654953275e+18,167.15232763671875,-3.5105319023132324,0.989030679066976,-0.7424522638320923,1.6887549654866788e+18,167.14367871093748,-0.3409771521886188,-7.813961664835612,0.5796612848838171,1.6887549654953275e+18,167.15232763671875,3.4305083751678467,-9.041719118754068,1.5453684727350872,1.6887549654953275e+18,167.15232763671875,0.7699447274208069,2.899115522702535,-3.6603554089864097,1.688754965499659e+18,167.1566590983073,0.776766041914622,3.2003739277521768,-3.915748119354248,,,,,,,,,,,,1.6887549654880622e+18,167.14506220703126,-35.35071868896485,37.76875915527344,-9.92347984313965,1.6887549654880622e+18,167.14506220703126,-289.8793151855469,131.08655700683593,-141.92748107910157,1.6887549654953275e+18,167.15232763671875,0.8207724293073019,-0.5641437967618307,0.0760817453265189,0.0287791627148786,-0.4232028325398763,1.1760093371073406,-2.786962111790975
2.2,1.6887549655472364e+18,167.204236328125,-8.07848866780599,1.3036184310913086,0.4243426124254862,1.6887549655385843e+18,167.19558422851563,-5.899105548858643,-8.011569023132324,1.7395820220311482,1.6887549655472364e+18,167.204236328125,1.441333432992299,-9.638859430948893,0.9983146588007608,1.6887549655472364e+18,167.204236328125,-0.7838419154286385,4.112141291300456,-4.080121676127116,1.6887549655429048e+18,167.19990478515626,-0.5234351493418217,4.181525230407715,-4.421213626861572,,,,,,,,,,,,1.6887549655380695e+18,167.19506953125,-27.08155975341797,44.578799438476565,-3.4086800098419188,1.6887549655380695e+18,167.19506953125,-281.6101440429687,137.89659729003907,-135.4126770019531,1.6887549655472364e+18,167.204236328125,0.7508937319119772,-0.6523140470186869,-0.014064143722256,0.0937157819668451,-0.6466759045918783,1.3868761857350669,-2.341705004374186
2.25,1.688754965599142e+18,167.2561416829427,-2.637704531351725,-4.361551920572917,-1.469899515310923,1.68875496559049e+18,167.2474901529948,-4.683950265248617,-14.12243938446045,0.3780659735202789,1.688754965599142e+18,167.2561416829427,0.3921762853860855,-9.67478847503662,1.5609509150187175,1.688754965599142e+18,167.2561416829427,-1.0055859896043935,0.2348776857058207,-1.4742214282353718,1.6887549655861668e+18,167.24316682942708,-1.4988088011741638,1.6428202887376149,-1.5988888343175252,,,,,,,,,,,,1.688754965588069e+18,167.245069140625,-20.90103950500488,47.83131866455078,-2.5156399250030517,1.688754965588069e+18,167.245069140625,-275.42963256835935,141.14911804199218,-134.5196319580078,1.688754965599142e+18,167.2561416829427,0.704239547252655,-0.6915608843167623,-0.038914189984401,0.1553922196229298,-1.3201956748962402,1.4036940733591716,-1.5447603464126587
2.3,1.688754965642396e+18,167.29939587402345,8.467613935470581,0.9745187759399414,-2.0830768942832947,1.6887549656423954e+18,167.29939526367187,7.139983336130778,-8.510871251424154,-0.4556333012878894,1.688754965642396e+18,167.29939587402345,-0.6671749502420425,-9.671673774719238,1.4763213396072388,1.688754965642396e+18,167.29939587402345,0.8313112258911133,0.2112066745758056,-3.304933786392212,1.6887549656380713e+18,167.2950713704427,0.6662503778934479,-0.0562504529953002,-2.9820404847462973,,,,,,,,,,,,1.6887549656380692e+18,167.2950693359375,-15.542799949645996,49.495398712158206,-3.435519886016846,1.6887549656380692e+18,167.2950693359375,-270.0714050292969,142.81319580078124,-135.43952026367188,1.688754965642396e+18,167.29939587402345,0.6680333316326141,-0.7294429242610931,-0.0403727460652589,0.1406952738761901,-1.987493932247162,1.4019644856452942,-0.8963973820209503
2.35,1.6887549656856504e+18,167.34265039062498,1.533286492029826,4.203666051228841,-0.4549592137336731,1.688754965694301e+18,167.35130110677085,-0.3800599873065948,-5.370092074076335,1.004586696624756,1.6887549656856504e+18,167.34265039062498,-1.338334838549296,-9.636811892191568,1.2512951294581096,1.6887549656856504e+18,167.34265039062498,0.720719168583552,3.260645945866903,-1.4492268959681194,1.6887549656899697e+18,167.3469697265625,0.6387105286121367,3.1708997090657554,-1.368592659632365,,,,,,,,,,,,1.6887549656880653e+18,167.34506513671874,-9.313479804992676,50.85691909790039,-0.5197200134396553,1.6887549656880653e+18,167.34506513671874,-263.8420776367187,144.17471618652343,-132.52371826171876,1.6887549656856504e+18,167.34265039062498,0.6343716184298197,-0.7466536561648051,-0.1005522161722183,0.1712391028801599,-2.38323179880778,1.3823837041854858,-0.369707316160202
2.4,1.688754965737552e+18,167.39455167643231,0.6251614888509115,2.1240490277608237,-1.1911585330963137,1.688754965746206e+18,167.40320613606772,-1.3104691902796428,-7.988039652506511,0.0105682971576849,1.688754965737552e+18,167.39455167643231,-1.960619330406189,-9.514922459920248,1.343625783920288,1.688754965737552e+18,167.39455167643231,-0.2909754750629265,0.8831075330575308,-1.6642005840937295,1.688754965741882e+18,167.3988818359375,-0.3447316239277522,0.7470373014609019,-1.6503033638000488,,,,,,,,,,,,1.6887549657380664e+18,167.39506660156252,-5.316759872436523,51.5279182434082,1.0321199893951416,1.6887549657380664e+18,167.39506660156252,-259.84535522460936,144.84571533203126,-130.9718811035156,1.688754965737552e+18,167.39455167643231,0.5997932553291321,-0.7614844441413879,-0.140568196773529,0.2011449088652928,-2.533998489379883,1.3258335987726848,-0.1156959136327107
2.45,1.6887549657894554e+18,167.44645532226562,3.5526488622029624,-1.440988540649414,-1.896824320157369,1.6887549657981112e+18,167.455111328125,2.142972161372503,-11.04247760772705,-0.370089903473854,1.6887549657894554e+18,167.44645532226562,-2.7140280405680337,-9.29704507191976,1.5426113605499268,1.6887549657894554e+18,167.44645532226562,-0.5265149474143982,-0.7392487575610479,-1.533780813217163,1.6887549657937856e+18,167.45078540039063,-0.5353724956512451,-0.8036950329939524,-1.4897985458374023,,,,,,,,,,,,1.688754965788066e+18,167.445066015625,-1.434719967842102,51.532799530029294,-0.4416399806737899,1.688754965788066e+18,167.445066015625,-255.96331176757812,144.85059814453126,-132.44563903808594,1.6887549657894554e+18,167.44645532226562,0.567124605178833,-0.7866389751434326,-0.1385504603385924,0.2004827111959457,-2.6196963787078857,1.2467197179794312,-0.0311396910498539
2.5,1.6887549658413665e+18,167.4983661295573,3.828201293945313,-4.658753395080566,-5.036794185638428,1.688754965850013e+18,167.50701318359376,-1.1182456811269124,-14.807783444722494,-3.8506497542063394,1.6887549658413665e+18,167.4983661295573,-2.9756223360697427,-9.169212341308594,1.8119917313257856,1.6887549658413665e+18,167.4983661295573,-0.4150320142507553,1.4928527722756069,0.008959357937177,1.6887549658456922e+18,167.50269213867188,-0.3258966108163197,1.6514232754707336,0.0848593662182489,,,,,,,,,,,,1.6887549658380657e+18,167.49506572265625,1.595759963989258,51.825598907470706,-1.581119966506958,1.6887549658380657e+18,167.49506572265625,-252.93283386230468,145.14339904785157,-133.58511657714843,1.6887549658413665e+18,167.4983661295573,0.5515831311543783,-0.7957243720690409,-0.1348752627770105,0.2101530184348423,-2.5917304356892905,1.2073251406351726,-0.0484659038484096
2.55,1.6887549658932705e+18,167.5502705891927,0.8475929498672485,-6.103441874186198,-4.427972396214803,1.6887549658932705e+18,167.55027062988282,-1.313958689570427,-14.75803279876709,-2.604288399219513,1.6887549658932705e+18,167.5502705891927,-2.8047858079274497,-9.239978154500326,1.719820261001587,1.6887549658932705e+18,167.5502705891927,0.8364781538645426,-0.184379498163859,0.5407175483802954,1.6887549658975972e+18,167.55459716796875,0.8673268357912699,-0.3187189400196075,0.7818057437737783,1.688754965906249e+18,167.5632490234375,0.0,0.0,2.672964572906494,5.676000118255615,1.296656847000122,195.55349731445312,333.29998779296875,-122.9167796,49.2787292,1.688754965888065e+18,167.54506499023438,1.085800004005432,51.625518798828125,-1.5079199552536011,1.688754965888065e+18,167.54506499023438,-253.4427917480469,144.9433166503906,-133.5119171142578,1.6887549658932705e+18,167.5502705891927,0.555046538511912,-0.7864619493484497,-0.1554418106873829,0.2216830948988596,-2.589597702026367,1.2285970052083333,-0.0038922500486175
2.6,1.6887549659451794e+18,167.6021796061198,-0.2427805463473002,-4.532640139261882,0.0750844478607177,1.6887549659365192e+18,167.59351904296875,-1.7318053642908733,-15.12782351175944,0.9361918369928997,1.6887549659451794e+18,167.6021796061198,-1.5223883191744487,-9.595624287923178,1.2384999593098958,1.6887549659451794e+18,167.6021796061198,0.8805113434791565,-0.2437352339426676,3.741447846094767,1.6887549659494986e+18,167.60649886067708,0.8943576415379842,-0.2382374440009394,3.810271978378296,,,,,,,,,,,,1.6887549659380646e+18,167.59506455078125,-3.7478399157524103,51.503519439697264,0.839359986782074,1.6887549659380646e+18,167.59506455078125,-258.27643127441405,144.82131958007812,-131.16463928222657,1.6887549659451794e+18,167.6021796061198,0.614047626654307,-0.7438820997873942,-0.153865173459053,0.2123442441225051,-2.4210166931152344,1.3672903776168823,-0.1937306883434454
2.65,1.688754965997082e+18,167.6540819498698,-2.329827626546224,-3.437800089518229,2.7446388403574624,1.6887549659884306e+18,167.6454304199219,-1.8195422490437825,-12.371291796366371,2.854238669077555,1.688754965997082e+18,167.6540819498698,0.2974601586659749,-9.765838305155436,0.7368428508440653,1.688754965997082e+18,167.6540819498698,0.9350310564041138,-0.1568905611832936,3.4675257205963135,1.6887549659927567e+18,167.6497567138672,1.0871110558509829,-0.1346194297075271,3.4086281061172485,,,,,,,,,,,,1.688754965988067e+18,167.64506708984374,-14.696119689941408,49.21723937988281,3.362319993972778,1.688754965988067e+18,167.64506708984374,-269.22471313476564,142.53504028320313,-128.6416793823242,1.688754965997082e+18,167.6540819498698,0.6876224676767985,-0.6799859007199606,-0.1480980763832727,0.2055416007836659,-1.2121993899345398,1.4757806062698364,-1.423315207163493
2.7,1.688754966048983e+18,167.70598299153644,-6.966572920481364,-6.786919593811035,8.678807258605957,1.6887549660403354e+18,167.69733553059896,-4.682953437169393,-16.957735061645508,9.398409366607666,1.688754966048983e+18,167.70598299153644,2.0119709571202593,-9.553908665974935,0.8361765543619791,1.688754966048983e+18,167.70598299153644,-0.4063781077663104,-2.309477905432383,3.4334189891815186,1.688754966036011e+18,167.6930109049479,-0.2693406740824381,-1.0700832009315493,3.6463564236958823,,,,,,,,,,,,1.688754966038064e+18,167.69506411132812,-23.41667938232422,46.0647590637207,3.5087199211120605,1.688754966038064e+18,167.69506411132812,-277.9452697753906,139.38255615234374,-128.49527740478516,1.688754966048983e+18,167.70598299153644,0.7491522828737894,-0.6198814113934835,-0.1110959251721699,0.2030365069707234,-0.398214707771937,1.345850944519043,-2.2923783461252847
2.75,1.6887549660922404e+18,167.74924047851562,2.9044430255889893,-1.909862041473389,0.6309331059455873,1.688754966092244e+18,167.7492440592448,3.1537402470906577,-11.714461962381998,2.1950159470240274,1.6887549660922404e+18,167.74924047851562,3.0783478021621704,-9.212419033050535,1.3456625938415527,1.6887549660922404e+18,167.74924047851562,0.0464257560670375,-3.2045227885246277,3.2695798873901367,1.6887549660879168e+18,167.7449169108073,0.071929386506478,-3.4349461793899536,3.1757357120513916,,,,,,,,,,,,1.688754966088069e+18,167.74506918945312,-31.219799041748047,42.19736022949219,-1.2029200077056883,1.688754966088069e+18,167.74506918945312,-285.748388671875,135.5151580810547,-133.20691833496093,1.6887549660922404e+18,167.74924047851562,0.7941571772098541,-0.5845633149147034,-0.0324432868510484,0.1619072034955024,-0.4155198484659195,1.220442771911621,-2.446043372154236
2.8,1.688754966135491e+18,167.7924912923177,-7.900779406229655,2.3061585426330566,-2.838102340698242,1.6887549661441416e+18,167.8011416015625,-4.1421754360198975,-4.528815547625224,-1.501296798388163,1.688754966135491e+18,167.7924912923177,4.307494163513184,-8.728337923685709,1.1670392751693726,1.688754966135491e+18,167.7924912923177,1.1991284489631653,-1.1881328622500102,3.146006981531779,1.6887549661398203e+18,167.7968203938802,1.20971683661143,-1.3930272857348125,3.065474510192871,,,,,,,,,,,,1.6887549661380654e+18,167.795065234375,-37.53695907592773,36.74395904541016,-2.0422799587249756,1.6887549661380654e+18,167.795065234375,-292.0655578613281,130.06175537109374,-134.04627990722656,1.688754966135491e+18,167.7924912923177,0.837440013885498,-0.5290635426839193,-0.0135409793195624,0.1342041964332262,-0.2688926110665003,1.0973908106486003,-2.657405058542887
2.85,1.6887549661874e+18,167.84439998372395,-7.039865652720134,11.27230962117513,-1.653736432393392,1.6887549661960517e+18,167.85305159505208,-1.046859969695409,3.892125447591146,0.7256235082944235,1.6887549661874e+18,167.84439998372395,5.308993816375732,-8.105451424916586,1.4857649008433025,1.6887549661874e+18,167.84439998372395,0.1273145042359829,-2.9461522102355957,2.470339020093282,1.6887549661917263e+18,167.84872631835938,0.0573195268710454,-2.926706314086914,2.330959955851237,,,,,,,,,,,,1.688754966188065e+18,167.84506499023436,-42.49991912841797,31.62728042602539,-5.428999900817871,1.688754966188065e+18,167.84506499023436,-297.0285217285156,124.94507751464845,-137.43299865722656,1.6887549661874e+18,167.84439998372395,0.8734609087308248,-0.476659208536148,0.0395845382784803,0.0866637453436851,-0.2728751252094903,0.972943385442098,-2.799249013264974
2.9,1.688754966239305e+18,167.89630501302085,-4.277481873830159,8.184733549753824,1.0453910032908122,1.6887549662479557e+18,167.9049559733073,1.5046866138776145,-0.3563311497370402,3.2402806282043457,1.688754966239305e+18,167.89630501302085,5.495963414510091,-7.836820284525554,2.142571131388346,1.688754966239305e+18,167.89630501302085,0.3909028520186742,-1.4132367372512815,-0.4099923769632975,1.6887549662436314e+18,167.90063151041667,0.4632903933525085,-1.1971431573232014,-0.627358615398407,,,,,,,,,,,,1.688754966238062e+18,167.8950621582031,-43.168478393554686,29.523999404907222,-10.282159805297852,1.688754966238062e+18,167.8950621582031,-297.69707641601565,122.841796875,-142.2861572265625,1.688754966239305e+18,167.89630501302085,0.8812813560167948,-0.4593157867590586,0.0942037304242451,0.0581179969012736,-0.3734395106633504,0.9251671234766642,-2.821944236755371
2.95,1.6887549662912097e+18,167.94820947265626,0.8560601870218912,5.111929416656494,1.731415629386902,1.6887549662998582e+18,167.9568581542969,6.735596338907878,-4.361318031946818,3.565505107243856,1.6887549662912097e+18,167.94820947265626,4.784955819447835,-8.350857098897299,1.855948607126872,1.6887549662912097e+18,167.94820947265626,1.089579939842224,0.5249877621730169,-2.510350743929545,1.6887549662955336e+18,167.95253369140624,1.0858638683954875,0.5354742954174677,-2.64555553595225,,,,,,,,,,,,1.6887549662880694e+18,167.94506938476562,-40.69431838989258,32.51544036865234,-10.064999771118163,1.6887549662880694e+18,167.94506938476562,-295.22291870117186,125.83323822021484,-142.06900024414062,1.6887549662912097e+18,167.94820947265626,0.8612730900446574,-0.4986454943815867,0.0846888025601704,0.0443168332179386,-0.3710950314998626,1.0193992853164673,-2.8299010594685874
3.0,1.6887549663431137e+18,168.00011385091145,7.227934201558431,-12.976439476013184,1.3252289692560832,1.6887549663431132e+18,168.00011328124998,10.67498016357422,-22.71566390991211,3.8832521438598633,1.6887549663431137e+18,168.00011385091145,3.8655268351236978,-8.84175936381022,1.7492734988530476,1.6887549663431137e+18,168.00011385091145,-0.1588249703248342,-2.22986176609993,-0.2168571154276529,1.688754966347442e+18,168.00444181315103,-0.2694933811823527,-2.6053403417269387,0.2602285345395406,,,,,,,,,,,,1.6887549663380636e+18,167.99506362304686,-36.226679992675784,37.38567962646484,-8.503399848937988,1.6887549663380636e+18,167.99506362304686,-290.75526733398436,130.70347900390624,-140.50739440917968,1.6887549663431137e+18,168.00011385091145,0.8342979152997335,-0.5429598291714987,0.08865703890721,0.0287124775350093,-0.4261671702067057,1.122740387916565,-2.8024802207946777
3.05,1.6887549663950203e+18,168.0520205078125,8.552724361419678,-4.844857533772786,2.6269521713256836,1.6887549663863675e+18,168.04336775716146,15.984054883321129,-16.24327786763509,2.780260473489762,1.6887549663950203e+18,168.0520205078125,4.239042441050212,-8.532260258992514,2.337082544962565,1.6887549663950203e+18,168.0520205078125,0.1861102804541587,-1.3181962594389915,0.7228063146273295,1.688754966399346e+18,168.05634627278644,0.2556470980246861,-0.8443175951639811,0.4362596273422241,,,,,,,,,,,,1.6887549663880712e+18,168.04507109374998,-37.05139923095703,35.53859939575195,-13.568839645385742,1.6887549663880712e+18,168.04507109374998,-291.5799926757812,128.8563980102539,-145.57283935546874,1.6887549663950203e+18,168.0520205078125,-0.8460608522097269,0.5123386383056641,-0.1467669705549875,0.0090438426317025,-0.5057369271914164,1.054485321044922,-2.8642712434132895
3.1,1.6887549664469256e+18,168.10392553710938,-13.82644780476888,0.2811549504597987,1.6275307337443037,1.6887549664382712e+18,168.0952713216146,-8.955936272939047,-10.978270292282104,6.410969972610474,1.6887549664469256e+18,168.10392553710938,4.257287661234538,-8.58409309387207,2.1014084815979004,1.6887549664469256e+18,168.10392553710938,0.3502294005205233,1.0099129577477772,-0.0797688215970993,1.6887549664425933e+18,168.09959338378906,0.2388483043760061,1.219210684299469,0.4260021597146988,,,,,,,,,,,,1.688754966438065e+18,168.09506508789065,-37.1709602355957,35.087198638916014,-14.012919807434082,1.688754966438065e+18,168.09506508789065,-291.6995544433594,128.40499877929688,-146.0169189453125,1.6887549664469256e+18,168.10392553710938,-0.8466596603393555,0.5156123439470927,-0.1312282135089238,0.0068721749509373,-0.4603413740793864,1.065286636352539,-2.883312463760376
3.15,1.6887549664988265e+18,168.15582649739585,-0.8823175430297852,2.0454301834106445,-0.1426800290743509,1.6887549664901765e+18,168.1471765950521,2.3192431926727295,-4.962514673670133,0.5856433312098185,1.6887549664988265e+18,168.15582649739585,3.5219363371531167,-9.024738311767578,1.4588566621144612,1.6887549664988265e+18,168.15582649739585,0.7437793513139089,3.424663265546163,-3.2523484230041504,1.6887549664858555e+18,168.14285571289062,0.7777332663536072,2.1338541408379874,-2.414393941561381,,,,,,,,,,,,1.688754966488061e+18,168.1450609375,-36.968440246582034,36.54631881713867,-11.060519599914551,1.688754966488061e+18,168.1450609375,-291.4970397949219,129.86411743164064,-143.06451721191405,1.6887549664988265e+18,168.15582649739585,0.2660179535547892,-0.2021578749020894,0.0078211153546968,0.0125288326914111,-0.3909333447615306,1.1706289847691853,-2.8582149346669516
3.2,1.688754966542086e+18,168.19908630371094,-8.023452281951904,1.2887530326843262,1.2919307947158811,1.6887549665420813e+18,168.1990812174479,-5.970491250356038,-8.54098097483317,2.179661989212036,1.688754966542086e+18,168.19908630371094,1.8680519461631775,-9.589298248291016,0.7791814208030701,1.688754966542086e+18,168.19908630371094,-0.3959170477464795,5.4591498374938965,-5.1909801959991455,1.688754966537758e+18,168.19475821940105,-0.2604831159114837,5.423465251922607,-4.978449980417888,,,,,,,,,,,,1.6887549665380667e+18,168.19506669921876,-30.617119598388673,42.83176040649414,-3.674639868736267,1.6887549665380667e+18,168.19506669921876,-285.1457153320313,136.1495574951172,-135.67864074707032,1.688754966542086e+18,168.19908630371094,0.7675846219062805,-0.6356353461742401,-0.0102784552145749,0.0747516602277755,-0.412320852279663,1.3618330359458923,-2.608331203460694
3.25,1.688754966585338e+18,168.24233772786457,-8.258799393971762,-0.983741283416748,-1.6103012760480244,1.6887549665939876e+18,168.2509875488281,-7.34177811940511,-11.70150105158488,-1.0462617116669817,1.688754966585338e+18,168.24233772786457,0.3925310025612513,-9.711421012878418,1.2628679474194844,1.688754966585338e+18,168.24233772786457,-2.0667608181635537,3.560886224110922,-2.8119144837061563,1.6887549665896653e+18,168.24666552734377,-2.0771454572677612,3.2172236839930215,-2.554943879445394,,,,,,,,,,,,1.6887549665880622e+18,168.24506201171874,-19.59075927734375,47.94599914550781,-0.7588399887084961,1.6887549665880622e+18,168.24506201171874,-274.1193542480469,141.26380004882813,-132.7628387451172,1.688754966585338e+18,168.24233772786457,0.7025486628214518,-0.6894514759381613,-0.0655014291405677,0.1601034353176752,-1.234844962755839,1.4291928211847942,-1.5853698253631592
3.3,1.6887549666372416e+18,168.29424178059895,2.740322470664978,-1.9472115834554036,-4.258012930552165,1.6887549666458944e+18,168.30289453125,3.514857053756714,-10.892328262329102,-1.8989042242368064,1.6887549666372416e+18,168.29424178059895,-0.5673040995995203,-9.606176376342772,1.881864865620931,1.6887549666372416e+18,168.29424178059895,-0.5313509653011957,-0.5443318349619707,-1.965866208076477,1.6887549666415708e+18,168.29857088216144,-0.3670790990193684,-0.5276857751111189,-2.020538608233134,,,,,,,,,,,,1.6887549666380672e+18,168.29506723632812,-15.179239654541016,49.52711944580078,-3.2232399463653563,1.6887549666380672e+18,168.29506723632812,-269.70783081054685,142.84491577148438,-135.22723693847655,1.6887549666372416e+18,168.29424178059895,0.658365786075592,-0.7239397764205933,-0.0671097114682197,0.1941788494586944,-1.8522706031799316,1.3662737607955933,-0.9156896273295084
3.35,1.68875496668915e+18,168.34614982096355,2.9587429761886597,1.8273992538452148,-1.7490726312001543,1.6887549666977969e+18,168.3547971191406,0.8634101351102194,-7.022734959920247,0.1766700744628906,1.68875496668915e+18,168.34614982096355,-1.395096778869629,-9.555062611897789,1.722277561823527,1.68875496668915e+18,168.34614982096355,0.7752898136774699,1.8603392044703169,-1.5548557043075562,1.6887549666934764e+18,168.3504763997396,0.7849109371503195,1.9553287426630657,-1.4922419389088948,,,,,,,,,,,,1.6887549666880663e+18,168.3450663574219,-10.025959968566896,50.64707870483399,-2.1423200130462647,1.6887549666880663e+18,168.3450663574219,-264.55455322265624,143.96487731933593,-134.1463195800781,1.68875496668915e+18,168.34614982096355,0.6242688894271851,-0.7491753300031027,-0.0968343963225682,0.1982056945562362,-2.2472167015075684,1.3419655561447144,-0.4711675445238749
3.4,1.6887549667410514e+18,168.39805135091146,1.2228028774261477,2.385440190633138,-1.1155073245366414,1.688754966749702e+18,168.40670174153647,-0.944167951742808,-7.686743418375651,0.6329015890757242,1.6887549667410514e+18,168.39805135091146,-1.926156719525655,-9.483392715454102,1.6009757121404011,1.6887549667410514e+18,168.39805135091146,0.2017891456683476,1.2903510530789692,-1.4123204549153645,1.6887549667453816e+18,168.40238159179685,0.1386664087573687,1.1692470113436382,-1.406822641690572,,,,,,,,,,,,1.688754966738068e+18,168.3950681640625,-6.380599880218506,51.02283935546875,-0.0390400037169456,1.688754966738068e+18,168.3950681640625,-260.90919799804686,144.34063720703125,-132.0430419921875,1.6887549667410514e+18,168.39805135091146,0.594890296459198,-0.7599812150001526,-0.1424429814020792,0.2192538330952325,-2.442701816558838,1.312287449836731,-0.1771210928757985
3.45,1.688754966792957e+18,168.44995646158853,2.905429005622864,-0.0571708679199219,-0.5930409828821818,1.68875496679296e+18,168.44996020507813,0.1875374913215637,-9.278169631958008,1.1673983335494995,1.688754966792957e+18,168.44995646158853,-2.5605271657307944,-9.319745381673178,1.6687389612197876,1.688754966792957e+18,168.44995646158853,-0.2884811162948608,-0.3853541575372219,-1.3435471852620442,1.6887549667972915e+18,168.45429150390626,-0.3336851447820663,-0.4331034670273463,-1.3206397692362466,,,,,,,,,,,,1.688754966788063e+18,168.44506298828125,-2.657159924507141,51.203399658203125,-0.1219999976456165,1.688754966788063e+18,168.44506298828125,-257.1857543945313,144.5211975097656,-132.1259979248047,1.688754966792957e+18,168.44995646158853,0.5666383902231852,-0.7791289885838827,-0.1522684643665948,0.2204268972078958,-2.5596847534179688,1.2537751992543538,-0.0415819299717743
3.5,1.6887549668448584e+18,168.50185839843752,2.9840837319691977,-3.885924975077311,-5.394519170125325,1.6887549668362066e+18,168.49320662434897,1.2600204944610596,-12.115459442138672,-2.144766608874003,1.6887549668448584e+18,168.50185839843752,-2.844366470972697,-9.185509363810224,1.93821116288503,1.6887549668448584e+18,168.50185839843752,-0.653982142607371,0.5034038672844569,0.0086030264695485,1.6887549668491858e+18,168.50618595377605,-0.5943209677934647,0.535321573416392,0.1249728401501973,,,,,,,,,,,,1.6887549668380626e+18,168.49506254882812,-0.3635600090026855,51.61087875366211,-1.7567999601364137,1.6887549668380626e+18,168.49506254882812,-254.89215393066405,144.92867736816407,-133.76079711914062,1.6887549668448584e+18,168.50185839843752,0.551145056883494,-0.7897466619809469,-0.1450671007235844,0.2268156657616297,-2.541031837463379,1.2120110591252644,-0.0594796060274044
3.55,1.688754966896772e+18,168.55377205403647,3.967740297317505,-5.361921310424805,-4.930811961491902,1.6887549668881216e+18,168.54512182617188,0.1932204663753509,-14.994024912516275,-4.192025899887085,1.688754966896772e+18,168.55377205403647,-2.7105748653411865,-9.25308354695638,1.7995288372039795,1.688754966896772e+18,168.55377205403647,0.8896743257840475,-0.0516181141138076,0.3679954117784897,1.6887549668924467e+18,168.5494466552734,0.9182068109512328,-0.3103195428848266,-0.1488984078168868,,,,,,,,,,,,1.6887549668880666e+18,168.54506645507814,-0.4806799948215484,51.430319213867186,-1.7250799894332889,1.6887549668880666e+18,168.54506645507814,-255.00927734375,144.74811706542968,-133.7290771484375,1.688754966896772e+18,168.55377205403647,0.5577606360117594,-0.7840745449066162,-0.152080883582433,0.2256542891263961,-2.5539790789286294,1.232440749804179,-0.0388041685024896
3.6,1.6887549669486756e+18,168.6056755371094,-1.0590094725290935,-5.434017181396484,1.5009326140085857,1.6887549669400174e+18,168.59701708984375,-1.3702898224194844,-15.034902254740397,2.4608186880747476,1.6887549669486756e+18,168.6056755371094,-1.493597447872162,-9.594148635864258,1.2910174528757732,1.6887549669486756e+18,168.6056755371094,1.1933252414067586,0.4736750945448875,3.505450169245402,1.6887549669356954e+18,168.5926953938802,1.1370747884114585,0.6793330609798431,3.059874971707662,1.6887549669443525e+18,168.60135229492187,0.0,0.0,2.6833407878875732,5.479000091552734,1.3149441480636597,193.82228088378903,333.29998779296875,-122.9167828,49.278715,1.688754966938064e+18,168.59506401367187,-4.1065198421478275,51.425438690185544,0.8759600102901459,1.688754966938064e+18,168.59506401367187,-258.63511047363284,144.7432403564453,-131.12804260253907,1.6887549669486756e+18,168.6056755371094,0.6097384492556254,-0.7398946086565653,-0.1677492310603459,0.2277640054623285,-2.395751158396403,1.3663882811864216,-0.1757106905182202
3.65,1.6887549670005809e+18,168.65758064778643,-3.222691377003988,-4.787404696146647,3.483387311299642,1.6887549669919263e+18,168.6489268391927,-3.1347970962524414,-14.15633742014567,3.990231196085612,1.6887549670005809e+18,168.65758064778643,0.2425666948159535,-9.75980313618978,0.8401684165000916,1.6887549670005809e+18,168.65758064778643,0.6182974278926849,-0.3279837369918823,3.43143367767334,1.6887549669876065e+18,168.64460628255208,0.8672759135564169,-0.2923499196767807,3.413107713063558,,,,,,,,,,,,1.6887549669880653e+18,168.64506518554688,-13.33947982788086,49.734517669677736,3.5989998817443847,1.6887549669880653e+18,168.64506518554688,-267.8680786132812,143.0523193359375,-128.40500030517578,1.6887549670005809e+18,168.65758064778643,0.6793261766433716,-0.6789478262265524,-0.1617770741383234,0.2253663192192713,-1.314681609471639,1.469430685043335,-1.2715865174929302
3.7,1.688754967043835e+18,168.70083471679686,-3.4933277368545532,-5.441270351409912,6.963310718536377,1.688754967043835e+18,168.7008348795573,-1.6301104227701824,-14.976078987121582,7.742376486460368,1.688754967043835e+18,168.70083471679686,1.7745198011398315,-9.60105276107788,0.8888607323169708,1.688754967043835e+18,168.70083471679686,-0.4720461219549179,-1.112385630607605,4.0298779010772705,1.6887549670395105e+18,168.69651033528646,-0.3004947900772095,-0.9920451740423838,3.940946261088053,,,,,,,,,,,,1.6887549670380634e+18,168.69506352539062,-22.67979965209961,46.65523986816406,3.9820799350738527,1.6887549670380634e+18,168.69506352539062,-277.2083984375,139.97303771972656,-128.02191619873048,1.688754967043835e+18,168.70083471679686,0.7333880066871643,-0.6255277693271637,-0.1335942521691322,0.2294778153300284,-0.4730630069971084,1.366113543510437,-2.146393656730652
3.75,1.6887549670870884e+18,168.74408837890624,-1.4822119077046711,-2.970477739969889,3.2434186140696206,1.6887549670957394e+18,168.7527393391927,3.060818910598755,-11.81874910990397,3.0354949484268823,1.6887549670870884e+18,168.74408837890624,3.2099658648173013,-9.144625345865885,1.439459204673767,1.6887549670870884e+18,168.74408837890624,-0.3913609981536865,-3.154457171758016,3.773467381795247,1.6887549670914127e+18,168.74841276041664,-0.3225368534525235,-3.0455196698506675,3.722561836242676,,,,,,,,,,,,1.6887549670880653e+18,168.74506547851564,-31.461359786987305,42.15099868774414,0.3855199873447417,1.6887549670880653e+18,168.74506547851564,-285.9899536132813,135.468798828125,-131.61847534179688,1.6887549670870884e+18,168.74408837890624,0.7859649062156677,-0.5755779345830282,-0.0633669141680001,0.213629404703776,-0.4220828612645467,1.2029266754786174,-2.3183483282725015
3.8,1.6887549671389952e+18,168.7959951985677,-4.963667551676433,0.0541555086771647,-2.5935239791870117,1.6887549671476452e+18,168.8046452636719,-3.4337004820505777,-6.635496497154236,-1.011366347471873,1.6887549671389952e+18,168.7959951985677,4.566993713378906,-8.551510492960611,1.456259806950887,1.6887549671389952e+18,168.7959951985677,1.064381758371989,-0.0247909501194953,2.67925492922465,1.6887549671433203e+18,168.80032014973958,1.136311153570811,-0.14222980539004,2.574847936630249,,,,,,,,,,,,1.688754967138064e+18,168.79506401367186,-38.79111938476562,36.163239288330075,-2.030079960823059,1.688754967138064e+18,168.79506401367186,-293.31971435546876,129.4810363769531,-134.0340789794922,1.6887549671389952e+18,168.7959951985677,0.8348803917566935,-0.5159002939860026,-0.0274558675785859,0.1889222015937169,-0.3125262161095937,1.0588172674179075,-2.511406421661377
3.85,1.6887549671908997e+18,168.8478993326823,-10.279696146647137,9.634999752044678,-1.7961775064468384,1.6887549671995505e+18,168.85655053710937,-3.742374539375305,2.729413012663523,0.2233301202456157,1.6887549671908997e+18,168.8478993326823,5.3651736577351885,-8.030854225158691,1.674467126528422,1.6887549671908997e+18,168.8478993326823,0.3118467057744662,-3.41723108291626,2.4865269660949707,1.6887549671952212e+18,168.85222119140624,0.2342668299873669,-3.430415630340576,2.5066855748494468,,,,,,,,,,,,1.6887549671880722e+18,168.845072265625,-43.31487884521484,31.40279884338379,-3.977199959754944,1.6887549671880722e+18,168.845072265625,-297.8434814453125,124.72059631347656,-135.9811981201172,1.6887549671908997e+18,168.8478993326823,0.867507537206014,-0.4746870299180348,0.0197107186540961,0.1438275327285131,-0.302058478196462,0.9594660600026448,-2.6554176012674966
3.9,1.6887549672428012e+18,168.89980126953125,-3.6001601219177246,9.064197540283203,0.2724325656890869,1.688754967242799e+18,168.89979931640624,2.2642083168029785,1.5580266043543816,2.8977081775665283,1.6887549672428012e+18,168.89980126953125,5.801493485768636,-7.553372224171956,2.34863011042277,1.6887549672428012e+18,168.89980126953125,0.5567018538713455,-1.6389515002568562,0.42836927374204,1.688754967247131e+18,168.90413110351562,0.6343835592269897,-1.4494304656982422,0.1180497319437562,,,,,,,,,,,,1.6887549672380628e+18,168.89506303710937,-45.12779846191406,27.789159774780273,-9.49891986846924,1.6887549672380628e+18,168.89506303710937,-299.65638427734376,121.1069580078125,-141.50291748046874,1.6887549672428012e+18,168.89980126953125,0.8855351408322653,-0.4444502194722493,0.0819549312194188,0.1069636816779772,-0.3858633438746133,0.8784524401028951,-2.7181247075398765
3.95,1.6887549672947064e+18,168.9517061360677,0.1642018953959147,5.661853154500325,0.6089890003204346,1.688754967286059e+18,168.94305900065103,4.264209349950154,-2.1040887435277305,2.9445676803588867,1.6887549672947064e+18,168.9517061360677,5.150592645009358,-8.048936208089193,2.181764602661133,1.6887549672947064e+18,168.9517061360677,1.1092803875605266,-0.1964440867304802,-2.558354576428731,1.6887549672990362e+18,168.9560361328125,1.0674870212872822,-0.193847905320581,-2.7166703939437866,,,,,,,,,,,,1.688754967288067e+18,168.94506704101565,-43.19287948608398,30.17303886413574,-9.923479652404785,1.688754967288067e+18,168.94506704101565,-297.7214660644531,123.49083709716795,-141.92747192382814,1.6887549672947064e+18,168.9517061360677,0.8692391316095988,-0.4799168904622395,0.0829087793827056,0.0825095822413762,-0.4022444585959117,0.9631386399269104,-2.7399308681488037
4.0,1.688754967346615e+18,169.00361490885416,7.161963939666748,-12.829930623372396,3.804347276687622,1.6887549673379638e+18,168.9949640299479,11.836894671122232,-16.12902021408081,5.038088083267212,1.688754967346615e+18,169.00361490885416,4.086033264795939,-8.654668490091959,2.146128416061402,1.688754967346615e+18,169.00361490885416,-0.0795651947458585,-1.459917038679123,-0.9265807469685872,1.6887549673422956e+18,168.99929565429687,-0.1827250695787369,-0.5884923040866852,-1.733482837677002,,,,,,,,,,,,1.688754967338063e+18,168.9950630371094,-38.09815902709961,35.804559326171876,-9.830760192871091,1.688754967338063e+18,168.9950630371094,-292.6267517089844,129.1223602294922,-141.83475646972656,1.688754967346615e+18,169.00361490885416,0.838609496752421,-0.5331072807312012,0.0863318592309951,0.0701454430818557,-0.4854582746823628,1.0803463061650591,-2.679741859436035
4.05,1.68875496739852e+18,169.0555203450521,7.820220311482747,1.5934089024861653,2.02371076742808,1.6887549673898668e+18,169.04686653645834,12.17527993520101,-11.835100372632343,4.217748641967773,1.68875496739852e+18,169.0555203450521,4.286003430684407,-8.394253094991049,2.7185888290405273,1.68875496739852e+18,169.0555203450521,0.4885903795560201,-2.5507696171601615,1.28016996383667,1.6887549673855416e+18,169.04254158528647,0.3330233786255121,-3.4875824054082236,1.805463155110677,,,,,,,,,,,,1.6887549673880612e+18,169.04506142578126,-37.03187942504883,34.92859954833985,-14.317919540405274,1.6887549673880612e+18,169.04506142578126,-291.56047973632815,128.24639739990235,-146.32191772460936,1.68875496739852e+18,169.0555203450521,0.8471812605857849,-0.5087528427441915,0.1506283978621164,0.0221058136473098,-0.5667383670806885,1.0266942580540974,-2.7639073530832925
4.1,1.6887549674504184e+18,169.10741837565104,-6.8134331703186035,-5.316221237182617,4.016762415568034,1.6887549674417736e+18,169.09877368164064,-4.453242262204489,-11.721441427866615,9.984052340189615,1.6887549674504184e+18,169.10741837565104,4.0765790939331055,-8.53607145945231,2.596126159032186,1.6887549674504184e+18,169.10741837565104,0.2419026444355646,0.9346747597058614,-0.8502226223548254,1.68875496743745e+18,169.09444986979167,0.294029802083969,0.6413067172591885,-0.8419250349203745,,,,,,,,,,,,1.6887549674380692e+18,169.09506923828127,-37.22707901000977,34.75291900634765,-15.955159759521484,1.6887549674380692e+18,169.09506923828127,-291.75567626953125,128.07071990966796,-147.95915832519532,1.6887549674504184e+18,169.10741837565104,0.8410438696543375,-0.5202430089314779,0.147021397948265,0.0173808171724279,-0.5685292482376099,1.0553055206934612,-2.76297656695048
4.15,1.6887549674936796e+18,169.15067944335937,-6.130376815795898,0.8028395175933838,-4.986894845962524,1.6887549674936804e+18,169.15068041992188,-0.1878365725278855,-8.891729036966959,-2.814757029215494,1.6887549674936796e+18,169.15067944335937,3.597410798072815,-8.84466028213501,2.2328803539276123,1.6887549674936796e+18,169.15067944335937,0.7995462715625763,1.1507937610149384,-2.721710205078125,1.688754967489355e+18,169.14635506184894,0.726776917775472,1.3163127899169922,-2.1508056422074637,,,,,,,,,,,,1.688754967488065e+18,169.145065234375,-36.331599426269534,36.47311859130859,-13.032039642333984,1.688754967488065e+18,169.145065234375,-290.8601867675781,129.79091796875,-145.03603515625,1.6887549674936796e+18,169.15067944335937,0.8262344598770142,-0.5491310060024261,0.1224085427820682,0.02369075268507,-0.5575299859046936,1.1240041255950928,-2.727406740188598
4.2,1.6887549675369336e+18,169.19393359375,-5.617323001225789,0.7765615781148275,0.0004065831502278,1.6887549675455775e+18,169.20257755533854,-3.8420755863189697,-8.144968827565512,1.5736796855926514,1.6887549675369336e+18,169.19393359375,2.3923328717549643,-9.39335791269938,1.4206554492314656,1.6887549675369336e+18,169.19393359375,0.4207334220409393,5.115792751312256,-3.880368709564209,1.6887549675412595e+18,169.19825952148437,0.2320270091295242,5.262247880299886,-3.907399574915568,,,,,,,,,,,,1.6887549675380672e+18,169.19506733398438,-30.98799934387207,41.80451965332031,-7.351719808578491,1.6887549675380672e+18,169.19506733398438,-285.51658935546874,135.1223175048828,-139.35571899414063,1.6887549675369336e+18,169.19393359375,0.7854906320571899,-0.6122292876243591,0.0414048974635079,0.0641366988420486,-0.5412514805793762,1.282312273979187,-2.5681211153666177
4.25,1.6887549675888282e+18,169.2458282063802,-6.370398998260498,-0.5282678604125977,-1.203278660774231,1.68875496759748e+18,169.2544801432292,-5.817549864451091,-11.280364195505776,-0.1465603510538737,1.6887549675888282e+18,169.2458282063802,0.9470032056172688,-9.648648897806805,1.4564438263575237,1.6887549675888282e+18,169.2458282063802,-1.631111979484558,3.484986186027527,-2.659147342046102,1.6887549675931556e+18,169.25015551757812,-1.655139406522115,3.062216599782308,-2.484185298283895,,,,,,,,,,,,1.688754967588059e+18,169.2450589355469,-24.03155937194824,46.23067932128906,-2.1276799201965333,1.688754967588059e+18,169.2450589355469,-278.56015625,139.54847717285156,-134.13168029785157,1.6887549675888282e+18,169.2458282063802,0.7227148612340292,-0.6703595916430155,-0.0448174116512139,0.159026339650154,-0.993815819422404,1.3885128100713091,-1.8571865558624268
4.3,1.6887549676407396e+18,169.29773958333334,-0.5095910032590231,-0.9689242045084636,-3.186117728551229,1.6887549676493883e+18,169.306388671875,1.335593819618225,-9.54078197479248,-1.011366364856561,1.6887549676407396e+18,169.29773958333334,-0.1776113212108612,-9.634114583333334,1.8000000715255735,1.6887549676407396e+18,169.29773958333334,0.095753123362859,-1.244892458120982,-2.376622120539347,1.6887549676450665e+18,169.30206673177085,0.2475022375583648,-1.2489139636357625,-2.4437155723571777,,,,,,,,,,,,1.6887549676380664e+18,169.29506640625,-18.507400131225587,48.36079864501953,-3.3452399730682374,1.6887549676380664e+18,169.29506640625,-273.03599853515624,141.67860107421876,-135.34923400878907,1.6887549676407396e+18,169.29773958333334,0.678447405497233,-0.711674690246582,-0.0473314250508943,0.1747851421435673,-1.6698683897654216,1.380459149678548,-1.154837191104889
4.35,1.6887549676926538e+18,169.34965372721356,4.828151226043701,3.3020524978637695,-0.0747932990392049,1.6887549676926492e+18,169.3496492919922,3.516252875328064,-6.2638115882873535,1.5747764110565186,1.6887549676926538e+18,169.34965372721356,-1.250745415687561,-9.618748346964518,1.4531833330790205,1.6887549676926538e+18,169.34965372721356,1.010574758052826,1.9368500709533691,-1.872251033782959,1.688754967696976e+18,169.3539756673177,1.0098620454470315,2.191886226336161,-1.7590373357137044,,,,,,,,,,,,1.6887549676880717e+18,169.34507172851562,-12.461079978942871,50.12491912841797,-2.67423996925354,1.6887549676880717e+18,169.34507172851562,-266.9896728515625,143.44271545410157,-134.67823791503906,1.6887549676926538e+18,169.34965372721356,0.639297882715861,-0.7464658816655477,-0.0777047847708066,0.1660168270270029,-2.276260932286581,1.3726541996002195,-0.517136404911677
4.4,1.6887549677445517e+18,169.40155159505207,1.0299826463063555,2.711337089538574,-0.2339186867078145,1.6887549677359066e+18,169.3929065755208,-0.2406780719757079,-6.582455635070801,1.3605190714200337,1.6887549677445517e+18,169.40155159505207,-1.730744242668152,-9.561233520507812,1.3439137935638428,1.6887549677445517e+18,169.40155159505207,0.1537853231032689,2.0248146454493203,-1.191594481468201,1.6887549677488763e+18,169.40587654622396,0.0511090606451034,1.8663969039916992,-1.1764755249023438,,,,,,,,,,,,1.68875496773807e+18,169.39507001953126,-8.374079990386964,50.79347915649414,0.1805599972605705,1.68875496773807e+18,169.39507001953126,-262.9026733398438,144.11127624511718,-131.8234375,1.6887549677445517e+18,169.40155159505207,0.6097739338874817,-0.754814863204956,-0.1348497023185093,0.2000183562437693,-2.4767818450927734,1.3453102509180703,-0.183505763610204
4.45,1.6887549677964595e+18,169.45345963541666,1.2936222950617473,-0.1128883361816406,-1.06328547000885,1.6887549677878054e+18,169.44480525716145,-1.3114661971728008,-8.91306479771932,0.6452645063400269,1.6887549677964595e+18,169.45345963541666,-2.243436892827352,-9.410388946533203,1.615752895673116,1.6887549677964595e+18,169.45345963541666,-0.6567310492197672,-0.0633263637622197,-1.212669293085734,1.688754967792134e+18,169.4491339111328,-0.6925684809684753,0.1051451787352562,-1.170341432094574,,,,,,,,,,,,1.6887549677880635e+18,169.4450634765625,-4.870239925384522,51.305878448486325,0.456279993057251,1.6887549677880635e+18,169.4450634765625,-259.3988342285156,144.62367553710936,-131.54772033691407,1.6887549677964595e+18,169.45345963541666,0.5818293293317159,-0.7700127959251404,-0.1455650776624679,0.2174075047175089,-2.513920625050863,1.2849294741948445,-0.1030464246869086
4.5,1.6887549678483648e+18,169.50536474609376,4.9806602001190186,-3.4326000213623047,-4.02421220143636,1.688754967839718e+18,169.49671818033855,3.0671999057133994,-12.347363471984863,-1.2923236787319183,1.6887549678483648e+18,169.50536474609376,-2.644730488459269,-9.255783716837565,1.886548598607381,1.6887549678483648e+18,169.50536474609376,-0.5176573892434438,0.7342600226402283,-0.3292054533958435,1.688754967835388e+18,169.49238802083337,-0.579711119333903,0.1233438452084859,-0.7847582114239534,,,,,,,,,,,,1.6887549678380652e+18,169.49506513671875,-1.7006799697875976,51.33515853881836,-1.2248799800872805,1.6887549678380652e+18,169.49506513671875,-256.2292785644531,144.6529571533203,-133.2288787841797,1.6887549678483648e+18,169.50536474609376,0.5620849927266439,-0.7845056255658468,-0.1384057154258091,0.2221833318471908,-2.5199106534322104,1.2329718271891277,-0.0983967259526252
4.55,1.6887549679002698e+18,169.55726969401042,1.04989759127299,-6.211912155151367,-6.238428910573323,1.6887549678916188e+18,169.54861889648438,-2.942972326030334,-15.512868881225586,-4.672385056813558,1.6887549679002698e+18,169.55726969401042,-2.5081868966420493,-9.293023745218912,1.8874045610427856,1.6887549679002698e+18,169.55726969401042,0.5912666618824005,-0.2871575752894084,-0.0175623844067255,1.6887549678872955e+18,169.54429549153647,0.2618575741847356,0.290110116203626,0.1545998056729634,,,,,,,,,,,,1.688754967888064e+18,169.5450638671875,-2.2277199268341064,51.41079864501953,-1.7616799831390382,1.688754967888064e+18,169.5450638671875,-256.7563171386719,144.72859802246094,-133.76567993164062,1.6887549679002698e+18,169.55726969401042,0.5645028352737427,-0.7782546083132426,-0.1482197642326354,0.231564442316691,-2.494822104771932,1.2446220715840657,-0.0954886364440122
4.6,1.6887549679435205e+18,169.6005205078125,4.515870809555054,-5.627650737762451,-1.3830849528312683,1.6887549679435264e+18,169.60052636718748,1.6835500796635945,-14.999608039855955,-0.224127729733785,1.6887549679435205e+18,169.6005205078125,-2.084327757358551,-9.463725090026855,1.4983636736869812,1.6887549679435205e+18,169.6005205078125,0.6894377768039703,0.0032833963632583,2.680094957351685,1.6887549679391995e+18,169.59619970703125,0.7398086984952291,-0.1052724383771419,2.0796907817324004,,,,,,,,,,,,1.6887549679380685e+18,169.5950686035156,-2.942639946937561,51.337599182128905,0.0341600000858306,1.6887549679380685e+18,169.5950686035156,-257.4712341308594,144.6553955078125,-131.96983947753907,1.6887549679435205e+18,169.6005205078125,0.5882733166217804,-0.7632556855678558,-0.1530541107058524,0.2184681892395019,-2.5107603073120117,1.3055092096328735,-0.0943021271377801
4.65,1.688754967986778e+18,169.64377799479166,-3.2532705465952554,-4.147649765014648,0.7313688596089681,1.6887549679954258e+18,169.65242578125,-3.6538402239481607,-13.620744069417318,2.546561519304911,1.688754967986778e+18,169.64377799479166,-0.5573628656566143,-9.707035700480144,1.2087363799413045,1.688754967986778e+18,169.64377799479166,0.7248425285021464,-0.3772601882616679,3.624416271845499,1.6887549679911058e+18,169.64810579427083,0.718784769376119,-0.4892521450916926,3.562107960383097,1.688754967982445e+18,169.63944506835938,0.0,0.0,2.6929211616516113,5.632999897003174,1.3375381231307983,192.4558868408203,333.29998779296875,-122.9167868,49.2786995,1.6887549679880673e+18,169.64506728515624,-11.409439945220948,50.05903854370117,2.0642399549484254,1.6887549679880673e+18,169.64506728515624,-265.938037109375,143.37683715820313,-129.93975830078125,1.688754967986778e+18,169.64377799479166,0.6502793828646342,-0.7117970188458761,-0.145996148387591,0.2202221949895222,-1.9391692479451497,1.42830228805542,-0.6771007776260376
4.7,1.6887549680386834e+18,169.69568310546876,-2.086120883623759,-5.796167691548665,4.633449872334798,1.688754968047334e+18,169.7043343098958,-0.5258227586746216,-15.950356165568031,6.245466391245524,1.6887549680386834e+18,169.69568310546876,1.0806732972462971,-9.691419919331867,0.958102564016978,1.6887549680386834e+18,169.69568310546876,0.366519143184026,-0.2353358268737792,3.418198267618815,1.6887549680430072e+18,169.70000740559897,0.3255402694145838,-0.1395318104575077,3.496338129043579,,,,,,,,,,,,1.6887549680380608e+18,169.6950608886719,-19.70055980682373,47.47263946533203,3.0377999782562255,1.6887549680380608e+18,169.6950608886719,-274.2291564941406,140.79043884277343,-128.96619567871093,1.6887549680386834e+18,169.69568310546876,0.7139462232589722,-0.6546167731285095,-0.1261927982171376,0.2126795500516891,-0.7790825565656027,1.4178932110468547,-1.8770554860432944
4.75,1.688754968090581e+18,169.7475808919271,-2.160390337308248,-5.894026120503743,3.1921650568644204,1.688754968099236e+18,169.75623608398436,2.2195423742135367,-14.87857151031494,2.7836504131555557,1.688754968090581e+18,169.7475808919271,2.799609422683716,-9.338327089945476,1.0233150919278462,1.688754968090581e+18,169.7475808919271,0.2091195379228641,-1.9619464377562208,3.225724776585897,1.688754968094915e+18,169.75191528320315,0.3064507246017456,-2.1286617120107016,3.073110342025757,,,,,,,,,,,,1.688754968088068e+18,169.74506821289063,-28.518719482421876,43.34659881591797,2.622999906539917,1.688754968088068e+18,169.74506821289063,-283.047314453125,136.66439819335938,-129.38099670410156,1.688754968090581e+18,169.7475808919271,0.7733774185180664,-0.5899091760317484,-0.0932786911725997,0.2106637358665466,-0.354479948679606,1.261279026667277,-2.348506291707357
4.8,1.6887549681424904e+18,169.7994903157552,-6.361813306808472,0.3895535469055176,-1.5007426341374714,1.6887549681424937e+18,169.79949389648436,-4.35553527623415,-8.458927392959595,-0.8745766431093216,1.6887549681424904e+18,169.7994903157552,3.850083907445272,-8.984615325927734,0.7670678893725077,1.6887549681424904e+18,169.7994903157552,1.384017030398051,-0.7345145444075266,2.2156591415405273,1.68875496814682e+18,169.8038201497396,1.3828461567560832,-0.928515205780665,2.2141828536987305,,,,,,,,,,,,1.6887549681380695e+18,169.79506967773438,-34.272240447998044,39.23031845092773,1.573799967765808,1.6887549681380695e+18,169.79506967773438,-288.80083618164065,132.5481201171875,-130.4301971435547,1.6887549681424904e+18,169.7994903157552,0.8162853519121805,-0.546774685382843,-0.0674613565206527,0.1726585427920023,-0.201206271847089,1.157969077428182,-2.591672579447428
4.85,1.688754968194398e+18,169.85139778645834,-11.324113845825195,10.561681906382242,-2.270507494608561,1.6887549681857467e+18,169.84274658203125,-7.774280707041423,0.7168497840563456,-1.1353943248589833,1.688754968194398e+18,169.85139778645834,4.862432479858398,-8.441883405049643,1.040720800558726,1.688754968194398e+18,169.85139778645834,0.2496911784013112,-3.754683256149292,3.3014721075693765,1.6887549681987236e+18,169.8557236328125,0.1193223396937052,-3.6407060623168945,3.402621269226074,,,,,,,,,,,,1.6887549681880607e+18,169.84506069335936,-38.77159881591797,35.228720092773436,0.0048799872398376,1.6887549681880607e+18,169.84506069335936,-293.3001953125,128.54651489257813,-131.99911804199218,1.688754968194398e+18,169.85139778645834,0.8567071954409281,-0.5011608302593231,-0.0064780411000053,0.1165355493625005,-0.2097479452689488,1.0380041003227234,-2.7515056133270264
4.9,1.6887549682463007e+18,169.90330061848957,-3.7910280227661137,10.95750363667806,2.595046122868856,1.68875496823765e+18,169.89464973958334,0.9615159432093302,3.759722630182902,3.868595997492472,1.6887549682463007e+18,169.90330061848957,5.718981424967448,-7.7238461176554365,1.956027348836263,1.6887549682463007e+18,169.90330061848957,0.0470366229613621,-2.4307345946629844,1.0269662737846377,1.6887549682506263e+18,169.90762638346357,0.1354084660609563,-2.2562307516733804,0.6263913710912069,,,,,,,,,,,,1.6887549682380677e+18,169.8950677246094,-43.31243896484375,29.228759384155275,-6.55383996963501,1.6887549682380677e+18,169.8950677246094,-297.8410339355469,122.5465576171875,-138.5578399658203,1.6887549682463007e+18,169.90330061848957,0.885814885298411,-0.4507925013701121,0.0711698705951372,0.0820335298776626,-0.3303463657697041,0.906322419643402,-2.795046250025431
4.95,1.688754968298198e+18,169.95519799804688,-0.8050548235575358,5.120281378428142,0.8963458935419718,1.688754968289551e+18,169.94655086263023,4.045465469360352,-1.9587247371673584,3.2602208455403647,1.688754968298198e+18,169.95519799804688,5.088542779286702,-8.12511126200358,2.0375782251358032,1.688754968298198e+18,169.95519799804688,1.0873401562372844,-0.166562584384034,-2.5715390841166177,1.6887549682938808e+18,169.950880859375,1.0554224252700806,-0.1516472958028316,-2.445828080177307,,,,,,,,,,,,1.6887549682880612e+18,169.94506127929688,-42.73903884887695,29.54351921081543,-9.923479652404785,1.6887549682880612e+18,169.94506127929688,-297.26763305664065,122.86131896972655,-141.92747802734374,1.688754968298198e+18,169.95519799804688,0.8692301114400228,-0.4825691779454549,0.0864843130111693,0.0602890464166799,-0.3820930918057759,0.9770913521448772,-2.798250198364258
5.0,1.6887549683501048e+18,170.00710489908855,5.4739969571431475,-7.832552591959636,2.4193807442982993,1.6887549683414546e+18,169.99845450846354,9.219346364339192,-11.232906659444174,3.780260960261027,1.6887549683501048e+18,170.00710489908855,3.925943692525228,-8.813559214274088,1.7604063749313354,1.6887549683501048e+18,170.00710489908855,0.1469130888581276,-0.5967644502719244,-1.3098987738291423,1.6887549683371295e+18,169.99412963867186,0.6168211648861567,-0.262875681122144,-2.7986282110214233,,,,,,,,,,,,1.6887549683380585e+18,169.99505834960937,-37.436919403076175,35.65571975708008,-8.649799919128418,1.6887549683380585e+18,169.99505834960937,-291.96551513671875,128.97351837158203,-140.65379943847657,1.6887549683501048e+18,170.00710489908855,0.8354075948397318,-0.5420029362042745,0.078065626323223,0.0459266441563764,-0.4238907992839813,1.1163088877995808,-2.7643524010976157
5.05,1.6887549683933563e+18,170.0503562011719,12.466173648834229,-13.307403564453123,-3.036861479282379,1.6887549683933594e+18,170.05035945638022,14.095918814341228,-20.06800512472789,-0.186241348584493,1.6887549683933563e+18,170.0503562011719,4.228387355804443,-8.58796215057373,2.1435654163360596,1.6887549683933563e+18,170.0503562011719,0.7830528616905212,-3.511329770088196,2.097176671028137,1.6887549683890348e+18,170.04603450520833,0.5066108902295431,-2.7791823943456015,2.1165971755981445,,,,,,,,,,,,1.6887549683880591e+18,170.04505922851564,-37.01479949951172,35.86555938720703,-10.955599975585937,1.6887549683880591e+18,170.04505922851564,-291.54339599609375,129.18336181640626,-142.9595977783203,1.6887549683933563e+18,170.0503562011719,-0.0025627315044403,-0.0059005916118621,-0.0084879845380783,0.0120535953610669,-0.4707329124212265,1.066225826740265,-2.8324997425079346
5.1,1.688754968436613e+18,170.09361287434896,-3.370652675628662,0.9945012728373208,6.339241584142049,1.688754968445263e+18,170.10226318359375,-4.123830477396647,-12.233904004096985,10.613564014434814,1.688754968436613e+18,170.09361287434896,4.177169640858968,-8.634228706359863,2.045931100845337,1.688754968436613e+18,170.09361287434896,0.5940155287583668,-0.3700825174649556,-1.003753403822581,1.6887549684409393e+18,170.0979392903646,0.511905054251353,-0.0772744764884312,-1.108058641354243,,,,,,,,,,,,1.6887549684380603e+18,170.09506044921875,-36.9586784362793,35.836279296875,-13.236999702453613,1.6887549684380603e+18,170.09506044921875,-291.4872802734375,129.1540756225586,-145.24100036621093,1.688754968436613e+18,170.09361287434896,-0.8439944386482239,0.5181783239046732,-0.1364110012849171,0.0202761683613061,-0.4576701124509175,1.076508363087972,-2.9129727681477866
5.15,1.688754968488519e+18,170.1455187174479,-6.843857049942017,-0.3854565620422363,-2.567967096964518,1.6887549684971694e+18,170.15416943359375,0.6486543416976929,-6.780461708704631,-2.4167507688204446,1.688754968488519e+18,170.1455187174479,4.052566130956014,-8.758757909138998,1.7541327873865764,1.688754968488519e+18,170.1455187174479,-0.066431591908137,1.4831299185752869,0.2905173500378926,1.6887549684928458e+18,170.1498456217448,-0.0825686181584994,1.3779592712720234,0.256563405195872,1.6887549685014963e+18,170.15849633789065,0.0,0.0,2.5085415840148926,5.639999866485596,1.3569386005401611,191.5194396972656,332.79998779296875,-122.9167916,49.2786873,1.6887549684880614e+18,170.14506157226563,-37.331999969482425,36.15103988647461,-11.043439865112305,1.6887549684880614e+18,170.14506157226563,-291.8606018066406,129.46883544921874,-143.0474365234375,1.688754968488519e+18,170.1455187174479,-0.2786089976628621,0.1779404679934183,-0.0427684312065442,0.0062819864348663,-0.4105256994565328,1.103547732035319,-2.90087612469991
5.2,1.6887549685404242e+18,170.1974241536458,-0.6185145378112793,1.4655203819274902,1.1488055785497029,1.6887549685490757e+18,170.20607552083334,0.8301100234190623,-8.467202345530191,2.895115931828817,1.6887549685404242e+18,170.1974241536458,3.263317823410034,-9.130970319112144,1.3607913653055828,1.6887549685404242e+18,170.1974241536458,0.3610722621281941,2.979953408241272,-3.9355502923329673,1.6887549685447508e+18,170.2017508951823,0.3643811245759328,3.426190455754598,-4.2277984619140625,,,,,,,,,,,,1.6887549685380595e+18,170.19505961914064,-34.52111930847168,38.65691909790039,-8.554639720916748,1.6887549685380595e+18,170.19505961914064,-289.0497192382812,131.97471618652344,-140.5586395263672,1.6887549685404242e+18,170.1974241536458,0.8157031536102295,-0.5723146597544352,0.0706541327138741,0.0197674755472689,-0.3975328008333841,1.2011738618214924,-2.8176561991373696
5.25,1.6887549685923315e+18,170.24933138020833,-11.49122142791748,1.443489710489909,-0.0437389214833578,1.6887549685923287e+18,170.24932873535158,-10.39920711517334,-7.616055250167847,1.0704890340566635,1.6887549685923315e+18,170.24933138020833,1.2403061787287395,-9.66746425628662,0.9966053167978922,1.6887549685923315e+18,170.24933138020833,-1.1563679638008275,3.6546031634012857,-3.789960702260335,1.6887549685966554e+18,170.25365559895832,-1.4012739956378937,3.230051875114441,-3.5145623683929443,,,,,,,,,,,,1.6887549685880604e+18,170.24506040039063,-25.812759399414062,45.03995971679687,-2.337519884109497,1.6887549685880604e+18,170.24506040039063,-280.3413452148437,138.35775756835938,-134.34151611328124,1.6887549685923315e+18,170.24933138020833,0.7437593539555868,-0.6602628032366434,-0.0174169858995203,0.0961395353078842,-0.716773271560669,1.4020943244298298,-2.263474424680074
5.3,1.6887549686442476e+18,170.30124747721354,-0.283967653910319,-3.5411017735799155,-2.458596348762512,1.6887549686355866e+18,170.29258650716145,-4.7758744557698565,-13.258231480916342,-0.944167951742808,1.6887549686442476e+18,170.30124747721354,0.2041432633996009,-9.640602111816406,1.790325403213501,1.6887549686442476e+18,170.30124747721354,-1.0495682656764984,-1.3093896806240082,-1.2920817931493125,1.68875496864857e+18,170.30557006835937,-0.7672467430432638,-1.3342824180920918,-1.3974560300509136,,,,,,,,,,,,1.6887549686380654e+18,170.29506547851562,-20.64239959716797,47.694678497314456,-4.531079912185669,1.6887549686380654e+18,170.29506547851562,-275.17099609375,141.0124755859375,-136.5350799560547,1.6887549686442476e+18,170.30124747721354,0.7019557952880859,-0.699536661307017,-0.0017996430785084,0.13289076089859,-1.4529094298680625,1.3841981093088789,-1.4970707098642986
5.35,1.688754968696146e+18,170.35314591471354,5.095061779022217,1.4691696166992188,-1.7655454874038696,1.688754968687498e+18,170.344498046875,7.2815588514010114,-8.61874802907308,0.1322034547726313,1.688754968696146e+18,170.35314591471354,-0.8179545799891154,-9.632326761881512,1.653605818748474,1.688754968696146e+18,170.35314591471354,0.7422012686729431,2.4442754983901978,-2.3591615358988443,1.688754968700474e+18,170.35747412109376,0.7398086984952291,2.6344072818756104,-2.181908885637919,,,,,,,,,,,,1.688754968688062e+18,170.34506215820312,-15.672119903564454,49.026919555664065,-5.716919898986816,1.688754968688062e+18,170.34506215820312,-270.2007141113281,142.34471435546874,-137.72091979980468,1.688754968696146e+18,170.35314591471354,0.6625505089759827,-0.7351718544960022,-0.0262827380793168,0.1384047443668047,-2.025775949160258,1.379652102788289,-0.8812411626180013
5.4,1.6887549687480545e+18,170.40505419921874,0.6295348405838013,3.429433027903239,-0.9339779814084372,1.6887549687393974e+18,170.39639737955727,-1.364507108926773,-6.095914999643962,0.357128769159317,1.6887549687480545e+18,170.40505419921874,-1.3616025845209758,-9.606547355651855,1.439386526743571,1.6887549687480545e+18,170.40505419921874,0.4785111099481582,1.49794340133667,-1.301753838857015,1.688754968743722e+18,170.4007218017578,0.5513058751821518,1.585882544517517,-1.224250316619873,,,,,,,,,,,,1.688754968738064e+18,170.39506425781252,-11.973079872131349,50.249359130859375,-2.7083999156951903,1.688754968738064e+18,170.39506425781252,-266.5016723632813,143.56715698242186,-134.71239318847657,1.6887549687480545e+18,170.40505419921874,0.6344273487726847,-0.7499333222707113,-0.0822865664958953,0.1677652249733606,-2.322749932607015,1.3666081428527832,-0.4614360928535461
5.45,1.688754968799961e+18,170.4569609375,1.7717482646306355,1.1081323623657229,-0.8169151345888773,1.6887549687913044e+18,170.4483045247396,-0.2448655068874359,-8.060023466746012,0.8297112584114075,1.688754968799961e+18,170.4569609375,-2.0675246715545654,-9.466105143229166,1.517737547556559,1.688754968799961e+18,170.4569609375,-0.3506875584522882,0.2499456902345021,-1.6431257327397664,1.688754968786985e+18,170.4439851888021,-0.2125302006800969,0.6299038678407669,-1.651270588239034,,,,,,,,,,,,1.6887549687880689e+18,170.44506899414063,-7.61279993057251,50.78615951538086,-1.4322799682617189,1.6887549687880689e+18,170.44506899414063,-262.1413879394531,144.1039581298828,-133.436279296875,1.688754968799961e+18,170.4569609375,0.6019623080889384,-0.7713345090548197,-0.1012458826104799,0.1797086795171102,-2.503366390864054,1.305890162785848,-0.2346229553222656
5.5,1.6887549688432092e+18,170.50020898437498,5.649921894073486,-0.3865365982055663,-1.3631489872932434,1.6887549688432136e+18,170.50021346028646,2.596412012974421,-9.812766393025717,0.0472582479317983,1.6887549688432092e+18,170.50020898437498,-2.624958753585815,-9.311716079711914,1.6222962141036985,1.6887549688432092e+18,170.50020898437498,-0.4087451994419098,-0.50564369186759,-1.049084722995758,1.6887549688388826e+18,170.49588264973957,-0.4213952124118805,-0.3852523465951283,-1.1084659099578855,,,,,,,,,,,,1.6887549688380662e+18,170.49506621093752,-3.289119911193848,51.05699844360352,-2.305799961090088,1.6887549688380662e+18,170.49506621093752,-257.8177124023438,144.37479248046876,-134.30979919433594,1.6887549688432092e+18,170.50020898437498,0.5794438719749451,-0.7903265655040741,-0.0951513089239597,0.1748085021972656,-2.585764527320862,1.2506268620491028,-0.1666498184204101
5.55,1.6887549688864694e+18,170.54346907552082,1.42216690381368,-5.581393241882324,-6.375476360321045,1.688754968895115e+18,170.55211499023437,-2.033301075299581,-15.601602872212728,-5.092325369517009,1.6887549688864694e+18,170.54346907552082,-2.6038858890533447,-9.273492177327476,1.857751925786336,1.6887549688864694e+18,170.54346907552082,-0.1770491202672322,1.1520918607711792,0.063479075829188,1.688754968890794e+18,170.5477941080729,-0.0284561266501744,1.157945950826009,0.0175623719890912,,,,,,,,,,,,1.688754968888064e+18,170.54506391601564,-2.784039926528931,51.139958190917966,-3.2427599906921385,1.688754968888064e+18,170.54506391601564,-257.31263427734376,144.45775451660157,-135.24675903320312,1.6887549688864694e+18,170.54346907552082,0.5747523903846741,-0.7891838550567627,-0.0988102555274963,0.1923813919226328,-2.519690831502279,1.2383503913879397,-0.2012342611948648
5.6,1.688754968938371e+18,170.59537150065103,3.2817893822987876,-4.230598449707031,-2.0363409519195557,1.6887549689470236e+18,170.6040234375,1.3439687490463257,-13.335200627644856,1.1284153461456297,1.688754968938371e+18,170.59537150065103,-2.671882390975952,-9.320597012837728,1.4753482739130657,1.688754968938371e+18,170.59537150065103,1.134580393632253,-0.2190460860729217,0.2652682463328044,1.6887549689426957e+18,170.59969555664065,1.0604111552238464,-0.2660318166017532,0.6664030949274699,,,,,,,,,,,,1.6887549689380692e+18,170.5950690917969,-1.9739599466323852,51.142399597167966,-1.842199981212616,1.6887549689380692e+18,170.5950690917969,-256.5025573730469,144.46019592285157,-133.84620056152343,1.688754968938371e+18,170.59537150065103,0.5733367602030436,-0.7875429391860962,-0.1257287735740343,0.1874173879623412,-2.6361769835154214,1.2539265155792236,-0.0530706805487473
5.65,1.6887549689902712e+18,170.64727115885418,-0.9177087942759196,-6.793697675069173,0.8436639308929443,1.6887549689989286e+18,170.65592887369792,-3.476571877797445,-16.458232879638672,1.5341981450716655,1.6887549689902712e+18,170.64727115885418,-1.181258738040924,-9.654010772705078,1.1470892826716106,1.6887549689902712e+18,170.64727115885418,0.6569855759541193,0.2540690501530965,3.983146826426188,1.688754968994606e+18,170.6516061197917,0.7166467507680258,0.2006183365980784,3.954028924306234,,,,,,,,,,,,1.688754968988065e+18,170.64506508789063,-8.588799953460693,50.654398345947264,0.4855599820613861,1.688754968988065e+18,170.64506508789063,-263.1173950195313,143.97219848632812,-131.5184356689453,1.6887549689902712e+18,170.64727115885418,0.6357108155886332,-0.7375659147898356,-0.1254273230830827,0.1878495663404464,-2.3103504180908203,1.398331920305888,-0.3826746096213658
5.7,1.688754969042183e+18,170.6991826171875,-2.145040591557821,-4.553846677144368,2.3644580443700156,1.688754969042183e+18,170.69918298339843,-1.555932879447937,-14.1723895072937,3.113361358642578,1.688754969042183e+18,170.6991826171875,0.5449765026569366,-9.757468859354654,0.7361661394437155,1.688754969042183e+18,170.6991826171875,0.6191628227631251,-0.2032654086748758,3.1805206934611,1.6887549690465093e+18,170.70350927734376,0.5031493405501047,-0.1015563408533731,3.182913382848104,1.6887549690205578e+18,170.67755786132813,0.0,0.0,2.469942808151245,5.98799991607666,1.376046657562256,190.64747619628903,332.79998779296875,-122.9167944,49.2786812,1.6887549690380677e+18,170.69506782226563,-17.87787971496582,48.375439453125,2.5888399362564085,1.6887549690380677e+18,170.69506782226563,-272.40647583007814,141.6932403564453,-129.41515502929687,1.688754969042183e+18,170.6991826171875,0.7036640048027039,-0.6764493584632874,-0.1195359751582145,0.1802365879217783,-1.0056852102279663,1.4684287707010906,-1.7081380287806194
5.75,1.6887549690940864e+18,170.75108618164063,-6.792532841364543,-6.291233062744141,6.1193916002909345,1.688754969085434e+18,170.74243383789062,-3.0843484004338584,-15.675580978393556,6.927819569905599,1.6887549690940864e+18,170.75108618164063,2.202836275100708,-9.498648007710775,0.9640856385231018,1.6887549690940864e+18,170.75108618164063,-0.5378159607450167,-1.9978348563114805,3.488091468811035,1.6887549690984148e+18,170.75541479492188,-0.4442517459392547,-2.509179892639319,3.461467981338501,,,,,,,,,,,,1.6887549690880635e+18,170.7450634765625,-26.242198944091797,44.79351959228516,1.7860799908638,1.6887549690880635e+18,170.7450634765625,-280.7707946777344,138.11131896972657,-130.217919921875,1.6887549690940864e+18,170.75108618164063,0.7596352696418762,-0.6159277757008871,-0.0871567477782567,0.1871709326903024,-0.4157642622788747,1.3224164644877117,-2.3322444756825766
5.8,1.6887549691459932e+18,170.8029931640625,-0.5142518679300944,-1.0147624015808103,-1.1685124635696411,1.6887549691373425e+18,170.79434236653643,3.258226851622263,-11.484352111816406,1.1639088541269302,1.6887549691459932e+18,170.8029931640625,3.578596750895182,-9.0267604192098,1.322176178296407,1.6887549691459932e+18,170.8029931640625,0.7482081055641174,-1.9040159980456035,3.2902220090230307,1.6887549691503127e+18,170.8073126627604,0.8010479609171549,-1.4767158043881257,3.2899674574534097,,,,,,,,,,,,1.6887549691380654e+18,170.7950654785156,-32.95463981628418,40.247799682617185,-2.632759928703308,1.6887549691380654e+18,170.7950654785156,-287.4832336425781,133.5655975341797,-134.63675842285156,1.6887549691459932e+18,170.8029931640625,0.8143908977508545,-0.5630631844202677,-0.0122229070402681,0.1375486850738525,-0.3604997098445892,1.1700786749521892,-2.5645557244618735
5.85,1.6887549691978985e+18,170.8548984375,-12.510595321655272,7.995900313059489,-2.0565750996271768,1.688754969189244e+18,170.8462439778646,-7.785048643747966,-2.107877274354299,-0.3461616759498914,1.6887549691978985e+18,170.8548984375,4.814416408538818,-8.423660278320312,1.3855125109354656,1.6887549691978985e+18,170.8548984375,0.3729841262102127,-3.207398851712545,3.1335860093434653,1.688754969193574e+18,170.85057409667968,0.5196936056017876,-3.2756885290145874,3.032029628753662,,,,,,,,,,,,1.6887549691880635e+18,170.84506337890625,-38.92043914794922,35.05059814453125,-3.4769999027252196,1.6887549691880635e+18,170.84506337890625,-293.44903564453125,128.36839752197267,-135.4809997558594,1.6887549691978985e+18,170.8548984375,0.857854167620341,-0.5030724505583445,0.026080689082543,0.0955786233146985,-0.2794223229090372,1.0338378349939985,-2.760449171066284
5.9,1.6887549692498035e+18,170.90680346679687,-4.38447904586792,10.52287737528483,0.5462083021799723,1.6887549692411525e+18,170.89815209960935,-0.0652044266462326,3.290131171544393,2.131406784057617,1.6887549692498035e+18,170.90680346679687,5.681126117706299,-7.643557230631511,2.336469570795695,1.6887549692498035e+18,170.90680346679687,0.017664191002647,-2.6387342611948648,1.884315699338913,1.6887549692368248e+18,170.89382462565104,-0.1718567609786987,-3.0499483744303384,2.71295432249705,,,,,,,,,,,,1.688754969238065e+18,170.89506494140625,-43.05135879516602,28.97987937927246,-9.64287977218628,1.688754969238065e+18,170.89506494140625,-297.5799499511719,122.29767761230468,-141.64687805175782,1.6887549692498035e+18,170.90680346679687,0.8868463238080343,-0.4456229408582051,0.1073954006036122,0.0539103224873542,-0.3904922008514404,0.8934897383054098,-2.831492265065511
5.95,1.688754969293058e+18,170.95005798339844,-2.6972591876983643,6.2715935707092285,0.3608608245849609,1.688754969293053e+18,170.9500528157552,2.9028926690419516,-1.2594223121802013,3.145963509877523,1.688754969293058e+18,170.95005798339844,5.467685699462891,-7.716701984405518,2.600381374359131,1.688754969293058e+18,170.95005798339844,1.2136365175247192,-0.9110291302204132,-1.4840207695961,1.688754969288736e+18,170.9457362467448,1.068861444791158,-1.154026299715042,-1.1385000869631767,,,,,,,,,,,,1.6887549692880655e+18,170.94506538085938,-42.746359252929686,27.981919479370116,-13.951919746398923,1.6887549692880655e+18,170.94506538085938,-297.27495727539065,121.29971771240234,-145.95591430664064,1.688754969293058e+18,170.95005798339844,0.8819406926631927,-0.4501257240772247,0.1369268149137496,0.0269584674388169,-0.4450234621763229,0.9053782522678376,-2.8612838983535767
6.0,1.688754969336312e+18,170.99331209309898,1.854580322901408,4.401102860768636,-0.6956813335418701,1.6887549693449628e+18,171.00196305338542,8.279166221618652,-5.584449450174968,0.8560322721799215,1.688754969336312e+18,170.99331209309898,4.5908230145772295,-8.398754755655924,2.09879724184672,1.688754969336312e+18,170.99331209309898,1.6162476539611816,-0.3328197576726476,-2.897944688796997,1.6887549693406405e+18,170.99764021809895,1.5214108030001323,-0.3746130988001823,-2.9508354663848877,,,,,,,,,,,,1.6887549693380652e+18,170.99506518554688,-38.8667594909668,32.774079132080075,-12.895399856567384,1.6887549693380652e+18,170.99506518554688,-293.3953552246094,126.09187622070311,-144.89939575195314,1.688754969336312e+18,170.99331209309898,0.2945584853490193,-0.15083709359169,0.0439427917202313,0.0069560869596898,-0.4301203588644663,1.0295237302780151,-2.8940231800079346
6.05,1.6887549693882135e+18,171.04521346028642,8.435667355855307,-16.294006029764812,2.0790931383768716,1.688754969396868e+18,171.0538681640625,13.110674222310385,-24.483959515889484,4.914259433746338,1.6887549693882135e+18,171.04521346028642,3.904254913330078,-8.798171679178873,1.8857390483220415,1.6887549693882135e+18,171.04521346028642,0.3719151218732198,-1.5609134038289387,0.4781038363774617,1.6887549693925427e+18,171.04954272460938,0.3547599862019221,-1.8808540254831312,0.84100874265035,,,,,,,,,,,,1.6887549693880673e+18,171.04506723632812,-35.455640411376955,36.77567977905274,-12.241479682922364,1.6887549693880673e+18,171.04506723632812,-289.98423461914064,130.0934814453125,-144.2454803466797,1.6887549693882135e+18,171.04521346028642,-0.8356356024742126,0.53319251537323,-0.1290050794680912,0.021567202794055,-0.4514537652333577,1.1128262678782146,-2.90932027498881
6.1,1.6887549694401196e+18,171.0971192220052,1.5384214719136555,5.5023988087972,6.923040469487508,1.6887549694487693e+18,171.10576920572916,1.7726827462514236,-4.489134709040324,9.972287654876707,1.6887549694401196e+18,171.0971192220052,4.116153717041016,-8.593170801798502,2.331524610519409,1.6887549694401196e+18,171.0971192220052,0.6627378786603609,-3.1029918591181436,0.3230458895365397,1.688754969444448e+18,171.10144799804686,0.5730934192736944,-2.561510662237803,-0.041437009970347,,,,,,,,,,,,1.6887549694380652e+18,171.09506518554684,-35.4751594543457,35.14087905883789,-16.604199409484863,1.6887549694380652e+18,171.09506518554684,-290.0037475585938,128.45868072509765,-148.6081970214844,1.6887549694401196e+18,171.0971192220052,-0.838249663511912,0.5035037895043691,-0.1914105812708536,0.0820693001151084,-0.5168533325195312,1.0674679676691692,-3.0268723169962564
6.15,1.6887549694920274e+18,171.1490274251302,-8.314568519592283,-3.629685719807943,-1.3347392082214355,1.688754969500679e+18,171.15767903645835,0.4596211115519206,-11.989636262257894,-2.032304048538208,1.6887549694920274e+18,171.1490274251302,3.8369359175364175,-8.746833483378092,2.2287820180257163,1.6887549694920274e+18,171.1490274251302,-0.2765692385534445,2.8764116764068604,-0.6112215717633565,1.6887549694963548e+18,171.15335498046875,-0.2267328202724456,3.0599258740743003,-0.405258188645045,,,,,,,,,,,,1.6887549694880684e+18,171.14506840820314,-34.87003936767578,35.94363861083984,-17.480159187316893,1.6887549694880684e+18,171.14506840820314,-289.3986328125,129.26143493652344,-149.4841552734375,1.6887549694920274e+18,171.1490274251302,-0.8311683535575867,0.5218387842178345,-0.1787094970544178,0.0662660747766494,-0.527877002954483,1.1009053786595662,-2.971947272618612
6.2,1.688754969543933e+18,171.20093302408853,-5.45242961247762,-0.199548880259196,-0.4353918234507243,1.6887549695439286e+18,171.2009285888672,-1.229611724615097,-9.74925708770752,1.5822539925575256,1.688754969543933e+18,171.20093302408853,3.4318269888559976,-9.043967564900717,1.5691157182057698,1.688754969543933e+18,171.20093302408853,0.1833104739586512,3.8189258575439458,-2.9698740243911743,1.688754969548263e+18,171.2052627766927,0.249945692718029,4.014250040054321,-3.2329025268554688,1.6887549695396168e+18,171.19661669921874,0.0,0.0,2.469942808151245,6.0320000648498535,1.384331226348877,190.0781707763672,332.79998779296875,-122.9167961,49.2786719,1.6887549695380662e+18,171.19506630859377,-34.66751937866211,37.25635986328125,-12.13411979675293,1.6887549695380662e+18,171.19506630859377,-289.19611206054685,130.57416076660155,-144.13811645507812,1.688754969543933e+18,171.20093302408853,-0.2827086846033732,0.169218897819519,-0.0568703711032867,0.0192654145260651,-0.4284361799558003,1.1753563086191814,-2.8917274475097656
6.25,1.6887549695958372e+18,171.25283707682294,-8.310327529907227,0.6149584452311198,-0.2480062842369079,1.6887549695871813e+18,171.24418131510416,-5.287539879480998,-8.903094927469889,1.1820544004440308,1.6887549695958372e+18,171.25283707682294,1.6289048790931702,-9.601645469665527,1.0407529671986897,1.6887549695958372e+18,171.25283707682294,-1.0804169947902362,4.7285042603810625,-4.297946055730184,1.6887549696001608e+18,171.25716080729168,-1.3154473652442296,4.520300944646199,-4.119420687357585,,,,,,,,,,,,1.688754969588067e+18,171.2450672363281,-27.974599838256836,43.212399291992185,-5.038599967956543,1.688754969588067e+18,171.2450672363281,-282.5031982421875,136.5301971435547,-137.0425994873047,1.6887549695958372e+18,171.25283707682294,0.7597070336341858,-0.6449349125226339,0.0113566333117584,0.0677363934616247,-0.6082698206106821,1.3681832154591878,-2.45324428876241
6.3,1.6887549696477358e+18,171.30473575846352,-4.387492338816325,-3.9752120971679688,-3.6187736988067623,1.6887549696390922e+18,171.2960920410156,-6.857031835863988,-13.617753028869627,-1.5451652606328328,1.6887549696477358e+18,171.30473575846352,0.3331897672420988,-9.658735275268556,1.6603725751241047,1.6887549696477358e+18,171.30473575846352,-1.0235555917024612,-0.5767586231231688,-1.8532633781433103,1.6887549696434186e+18,171.30041857910155,-1.2258538007736206,-0.424322247505188,-1.5407548546791077,,,,,,,,,,,,1.6887549696380626e+18,171.2950627441406,-20.732679748535155,47.16031951904297,-4.274879884719849,1.6887549696380626e+18,171.2950627441406,-275.2612731933594,140.47811584472657,-136.27887573242188,1.6887549696477358e+18,171.30473575846352,0.7076228459676107,-0.6948259472846985,-0.0047992439940571,0.1272945875922838,-1.3690499464670818,1.3943899472554524,-1.584724187850952
6.35,1.6887549696996485e+18,171.3566483561198,5.52007524172465,0.904218832651774,-1.0277508894602458,1.6887549696909967e+18,171.34799666341146,5.454838037490845,-9.792028109232584,-0.0967098921537399,1.6887549696996485e+18,171.3566483561198,-0.9548322359720866,-9.63387680053711,1.5530997514724731,1.6887549696996485e+18,171.3566483561198,0.9111564258734384,1.173981229464213,-2.6923376321792603,1.6887549696866714e+18,171.34367122395835,0.5128722699979941,-0.2640465497970581,-2.8368581930796304,,,,,,,,,,,,1.688754969688067e+18,171.34506713867185,-14.76443977355957,48.77803955078125,-5.611999893188477,1.688754969688067e+18,171.34506713867185,-269.29303588867185,142.09583740234376,-137.61599731445312,1.6887549696996485e+18,171.3566483561198,0.662065327167511,-0.7403975526491801,-0.0071073391785224,0.1133721669514973,-2.1148730913798013,1.3805957237879436,-0.8553219437599182
6.4,1.6887549697429023e+18,171.39990234375,1.5778794884681702,5.25299072265625,1.4225435256958008,1.688754969742899e+18,171.39989884440104,0.0889332542816798,-4.58444881439209,2.462214469909668,1.6887549697429023e+18,171.39990234375,-1.537663757801056,-9.611659526824951,1.2150694131851196,1.6887549697429023e+18,171.39990234375,1.2442561984062197,3.2682818174362183,-1.546481728553772,1.688754969738578e+18,171.395578125,1.250033934911092,3.2959744135538735,-1.635286291440328,,,,,,,,,,,,1.6887549697380603e+18,171.39506064453127,-9.447679805755616,50.266439056396486,-1.834879982471466,1.6887549697380603e+18,171.39506064453127,-263.9762817382813,143.58423767089843,-133.83887634277343,1.6887549697429023e+18,171.39990234375,0.6328135430812836,-0.7565624117851257,-0.0757741294801234,0.1455437988042831,-2.468843579292298,1.3691485524177551,-0.3568111062049866
6.45,1.6887549697861548e+18,171.44315454101562,0.2855037848154704,2.8733819325764975,-0.1285894314448038,1.6887549697948086e+18,171.45180851236978,-1.6542380650838215,-7.633303483327229,1.0454640984535215,1.6887549697861548e+18,171.44315454101562,-2.0165749390920005,-9.51490306854248,1.2684948047002156,1.6887549697861548e+18,171.44315454101562,-0.2853249808152516,1.0785843779643376,-1.2181671063105266,1.6887549697904796e+18,171.44747981770834,-0.4018475326399008,0.8605563938617706,-1.190474549929301,,,,,,,,,,,,1.6887549697880645e+18,171.4450646484375,-5.765719890594482,50.764198303222656,-0.0195199966430664,1.6887549697880645e+18,171.4450646484375,-260.2943115234375,144.08199462890624,-132.0235137939453,1.6887549697861548e+18,171.44315454101562,0.6068482597668966,-0.7686684330304464,-0.1086237033208211,0.1702040582895279,-2.5775907834370932,1.3253072500228882,-0.1639941285053888
6.5,1.6887549698380618e+18,171.49506184895833,5.445408344268799,-1.334415117899577,-2.397551735242208,1.6887549698467116e+18,171.5037116699219,3.3928232192993164,-11.023534456888834,-1.3062817653020222,1.6887549698380618e+18,171.49506184895833,-2.59761381149292,-9.329042434692385,1.5593903064727783,1.6887549698380618e+18,171.49506184895833,-0.6866125265757242,-0.2923499345779419,-1.1027135848999023,1.6887549698423852e+18,171.49938525390624,-0.6787222027778625,-0.074271023273468,-0.9836457769076028,,,,,,,,,,,,1.6887549698380662e+18,171.49506621093752,-2.8889599084854125,50.99355926513672,-1.6006399631500243,1.6887549698380662e+18,171.49506621093752,-257.41754760742185,144.3113555908203,-133.60463256835936,1.6887549698380618e+18,171.49506184895833,0.5807872613271078,-0.7889320055643717,-0.0992389644185701,0.1742116063833236,-2.5986852645874023,1.2566152811050415,-0.1488152643044789
6.55,1.688754969889966e+18,171.54696614583335,-1.175816774368286,-4.83671760559082,-6.297096888224284,1.688754969898618e+18,171.55561783854168,-4.69192632039388,-14.862618764241535,-4.838686227798462,1.688754969889966e+18,171.54696614583335,-2.6021149158477783,-9.26702117919922,1.8928322792053225,1.688754969889966e+18,171.54696614583335,-0.1710422684748967,1.1809042990207672,0.0968221419801314,1.6887549698942935e+18,171.55129353841144,-0.0501927634080251,0.9300423463185628,0.0751364231109619,,,,,,,,,,,,1.688754969888065e+18,171.54506513671876,-1.671399974822998,51.096038055419925,-2.72303991317749,1.688754969888065e+18,171.54506513671876,-256.1999908447266,144.41383361816406,-134.72703857421874,1.688754969889966e+18,171.54696614583335,0.5718985398610433,-0.7879865566889445,-0.107598898311456,0.2009180982907612,-2.5108048915863037,1.2363386154174805,-0.1846022804578144
6.6,1.6887549699418698e+18,171.59886979166666,3.8395615021387735,-6.810761451721191,-3.842583954334259,1.6887549699505231e+18,171.60752303059894,2.0550357699394226,-15.852649052937826,-1.0079766511917114,1.6887549699418698e+18,171.59886979166666,-2.5921666622161865,-9.34721565246582,1.4429065783818562,1.6887549699418698e+18,171.59886979166666,1.1942415237426758,-0.8384125332037607,0.5960517823696136,1.6887549699461985e+18,171.6031984049479,1.2004011074701946,-0.7263696938753128,0.8909469445546468,,,,,,,,,,,,1.6887549699380654e+18,171.59506547851564,-1.5835599660873414,51.320519256591794,-1.2883199438452722,1.6887549699380654e+18,171.59506547851564,-256.1121551513672,144.63831481933593,-133.2923126220703,1.6887549699418698e+18,171.59886979166666,0.5789264241854349,-0.7861912051836649,-0.1179040198524792,0.1807330747445424,-2.6342457930246987,1.262990117073059,-0.0765921908120313
