seconds_elapsed_rounded,accelerometer_time,accelerometer_seconds_elapsed,accelerometer_z,accelerometer_y,accelerometer_x,accelerometeruncalibrated_time,accelerometeruncalibrated_seconds_elapsed,accelerometeruncalibrated_z,accelerometeruncalibrated_y,accelerometeruncalibrated_x,gravity_time,gravity_seconds_elapsed,gravity_z,gravity_y,gravity_x,gyroscope_time,gyroscope_seconds_elapsed,gyroscope_z,gyroscope_y,gyroscope_x,gyroscopeuncalibrated_time,gyroscopeuncalibrated_seconds_elapsed,gyroscopeuncalibrated_z,gyroscopeuncalibrated_y,gyroscopeuncalibrated_x,location_time,location_seconds_elapsed,location_bearingAccuracy,location_speedAccuracy,location_verticalAccuracy,location_horizontalAccuracy,location_speed,location_bearing,location_altitude,location_longitude,location_latitude,magnetometer_time,magnetometer_seconds_elapsed,magnetometer_z,magnetometer_y,magnetometer_x,magnetometeruncalibrated_time,magnetometeruncalibrated_seconds_elapsed,magnetometeruncalibrated_z,magnetometeruncalibrated_y,magnetometeruncalibrated_x,orientation_time,orientation_seconds_elapsed,orientation_qz,orientation_qy,orientation_qx,orientation_qw,orientation_roll,orientation_pitch,orientation_yaw
0.0,1.688875930349198e+18,15.006197998046874,-7.076422770818074,-10.231992403666178,-1.5580387115478522,1.688875930349198e+18,15.006197998046874,-3.4987053920825324,-18.3503573735555,2.7351953983306885,1.688875930349198e+18,15.006197998046874,3.55491574605306,-8.102620124816895,4.22852087020874,1.688875930344875e+18,15.001875,-0.3159700433413187,1.5338317155838013,-0.7274896502494812,1.688875930349198e+18,15.006197998046874,-0.1143845294912656,1.5288430452346802,-1.2025900681813555,,,,,,,,,,,,1.688875930341113e+18,14.998112939453126,-3.740519976615906,49.919959259033206,-12.902719879150393,1.688875930341113e+18,14.998112939453126,-259.3671142578125,144.77495727539062,-146.02911682128905,1.6888759303405463e+18,14.997546142578123,0.1193560138344764,-0.3337093591690063,-0.4539886415004729,0.8174024422963461,-0.8755689462025961,0.964786926905314,0.1909092267354329
0.05,1.6888759303924475e+18,15.049447631835935,-7.844653129577637,1.4100775718688965,0.2205801010131836,1.6888759303924475e+18,15.049447631835935,-5.150550842285156,-7.350751399993896,3.819842338562012,1.6888759303924475e+18,15.049447631835935,2.671300768852234,-8.745083808898926,3.534548759460449,1.688875930396773e+18,15.053773193359376,1.2769628763198853,4.519690116246541,-4.748561064402263,1.6888759303924475e+18,15.049447631835935,1.4049900770187378,4.6048548221588135,-4.575151681900024,,,,,,,,,,,,1.688875930391116e+18,15.048115966796876,1.481079959869385,49.89311904907227,-11.746159553527832,1.688875930391116e+18,15.048115966796876,-254.1455108642578,144.74811706542968,-144.87255859375,1.6888759303924503e+18,15.049450358072916,0.0732983760535716,-0.2763297508160273,-0.5359540482362112,0.792840321858724,-0.933448354403178,1.1025186777114868,0.4183473984400431
0.1,1.6888759304356997e+18,15.092699462890629,-6.866156578063965,0.3061148325602214,0.1048622131347656,1.6888759304356997e+18,15.092699462890629,-5.736393769582112,-9.02074178059896,2.988635540008545,1.6888759304356997e+18,15.092699462890629,1.106961578130722,-9.311111450195312,2.8190598487854004,1.688875930448674e+18,15.105674316406253,-0.3438153266906738,5.101641019185384,-5.202077547709147,1.6888759304356997e+18,15.092699462890629,0.1663589725891748,4.931107997894287,-5.693060398101807,,,,,,,,,,,,1.688875930441114e+18,15.098114208984375,11.770559883117675,48.778038787841794,-10.879959678649902,1.688875930441114e+18,15.098114208984375,-243.8560363769531,143.63303833007814,-144.00635681152343,1.6888759304443505e+18,15.1013505859375,-0.0202438253909349,-0.1758936693271001,-0.6540728410085043,0.7334476113319397,-1.3086412747701008,1.2631089687347412,1.0851218700408936
0.15,1.6888759304876e+18,15.144600016276042,-4.161076704661052,-2.3576265970865884,-5.023836215337117,1.6888759304876e+18,15.144600016276042,-4.251248121261597,-11.720842679341636,-1.9884356061617536,1.6888759304876e+18,15.144600016276042,-0.1129728915790716,-9.347470919291178,2.9706871509552,1.6888759305005742e+18,15.157574300130207,-0.286699429154396,0.5326744963725408,-1.7178039948145545,1.6888759304876e+18,15.144600016276042,-0.5421428953607877,2.484083433945974,-2.0356575647989907,,,,,,,,,,,,1.6888759304911122e+18,15.148112158203125,19.26623954772949,45.44499893188477,-15.345159912109375,1.6888759304911122e+18,15.148112158203125,-236.3603546142578,140.29999694824218,-148.4715576171875,1.6888759304962506e+18,15.153250732421874,-0.1052864864468574,-0.114309179286162,-0.7056800723075867,0.6911511619885763,-1.642726977666219,1.257474939028422,1.6298113663991292
0.2,1.6888759305395023e+18,15.196502278645832,4.316927989323934,2.846224784851074,-3.0851199626922607,1.6888759305395023e+18,15.196502278645832,3.1369904279708862,-6.458427747090657,-0.1252243916193644,1.6888759305395023e+18,15.196502278645832,-1.2027390400568645,-9.288907368977863,2.8951820532480874,1.6888759305438316e+18,15.20083142089844,0.1374446786940097,-1.370247095823288,-2.36206316947937,1.6888759305395023e+18,15.196502278645832,0.1432478999098141,-1.4285083711147308,-2.306474447250366,,,,,,,,,,,,1.688875930541114e+18,15.198114306640624,24.71719970703125,43.23923873901367,-15.159719467163086,1.688875930541114e+18,15.198114306640624,-230.90939636230468,138.0942413330078,-148.28611450195314,1.6888759305481595e+18,15.20515966796875,-0.0882018283009528,-0.1260541751980781,-0.744907816251119,0.6489821473757426,-2.0160131454467773,1.235904335975647,1.961711923281352
0.25,1.6888759305914038e+18,15.248403645833337,5.611172755559285,3.3166006406148276,-0.5386292934417725,1.6888759305914038e+18,15.248403645833337,3.5581273635228476,-5.817151228586833,2.4841487407684326,1.6888759305914038e+18,15.248403645833337,-2.075846870740255,-9.118006706237791,2.958064556121826,1.688875930587079e+18,15.244078613281252,-0.0178678097824256,2.022422115008036,-2.186744848887126,1.6888759305914038e+18,15.248403645833337,-0.0668897405266761,2.1956024169921875,-2.1689788500467935,,,,,,,,,,,,1.6888759305911124e+18,15.248112548828123,29.792399597167968,40.10627899169922,-15.86487979888916,1.6888759305911124e+18,15.248112548828123,-225.83419494628907,134.9612823486328,-148.99127502441405,1.6888759306000507e+18,15.257050537109372,-0.1220624819397925,-0.0978831027944882,-0.7749919096628824,0.6118587851524353,-2.1897388299306235,1.180793325106303,2.2246816953023276
0.3,1.6888759306433126e+18,15.300312825520834,2.273746411005656,1.4894625345865886,-3.0654221773147583,1.6888759306433126e+18,15.300312825520834,-0.2751746078332265,-7.378468195597331,0.3501497308413188,1.6888759306433126e+18,15.300312825520834,-2.5717225869496665,-8.852185567220053,3.3508583704630532,1.6888759306389842e+18,15.295984212239585,-0.6351980368296305,0.986292858918508,-1.4173092047373457,1.6888759306433126e+18,15.300312825520834,-0.687732458114624,0.7806857873996099,-1.3552554448445635,,,,,,,,,,,,1.6888759306411187e+18,15.2981189453125,32.10307922363281,36.97575988769531,-19.153999710083006,1.6888759306411187e+18,15.2981189453125,-223.5235137939453,131.83075866699218,-152.2803955078125,1.6888759306433078e+18,15.30030773925781,-0.1591842696070671,-0.0785034745931625,-0.7901377975940704,0.5866381824016571,-2.2201300859451294,1.1245728135108948,2.3372029066085815
0.35,1.688875930695214e+18,15.352214192708333,3.533277750015259,-1.7908995946248372,-7.231649080912272,1.688875930695214e+18,15.352214192708333,0.572682241598765,-10.378469467163086,-3.4460633595784507,1.688875930695214e+18,15.352214192708333,-2.9833971659342446,-8.571824709574381,3.720872004826864,1.6888759306908887e+18,15.34788875325521,-0.7033604184786478,0.6510296290119489,-1.0217739343643188,1.688875930695214e+18,15.352214192708333,-0.6339763055245081,0.7518732945124308,-0.9461284478505452,,,,,,,,,,,,1.6888759306911194e+18,15.3481193359375,34.32347869873047,34.530879211425784,-20.96203956604004,1.6888759306911194e+18,15.3481193359375,-221.30311279296876,129.38587951660156,-154.08843383789062,1.6888759306865633e+18,15.343563232421872,-0.174697662393252,-0.0842303559184074,-0.801725447177887,0.5652686953544617,-2.244586944580078,1.069650610287984,2.3767752647399902
0.4,1.6888759307471145e+18,15.404114420572917,5.596422592798869,-7.190820058186849,-6.3080207506815595,1.6888759307471145e+18,15.404114420572917,2.5567309856414795,-15.784454027811686,-2.602593421936035,1.6888759307471145e+18,15.404114420572917,-3.062493006388346,-8.57788880666097,3.640713691711426,1.6888759307427817e+18,15.399781575520834,0.5440773268540701,-0.2212859541177749,0.0170024087031682,1.6888759307471145e+18,15.404114420572917,0.6035857597986857,-0.1824959963560104,0.19837848842144,,,,,,,,,,,,1.6888759307411185e+18,15.398118701171876,34.44791946411133,33.457279205322266,-21.652559280395508,1.6888759307411185e+18,15.398118701171876,-221.17867736816407,128.31227416992186,-154.778955078125,1.6888759307384635e+18,15.39546329752604,-0.183152084549268,-0.0748797158400217,-0.8070038557052612,0.556362251440684,-2.2627097765604653,1.0563164154688518,2.4212162494659424
0.45,1.6888759307990129e+18,15.456012776692708,-3.657144705454508,-7.451884905497233,-1.3159859975179036,1.6888759307990129e+18,15.456012776692708,-5.642475247383118,-16.484354337056477,2.0149560471375785,1.6888759307990129e+18,15.456012776692708,-2.0081318616867065,-9.016724268595375,3.2662285963694253,1.6888759307946885e+18,15.451688151041663,1.2245812217394512,0.9745845595995584,2.8888326485951743,1.6888759307990129e+18,15.456012776692708,1.3498085935910542,0.7831801573435465,3.0149763425191245,1.6888759307903634e+18,15.44736328125,0.0,0.0,1.333761215209961,18.106000900268555,0.0764930620789527,0.0,32.606590018666594,-122.7500759,49.1920741,1.6888759307911206e+18,15.448120800781249,31.275919342041018,36.45359878540039,-21.171879959106445,1.6888759307911206e+18,15.448120800781249,-224.35068054199215,131.3085968017578,-154.29827575683595,1.6888759307903675e+18,15.447367513020836,-0.1792792429526646,-0.053788598626852,-0.7826046148935953,0.5932045181592306,-2.1564152240753174,1.141797145207723,2.338289419809977
0.5,1.6888759308422671e+18,15.499267211914065,-3.442991256713867,-4.724774360656738,4.3297425508499146,1.6888759308422671e+18,15.499267211914065,-4.222434759140015,-14.17418384552002,6.94875693321228,1.6888759308422671e+18,15.499267211914065,-0.8022450506687164,-9.433664321899414,2.554300904273987,1.6888759308465943e+18,15.503594563802084,1.4006631175676982,-1.4200071493784587,3.504228432973226,1.6888759308422671e+18,15.499267211914065,1.6100881099700928,-1.3833043575286863,3.3433419466018677,,,,,,,,,,,,1.68887593084112e+18,15.498119873046877,24.87091941833496,42.475518798828126,-18.177999114990236,1.68887593084112e+18,15.498119873046877,-230.75567321777345,137.330517578125,-151.3043975830078,1.6888759308422636e+18,15.499263671875,-0.1404379780093828,-0.0439996781448522,-0.7336947520573934,0.6627671917279562,-1.854097326596578,1.287908673286438,1.9920559724171956
0.55,1.6888759308855153e+18,15.54251505533854,0.0178681413332621,-10.677412668863932,10.393580436706545,1.6888759308855153e+18,15.54251505533854,0.7144569555918375,-20.19422658284505,12.743575096130373,1.6888759308855153e+18,15.54251505533854,0.6737873582169414,-9.501068751017252,2.285281260808309,1.6888759308984916e+18,15.55549169921875,0.299934834241867,-0.2269873370726903,3.719100395838419,1.6888759308855153e+18,15.54251505533854,0.3456479161977768,-0.7306966483592987,4.03629199663798,,,,,,,,,,,,1.688875930891125e+18,15.548124951171877,17.114159774780273,46.77479858398438,-15.21583957672119,1.688875930891125e+18,15.548124951171877,-238.5124359130859,141.62979431152343,-148.342236328125,1.688875930894172e+18,15.551171956380209,-0.1040753722190856,-0.0637320987880229,-0.6675705115000407,0.7339857220649719,-1.1784890294075012,1.309968074162801,1.2360352277755735
0.6,1.6888759309374203e+18,15.594420410156252,-2.835577607154846,-3.503474235534668,3.0516852537790933,1.6888759309374203e+18,15.594420410156252,-0.7270192305246989,-12.854243278503418,5.28295358022054,1.6888759309374203e+18,15.594420410156252,2.0857568979263306,-9.335023880004885,2.166554848353068,1.688875930950396e+18,15.60739599609375,0.4851288199424743,-1.2527318932116032,1.7651460568110149,1.6888759309374203e+18,15.594420410156252,0.3698789129654566,-0.5362378855546316,2.02649450302124,,,,,,,,,,,,1.688875930941119e+18,15.59811904296875,9.406199836730956,48.75607986450195,-14.239839553833008,1.688875930941119e+18,15.59811904296875,-246.22039489746095,143.61107482910157,-147.3662353515625,1.6888759309460713e+18,15.603071370442708,-0.0903311297297477,-0.0704017306367555,-0.6186217665672302,0.7771461606025696,-0.7799329360326132,1.2497347195943196,0.8084680438041687
0.65,1.688875930989318e+18,15.64631795247396,-4.002053260803223,2.074974219004313,-0.9955610831578572,1.688875930989318e+18,15.64631795247396,-1.163509964942932,-7.1112695535024,1.1001001993815105,1.688875930989318e+18,15.64631795247396,2.815741856892904,-9.170498530069988,2.0309478044509888,1.6888759309936492e+18,15.650649047851562,0.7828238010406494,-0.8878926336765289,2.4335343837738037,1.688875930989318e+18,15.64631795247396,0.7978918155034384,-1.28811115026474,2.240042805671692,,,,,,,,,,,,1.6888759309911173e+18,15.64811728515625,5.826719951629639,49.92727890014648,-12.08775978088379,1.6888759309911173e+18,15.64811728515625,-249.7998779296875,144.78227844238282,-145.2141571044922,1.688875930997969e+18,15.654968912760417,-0.0495485626161098,-0.0914583752552668,-0.5830947160720825,0.8055116732915243,-0.5988041559855143,1.1953701972961426,0.5384243528048197
0.7,1.688875931041223e+18,15.698223063151042,-9.456906000773111,11.003650665283203,-1.6808404525121052,1.688875931041223e+18,15.698223063151042,-5.852046489715576,2.0811575651168823,0.3956133425235748,1.688875931041223e+18,15.698223063151042,3.5820579528808594,-8.906747817993164,2.0117403268814087,1.688875931036896e+18,15.693895914713542,0.5004513363043467,-2.045074979464213,1.8724037806193037,1.688875931041223e+18,15.698223063151042,0.4505640268325805,-2.2461005449295044,1.8072448174158733,,,,,,,,,,,,1.6888759310411223e+18,15.698122265625,0.6051199674606323,50.66415863037109,-10.086959838867188,1.6888759310411223e+18,15.698122265625,-255.02147827148437,145.51915588378907,-143.21336059570314,1.6888759310498732e+18,15.706873046874998,-0.0076060785601536,-0.1234259183208147,-0.5459929505983988,0.8282917141914368,-0.519044836362203,1.126980225245158,0.3508050938447316
0.75,1.688875931093121e+18,15.750120849609376,-5.659190098444621,12.121705373128256,-1.7703375816345217,1.688875931093121e+18,15.750120849609376,-1.8283159111936889,3.444866975148519,0.8799604872862498,1.688875931093121e+18,15.750120849609376,3.808072805404663,-8.66109307607015,2.58558456103007,1.6888759310887967e+18,15.74579679361979,-0.10221811880668,-2.9561804930369058,0.9920451442400614,1.688875931093121e+18,15.750120849609376,-0.0873537262280781,-2.849024534225464,0.8664105236530304,,,,,,,,,,,,1.6888759310911186e+18,15.748118652343749,-1.5005999565124513,50.48360061645508,-9.925919914245606,1.6888759310911186e+18,15.748118652343749,-257.1272033691406,145.3385986328125,-143.05231628417968,1.688875931093126e+18,15.7501259765625,0.030521398410201,-0.1791412532329559,-0.5223782658576965,0.8330283761024475,-0.5995940566062927,1.078814446926117,0.2926331609487533
0.8,1.6888759311450258e+18,15.802025960286455,-1.5563654899597168,6.2713494300842285,0.1445614496866861,1.6888759311450258e+18,15.802025960286455,1.7244275410970051,-2.5120649145295224,3.14775816599528,1.6888759311450258e+18,15.802025960286455,3.2579915523529053,-8.767669041951498,2.938483238220215,1.6888759311407022e+18,15.797702067057292,0.567595640818278,-2.1403191089630127,-1.3394747972488403,1.6888759311450258e+18,15.802025960286455,0.6063346664110819,-2.169691562652588,-1.5329153736432393,,,,,,,,,,,,1.6888759311411215e+18,15.798121582031252,-0.7319999992847442,50.62267990112305,-10.1503999710083,1.6888759311411215e+18,15.798121582031252,-256.35859375,145.47767639160156,-143.27679748535155,1.6888759311363758e+18,15.79337581380208,0.0568737325568993,-0.219133640329043,-0.5264483690261841,0.8193041880925497,-0.7095019419987997,1.0925073623657229,0.3049881160259247
0.85,1.6888759311969216e+18,15.853921549479168,13.431230862935385,-9.87835661570231,3.0445609887441,1.6888759311969216e+18,15.853921549479168,16.130814870198567,-18.838891983032227,6.108477433522542,1.6888759311969216e+18,15.853921549479168,2.6767820517222085,-8.944790204366049,2.9992029666900635,1.688875931192602e+18,15.849601806640626,0.2270891467730204,-1.5454890926678977,0.6538294156392416,1.6888759311969216e+18,15.853921549479168,0.0844012151161829,-1.6206764181454976,1.059647520383199,,,,,,,,,,,,1.6888759311911237e+18,15.848123583984377,4.077239894866944,50.89107894897461,-8.391160011291504,1.6888759311911237e+18,15.848123583984377,-251.54935607910156,145.74607543945314,-141.51755981445314,1.6888759311882775e+18,15.845277587890626,0.0887448638677596,-0.2538662403821945,-0.5494734843571981,0.7909364700317383,-0.851277232170105,1.1537806987762451,0.3507825334866841
0.9,1.6888759312488305e+18,15.905830403645831,3.999597152074178,-0.0647846857706705,8.439032554626465,1.6888759312488305e+18,15.905830403645831,7.256434281667073,-8.561519702275595,12.217154184977211,1.6888759312488305e+18,15.905830403645831,3.2340357303619385,-8.480989774068197,3.7134082317352295,1.6888759312445012e+18,15.90150138346354,-0.4737768806517124,-3.661119063695272,2.222022334734598,1.6888759312488305e+18,15.905830403645831,-0.5075781221191088,-3.455155690511068,2.1022927363713584,,,,,,,,,,,,1.688875931241121e+18,15.898120947265625,-0.6661200016736984,50.56899871826172,-9.547719955444336,1.688875931241121e+18,15.898120947265625,-256.29271545410154,145.4239990234375,-142.6741180419922,1.6888759312401784e+18,15.897178466796875,0.1311624472339947,-0.3078096310297648,-0.4926212231318156,0.8027262489000956,-0.8453807830810547,1.0604499181111653,0.191694751381874
0.95,1.68887593129208e+18,15.949079833984374,-11.758351564407349,-10.241107940673828,5.845929384231567,1.68887593129208e+18,15.949079833984374,-8.088638067245483,-18.35683822631836,10.06959581375122,1.68887593129208e+18,15.949079833984374,3.646912097930908,-8.099985122680664,4.158952951431274,1.6888759312964055e+18,15.953405598958334,-0.945517599582672,1.3046554327011108,0.3903937935829162,1.68887593129208e+18,15.949079833984374,-1.4182763695716858,2.4279602766036987,0.7966446578502655,1.688875931309381e+18,15.966381103515625,0.0,0.0,1.2488211393356323,17.722999572753906,0.0843135863542556,0.0,32.54052222563226,-122.7500777,49.1920815,1.688875931291116e+18,15.948116210937505,-4.455439901351928,49.97119903564453,-11.7925199508667,1.688875931291116e+18,15.948116210937505,-260.0820373535156,144.8261932373047,-144.91891479492188,1.68887593129208e+18,15.949080078125,0.1345638955632845,-0.3335524002710978,-0.4527280231316884,0.8156892657279968,-0.8551782965660095,0.976658324400584,0.148166388273239
1.0,1.6888759313353308e+18,15.992330891927084,-4.978055556615193,-2.268110116322835,-6.511974096298218,1.6888759313353308e+18,15.992330891927084,-1.5928223518033822,-10.63091198603312,-2.561716079711914,1.6888759313353308e+18,15.992330891927084,3.3624316851298013,-8.34705670674642,3.885544459025065,1.6888759313483098e+18,16.005309733072917,1.0580694874127703,2.752406040827433,-3.485393524169922,1.6888759313353308e+18,15.992330891927084,0.7708610494931539,1.453604777654012,-2.615063230196635,,,,,,,,,,,,1.6888759313411218e+18,15.998121826171875,-2.2374799251556396,50.085879516601565,-11.245959854125976,1.6888759313411218e+18,15.998121826171875,-257.86407470703125,144.94087829589844,-144.3723571777344,1.6888759313439813e+18,16.0009814453125,0.1102336471279461,-0.3049095471700032,-0.4939986169338226,0.8060100078582764,-0.8698423306147257,1.044224222501119,0.2513286620378493
1.05,1.6888759313872325e+18,16.044232666015628,-5.50859260559082,-0.9514455795288086,2.075709342956543,1.6888759313872325e+18,16.044232666015628,-3.472384452819824,-10.094521204630531,5.06381090482076,1.6888759313872325e+18,16.044232666015628,2.01340671380361,-9.127330462137856,2.9233880837758384,1.6888759314002092e+18,16.057208984375,0.096414898832639,4.087961196899414,-5.198463439941406,1.6888759313872325e+18,16.044232666015628,0.5928447445233663,4.338263034820557,-5.039790948232015,,,,,,,,,,,,1.6888759313911155e+18,16.0481154296875,6.836879825592041,49.978519439697266,-9.267119789123536,1.6888759313911155e+18,16.0481154296875,-248.7897155761719,144.8335174560547,-142.39351501464844,1.6888759313958792e+18,16.052879313151042,0.0393212074413895,-0.220037281513214,-0.603173037370046,0.7641642888387045,-1.048264702161153,1.2220710913340251,0.6731244921684265
1.1,1.6888759314391334e+18,16.096133382161458,-2.902988831202189,-3.656447092692057,-1.7283817927042644,1.6888759314391334e+18,16.096133382161458,-2.5842484633127847,-13.079168637593588,1.0845468839009602,1.6888759314391334e+18,16.096133382161458,0.295938936372598,-9.406976381937662,2.7482151985168457,1.6888759314434606e+18,16.100460571289062,-0.1014799904078244,3.8166861534118657,-3.4788776636123657,1.6888759314391334e+18,16.096133382161458,-0.1471676196282108,3.696396509806315,-3.784361203511556,,,,,,,,,,,,1.68887593144112e+18,16.0981201171875,16.694479751586915,47.194478607177736,-11.973079681396484,1.68887593144112e+18,16.0981201171875,-238.93211364746097,142.04947509765626,-145.09947814941407,1.6888759314477824e+18,16.104782389322917,-0.0479205728818972,-0.1510310322046279,-0.6864466468493143,0.7088905175526937,-1.5335426727930703,1.2842344045639038,1.3860046863555908
1.15,1.6888759314910362e+18,16.148036214192707,-2.955734968185425,4.299686272939046,-3.972923517227173,1.6888759314910362e+18,16.148036214192707,-3.827120383580526,-5.126024166742961,-1.3154542644818623,1.6888759314910362e+18,16.148036214192707,-0.8941869537035624,-9.40996519724528,2.592755715052286,1.688875931486717e+18,16.14371671549479,0.4114686648050944,1.1925617059071858,-2.9170342286427817,1.6888759314910362e+18,16.148036214192707,0.4094833433628082,0.8033387064933777,-2.945643186569214,,,,,,,,,,,,1.6888759314911224e+18,16.14812236328125,22.328439712524418,44.53975830078125,-13.778679847717283,1.6888759314911224e+18,16.14812236328125,-233.29815673828125,139.39475708007814,-146.90508117675782,1.6888759314996826e+18,16.156682535807292,-0.0824860980113347,-0.1059522802631059,-0.7391815384229025,0.6595939993858337,-1.9813601175944011,1.2772293488184612,1.9478081464767456
1.2,1.6888759315429368e+18,16.199936848958334,8.537480990091959,3.4530773162841797,0.5493177970250448,1.6888759315429368e+18,16.199936848958334,6.219743490219116,-5.77507750193278,3.0227331717809043,1.6888759315429368e+18,16.199936848958334,-2.340539296468099,-9.212409655253092,2.4087018966674805,1.688875931538606e+18,16.195606201171874,0.0506000071763992,-0.6427829265594482,-2.596075415611267,1.6888759315429368e+18,16.199936848958334,-0.0002036243677139,-0.2655737002690634,-2.462906837463379,,,,,,,,,,,,1.6888759315411208e+18,16.198120849609374,29.46299934387207,40.99931869506836,-12.504999542236328,1.6888759315411208e+18,16.198120849609374,-226.1635925292969,135.85431823730468,-145.631396484375,1.6888759315429356e+18,16.19993566894531,-0.0689420513808727,-0.1116021424531936,-0.7802154421806335,0.6115279495716095,-2.3514599800109863,1.2193033695220947,2.2901755571365356
1.25,1.6888759315948388e+18,16.251838541666668,1.7410833835601809,2.7862284978230796,-1.504140814145406,1.6888759315948388e+18,16.251838541666668,-0.948355277379354,-6.166902224222819,1.551147257288297,1.6888759315948388e+18,16.251838541666668,-2.712239980697632,-8.937385559082031,2.990574598312378,1.6888759315905147e+18,16.247514811197917,-0.7968737085660299,3.140000104904175,-1.261589487393697,1.6888759315948388e+18,16.251838541666668,-0.872671922047933,2.996853987375895,-1.2081387042999268,,,,,,,,,,,,1.6888759315911204e+18,16.248120556640625,31.90055923461914,38.01031875610352,-15.645279502868652,1.6888759315911204e+18,16.248120556640625,-223.72603454589844,132.86531677246094,-148.7716796875,1.6888759315861862e+18,16.24318611653646,-0.1209172358115513,-0.0851628333330154,-0.7934906482696533,0.5897365609804789,-2.325230518976847,1.1579771041870115,2.37701948483785
1.3,1.6888759316467397e+18,16.303739908854165,3.0059285958607993,-1.21636168162028,-6.239179770151774,1.6888759316467397e+18,16.303739908854165,-0.0267197887102762,-9.813165028889976,-2.5391836166381836,1.6888759316467397e+18,16.303739908854165,-3.0554498036702475,-8.581058184305826,3.635282595952352,1.6888759316424092e+18,16.299409423828124,-1.1222613056500752,0.26796622077624,-1.2815443873405457,1.6888759316467397e+18,16.303739908854165,-1.0444777806599934,0.1836159201338887,-1.3323989113171897,,,,,,,,,,,,1.6888759316411167e+18,16.2981166015625,32.60815925598145,35.392198944091795,-20.613119506835936,1.6888759316411167e+18,16.2981166015625,-223.0184356689453,130.2471954345703,-153.73951721191406,1.688875931638089e+18,16.29508894856771,-0.1724038223425546,-0.0778412396709124,-0.8028265039126078,0.5652867555618286,-2.260843197504679,1.0778210560480754,2.3988705476125083
1.35,1.6888759316986376e+18,16.355637369791665,3.816331227620443,-4.897514661153157,-6.650168418884277,1.6888759316986376e+18,16.355637369791665,0.437687079111735,-13.318251609802246,-2.841476877530416,1.6888759316986376e+18,16.355637369791665,-3.4014456272125244,-8.40499178568522,3.743977944056193,1.6888759316943148e+18,16.351314697265625,0.1468112871516496,0.1974112838506698,-0.4465424915154775,1.6888759316986376e+18,16.355637369791665,0.2615012228488922,0.2181297987699508,-0.273565827558438,,,,,,,,,,,,1.6888759316911212e+18,16.348121044921875,34.257599639892575,32.622799682617185,-22.0795597076416,1.6888759316911212e+18,16.348121044921875,-221.368994140625,127.47779693603516,-155.20596008300782,1.6888759316899914e+18,16.346991373697918,-0.1834880510965982,-0.0793316612641016,-0.8163455327351888,0.5418531894683838,-2.30137300491333,1.026654601097107,2.454448938369751
1.4,1.6888759317505426e+18,16.407542805989582,1.76395579179128,-8.76185385386149,-1.5965762933095295,1.6888759317505426e+18,16.407542805989582,-0.7066802978515625,-17.594424883524578,1.9294126828511555,1.6888759317505426e+18,16.407542805989582,-2.4934376080830893,-8.816825866699219,3.461275498072306,1.6888759317462198e+18,16.403219645182293,1.4383331139882405,2.2222769260406494,2.31472110748291,1.6888759317505426e+18,16.407542805989582,1.5314900477727251,2.2499184608459473,2.5304583311080933,,,,,,,,,,,,1.688875931741119e+18,16.398118896484373,33.06199951171875,33.789119720458984,-22.19423904418945,1.688875931741119e+18,16.398118896484373,-222.5645965576172,128.6441207885742,-155.32063903808594,1.6888759317418918e+18,16.398891764322915,-0.1913806398709614,-0.0498537259797254,-0.7985273003578186,0.5678012172381083,-2.226328214009603,1.093378980954488,2.4325900872548423
1.45,1.6888759317937946e+18,16.450794677734375,-3.4981930255889893,-5.85977840423584,3.7604823112487793,1.6888759317937946e+18,16.450794677734375,-4.701597332954407,-15.174384117126465,6.68853759765625,1.6888759317937946e+18,16.450794677734375,-1.2262056469917295,-9.298860549926758,2.8633416891098022,1.6888759317981204e+18,16.455120524088542,1.5458454291025798,-1.0552188207705815,3.1981849670410156,1.6888759317937946e+18,16.450794677734375,1.5421293377876282,-0.9344711154699326,3.008129596710205,,,,,,,,,,,,1.688875931791122e+18,16.44812216796875,24.75379943847656,40.335638427734374,-21.21091957092285,1.688875931791122e+18,16.44812216796875,-230.87279357910157,135.19064025878907,-154.33731384277343,1.6888759317937943e+18,16.450794189453124,-0.1814992775519688,-0.0170148409282166,-0.7492601076761881,0.6361692150433859,-1.9605289300282795,1.2448445161183674,2.196937322616577
1.5,1.688875931837048e+18,16.49404825846354,0.2608259320259093,-9.815940221150717,6.255730152130127,1.688875931837048e+18,16.49404825846354,0.4289134343465169,-19.346768697102863,8.639485518137613,1.688875931837048e+18,16.49404825846354,0.1452859739462534,-9.51508331298828,2.319041887919108,1.68887593185002e+18,16.507019938151043,0.5381722847620647,0.1845831274986267,3.798767328262329,1.688875931837048e+18,16.49404825846354,0.9587020675341288,-0.6118324597676595,3.942880630493164,1.6888759318283935e+18,16.4853935546875,0.0,0.0,1.2679060697555542,17.18899917602539,0.1065854802727699,359.984375,32.44772381625761,-122.7500764,49.1921044,1.6888759318411187e+18,16.4981185546875,17.00679988861084,45.72071914672851,-17.182479476928712,1.6888759318411187e+18,16.4981185546875,-238.6197967529297,140.57571716308593,-150.3088806152344,1.6888759318456934e+18,16.502693522135417,-0.1420358071724573,-0.0256908691177765,-0.6893405715624491,0.7093596259752909,-1.373005708058675,1.32504669825236,1.5389869213104248
1.55,1.6888759318889464e+18,16.545946614583332,-3.6949424743652344,-7.560901959737142,6.5445427894592285,1.6888759318889464e+18,16.545946614583332,-1.9250259051720304,-16.98604965209961,8.746365070343018,1.6888759318889464e+18,16.545946614583332,1.7471149762471516,-9.4094025293986,2.1371089617411294,1.688875931893273e+18,16.55027294921875,0.6207917928695679,0.1763109564781189,2.061212062835694,1.6888759318889464e+18,16.545946614583332,0.4028147359689076,0.2302962144215901,2.2870795329411826,,,,,,,,,,,,1.688875931891119e+18,16.548119140624998,8.70836000442505,48.24123840332031,-16.548079872131346,1.688875931891119e+18,16.548119140624998,-246.9182342529297,143.0962371826172,-149.67447509765626,1.6888759318975936e+18,16.554593505859376,-0.1421155979235966,-0.0231898805747429,-0.634574830532074,0.7591578165690104,-0.8420747121175131,1.2760838667551675,1.0123101472854614
1.6,1.6888759319408484e+18,16.597848307291667,-3.630606412887573,0.2722757657368977,-1.2138330141703289,1.6888759319408484e+18,16.597848307291667,-1.0121639569600422,-9.008379141489664,0.7272186577320099,1.6888759319408484e+18,16.597848307291667,2.5956410566965737,-9.264909744262695,1.876338243484497,1.6888759319365276e+18,16.593527750651045,1.261589487393697,-2.384919762611389,2.6250407298405967,1.6888759319408484e+18,16.597848307291667,1.3134111563364663,-2.1901555260022483,2.766506830851237,,,,,,,,,,,,1.688875931941117e+18,16.5981169921875,4.5676798820495605,49.461238861083984,-13.49563980102539,1.688875931941117e+18,16.5981169921875,-251.0589141845703,144.3162384033203,-146.62203369140624,1.6888759319494984e+18,16.606498535156252,-0.0841840629776318,-0.0527887394030888,-0.5949090520540873,0.7972056667009989,-0.5804743766784668,1.221303900082906,0.6255208651224772
1.65,1.6888759319927473e+18,16.64974755859375,-6.670022010803223,10.572677294413248,0.0915151039759318,1.6888759319927473e+18,16.64974755859375,-2.9411778450012207,1.605783427755038,1.686341722806295,1.6888759319927473e+18,16.64974755859375,3.706042687098185,-8.951148668924967,1.530113140741984,1.688875931988422e+18,16.645422037760415,0.8666141430536906,-1.1754574179649353,2.192497173945109,1.6888759319927473e+18,16.64974755859375,0.7810421188672384,-1.3173818190892537,1.9887736241022749,,,,,,,,,,,,1.6888759319911206e+18,16.648120849609377,-1.7909600198268891,50.3664794921875,-9.91127986907959,1.6888759319911206e+18,16.648120849609377,-257.4175506591797,145.2214813232422,-143.0376770019531,1.6888759319927483e+18,16.649748413085938,-0.0495751835405826,-0.0605363193899392,-0.5525611042976379,0.8297256529331207,-0.3864788562059402,1.1457843780517578,0.3705991506576538
1.7,1.6888759320446523e+18,16.701652180989583,-6.7463328043619795,12.614141464233398,-0.7600531578063965,1.6888759320446523e+18,16.701652180989583,-2.947159926096598,3.731606960296631,1.1306087176005046,1.6888759320446523e+18,16.701652180989583,3.776371479034424,-8.86678949991862,1.8259483973185224,1.688875932040328e+18,16.697327880859373,0.3349577784538269,-2.5279131730397544,0.0733547278990348,1.6888759320446523e+18,16.701652180989583,0.3207042515277862,-2.524451573689779,-0.0339030275742212,,,,,,,,,,,,1.6888759320411177e+18,16.698117724609375,-2.915799951553345,51.05455932617187,-8.82303981781006,1.6888759320411177e+18,16.698117724609375,-258.5423950195312,145.90955810546876,-141.94943542480468,1.688875932035997e+18,16.69299715169271,-0.0153296726057305,-0.0986853341261545,-0.5429461797078451,0.833598256111145,-0.4343616565068562,1.1255586147308352,0.3134096860885619
1.75,1.6888759320965489e+18,16.753549072265624,-3.9815944035847983,10.974461873372396,-0.4901854197184245,1.6888759320965489e+18,16.753549072265624,-0.8687940041224161,1.9188443422317505,1.77746844291687,1.6888759320965489e+18,16.753549072265624,3.089998960494995,-9.039872487386068,2.2029403845469155,1.6888759320922276e+18,16.749227783203125,0.2460768868525823,-2.385886907577514,-1.4522811969121296,1.6888759320965489e+18,16.753549072265624,0.2234239677588144,-2.443053722381592,-1.6174184282620747,,,,,,,,,,,,1.68887593209112e+18,16.748120263671876,-0.0585600137710571,50.886199188232425,-8.544879722595216,1.68887593209112e+18,16.748120263671876,-255.68515625,145.74119873046874,-141.67127685546876,1.6888759320879022e+18,16.744902099609376,0.0211549270898103,-0.1493784338235855,-0.5573954780896505,0.8161836663881937,-0.585356076558431,1.159077246983846,0.3383741279443105
1.8,1.6888759321484506e+18,16.80545076497396,9.592676639556885,-9.114129225413004,4.459271669387817,1.6888759321484506e+18,16.80545076497396,11.94756317138672,-18.226529041926067,7.316852728525798,1.6888759321484506e+18,16.80545076497396,2.332085132598877,-9.096653620402018,2.792867581049601,1.6888759321441303e+18,16.801130533854167,-0.9201666563749312,-2.4883086681365967,0.9506081144014994,1.6888759321484506e+18,16.80545076497396,-1.0751737356185913,-2.6473881800969443,1.699783484141032,,,,,,,,,,,,1.6888759321411228e+18,16.798122705078125,6.236639738082886,50.48359985351563,-8.549759864807129,1.6888759321411228e+18,16.798122705078125,-249.38995666503905,145.33859558105468,-141.67615966796876,1.688875932139804e+18,16.796803955078122,0.0485636194547017,-0.2099455296993254,-0.5836720665295919,0.782564381758372,-0.8703733881314596,1.2060179313023884,0.4963288207848866
1.85,1.6888759322003558e+18,16.857355712890627,12.539428234100342,1.748492717742921,6.299810965855916,1.6888759322003558e+18,16.857355712890627,15.922041227420168,-6.771687984466553,9.915059248606363,1.6888759322003558e+18,16.857355712890627,3.359810749689738,-8.504435221354166,3.550535043080648,1.6888759321960325e+18,16.853032063802083,0.4008293747901916,-2.8708630402882895,1.9835813442866008,1.6888759322003558e+18,16.857355712890627,0.6903286377588908,-2.4055873031417527,1.3818790316581726,,,,,,,,,,,,1.6888759321911183e+18,16.84811845703125,-0.5514399588108063,50.703199005126955,-10.814079666137696,1.6888759321911183e+18,16.84811845703125,-256.17803649902345,145.55819702148438,-143.9404754638672,1.6888759321917064e+18,16.848706298828123,0.0962780341506003,-0.281651884317398,-0.5008154213428497,0.812344491481781,-0.8175782362620035,1.0522162516911826,0.2570234835147857
1.9,1.6888759322436068e+18,16.90060681152344,-13.106388092041016,-3.6598072052001953,10.95439839363098,1.6888759322436068e+18,16.90060681152344,-10.00827980041504,-12.322438955307009,14.482858180999756,1.6888759322436068e+18,16.90060681152344,3.0753068923950195,-8.646886348724365,3.463745355606079,1.6888759322479337e+18,16.90493351236979,-0.7592036724090576,2.2025764683882394,0.1964440941810608,1.6888759322436068e+18,16.90060681152344,-1.0441214554011822,1.4148402363061905,-0.9049968719482422,,,,,,,,,,,,1.6888759322411192e+18,16.89811923828125,-0.7783599615097045,51.1057991027832,-9.535519790649412,1.6888759322411192e+18,16.89811923828125,-256.4049530029297,145.96079711914064,-142.66191711425782,1.6888759322436065e+18,16.900606201171872,0.1054391091068585,-0.2838882505893706,-0.5063336888949076,0.8071138064066569,-0.8235560258229574,1.0708142916361492,0.2472953150669733
1.95,1.6888759322868582e+18,16.94385831705729,-8.551265239715578,-11.517506917317707,-4.460579474767049,1.6888759322868582e+18,16.94385831705729,-5.2201420267423,-20.09831460316976,-0.960319546982646,1.6888759322868582e+18,16.94385831705729,3.3083216349283853,-8.565062204996744,3.435546398162842,1.6888759322998346e+18,16.956834635416666,0.7909686962763468,1.0900890231132507,-2.652427832285563,1.6888759322868582e+18,16.94385831705729,0.1283835271994272,1.1302534739176433,-1.0938050746917722,,,,,,,,,,,,1.688875932291121e+18,16.948120947265625,-1.6152800023555756,50.0883186340332,-11.077599906921389,1.688875932291121e+18,16.948120947265625,-257.2418731689453,144.9433166503906,-144.20399780273436,1.688875932295499e+18,16.952499104817708,0.0702453553676605,-0.2580530345439911,-0.5217937628428141,0.8096829851468405,-0.8229946494102478,1.0792065858840945,0.3394224147001902
2.0,1.6888759323387525e+18,16.99575244140625,-8.597171783447266,1.4112388292948406,0.8059237798055013,1.6888759323387525e+18,16.99575244140625,-6.500700950622559,-7.832306702931722,3.414159059524536,1.6888759323387525e+18,16.99575244140625,2.0736696322758994,-9.227800369262695,2.543521801630656,1.688875932343087e+18,17.00008703613281,0.7891615256667137,4.982598781585693,-4.737183570861816,1.6888759323387525e+18,16.99575244140625,0.9198612446586292,4.633922100067139,-4.392070372899373,1.6888759323474086e+18,17.00440869140625,0.0,0.0,1.2679060697555542,16.684999465942383,0.1186872199177742,0.0043523111380636,32.44772381625761,-122.7500732,49.1921159,1.6888759323411187e+18,16.99811875,5.204519867897034,50.16151885986328,-9.06703987121582,1.6888759323411187e+18,16.99811875,-250.4220733642578,145.01651306152343,-142.1934356689453,1.6888759323474092e+18,17.004408935546873,0.0162440920248627,-0.1739638298749923,-0.6144513885180155,0.7678471406300863,-0.9580839077631632,1.2544973691304524,0.6843316157658895
2.05,1.68887593239066e+18,17.04766015625,-3.9426995118459063,-1.7213811874389648,-1.3403992652893066,1.68887593239066e+18,17.04766015625,-3.590031623840332,-11.183853467305502,1.3214363207419713,1.68887593239066e+18,17.04766015625,0.3298663580790162,-9.44672711690267,2.5971221129099527,1.6888759323863347e+18,17.043334879557293,-1.358564297358195,2.975677251815796,-3.724852720896403,1.68887593239066e+18,17.04766015625,-1.417716383934021,2.812474568684896,-3.4284302393595376,,,,,,,,,,,,1.6888759323911186e+18,17.048118652343753,15.079199600219727,47.84595947265625,-11.677839851379394,1.6888759323911186e+18,17.048118652343753,-240.54739379882812,142.70095825195312,-144.80423583984376,1.6888759323993126e+18,17.056312418619793,-0.071828331798315,-0.1249396229783693,-0.6900638937950134,0.7087715665499369,-1.5064839919408162,1.2885092894236247,1.4306317170461018
2.1,1.6888759324425595e+18,17.09955997721354,1.8101130723953247,1.0173983573913574,-4.876856327056885,1.6888759324425595e+18,17.09955997721354,1.0474580725034075,-8.355936209360758,-2.008375763893127,1.6888759324425595e+18,17.09955997721354,-0.785456508398056,-9.357589403788248,2.8037670453389487,1.6888759324382344e+18,17.095234537760415,0.235284944375356,0.2570724487304687,-2.802089730898539,1.6888759324425595e+18,17.09955997721354,0.4007275899251302,0.2037235597769419,-2.9677360455195108,,,,,,,,,,,,1.6888759324411162e+18,17.098116308593752,21.67207984924316,44.515359497070314,-14.925479698181151,1.6888759324411162e+18,17.098116308593752,-233.9545166015625,139.37035522460937,-148.0518798828125,1.6888759324425562e+18,17.09955615234375,-0.0952807515859603,-0.1113404519855975,-0.7250133752822876,0.6727980673313141,-1.829620361328125,1.266778826713562,1.8066431879997251
2.15,1.688875932494463e+18,17.15146280924479,3.9961770375569663,3.5946620305379233,-1.0517358382542927,1.688875932494463e+18,17.15146280924479,1.8867406646410625,-5.646064440409343,1.5696916182835896,1.688875932494463e+18,17.15146280924479,-2.1322378714879355,-9.224981307983398,2.556713978449503,1.6888759324901384e+18,17.147138427734376,0.6049093008041382,1.8650225003560383,-2.80875833829244,1.688875932494463e+18,17.15146280924479,0.5297728901108106,2.0171788136164346,-2.6401087045669556,,,,,,,,,,,,1.688875932491119e+18,17.148119091796875,28.13807945251465,41.02859878540039,-14.38135986328125,1.688875932491119e+18,17.148119091796875,-227.48851623535157,135.88359375,-147.50775756835938,1.688875932485808e+18,17.142807698567708,-0.1069915468494097,-0.0779324285686015,-0.7705431381861368,0.6230208079020182,-2.2190519173940024,1.2331719398498535,2.2607954343159995
2.2,1.688875932546361e+18,17.203361165364583,5.1752917766571045,2.348242918650309,-2.5719544887542725,1.688875932546361e+18,17.203361165364583,2.5475585063298545,-6.653642177581787,0.395414004723231,1.688875932546361e+18,17.203361165364583,-2.650534709294637,-8.986139933268229,2.902655124664306,1.6888759325420424e+18,17.199042317708333,-0.5721262047688166,1.7471763690312705,-1.4872532685597737,1.688875932546361e+18,17.203361165364583,-0.6507751146952311,1.6443983713785808,-1.4126258691151936,,,,,,,,,,,,1.6888759325411156e+18,17.198115478515625,30.61223907470703,38.15671920776367,-17.80711975097656,1.6888759325411156e+18,17.198115478515625,-225.01435241699215,133.0117156982422,-150.9335174560547,1.6888759325377157e+18,17.194715576171873,-0.1531691551208495,-0.0385627647240956,-0.793725828329722,0.5871907472610474,-2.310032844543457,1.1695255041122437,2.475689729054769
2.25,1.6888759325982638e+18,17.255263834635418,2.104400873184204,-0.8462883631388346,-6.7514011065165205,1.6888759325982638e+18,17.255263834635418,-0.8488538209348917,-9.572885831197103,-3.2997024059295654,1.6888759325982638e+18,17.255263834635418,-2.976056178410848,-8.7108523050944,3.3869852224985757,1.6888759325939438e+18,17.25094384765625,-0.9225592613220216,0.420122567564249,-1.001717170079549,1.6888759325982638e+18,17.255263834635418,-0.8917105595270792,0.3162754854808251,-1.0291043122609456,,,,,,,,,,,,1.688875932591121e+18,17.24812080078125,32.02255973815918,35.94607925415039,-20.930319595336915,1.688875932591121e+18,17.24812080078125,-223.60403747558593,130.80107727050782,-154.0567199707031,1.6888759325896172e+18,17.2466171875,-0.1878433922926584,-0.0337418479224045,-0.8041600982348124,0.5628687143325806,-2.286381165186564,1.103232463200887,2.51089859008789
2.3,1.688875932650165e+18,17.307165120442708,3.5380798975626626,-3.583050092061361,-4.972613493601481,1.688875932650165e+18,17.307165120442708,0.199601302544276,-12.112667719523111,-1.3794622421264648,1.688875932650165e+18,17.307165120442708,-3.3612801233927407,-8.513872464497885,3.528437693913778,1.68887593264584e+18,17.302840169270834,-0.2136501222848892,-0.1241074527303377,-0.6195191517472267,1.688875932650165e+18,17.307165120442708,-0.1452332114179929,-0.1128573541839916,-0.4703153222799301,,,,,,,,,,,,1.6888759326411215e+18,17.29812158203125,33.67443923950195,33.44751968383789,-21.85995979309082,1.6888759326411215e+18,17.29812158203125,-221.95215759277343,128.30251922607422,-154.98635559082032,1.6888759326415148e+18,17.29851481119792,-0.1955728133519489,-0.0383495266238848,-0.8172338207562765,0.5407307942708334,-2.3240153789520264,1.0527911186218262,2.5545461177825928
2.35,1.68887593269342e+18,17.350420166015624,10.210551738739014,-5.006911277770996,-4.223113775253296,1.68887593269342e+18,17.350420166015624,7.163213729858398,-13.665410041809082,-0.6831508725881577,1.68887593269342e+18,17.350420166015624,-3.070139765739441,-8.642753601074219,3.4752495288848877,1.6888759326977477e+18,17.354747395833332,0.5513058801492056,1.7517069876194,1.487762272357941,1.68887593269342e+18,17.350420166015624,0.5033529698848724,1.4275920689105988,1.2453251481056211,,,,,,,,,,,,1.6888759326911237e+18,17.3481234375,33.061998748779295,33.76471939086914,-22.384559631347656,1.6888759326911237e+18,17.3481234375,-222.5645965576172,128.61971588134764,-155.51095886230468,1.68887593269342e+18,17.350420166015624,-0.2015107919772465,-0.0284296094129482,-0.80792768796285,0.5527172287305196,-2.280082861582438,1.079687237739563,2.533069451649984
2.4,1.6888759327366715e+18,17.393671468098958,-5.722616672515869,-7.6674448649088545,0.366799791653951,1.6888759327366715e+18,17.393671468098958,-7.495716253916423,-16.73320770263672,3.7302111387252808,1.6888759327366715e+18,17.393671468098958,-1.795900861422221,-9.050017674763998,3.2986978689829507,1.6888759327496443e+18,17.40664444986979,1.6841555039087932,0.3552690595388412,2.90593687693278,1.6888759327366715e+18,17.393671468098958,1.4141021370887756,1.435024306178093,2.812321742375692,,,,,,,,,,,,1.6888759327411205e+18,17.3981205078125,26.425199127197267,37.96883926391602,-23.531359100341795,1.6888759327411205e+18,17.3981205078125,-229.2013946533203,132.82383728027344,-156.6577606201172,1.6888759327453204e+18,17.402320638020836,-0.2197314500808715,0.0068854455215235,-0.7607377966245016,0.6102321942647299,-2.015138785044352,1.1990556716918943,2.3427792390187583
2.45,1.688875932788569e+18,17.44556917317708,-2.832086533308029,-7.556610743204753,4.436930735905965,1.688875932788569e+18,17.44556917317708,-3.223331401745478,-17.05544153849284,6.928816795349121,1.688875932788569e+18,17.44556917317708,-0.4140462254484494,-9.48308563232422,2.4271726608276367,1.6888759327928975e+18,17.44989758300781,1.7963256239891052,-2.3754258155822754,3.735440969467163,1.688875932788569e+18,17.44556917317708,1.7713056008021038,-2.010815660158793,3.54866886138916,,,,,,,,,,,,1.6888759327911212e+18,17.44812119140625,20.42279930114746,43.41735992431641,-19.027119827270507,1.6888759327911212e+18,17.44812119140625,-235.20379638671875,138.27235717773436,-152.1535186767578,1.6888759327972216e+18,17.454221435546874,-0.1654122670491536,0.000728109657454,-0.7120280861854553,0.6815223495165507,-1.6142213741938274,1.3280388911565144,1.8516042629877727
2.5,1.6888759328404682e+18,17.49746818033854,1.858001669247945,-10.122858047485352,8.913112958272299,1.6888759328404682e+18,17.49746818033854,3.2163524627685547,-19.613967259724937,11.086744944254557,1.6888759328404682e+18,17.49746818033854,1.335549275080363,-9.475364049275717,2.1089185078938804,1.6888759328361503e+18,17.493150716145834,0.0059050271908442,-0.2816597719987233,3.6536358992258706,1.6888759328404682e+18,17.49746818033854,-0.0687732497851054,-0.0637336174647013,3.5227580865224204,1.688875932866425e+18,17.523425048828123,0.0,0.0,1.2780243158340454,16.19300079345703,0.1330005228519439,8.92413809197e-05,32.233932462818984,-122.7500696,49.1921326,1.6888759328411182e+18,17.49811826171875,12.45863971710205,47.47264022827149,-16.060079765319824,1.6888759328411182e+18,17.49811826171875,-243.16795349121097,142.32763671875,-149.186474609375,1.6888759328491246e+18,17.506124593098956,-0.1422213365634282,-0.0225779575606186,-0.6464550693829855,0.7489404082298279,-0.9404285351435344,1.2934741179148357,1.1114991307258606
2.55,1.6888759328923758e+18,17.549375732421876,-5.115565141042073,-3.8875417709350586,-1.048360824584961,1.6888759328923758e+18,17.549375732421876,-2.7284160455067954,-13.20618724822998,1.0269197622934978,1.6888759328923758e+18,17.549375732421876,2.3643476168314614,-9.302900314331056,2.0105671087900796,1.6888759328880494e+18,17.545049235026042,1.1501574218273165,-2.365015665690104,2.1987585624059043,1.6888759328923758e+18,17.549375732421876,1.2684616843859355,-2.4344507853190103,2.2521583636601767,,,,,,,,,,,,1.6888759328911183e+18,17.54811845703125,6.910079860687256,49.00495834350586,-14.67659969329834,1.6888759328911183e+18,17.54811845703125,-248.71651306152344,143.85995483398438,-147.80299377441406,1.6888759328923692e+18,17.549369140625,-0.1060164272785186,-0.0507814344018697,-0.6156961917877197,0.7789423167705536,-0.7264443337917328,1.2487730979919434,0.8056018650531769
2.6,1.6888759329442742e+18,17.60127408854167,-7.576842466990153,8.695324897766113,-0.8982488910357157,1.6888759329442742e+18,17.60127408854167,-4.064807494481404,-0.3343969782193501,0.8167500893274943,1.6888759329442742e+18,17.60127408854167,3.4892337322235107,-9.01397673288981,1.6502854824066162,1.688875932939954e+18,17.596953938802084,0.7673994774619738,-1.2897401452064514,2.817208687464396,1.6888759329442742e+18,17.60127408854167,0.6216062760601441,-1.4918347696463268,2.7062857945760093,,,,,,,,,,,,1.68887593294112e+18,17.598119873046876,0.8564399957656862,50.22495880126953,-10.699399757385256,1.68887593294112e+18,17.598119873046876,-254.77015991210936,145.0799591064453,-143.82579956054687,1.6888759329356234e+18,17.592623291015624,-0.0620183323820431,-0.0600929607947667,-0.5719402233759562,0.8154413898785909,-0.4678163429101308,1.1824198961257937,0.4705231686433156
2.65,1.6888759329961766e+18,17.6531767578125,-7.086904048919678,12.803790092468262,-0.7130471070607504,1.6888759329961766e+18,17.6531767578125,-3.1483564376831055,4.063212156295776,1.5304094552993774,1.6888759329961766e+18,17.6531767578125,3.915746291478475,-8.724833170572916,2.178743084271749,1.6888759329918548e+18,17.648854817708333,-0.1182024230559666,-2.699158986409506,0.910036474466324,1.6888759329961766e+18,17.6531767578125,-0.1297579581538836,-2.677167812983195,0.7613926281531652,,,,,,,,,,,,1.6888759329911188e+18,17.648118798828126,-3.7527199745178224,50.42259902954102,-10.404159927368164,1.6888759329911188e+18,17.648118798828126,-259.3793151855469,145.27760009765626,-143.53055725097656,1.6888759329875284e+18,17.644528483072918,-0.0236797146499156,-0.1117872471610704,-0.5362171332041422,0.836060643196106,-0.488157461086909,1.101125717163086,0.3598672151565552
2.7,1.6888759330480804e+18,17.705080566406252,-5.242906014124553,10.340229670206703,0.2345187664031982,1.6888759330480804e+18,17.705080566406252,-1.7120645542939503,1.5918252269426982,3.0590243339538574,1.6888759330480804e+18,17.705080566406252,3.508040110270182,-8.732659339904785,2.7597920894622803,1.6888759330437568e+18,17.70075675455729,0.0940223410725593,-2.5368216037750244,-0.4932736804087956,1.6888759330480804e+18,17.705080566406252,0.1402953863143921,-2.509587208429972,-0.5898413012425104,,,,,,,,,,,,1.6888759330411146e+18,17.69811455078125,-2.3253200173377992,50.45431900024414,-11.01171989440918,1.6888759330411146e+18,17.69811455078125,-257.9519104003906,145.30931701660157,-144.13811645507812,1.6888759330394345e+18,17.696434326171875,0.0092309963656589,-0.1720655560493469,-0.5344492594401041,0.8272260228792826,-0.6402777234713236,1.092253645261129,0.375575731197993
2.75,1.6888759330999785e+18,17.756978352864582,7.219645579655965,1.6872498194376628,-0.4402281045913696,1.6888759330999785e+18,17.756978352864582,10.009974956512451,-7.26281491915385,2.579861601193746,1.6888759330999785e+18,17.756978352864582,2.7675276597340903,-8.934319496154785,2.955376227696737,1.6888759330956608e+18,17.752660725911458,0.4914919982353846,-1.7981327374776204,-0.8514443089564642,1.6888759330999785e+18,17.756978352864582,0.4238895662128925,-1.6060665647188823,-0.615192214647929,,,,,,,,,,,,1.6888759330911206e+18,17.748120849609375,2.022759974002838,50.385999298095705,-10.360239791870118,1.6888759330911206e+18,17.748120849609375,-253.6038330078125,145.24099731445312,-143.48663635253905,1.6888759330913318e+18,17.748331787109375,0.0426734779030084,-0.2179489135742187,-0.554369330406189,0.8019343813260397,-0.8067523638407389,1.1383264064788818,0.4271141688028971
2.8,1.688875933143232e+18,17.80023193359375,10.12457275390625,-11.290231704711914,6.410290718078613,1.688875933143232e+18,17.80023193359375,13.106685638427734,-20.077277183532715,9.717851161956789,1.688875933143232e+18,17.80023193359375,2.959311008453369,-8.771300315856934,3.242847204208374,1.68887593314756e+18,17.804559895833332,-0.6150394876797994,-2.7389160891373954,1.504153847694397,1.688875933143232e+18,17.80023193359375,-0.7971027791500092,-2.304489105939865,1.6149749755859375,,,,,,,,,,,,1.6888759331411185e+18,17.798118505859374,2.015439987182617,50.72759857177734,-10.75551986694336,1.6888759331411185e+18,17.798118505859374,-253.6111572265625,145.5825958251953,-143.8819152832031,1.6888759331432305e+18,17.800230305989583,0.0656317447622616,-0.2516952653725942,-0.5364259282747904,0.8024861216545105,-0.842989464600881,1.1074774265289309,0.3774523834387461
2.85,1.6888759331864855e+18,17.84348543294271,5.515187899271647,0.6365785598754883,4.038974682490031,1.6888759331864855e+18,17.84348543294271,8.432905356089273,-7.919246117273967,7.962715784708659,1.6888759331864855e+18,17.84348543294271,2.894916216532389,-8.540079434712728,3.859027624130249,1.688875933199461e+18,17.856461018880207,-0.8905906366805235,-0.8535823822021484,1.0954340895016987,1.6888759331864855e+18,17.84348543294271,-0.4386012346173326,-2.64687904715538,1.1521427234013877,,,,,,,,,,,,1.6888759331911196e+18,17.84811962890625,1.1321599423885345,50.39331970214844,-11.46555976867676,1.6888759331911196e+18,17.84811962890625,-254.4944396972656,145.24831848144532,-144.59195556640626,1.6888759331951311e+18,17.85213134765625,0.1052463551362355,-0.3182420829931894,-0.4989819327990214,0.799045999844869,-0.9329857031504312,1.044293761253357,0.3022256692250569
2.9,1.6888759332383834e+18,17.895383463541666,-11.154057184855144,-12.51276938120524,1.9837781588236492,1.6888759332383834e+18,17.895383463541666,-7.823732535044352,-20.8109769821167,6.131009976069133,1.6888759332383834e+18,17.895383463541666,3.307523171106974,-8.282462437947592,4.0825183391571045,1.6888759332427118e+18,17.89971179199219,0.2915354669094085,1.5065464079380035,-0.6068946123123168,1.6888759332383834e+18,17.895383463541666,-0.1594358359773954,1.683595558007558,-0.3326670136302709,,,,,,,,,,,,1.68887593324112e+18,17.898119873046873,-1.8690400123596191,49.88091888427734,-13.47123966217041,1.68887593324112e+18,17.898119873046873,-257.4956359863281,144.73592224121094,-146.5976348876953,1.6888759332470364e+18,17.904036458333334,0.079278325041135,-0.2988987167676289,-0.4921442965666453,0.8135987122853597,-0.8811611334482828,1.0129719773928323,0.3172788619995117
2.95,1.688875933290288e+18,17.947288004557294,-6.757190704345703,0.5346552530924479,-1.2267439365386963,1.688875933290288e+18,17.947288004557294,-3.9166519194841385,-8.286943117777506,2.091925303141276,1.688875933290288e+18,17.947288004557294,2.817737261454264,-8.805853207906088,3.2539557615915933,1.688875933285961e+18,17.942961181640626,1.100473741690318,3.083444118499756,-2.7135143280029297,1.688875933290288e+18,17.947288004557294,0.9877181847890218,3.287982225418091,-2.9666161934534707,,,,,,,,,,,,1.6888759332911206e+18,17.948120751953127,1.4347198992967605,50.12003860473633,-10.731119918823245,1.6888759332911206e+18,17.948120751953127,-254.1918731689453,144.97503967285155,-143.85751647949218,1.688875933298938e+18,17.955937906901042,0.0509576859573523,-0.2357423851887385,-0.5562275648117065,0.7943331003189087,-0.8751362164815267,1.140438715616862,0.4564977685610453
3.0,1.6888759333421888e+18,17.999189046223957,-4.789233048756917,0.7572495142618815,1.25132417678833,1.6888759333421888e+18,17.999189046223957,-3.548555930455526,-8.537790616353353,4.210570176442464,1.6888759333421888e+18,17.999189046223957,1.2178757786750791,-9.279294967651367,2.8945325215657554,1.6888759333378675e+18,17.994867513020836,-0.6092362652222315,3.1295135815938315,-4.722599188486735,1.6888759333421888e+18,17.999189046223957,-0.7675012846787771,3.1847968101501465,-4.687525272369385,,,,,,,,,,,,1.688875933341117e+18,17.99811669921875,10.513959693908692,49.083038330078125,-11.006839752197266,1.688875933341117e+18,17.99811669921875,-245.11263427734377,143.938037109375,-144.13323669433595,1.688875933342185e+18,17.999184814453123,-0.0114300632849335,-0.1867112964391707,-0.6354832947254181,0.7486965656280518,-1.180151104927063,1.2443605065345764,0.9282101094722748
3.05,1.688875933394095e+18,18.051095214843752,-3.827841838200887,-2.467400232950846,-2.5110774834950766,1.688875933394095e+18,18.051095214843752,-3.98205574353536,-11.750553766886393,0.7469594826300939,1.688875933394095e+18,18.051095214843752,-0.1770153045654297,-9.26740837097168,3.193323532740275,1.688875933389767e+18,18.046767008463544,-0.4918483098347982,2.4872397581736245,-3.333338975906372,1.688875933394095e+18,18.051095214843752,-0.3599014381567637,2.1258620073397956,-3.259831508000692,1.6888759333854405e+18,18.042440185546877,0.0,0.0,1.2780243158340454,15.79800033569336,0.1414230614900589,4.7408590035e-05,32.233932462818984,-122.7500684,49.1921424,1.688875933391124e+18,18.048124023437506,18.153599548339844,45.86223831176758,-15.274399757385254,1.688875933391124e+18,18.048124023437506,-237.47299194335935,140.717236328125,-148.40079650878906,1.68887593338544e+18,18.042439778645832,-0.08870563407739,-0.143419067064921,-0.6906577348709106,0.7026127576828003,-1.556687633196513,1.238121509552002,1.478206713994344
3.1,1.6888759334459896e+18,18.10298974609375,2.757071852684021,2.003722349802653,-4.925514618555705,1.6888759334459896e+18,18.10298974609375,1.199601799249649,-7.197411060333252,-1.821536290148894,1.6888759334459896e+18,18.10298974609375,-1.580271601676941,-9.185388247172035,3.0392649173736572,1.688875933441665e+18,18.098664957682292,0.3134247809648514,-0.1834631959597269,-2.8870509465535483,1.6888759334459896e+18,18.10298974609375,0.3098613967498143,-0.107206846276919,-2.829324165980021,,,,,,,,,,,,1.6888759334411185e+18,18.098118408203124,24.731840133666992,42.6341194152832,-15.928319931030272,1.6888759334411185e+18,18.098118408203124,-230.89475708007816,137.4891143798828,-149.05472106933593,1.688875933437339e+18,18.0943388671875,-0.1063935160636901,-0.1205288097262382,-0.7442773779233297,0.6479096015294393,-1.9793541034062705,1.2180839776992798,1.9590510527292888
3.15,1.6888759334978929e+18,18.15489306640625,9.261530876159668,3.449944337209066,-1.2955233256022136,1.6888759334978929e+18,18.15489306640625,6.819145838419597,-5.527021567026774,1.903490384419759,1.6888759334978929e+18,18.15489306640625,-2.465186595916748,-8.961220741271973,3.1343002319335938,1.6888759334935631e+18,18.15056306966146,-0.0821613719065984,1.99503497282664,-2.138842821121216,1.6888759334978929e+18,18.15489306640625,-0.1322523305813471,2.183334231376648,-2.0343339840571084,,,,,,,,,,,,1.6888759334911176e+18,18.148117431640625,29.792399597167968,39.345000457763675,-16.411439514160158,1.6888759334911176e+18,18.148117431640625,-225.83419494628907,134.2,-149.5378387451172,1.688875933489243e+18,18.14624275716146,-0.1266988813877105,-0.0965261012315749,-0.782034715016683,0.6021648645401001,-2.225522438685099,1.1622352202733357,2.269180854161581
3.2,1.6888759335497912e+18,18.20679142252604,0.4599889119466147,0.8231093088785807,-5.832818349202474,1.6888759335497912e+18,18.20679142252604,-2.179263254006704,-7.920442263285319,-2.168894370396932,1.6888759335497912e+18,18.20679142252604,-2.6620535850524907,-8.727806409200033,3.599210500717163,1.6888759335454738e+18,18.2024736328125,-0.677347739537557,1.5128078162670135,-0.941597859064738,1.6888759335497912e+18,18.20679142252604,-0.7209228078524271,1.2636257236202555,-0.8912524183591207,,,,,,,,,,,,1.6888759335411208e+18,18.198120849609374,30.83183937072754,36.680519104003906,-20.571639633178712,1.6888759335411208e+18,18.198120849609374,-224.7947540283203,131.53551635742187,-153.69803466796876,1.688875933541146e+18,18.19814599609375,-0.1810679684082666,-0.0634231120347976,-0.7935463786125183,0.5773199001948038,-2.2092400391896567,1.1050004561742146,2.3804941177368164
3.25,1.6888759335930465e+18,18.250046630859373,5.576324939727783,-1.7326083183288574,-4.832453489303589,1.6888759335930465e+18,18.250046630859373,2.6416762471199036,-10.28644561767578,-0.9490532875061036,1.6888759335930465e+18,18.250046630859373,-2.957450032234192,-8.538092136383057,3.818686604499817,1.6888759335973732e+18,18.25437296549479,-0.5093598167101542,-0.2901609912514686,-0.8250753084818522,1.6888759335930465e+18,18.250046630859373,-0.5088507384061813,-0.4437172412872314,-0.9514989852905272,,,,,,,,,,,,1.6888759335911173e+18,18.248117529296874,31.876159286499025,34.4601188659668,-22.48215942382813,1.6888759335911173e+18,18.248117529296874,-223.75043334960935,129.31512145996095,-155.60855712890626,1.688875933593039e+18,18.250039143880205,-0.195568968852361,-0.0680360843737919,-0.8033957282702128,0.5582384864489237,-2.226250410079956,1.0559699932734172,2.4130234718322754
3.3,1.6888759336362903e+18,18.293290283203124,3.104567448298136,-4.544017473856608,-6.8449662526448565,1.6888759336362903e+18,18.293290283203124,0.0239282685021559,-13.043675104777018,-2.956132968266805,1.6888759336362903e+18,18.293290283203124,-3.103440602620443,-8.483912467956543,3.824119806289672,1.688875933649268e+18,18.30626806640625,0.2896519502003987,0.1072577436765035,0.5401576161384583,1.6888759336362903e+18,18.293290283203124,0.0246891404191653,-0.2602285866936047,0.0869464874267578,,,,,,,,,,,,1.688875933641119e+18,18.298118945312503,33.33039932250976,33.37431869506836,-22.343079376220704,1.688875933641119e+18,18.298118945312503,-222.29619140625,128.22931823730468,-155.4694793701172,1.6888759336449444e+18,18.30194441731771,-0.1911601076523462,-0.0719998801747957,-0.8069755633672079,0.5541040102640787,-2.248913606007894,1.0487467845280964,2.4235688050587973
3.35,1.6888759336881925e+18,18.345192382812503,-0.3454084396362304,-6.776640256245931,-3.523465871810913,1.6888759336881925e+18,18.345192382812503,-2.615953286488851,-15.632310549418133,0.0931206742922465,1.6888759336881925e+18,18.345192382812503,-2.2933462460835776,-8.839925130208334,3.551873048146566,1.6888759336925243e+18,18.3495244140625,1.5363261103630066,1.8522961735725405,2.568764805793762,1.6888759336881925e+18,18.345192382812503,1.3271047671635945,1.6206763982772827,2.2609650293986,,,,,,,,,,,,1.6888759336911153e+18,18.348115380859376,28.960359573364254,36.74395904541016,-22.589519500732425,1.6888759336911153e+18,18.348115380859376,-226.66623229980468,131.59895935058594,-155.7159210205078,1.6888759336968466e+18,18.3538466796875,-0.1969100137551625,-0.0404093222071726,-0.7764241496721903,0.5968164404233297,-2.1001993815104165,1.146013855934143,2.327103058497111
3.4,1.6888759337400978e+18,18.397097819010416,-4.061882734298706,-8.50682004292806,5.7504386107126875,1.6888759337400978e+18,18.397097819010416,-5.015156825383504,-17.8600279490153,8.626524289449057,1.6888759337400978e+18,18.397097819010416,-0.9760753909746804,-9.337462743123371,2.8113720417022705,1.6888759337357673e+18,18.39276725260417,1.5651894410451253,-1.1528554062048595,3.0590604146321616,1.6888759337400978e+18,18.397097819010416,1.5708400011062622,-1.3290391167004902,3.172121445337931,,,,,,,,,,,,1.6888759337411154e+18,18.3981154296875,23.402039337158204,42.13879928588867,-19.6127197265625,1.6888759337411154e+18,18.3981154296875,-232.22455444335935,136.9937957763672,-152.7391143798828,1.688875933748743e+18,18.40574267578125,-0.1554136425256728,-0.0332801938056945,-0.7307164470354716,0.6632100145022074,-1.811260422070821,1.283607840538025,1.9861327012379963
3.45,1.6888759337919946e+18,18.44899462890625,1.6432600518067677,-10.409687995910645,8.530514081319174,1.6888759337919946e+18,18.44899462890625,2.3437697887420654,-19.92962074279785,10.876774787902832,1.6888759337919946e+18,18.44899462890625,0.6777083153525988,-9.50418758392334,2.281547466913859,1.6888759337876713e+18,18.44467130533854,0.556040088335673,-0.7861835161844889,3.797443787256877,1.6888759337919946e+18,18.44899462890625,0.4138611902793249,-0.4860451221466064,3.7058140436808262,,,,,,,,,,,,1.6888759337911145e+18,18.448114501953125,15.808759498596192,46.618639373779295,-15.9112398147583,1.6888759337911145e+18,18.448114501953125,-239.81783752441407,141.4736358642578,-149.03763732910156,1.6888759338006423e+18,18.457642171223956,-0.11914241562287,-0.0496989401678243,-0.66935267051061,0.7312509616216024,-1.1827624241511028,1.3120481967926023,1.2818455298741658
3.5,1.6888759338438953e+18,18.500895345052083,-4.958950201670328,-4.60081164042155,2.345816175142924,1.6888759338438953e+18,18.500895345052083,-3.0731817285219827,-14.00200049082438,4.570091923077901,1.6888759338438953e+18,18.500895345052083,1.862967014312744,-9.385443687438965,2.159562349319458,1.688875933839574e+18,18.49657413736979,0.7720318535963694,-1.640987714131673,1.9258036216100056,1.6888759338438953e+18,18.500895345052083,0.8593347072601318,-1.930995970964432,1.876730759938558,,,,,,,,,,,,1.6888759338411113e+18,18.498111230468748,8.947479820251464,48.524279022216795,-14.754679679870604,1.6888759338411113e+18,18.498111230468748,-246.67911682128903,143.3792755126953,-147.88107604980468,1.6888759338439014e+18,18.500901611328125,-0.1029999032616615,-0.0592571012675761,-0.632948487997055,0.7648527026176453,-0.856981098651886,1.273844063282013,0.9195476472377776
3.55,1.6888759338957978e+18,18.552797688802084,-6.371018250783284,5.121590932210286,-2.487752993901571,1.6888759338957978e+18,18.552797688802084,-3.6275190512339273,-4.141577263673146,-0.6374878187974294,1.6888759338957978e+18,18.552797688802084,2.72069787979126,-9.24742317199707,1.78555170694987,1.6888759338914747e+18,18.54847469075521,1.278591871261597,-1.5142840544382732,2.8185322284698486,1.6888759338957978e+18,18.552797688802084,1.2192360957463582,-1.4338534673055012,2.871881087621053,1.6888759339044516e+18,18.56145166015625,0.0,0.0,1.2427226305007937,15.428999900817873,0.1502206623554229,0.000121381606732,32.147289545104336,-122.7500667,49.1921564,1.6888759338911142e+18,18.548114111328125,5.380199909210205,49.91019973754883,-10.689639854431151,1.6888759338911142e+18,18.548114111328125,-250.24638977050785,144.76519470214845,-143.8160400390625,1.6888759338871483e+18,18.54414851888021,-0.0455906397352615,-0.0851831460992495,-0.6031336784362793,0.791413684686025,-0.6418642203013102,1.2431145906448364,0.5850597222646078
3.6,1.688875933947703e+18,18.604703043619793,-7.777294317881267,12.162797927856444,-0.2233162323633829,1.688875933947703e+18,18.604703043619793,-4.197210391362508,3.201197942097982,1.7200406789779663,1.688875933947703e+18,18.604703043619793,3.5572826067606607,-8.945854822794596,1.8786434332529705,1.688875933943374e+18,18.600374104817707,0.38973202308019,-2.7327566146850586,1.7756834427515666,1.688875933947703e+18,18.604703043619793,0.3876958191394806,-2.8480064074198403,1.5901840329170227,,,,,,,,,,,,1.6888759339411136e+18,18.598113720703125,-0.5343599677085876,50.62999954223633,-8.520479965209962,1.6888759339411136e+18,18.598113720703125,-256.16095581054685,145.48499755859376,-141.64687805175782,1.6888759339390487e+18,18.59604890950521,0.0042859237485875,-0.1156395077705382,-0.555124839146932,0.8233495950698853,-0.480964849392573,1.1570753653844197,0.3073205351829529
3.65,1.6888759339996014e+18,18.656601399739586,-4.638347466786702,13.511199951171877,0.3945125738779704,1.6888759339996014e+18,18.656601399739586,-1.2215359931190808,4.575475692749023,2.722234567006429,1.6888759339996014e+18,18.656601399739586,3.3940099080403647,-8.919979413350424,2.2630085150400796,1.6888759339952776e+18,18.65227775065104,0.4556036690870921,-2.669837395350138,-0.2389501084884008,1.6888759339996014e+18,18.656601399739586,0.4373795092105865,-2.5453227361043296,-0.384794200460116,,,,,,,,,,,,1.6888759339911137e+18,18.64811376953125,-1.5420799493789672,50.77395935058594,-7.422479820251465,1.6888759339911137e+18,18.64811376953125,-257.1686706542969,145.62895812988282,-140.5488739013672,1.6888759339909532e+18,18.647953369140627,0.0566893592476844,-0.1754187991221745,-0.5402389963467916,0.8208446502685547,-0.5693613092104594,1.136444886525472,0.2315702786048253
3.7,1.688875934042853e+18,18.69985302734375,-1.058129668235779,7.973675727844238,-0.2953407764434814,1.688875934042853e+18,18.69985302734375,1.660618931055069,-1.146461183205247,2.225923180580139,1.688875934042853e+18,18.69985302734375,2.6959471702575684,-9.10439157485962,2.4565504789352417,1.688875934047182e+18,18.704181966145836,0.3452406773964564,-1.7227418025334675,-1.85188889503479,1.688875934042853e+18,18.69985302734375,0.4067599028348923,-1.7887661457061768,-1.944536805152893,,,,,,,,,,,,1.6888759340411156e+18,18.698115625,2.186239945888519,50.95451965332031,-6.751479816436768,1.6888759340411156e+18,18.698115625,-253.4403533935547,145.80951843261718,-139.87787475585938,1.688875934042853e+18,18.699853108723957,0.0861679663260777,-0.2193994969129562,-0.5609011252721151,0.7933986584345499,-0.7454380591710409,1.1889578501383464,0.3016626834869385
3.75,1.688875934086106e+18,18.74310595703125,11.465185165405272,-10.550066153208418,5.151567618052165,1.688875934086106e+18,18.74310595703125,14.010973612467447,-19.649659951527912,7.900302569071452,1.688875934086106e+18,18.74310595703125,2.522986729939779,-9.08384895324707,2.6840213934580484,1.6888759340990794e+18,18.756079508463543,-0.8269588351249695,-2.4075725773970285,2.8090638319651284,1.688875934086106e+18,18.74310595703125,-0.5868887851635615,-1.6990707914034526,1.7354681889216106,,,,,,,,,,,,1.6888759340911153e+18,18.7481154296875,4.753119897842407,50.942318725585935,-6.778319931030273,1.6888759340911153e+18,18.7481154296875,-250.87347717285155,145.7973175048828,-139.90471801757812,1.6888759340947538e+18,18.751753662109376,0.106764942407608,-0.2548146645228067,-0.5463136235872904,0.7900893886884054,-0.8152601520220438,1.1640894412994385,0.2866094460090001
3.8,1.6888759341380027e+18,18.795002685546876,4.964825431505839,4.4982817967732736,4.197102069854736,1.6888759341380027e+18,18.795002685546876,8.122835318247477,-4.133601228396098,7.745567003885905,1.6888759341380027e+18,18.795002685546876,3.135208527247111,-8.616137822469076,3.4837514559427896,1.688875934142333e+18,18.7993330078125,-0.1818851344287395,-2.78882896900177,0.9668469727039336,1.6888759341380027e+18,18.795002685546876,-0.4295400654276212,-3.064049164454142,1.2467250091334183,,,,,,,,,,,,1.688875934141115e+18,18.798114990234374,-0.2683999866247177,50.8520393371582,-8.1300799369812,1.688875934141115e+18,18.798114990234374,-255.8949951171875,145.70703735351563,-141.25647583007813,1.688875934146657e+18,18.80365681966146,0.1476271003484725,-0.321202685435613,-0.4882693588733673,0.7977420886357626,-0.8604070544242859,1.063449144363403,0.1611963560183842
3.85,1.6888759341899144e+18,18.84691446940104,-12.758429209391275,-16.49902280171712,4.553309281667073,1.6888759341899144e+18,18.84691446940104,-9.660223642985024,-24.99323272705078,8.474181085824966,1.6888759341899144e+18,18.84691446940104,3.075404087702433,-8.478464126586914,3.85615865389506,1.6888759341855903e+18,18.842590576171876,-1.010574758052826,2.4775166660547256,-1.041677971680959,1.6888759341899144e+18,18.84691446940104,-0.7981972297032675,2.7474683125813804,-1.2322679261366527,,,,,,,,,,,,1.68887593419112e+18,18.84811982421875,-0.8832799792289734,50.30547866821289,-11.109319877624513,1.68887593419112e+18,18.84811982421875,-256.5098815917969,145.1604766845703,-144.2357208251953,1.6888759341985595e+18,18.855559814453127,0.1027648871143658,-0.3052976628144582,-0.50116099913915,0.8027186592419943,-0.8952910304069519,1.0511484146118164,0.2885772585868835
3.9,1.6888759342418163e+18,18.89881624348958,-5.232797940572103,-0.3914572397867839,-0.329206625620524,1.6888759342418163e+18,18.89881624348958,-2.7792635361353555,-9.409575462341309,2.748555675148964,1.6888759342418163e+18,18.89881624348958,2.4307328859965005,-9.002373059590658,3.013048807779948,1.6888759342374912e+18,18.89449129231771,1.2523246606191,3.6480872631073,-3.3692781925201416,1.6888759342418163e+18,18.89881624348958,1.248557686805725,3.9779036045074463,-3.4573954741160073,,,,,,,,,,,,1.6888759342411167e+18,18.898116552734376,3.5428799390792847,50.07367782592773,-9.38179988861084,1.6888759342411167e+18,18.898116552734376,-252.0837158203125,144.92868041992188,-142.5082000732422,1.688875934250467e+18,18.907467041015625,0.0543319943050542,-0.2252493451038996,-0.577664295832316,0.7815035978953043,-0.9078287283579508,1.191593011220296,0.501772920290629
3.95,1.688875934293718e+18,18.950717854817707,-3.521881858507792,1.8635832468668625,-0.5798740784327189,1.688875934293718e+18,18.950717854817707,-2.6091736455758414,-7.581259727478027,1.9860427776972456,1.688875934293718e+18,18.950717854817707,0.8899068137009939,-9.429097811381022,2.5012033780415854,1.688875934289394e+18,18.946394042968752,-0.4516839583714803,4.052785476048787,-4.699030081431071,1.688875934293718e+18,18.950717854817707,-0.6446664532025655,4.0212241013844805,-4.719494024912517,,,,,,,,,,,,1.6888759342911173e+18,18.94811728515625,13.317520141601562,48.36811904907226,-9.925919914245606,1.6888759342911173e+18,18.94811728515625,-242.30907287597657,143.2231201171875,-143.05231628417968,1.6888759342937178e+18,18.9507177734375,-0.0158474122290499,-0.1567803546786308,-0.6556708216667175,0.737890750169754,-1.2306337356567385,1.2967166304588318,1.0290375649929049
4.0,1.6888759343456174e+18,19.002617513020834,-4.853654702504476,-2.2769381205240884,-4.269448518753052,1.6888759343456174e+18,19.002617513020834,-5.422734340031941,-11.650453885396322,-1.3389836723605792,1.6888759343456174e+18,19.002617513020834,-0.5918809771537781,-9.357770601908364,2.865751425425211,1.688875934341296e+18,18.998295817057297,-0.5565491418043772,2.0782144367694855,-3.09779953956604,1.6888759343456174e+18,19.002617513020834,-0.4008294244607289,1.6856317420800526,-2.927011728286743,,,,,,,,,,,,1.688875934341121e+18,18.998120996093753,21.00595932006836,44.693478393554685,-14.622919464111328,1.688875934341121e+18,18.998120996093753,-234.62063598632812,139.54847717285156,-147.74931640625,1.6888759343369687e+18,18.993968587239586,-0.0930346573392549,-0.1147304673989613,-0.7114110589027405,0.6865677436192831,-1.700254201889038,1.271430214246114,1.6692497332890828
4.05,1.68887593439752e+18,19.054519856770835,5.677761872609456,1.8228108088175456,-3.080739895502726,1.68887593439752e+18,19.054519856770835,3.869194149971008,-7.439086278279622,-0.3200400273005168,1.68887593439752e+18,19.054519856770835,-1.831369121869405,-9.2461519241333,2.6959864298502603,1.6888759343931935e+18,19.05019384765625,0.2399173205097516,-0.9172650973002116,-2.425389528274536,1.68887593439752e+18,19.054519856770835,0.2424626027544339,-0.7949393143256506,-2.4485514958699546,,,,,,,,,,,,1.688875934391115e+18,19.048114990234374,26.395919036865234,41.95091934204102,-14.510679817199708,1.688875934391115e+18,19.048114990234374,-229.23067626953124,136.80591735839843,-147.63707580566407,1.688875934388871e+18,19.045870930989583,-0.0973245253165562,-0.1038478290041287,-0.755919357140859,0.638745387395223,-2.0990580717722573,1.238456169764201,2.0896910429000854
4.1,1.6888759344494226e+18,19.106422688802084,6.538573424021403,3.5225693384806314,-0.7076466083526611,1.6888759344494226e+18,19.106422688802084,4.018745581309001,-5.517051378885905,2.2394825915495553,1.6888759344494226e+18,19.106422688802084,-2.5426292419433594,-9.02387555440267,2.882415692011515,1.6888759344450982e+18,19.102098470052084,0.0126245430049796,3.432044585545858,-1.890984296798706,1.6888759344494226e+18,19.106422688802084,-0.0683150912324587,3.579263130823771,-1.7436130444208782,1.6888759344234716e+18,19.0804716796875,0.0,0.0,1.2427226305007937,15.243000030517578,0.1552451401948928,3.4304732253e-05,32.147289545104336,-122.7500659,49.1921644,1.6888759344411233e+18,19.09812353515625,30.72935981750488,38.80087890625,-15.55256004333496,1.6888759344411233e+18,19.09812353515625,-224.8972381591797,133.65587768554687,-148.678955078125,1.6888759344407729e+18,19.09777294921875,-0.1235901763041814,-0.0760936389366784,-0.7881768345832825,0.5972883303960165,-2.298640171686808,1.177515745162964,2.3672781785329184
4.15,1.6888759344926733e+18,19.14967333984375,-2.6776015758514404,2.3630969524383545,-5.522555828094482,1.6888759344926733e+18,19.14967333984375,-5.321039438247681,-6.4863440990448,-2.128714859485626,1.6888759344926733e+18,19.14967333984375,-2.6662392616271973,-8.833695888519287,3.3291274309158325,1.688875934496996e+18,19.153996175130207,-0.9305513898531595,0.4487823148568471,-0.8793914318084717,1.6888759344926733e+18,19.14967333984375,-0.9230937659740448,0.6175847575068474,-0.7135669589042664,,,,,,,,,,,,1.6888759344911163e+18,19.1481166015625,30.917239379882812,36.63659820556641,-20.366679382324214,1.6888759344911163e+18,19.1481166015625,-224.7093536376953,131.49159545898436,-153.49307556152343,1.6888759344926702e+18,19.149670166015625,-0.1819001783927281,-0.0434511378407478,-0.7966231902440389,0.5747488737106323,-2.247737010320028,1.1197249094645183,2.4489734967549643
4.2,1.6888759345359194e+18,19.19291935221354,4.587589383125305,-1.3174956639607749,-6.512322584788005,1.6888759345359194e+18,19.19291935221354,1.343968629837036,-9.852846145629885,-2.857030193010966,1.6888759345359194e+18,19.19291935221354,-3.266422192255656,-8.51960531870524,3.590579032897949,1.688875934548903e+18,19.205902994791668,-0.7829765379428864,-0.7337000668048859,-1.6803884506225586,1.6888759345359194e+18,19.19291935221354,-0.953764259815216,-0.8544986844062805,-1.7576629320780437,,,,,,,,,,,,1.6888759345411223e+18,19.198122265625,33.406039810180665,33.37432022094727,-21.403679275512697,1.6888759345411223e+18,19.198122265625,-222.2205535888672,128.22931518554688,-154.530078125,1.6888759345445765e+18,19.201576416015623,-0.1846935153007507,-0.062867114941279,-0.818330446879069,0.5404198169708252,-2.3232667446136475,1.0379306475321453,2.5020789305369058
4.25,1.688875934587827e+18,19.244826822916668,3.910969336827596,-5.056943257649739,-4.506601730982463,1.688875934587827e+18,19.244826822916668,0.285344123840332,-13.379666964213053,-0.7124629567066828,1.688875934587827e+18,19.244826822916668,-3.6484266916910806,-8.306978543599447,3.729425271352132,1.688875934592153e+18,19.24915319824219,0.1598176211118698,1.220508724451065,0.174783818423748,1.688875934587827e+18,19.244826822916668,0.0809905373801787,0.8814276489429176,-0.1301651919881502,,,,,,,,,,,,1.6888759345911163e+18,19.248116259765624,35.52395935058594,31.35399971008301,-22.099079513549803,1.6888759345911163e+18,19.248116259765624,-220.10263671875,126.20899658203123,-155.22547912597656,1.6888759345964772e+18,19.253477213541668,-0.1937357187271118,-0.0592251966396967,-0.8243250846862793,0.5285215179125468,-2.3349599838256836,1.0131493012110393,2.533140500386556
4.3,1.6888759346397253e+18,19.29672509765625,1.9999418258666992,-5.573846499125163,-1.685210148493449,1.6888759346397253e+18,19.29672509765625,-0.8474580844243368,-14.227324485778809,2.007578194141388,1.6888759346397253e+18,19.29672509765625,-2.870201269785563,-8.63773282368978,3.628074884414673,1.6888759346354002e+18,19.292400227864583,0.963232676188151,1.3362168073654177,2.0317378540833793,1.6888759346397253e+18,19.29672509765625,1.0326167941093445,1.3548991282780964,2.3189463218053183,,,,,,,,,,,,1.6888759346411187e+18,19.298118749999997,32.142120361328125,33.41579895019531,-22.840839385986328,1.6888759346411187e+18,19.298118749999997,-223.4844757080078,128.2707962036133,-155.9672393798828,1.6888759346483766e+18,19.305376627604165,-0.2089509616295496,-0.0289382754514614,-0.7947935660680135,0.5683995683987936,-2.1943217118581138,1.1009745597839355,2.4568399588267007
4.35,1.6888759346916273e+18,19.348627278645832,-5.001506328582764,-7.618803977966309,3.679401397705078,1.6888759346916273e+18,19.348627278645832,-6.272385915120442,-16.90549119313558,6.636493682861328,1.6888759346916273e+18,19.348627278645832,-1.293681005636851,-9.270942052205404,2.8923787275950112,1.688875934687307e+18,19.344307291666667,2.211790362993876,0.4282674193382263,2.933985789616903,1.6888759346916273e+18,19.348627278645832,2.2556708653767905,0.1639664073785146,2.941468874613444,,,,,,,,,,,,1.6888759346911186e+18,19.348118798828125,24.995359802246092,39.476758575439455,-21.742839813232425,1.6888759346911186e+18,19.348118798828125,-230.63123474121093,134.33175659179688,-154.86923828125,1.688875934700277e+18,19.35727701822917,-0.19002632300059,0.0049395775616479,-0.744083821773529,0.639864424864451,-1.9304728507995603,1.2680187622706096,2.210447152455648
4.4,1.6888759347435318e+18,19.40053190104167,-0.9941216905911764,-10.921465873718262,7.995888074239095,1.6888759347435318e+18,19.40053190104167,-0.6506483952204386,-20.523040135701496,10.048658847808838,1.6888759347435318e+18,19.40053190104167,0.3206718464692433,-9.585829099019367,1.9880573352177937,1.6888759347392082e+18,19.396208089192708,1.136412998040517,-1.6459763447443645,4.059504906336467,1.6888759347435318e+18,19.40053190104167,0.8664105534553528,-1.4904602865378065,4.059046745300293,,,,,,,,,,,,1.6888759347411185e+18,19.398118359375,18.170680046081543,45.091199493408205,-16.49195957183838,1.6888759347411185e+18,19.398118359375,-237.45591430664064,139.94619750976562,-149.61835632324218,1.6888759347435315e+18,19.40053137207031,-0.1404242441058158,-0.0010971380397677,-0.6951641738414764,0.7047240436077118,-1.4063127040863037,1.3665786981582642,1.6047120094299316
4.45,1.688875934795433e+18,19.45243310546875,-2.503361463546753,-6.4645646413167315,3.65104333559672,1.688875934795433e+18,19.45243310546875,-0.774676243464152,-15.925829887390137,5.731807271639506,1.688875934795433e+18,19.45243310546875,1.7058838208516438,-9.445520083109535,2.016050418217977,1.6888759347911094e+18,19.44810929361979,0.6263404985268911,-2.9895235697428384,2.681036631266276,1.688875934795433e+18,19.45243310546875,0.8595383173475661,-3.156900644302368,2.633490959803263,,,,,,,,,,,,1.688875934791121e+18,19.448120849609374,10.750639915466309,47.84839935302735,-14.759559631347656,1.688875934791121e+18,19.448120849609374,-244.8759521484375,142.70339965820312,-147.88595581054688,1.6888759347867812e+18,19.443781005859375,-0.1171383410692214,-0.0376364532858132,-0.6472686926523844,0.7516483863194784,-0.9261603554089864,1.3046330610911052,1.0396514137585957
4.5,1.6888759348473367e+18,19.504336751302084,-5.495189030965169,6.672241687774658,-2.398592233657837,1.6888759348473367e+18,19.504336751302084,-2.6693931221961975,-2.6125636100769043,-0.8081758419672648,1.6888759348473367e+18,19.504336751302084,2.802994330724081,-9.269060134887695,1.5257029136021931,1.6888759348430129e+18,19.50001277669271,1.3836607336997986,-1.6264796257019043,3.0393600463867188,1.6888759348473367e+18,19.504336751302084,1.2337441841761272,-1.5792393287022908,3.037883758544922,,,,,,,,,,,,1.6888759348411192e+18,19.498119140625,6.085359764099121,49.614958953857425,-9.896639823913574,1.6888759348411192e+18,19.498119140625,-249.5412353515625,144.46995849609374,-143.02303771972657,1.688875934838681e+18,19.495681233723957,-0.0408824079980452,-0.0713305498162904,-0.6021185517311096,0.793769896030426,-0.5602465271949768,1.2532949447631836,0.516579141219457
4.55,1.6888759348992366e+18,19.556236409505207,-6.667029857635498,12.435965538024902,2.1961605548858643,1.6888759348992366e+18,19.556236409505207,-2.9336005051930747,3.510270833969116,4.005385716756185,1.6888759348992366e+18,19.556236409505207,3.710628112157186,-8.90994962056478,1.7445117235183716,1.6888759348949128e+18,19.551912841796874,0.0769690217760701,-2.0245601733525596,1.7803667783737185,1.6888759348992366e+18,19.556236409505207,0.0506509093878169,-2.0067940950393677,1.6028085549672444,,,,,,,,,,,,1.6888759348911212e+18,19.54812138671875,-0.9637999892234802,50.50311813354492,-7.815319633483886,1.6888759348911212e+18,19.54812138671875,-256.59039001464845,145.35812072753907,-140.94171752929688,1.6888759348905864e+18,19.547586344401044,0.0024831243790686,-0.1050188193718592,-0.5512245098749796,0.8274955948193868,-0.4335968991120656,1.1509334643681843,0.2778911391894022
4.6,1.6888759349424855e+18,19.5994853515625,-7.175566673278809,11.732469081878662,1.3858033418655396,1.6888759349424855e+18,19.5994853515625,-3.418745279312134,2.9075785875320435,3.614059567451477,1.6888759349424855e+18,19.5994853515625,3.7340201139450073,-8.809145450592041,2.1635427474975586,1.688875934946813e+18,19.603812662760415,-0.0586939683804909,-1.996307611465454,-0.0428114632765451,1.6888759349424855e+18,19.5994853515625,-0.0936914570629596,-2.0996965169906616,-0.0106901377439499,,,,,,,,,,,,1.688875934941125e+18,19.598125048828127,-2.2545599699020387,50.57387847900391,-7.82751989364624,1.688875934941125e+18,19.598125048828127,-257.88115234375,145.4288757324219,-140.95391540527345,1.6888759349424878e+18,19.59948779296875,0.0303927722076574,-0.1529050419727961,-0.535081684589386,0.8301520744959513,-0.5270189444224039,1.114896337191264,0.2600940018892288
4.65,1.68887593498574e+18,19.642739908854168,-2.4177982012430825,6.768700917561849,-0.9047534068425496,1.68887593498574e+18,19.642739908854168,0.9872387448946636,-2.122034860153993,1.6107684075832367,1.68887593498574e+18,19.642739908854168,3.382235368092855,-8.874990781148275,2.45080836613973,1.688875934998712e+18,19.65571199544271,0.4776457250118255,-1.844456672668457,-0.9385435581207277,1.68887593498574e+18,19.642739908854168,0.313526587250332,-1.6874643564224243,-0.6365725000699362,,,,,,,,,,,,1.6888759349911212e+18,19.648121240234374,-0.3196400240063667,50.4957992553711,-7.712839794158936,1.6888759349911212e+18,19.648121240234374,-255.946240234375,145.35079650878907,-140.83923950195313,1.6888759349943852e+18,19.651385253906252,0.0544423920412857,-0.1916569868723551,-0.5438538591066996,0.8150507807731628,-0.6480655670166016,1.1375234921773274,0.2897869944572449
4.7,1.6888759350376417e+18,19.694641682942702,9.54223887125651,1.1738870938618975,-1.053698142369588,1.6888759350376417e+18,19.694641682942702,12.216755390167236,-7.925826231638591,1.5896317958831787,1.6888759350376417e+18,19.694641682942702,2.651714563369751,-9.08396816253662,2.578616460164388,1.688875935050614e+18,19.707614095052083,-0.3168863554795583,-1.697390913963318,0.1640681723753611,1.6888759350376417e+18,19.694641682942702,0.0472911583880583,-1.776345173517863,-0.8422813415527344,,,,,,,,,,,,1.688875935041121e+18,19.698121142578124,3.674639940261841,50.66415939331055,-7.0247598648071286,1.688875935041121e+18,19.698121142578124,-251.95195617675785,145.51915893554687,-140.15115661621093,1.6888759350462956e+18,19.703295654296877,0.0829286923011143,-0.2287630140781401,-0.5605536103248596,0.7914776802062988,-0.7901244759559631,1.182002862294515,0.336962878704071
4.75,1.688875935089542e+18,19.74654166666667,9.819549719492594,-9.691195805867514,4.964252630869548,1.688875935089542e+18,19.74654166666667,12.692129770914711,-18.56112511952718,8.139983654022217,1.688875935089542e+18,19.74654166666667,2.849778731664022,-8.8541841506958,3.11101762453715,1.6888759350938752e+18,19.750875244140623,-0.27779096737504,-3.6540430784225464,1.329700917005539,1.688875935089542e+18,19.74654166666667,-0.4219042509794235,-3.0353893438975015,1.587027887503306,,,,,,,,,,,,1.6888759350911186e+18,19.748118798828123,2.3765599727630615,50.4957992553711,-8.056879901885987,1.6888759350911186e+18,19.748118798828123,-253.25003662109376,145.35079956054688,-141.18327941894532,1.6888759350981857e+18,19.755185709635416,0.1175319701433181,-0.2841748793919881,-0.5224164724349976,0.7949819366137186,-0.8446694215138754,1.1150507132212322,0.25266794860363
4.8,1.688875935141443e+18,19.798443277994792,-11.89737598101298,-9.731874783833822,9.826640129089355,1.688875935141443e+18,19.798443277994792,-8.650253295898438,-18.300107955932617,13.439288139343262,1.688875935141443e+18,19.798443277994792,3.2243212858835855,-8.55248769124349,3.5479350884755454,1.688875935137115e+18,19.794114664713543,-0.9319767504930496,1.458898901939392,1.1935288608074188,1.688875935141443e+18,19.798443277994792,-0.8511898318926493,1.5532775819301603,1.108720431725184,,,,,,,,,,,,1.6888759351411187e+18,19.798118847656248,-0.0463599801063537,50.40795822143555,-9.725839805603028,1.6888759351411187e+18,19.798118847656248,-255.67295532226564,145.2629608154297,-142.85223693847655,1.6888759351500943e+18,19.807094401041667,0.1051643515626588,-0.2879826525847117,-0.4974218706289927,0.8113355835278829,-0.8200931151707967,1.0509510437647502,0.2365102469921112
4.85,1.6888759351933422e+18,19.85034220377604,-2.6504311561584477,2.708427906036377,-6.753502766291301,1.6888759351933422e+18,19.85034220377604,0.3844467004140218,-6.073781490325928,-3.5058838526407876,1.6888759351933422e+18,19.85034220377604,3.0120766957600913,-8.766464233398438,3.182905435562134,1.688875935189025e+18,19.846025146484376,1.1365656852722168,0.6868670582771301,-2.2453370292981467,1.6888759351933422e+18,19.85034220377604,1.1946997046470642,1.082147757212321,-2.660012682278951,,,,,,,,,,,,1.6888759351911186e+18,19.84811875,-0.6709999978542328,50.11027908325195,-8.80108003616333,1.6888759351911186e+18,19.84811875,-256.29759216308594,144.96528015136718,-141.92747802734374,1.6888759351933425e+18,19.85034252929687,0.1073376759886741,-0.2755814790725707,-0.5197292566299438,0.8013617098331451,-0.8213647305965424,1.1025030016899109,0.2570746019482612
4.9,1.6888759352452457e+18,19.902245524088546,-8.459078311920166,0.6006019910176595,0.1546136538187662,1.6888759352452457e+18,19.902245524088546,-7.049654324849446,-8.824530442555746,2.555335203806559,1.6888759352452457e+18,19.902245524088546,1.3866225679715474,-9.409387270609535,2.336008071899414,1.6888759352409224e+18,19.897922444661457,0.1752165406942367,5.191896438598633,-5.153310139973958,1.6888759352452457e+18,19.902245524088546,-0.1063414315382639,5.144299825032552,-5.139311154683431,,,,,,,,,,,,1.6888759352411244e+18,19.89812421875,8.674199867248536,49.658878326416016,-7.388319778442383,1.6888759352411244e+18,19.89812421875,-246.9523956298828,144.51387939453124,-140.51471557617188,1.6888759352365957e+18,19.893595214843753,0.048441944643855,-0.1973141183455784,-0.6097983717918396,0.7641871372858683,-0.9685911337534586,1.261982560157776,0.6143018305301666
4.95,1.688875935297149e+18,19.954148763020836,-3.2977407773335776,-5.267529805501302,-2.30210010210673,1.688875935297149e+18,19.954148763020836,-3.4945181210835776,-14.70229975382487,0.4699902273714542,1.688875935297149e+18,19.954148763020836,-0.2195788373549779,-9.4190247853597,2.7073768774668374,1.6888759352928225e+18,19.949822672526043,-1.0111347182343404,0.9324858089288076,-2.992374340693156,1.688875935297149e+18,19.954148763020836,-0.849000891049703,0.4303545554478963,-2.824131806691488,,,,,,,,,,,,1.6888759352911188e+18,19.948118847656257,17.814439392089845,46.53567962646484,-11.741279792785644,1.6888759352911188e+18,19.948118847656257,-237.8121551513672,141.39067687988282,-144.8676788330078,1.688875935288495e+18,19.945494954427083,-0.0479624941945075,-0.1449462423721948,-0.6913804213205973,0.705798347791036,-1.5581228733062744,1.2935617367426555,1.4195338487625122
5.0,1.6888759353490504e+18,20.006050455729167,2.171163777510325,4.444242159525554,-2.0172102451324463,1.6888759353490504e+18,20.006050455729167,0.5798606872558594,-4.897709210713704,0.5998008592675129,1.6888759353490504e+18,20.006050455729167,-1.6141046285629272,-9.32620620727539,2.552297592163086,1.6888759353447268e+18,20.001726806640622,0.5904012620449066,-0.1569923758506775,-2.849482774734497,1.6888759353490504e+18,20.006050455729167,0.6321946283181509,0.1204931537310282,-2.8788042863210044,,,,,,,,,,,,1.688875935341121e+18,19.998120996093753,24.81967964172363,43.58571929931641,-11.272799682617189,1.688875935341121e+18,19.998120996093753,-230.80691528320312,138.4407196044922,-144.3991943359375,1.6888759353403963e+18,19.997396240234377,-0.0459080996612707,-0.1516516059637069,-0.7396241823832194,0.653773824373881,-2.0519898335138955,1.2624204556147258,1.9005069732666016
5.05,1.6888759353922964e+18,20.049296630859377,5.47964072227478,3.899390697479248,2.786122679710388,1.6888759353922964e+18,20.049296630859377,2.953042149543762,-5.2839508056640625,5.2319066524505615,1.6888759353922964e+18,20.049296630859377,-2.549399971961975,-9.167596340179443,2.3810704946517944,1.6888759353966292e+18,20.05362939453125,0.5041165507088105,1.495652675628662,-2.3288728396097818,1.6888759353922964e+18,20.049296630859377,0.6846272349357605,1.459127962589264,-2.428723931312561,,,,,,,,,,,,1.688875935391118e+18,20.048118115234377,29.987599182128907,40.369799041748045,-11.502159881591798,1.688875935391118e+18,20.048118115234377,-225.6389953613281,135.22479858398438,-144.62855529785156,1.6888759353923018e+18,20.049301839192708,-0.0655539917449156,-0.1175566762685775,-0.7841032346089681,0.6055578788121542,-2.3779712518056235,1.2063988049825032,2.303206125895182
5.1,1.6888759354355576e+18,20.09255753580729,4.809739351272583,3.723578453063965,-0.6099457343419393,1.6888759354355576e+18,20.09255753580729,1.847059726715088,-5.237888654073079,2.1481565833091736,1.6888759354355576e+18,20.09255753580729,-2.985481103261312,-8.945721944173178,2.6933888594309487,1.6888759354485256e+18,20.105525390625,-0.5338962177435557,2.6385306119918823,-1.339372952779134,1.6888759354355576e+18,20.09255753580729,-0.3789909730354945,2.5928684870402017,-1.5338317155838013,1.688875935461501e+18,20.1185009765625,0.0,0.0,1.2890417575836182,14.588000297546388,0.1644582748413086,359.9999694824219,32.05398278070483,-122.7500652,49.1921841,1.6888759354411228e+18,20.098123046875,33.29623870849609,37.358839416503905,-13.888479614257813,1.6888759354411228e+18,20.098123046875,-222.33035583496093,132.21383972167968,-147.01488037109374,1.6888759354442025e+18,20.10120263671875,-0.1183095748225847,-0.0831305856506029,-0.8042332530021667,0.5760138630867004,-2.3930558363596597,1.1368876695632937,2.4441022078196206
5.15,1.6888759354874545e+18,20.14445467122396,2.6990209420522056,-1.1982178688049316,-5.718518257141113,1.6888759354874545e+18,20.14445467122396,-0.6113661924997965,-9.853842894236246,-2.424726963043213,1.6888759354874545e+18,20.14445467122396,-3.333188533782959,-8.639879862467447,3.2290778160095215,1.688875935500428e+18,20.157427978515624,-0.7080946266651154,0.3351614028215408,-1.49320916334788,1.6888759354874545e+18,20.14445467122396,-0.7725918292999268,0.5613342573245367,-1.4635822375615437,,,,,,,,,,,,1.6888759354911168e+18,20.14811689453125,34.225878143310545,34.40399932861328,-18.190199661254884,1.6888759354911168e+18,20.14811689453125,-221.4007141113281,129.25899658203124,-151.31659240722655,1.6888759354961032e+18,20.153103352864584,-0.1569500317176182,-0.0718890453378359,-0.8182132244110107,0.5482562581698099,-2.3755367596944175,1.0648233095804849,2.499881903330485
5.2,1.6888759355393505e+18,20.196350179036457,3.415209372838339,-4.604154586791992,-8.476117134094238,1.6888759355393505e+18,20.196350179036457,-0.0757727821667989,-13.056635856628418,-4.850650310516357,1.6888759355393505e+18,20.196350179036457,-3.513783693313598,-8.436736106872559,3.560753345489502,1.6888759355436772e+18,20.20067724609375,-0.158443173742853,1.905135989189148,0.3989713713526726,1.6888759355393505e+18,20.196350179036457,-0.1932370314995447,1.5390241146087646,0.0368046363194783,,,,,,,,,,,,1.6888759355411274e+18,20.19812734375,35.08963851928711,32.290959167480466,-20.76439971923828,1.6888759355411274e+18,20.19812734375,-220.53695678710935,127.14595794677734,-153.89079895019532,1.6888759355480064e+18,20.205006591796874,-0.1844831009705861,-0.0601135653754075,-0.8193760315577189,0.5392990509668986,-2.3321537176767984,1.038558801015218,2.5146993001302085
5.25,1.6888759355912584e+18,20.248258463541664,4.561963399251302,-6.708329836527507,-5.144720077514648,1.6888759355912584e+18,20.248258463541664,1.701097548007965,-15.45464324951172,-1.681157390276591,1.6888759355912584e+18,20.248258463541664,-2.8836673895517984,-8.730568250020346,3.398849089940389,1.6888759355869376e+18,20.243937337239583,0.948113759358724,0.6111197546124457,1.6249524354934692,1.6888759355912584e+18,20.248258463541664,1.0642290910085042,0.7838928600152334,1.8361082474390664,,,,,,,,,,,,1.688875935591121e+18,20.248120996093753,32.34951896667481,34.36007919311523,-21.15479965209961,1.688875935591121e+18,20.248120996093753,-223.27707214355468,129.21507873535157,-154.28119812011718,1.6888759355999055e+18,20.25690551757812,-0.1863604485988616,-0.037441860884428,-0.7963165442148844,0.5736619234085083,-2.240700880686442,1.1198232571283977,2.4571543534596763
5.3,1.6888759356431493e+18,20.30014933268229,-6.075063705444336,-8.89171028137207,6.4543373584747314,1.6888759356431493e+18,20.30014933268229,-7.388837019602458,-18.231114705403645,9.220143795013428,1.6888759356431493e+18,20.30014933268229,-1.3365747531255086,-9.323659261067707,2.7010928789774575,1.688875935638828e+18,20.295828125,2.1496857007344565,1.0877474149068196,2.8544205824534097,1.6888759356431493e+18,20.30014933268229,2.1499911149342856,0.7028513749440511,2.834618330001831,,,,,,,,,,,,1.6888759356411213e+18,20.298121142578125,25.38575973510742,40.14531936645508,-20.220279693603516,1.6888759356411213e+18,20.298121142578125,-230.24083251953124,135.0003173828125,-153.3466796875,1.6888759356431596e+18,20.30015966796875,-0.1904231160879135,0.0084914742037653,-0.7529627084732056,0.6296850144863129,-2.020049214363098,1.2584471106529236,2.305822730064392
5.35,1.6888759356950607e+18,20.35206046549479,0.4951501488685608,-10.779218991597494,9.732251008351644,1.6888759356950607e+18,20.35206046549479,0.7058826883633932,-20.418354034423828,11.611371358235678,1.6888759356950607e+18,20.35206046549479,0.1879310756921768,-9.623389879862469,1.8144068320592244,1.688875935690738e+18,20.34773795572917,1.3972524503866832,-0.8274678985277811,3.674710830052694,1.6888759356950607e+18,20.35206046549479,1.234253214516987,-0.5290602048238119,3.71686053276062,,,,,,,,,,,,1.6888759356911206e+18,20.348120703125,18.86607971191406,45.06679916381836,-15.496439933776855,1.6888759356911206e+18,20.348120703125,-236.7605133056641,139.9217956542969,-148.62283935546876,1.6888759356864115e+18,20.343411539713543,-0.1451795399188995,0.0078297656339903,-0.7107907931009928,0.6875493129094442,-1.6001838445663452,1.366902232170105,1.8181881109873457
5.4,1.6888759357469604e+18,20.403960286458332,-4.898624579111735,-7.024933497111003,3.968006531397501,1.6888759357469604e+18,20.403960286458332,-3.263211945692698,-16.58126417795817,5.639284670352936,1.6888759357469604e+18,20.403960286458332,1.6126112937927246,-9.5405855178833,1.6065645615259807,1.688875935742639e+18,20.399638997395833,0.6503678783774376,-1.5720108350118,2.2412136793136597,1.6888759357469604e+18,20.403960286458332,0.8601491500933965,-2.1038708488146463,2.1104376316070557,,,,,,,,,,,,1.688875935741115e+18,20.398114990234372,10.638399696350096,47.96307907104492,-14.10807991027832,1.688875935741115e+18,20.398114990234372,-244.98819274902343,142.81807556152344,-147.2344757080078,1.6888759357383124e+18,20.395312500000003,-0.1328232213854789,0.0033691171556711,-0.6514626344045004,0.7466943661371866,-0.8460736274719238,1.3416815598805745,1.0402608911196392
5.45,1.6888759357988603e+18,20.455860595703125,-3.4608116149902344,5.323592980702718,-3.3957457145055137,1.6888759357988603e+18,20.455860595703125,-0.8065807024637858,-4.0863427718480425,-2.4039891958236694,1.6888759357988603e+18,20.455860595703125,2.6314295132954917,-9.394190470377604,0.9270430207252502,1.6888759357945395e+18,20.451539388020834,1.7004961371421814,-1.1351912568012874,2.96050755182902,1.6888759357988603e+18,20.455860595703125,1.495245446761449,-0.9068803576131662,3.0505082607269287,,,,,,,,,,,,1.688875935791121e+18,20.4481208984375,6.836880016326904,49.854078674316405,-8.564399814605713,1.688875935791121e+18,20.4481208984375,-248.78971252441409,144.70907897949218,-141.6907989501953,1.688875935790214e+18,20.44721411132813,-0.0616830897827942,-0.019378771384557,-0.614037295182546,0.7862056295077006,-0.4250086744626363,1.297646204630534,0.4853937725226084
5.5,1.6888759358421156e+18,20.499115600585935,-9.129943370819092,12.62137746810913,0.94308403134346,1.6888759358421156e+18,20.499115600585935,-5.507679462432861,3.554538130760193,2.153241217136383,1.6888759358421156e+18,20.499115600585935,3.5994627475738525,-9.05109453201294,1.145443707704544,1.6888759358464433e+18,20.503443196614583,-0.4964807232220967,-2.9901854197184243,2.1718295415242515,1.6888759358421156e+18,20.499115600585935,-0.5190064013004303,-3.0676889419555664,2.235003113746643,,,,,,,,,,,,1.68887593584112e+18,20.49812001953125,0.0317199975252151,50.62267913818359,-6.993039894104004,1.68887593584112e+18,20.49812001953125,-255.5948699951172,145.47767944335936,-140.11943664550782,1.6888759358421094e+18,20.499109537760415,-0.0266431464503208,-0.0536720758924881,-0.5600676337877909,0.8258251746495565,-0.3112963636716206,1.175445834795634,0.2721586823463439
5.55,1.6888759358853673e+18,20.542367350260417,-7.85373592376709,13.421781539916992,0.1013673146565755,1.6888759358853673e+18,20.542367350260417,-3.849852124849955,4.650051911671956,2.0791634718577066,1.6888759358853673e+18,20.542367350260417,3.9810824394226074,-8.755984624226889,1.913082679112752,1.6888759358983434e+18,20.555343424479165,-0.2255619919548432,-2.849839131037394,0.7839946386714777,1.6888759358853673e+18,20.542367350260417,-0.3986913760503133,-3.0314696629842124,1.243467112382253,,,,,,,,,,,,1.6888759358911214e+18,20.5481212890625,-3.528239917755127,50.19567947387695,-8.203279972076416,1.6888759358911214e+18,20.5481212890625,-259.154833984375,145.05067443847656,-141.32967529296874,1.6888759358940152e+18,20.551015299479168,0.0089924756903201,-0.1304084211587905,-0.5277597308158875,0.8389934500058492,-0.4731263220310211,1.0937225421269734,0.2697786887486775
5.6,1.6888759359372687e+18,20.59426871744792,-2.269006093343099,9.15770943959554,0.1264929771423339,1.6888759359372687e+18,20.59426871744792,1.423729459444682,0.3740779260794322,2.605983257293701,1.6888759359372687e+18,20.59426871744792,3.669934113820394,-8.767886479695639,2.4147768020629883,1.6888759359502446e+18,20.607244628906248,1.0604111750920613,-1.8416569232940672,-1.5875878930091858,1.6888759359372687e+18,20.59426871744792,0.775238906343778,-2.1390973726908364,-1.052266289790471,,,,,,,,,,,,1.688875935941119e+18,20.5981189453125,-1.6811599612236023,50.281079864501955,-8.432639980316162,1.688875935941119e+18,20.5981189453125,-257.30775756835936,145.13607482910157,-141.5590362548828,1.6888759359459154e+18,20.602915445963543,0.0460838302969932,-0.1799696534872054,-0.5363118052482605,0.823106606801351,-0.6022732853889465,1.1192830006281536,0.2727941572666167
5.65,1.6888759359891674e+18,20.64616756184896,10.597034374872845,-3.749110380808512,-0.1017378568649292,1.6888759359891674e+18,20.64616756184896,13.429717222849527,-12.884950796763102,2.229711890220642,1.6888759359891674e+18,20.64616756184896,2.8098812103271484,-9.120095252990724,2.2667362689971924,1.688875935993498e+18,20.65049816894531,0.2303725555539131,-0.7700719833374023,-0.8619308471679688,1.6888759359891674e+18,20.64616756184896,0.4171191553274789,-0.8351545929908752,-0.7741189400355021,1.6888759359805097e+18,20.637509765625,0.0,0.0,1.2985886335372925,13.8100004196167,0.4755738377571106,358.3296813964844,31.95093639702535,-122.7500661,49.1922044,1.688875935991122e+18,20.64812197265625,3.650239896774292,50.49823989868164,-6.551399898529053,1.688875935991122e+18,20.64812197265625,-251.97635498046876,145.35323791503907,-139.67779846191405,1.6888759359978138e+18,20.654813802083336,0.0730191866556803,-0.1984862238168715,-0.5637428760528564,0.7983237504959106,-0.6888722777366638,1.1922138532002766,0.2953469057877858
5.7,1.6888759360410716e+18,20.69807169596354,8.379353523254395,-6.540996710459392,4.983773310979207,1.6888759360410716e+18,20.69807169596354,11.53300635019938,-15.40479326248169,7.894918918609619,1.6888759360410716e+18,20.69807169596354,3.1308513482411704,-8.848051071166992,2.8464322090148926,1.688875936036748e+18,20.693747802734375,-0.2185370326042175,-4.012824773788452,2.003128965695699,1.6888759360410716e+18,20.69807169596354,-0.0867937902609507,-4.1178427537282305,1.7839301427205403,,,,,,,,,,,,1.6888759360411187e+18,20.698118701171875,1.8129199385643004,50.461638641357425,-7.156519985198974,1.6888759360411187e+18,20.698118701171875,-253.8136779785156,145.31664123535157,-140.2829162597656,1.6888759360497183e+18,20.706718587239585,0.1216178586085637,-0.2658864607413609,-0.5186091661453247,0.8029674887657166,-0.7548762957255045,1.1159160534540815,0.1843824138243992
5.75,1.6888759360929738e+18,20.74997371419271,-7.062419255574544,-9.08058261871338,11.285032272338867,1.6888759360929738e+18,20.74997371419271,-3.668795267740886,-17.683956464131672,14.666008631388346,1.6888759360929738e+18,20.74997371419271,3.3708224296569824,-8.587628682454428,3.31626296043396,1.6888759360886456e+18,20.7456455078125,-1.0172942380110424,0.7503970265388489,1.2454015413920083,1.6888759360929738e+18,20.74997371419271,-1.20233549674352,1.036689281463623,1.2091568559408188,,,,,,,,,,,,1.688875936091121e+18,20.74812099609375,-0.1683599650859832,50.70563888549805,-7.742119979858399,1.688875936091121e+18,20.74812099609375,-255.79496154785156,145.56063537597657,-140.86851806640624,1.6888759360929723e+18,20.749972412109372,0.131978802382946,-0.2938688546419143,-0.4954595863819122,0.8064679503440857,-0.7967000007629395,1.0696284770965576,0.1645471304655074
5.8,1.6888759361448753e+18,20.801875081380206,-7.6152628262837725,0.0735931396484375,-7.545452117919922,1.6888759361448753e+18,20.801875081380206,-4.2979081471761065,-8.567501386006674,-4.185046871503194,1.6888759361448753e+18,20.801875081380206,3.2945536772410073,-8.625349362691244,3.29569149017334,1.688875936140553e+18,20.797552815755207,0.2052507201830546,0.9206248335540296,-2.044006029764811,1.6888759361448753e+18,20.801875081380206,0.3801618119080861,1.0101166168848674,-2.3906211455663047,,,,,,,,,,,,1.688875936141123e+18,20.7981232421875,-1.7860799610614777,50.095639038085935,-8.862080001831055,1.688875936141123e+18,20.7981232421875,-257.4126770019531,144.9506378173828,-141.9884796142578,1.6888759361362225e+18,20.793222330729165,0.1023742631077766,-0.2729916671911875,-0.4991446733474731,0.815803070863088,-0.7739705046017965,1.0561114152272542,0.2177965889374414
5.85,1.6888759361967767e+18,20.853776692708333,-7.237665335337321,-1.468239466349284,-1.6245263814926147,1.6888759361967767e+18,20.853776692708333,-5.572086334228516,-10.804591178894045,0.934596667687098,1.6888759361967767e+18,20.853776692708333,1.6427776018778484,-9.320606549580893,2.4944095611572266,1.6888759361924534e+18,20.849453125,0.8777115444342295,3.509726365407308,-5.190725644429524,1.6888759361967767e+18,20.853776692708333,0.7583892022569975,3.7069339752197266,-5.300325075785319,,,,,,,,,,,,1.6888759361911142e+18,20.848114208984377,8.169119834899902,49.67595901489258,-7.471280002593995,1.6888759361911142e+18,20.848114208984377,-247.4574737548828,144.53095703125,-140.5976776123047,1.688875936188129e+18,20.84512890625,0.0638734412690003,-0.2203887949387232,-0.5898228089014689,0.7728566328684489,-0.9359746177991232,1.225299835205078,0.5243744651476542
5.9,1.6888759362486822e+18,20.90568212890625,-2.103834350903829,-3.5563414891560874,0.3147928714752197,1.6888759362486822e+18,20.90568212890625,-1.8827525575955708,-13.038889567057293,2.9347970287005105,1.6888759362486822e+18,20.90568212890625,0.1982803529438873,-9.466802914937338,2.555290699005127,1.688875936244354e+18,20.90135408528646,-1.0632618467013042,4.9360965092976885,-3.0557514826456704,1.6888759362486822e+18,20.90568212890625,-1.0604620575904846,4.532569169998169,-2.7998499075571694,,,,,,,,,,,,1.6888759362411213e+18,20.898121289062495,17.463079833984374,46.61864013671875,-11.321599864959715,1.6888759362411213e+18,20.898121289062495,-238.16351623535155,141.4736358642578,-144.4480010986328,1.688875936240028e+18,20.89702791341146,-0.0423674457706511,-0.1358839496970176,-0.6808982292811075,0.7169729471206665,-1.4321776628494265,1.3109331528345745,1.298641324043274
5.95,1.68887593630058e+18,20.95758015950521,0.4145765602588653,1.2679888407389324,-4.523456891377767,1.68887593630058e+18,20.95758015950521,-0.4478566348552704,-8.169096310933432,-1.9026927550633748,1.68887593630058e+18,20.95758015950521,-0.8852347036202749,-9.421339988708496,2.556050697962443,1.6888759362962552e+18,20.953255126953124,0.5162320360541344,-0.0320704331000646,-2.720437526702881,1.68887593630058e+18,20.95758015950521,0.5961535573005676,0.0167987821623682,-2.7693066596984863,,,,,,,,,,,,1.6888759362911186e+18,20.94811884765625,22.472399139404295,44.33479995727539,-13.76891975402832,1.6888759362911186e+18,20.94811884765625,-233.15419921875,139.189794921875,-146.8953125,1.68887593629193e+18,20.94893001302083,-0.0890313759446143,-0.1021930178006489,-0.7228426337242126,0.6772779822349548,-1.81432843208313,1.288873593012492,1.795528491338094
6.0,1.6888759363438316e+18,21.000831420898436,4.173100471496582,5.217291831970215,-1.490746021270752,1.6888759363438316e+18,21.000831420898436,2.217847466468811,-4.105186462402344,0.954138085246086,1.6888759363438316e+18,21.000831420898436,-1.9780545234680176,-9.306733131408691,2.3801705837249756,1.68887593634815e+18,21.005150146484375,0.1810706400622924,1.2092077732086182,-2.952413479487101,1.6888759363438316e+18,21.000831420898436,0.1990657113492488,1.2220359444618225,-2.978120803833008,,,,,,,,,,,,1.688875936341126e+18,20.998126025390626,28.79687919616699,41.336038970947264,-13.737199783325195,1.688875936341126e+18,20.998126025390626,-226.8297149658203,136.1910400390625,-146.86359558105468,1.6888759363438305e+18,21.000830240885417,-0.0990166986982027,-0.0733523642023404,-0.7711310585339864,0.624242345492045,-2.25144894917806,1.247783064842224,2.2882765928904214
6.05,1.688875936387079e+18,21.04407902018229,6.718780597050984,4.359781424204509,-0.8288813432057699,1.688875936387079e+18,21.04407902018229,4.022933125495911,-4.7070809205373125,1.8596219991644225,1.688875936387079e+18,21.04407902018229,-2.7186487515767417,-9.051117261250814,2.6237898667653403,1.6888759364000594e+18,21.057059488932293,-0.7060075104236603,1.2236648797988892,-1.2720250686009724,1.688875936387079e+18,21.04407902018229,-0.4888449261585871,1.345023473103841,-1.7729854782422385,,,,,,,,,,,,1.6888759363911176e+18,21.04811752929688,33.01319961547851,37.7833984375,-15.869759559631348,1.6888759363911176e+18,21.04811752929688,-222.61339416503907,132.63839721679688,-148.99615783691405,1.6888759363957286e+18,21.05272859700521,-0.1350904827316601,-0.0517592690885066,-0.7995060284932455,0.5828400651613871,-2.3698723316192627,1.163346767425537,2.4903244972229004
6.1,1.688875936438984e+18,21.095984212239586,2.9668713410695395,0.3621444702148437,-4.911465167999268,1.688875936438984e+18,21.095984212239586,-0.0578265475730101,-8.445666948954264,-1.745364745457967,1.688875936438984e+18,21.095984212239586,-3.047499418258667,-8.79206625620524,3.1013870239257812,1.6888759364433103e+18,21.10031042480469,-0.7873289287090302,0.5894849747419357,-1.1620184183120728,1.688875936438984e+18,21.095984212239586,-0.7973827521006266,0.6350962221622467,-1.070388654867808,,,,,,,,,,,,1.6888759364411192e+18,21.09811923828125,34.181959533691405,35.199440002441406,-18.68307991027832,1.6888759364411192e+18,21.09811923828125,-221.4446350097656,130.05443725585937,-151.80947570800782,1.6888759364476342e+18,21.104634114583337,-0.1642166525125503,-0.0506852728625138,-0.8098755280176798,0.5607866048812866,-2.3468477725982666,1.10121750831604,2.512144088745117
6.15,1.688875936490886e+18,21.147885904947916,2.7313289642333984,-2.54439385732015,-6.256426493326823,1.688875936490886e+18,21.147885904947916,-0.5766702890396117,-11.167502721150717,-2.8670003414154053,1.688875936490886e+18,21.147885904947916,-3.330800771713257,-8.6073637008667,3.3247127532958984,1.6888759364865618e+18,21.143561686197916,-0.3332269887129465,0.1271108761429785,-0.4791728972146908,1.688875936490886e+18,21.147885904947916,-0.2756020277738571,0.1036434682706991,-0.3745113064845403,1.6888759364995354e+18,21.156535400390624,0.0,0.0,1.2743468284606934,13.70199966430664,0.6822449564933777,358.2424621582031,31.92222718053153,-122.7500631,49.1922167,1.6888759364911168e+18,21.14811674804687,35.34095993041992,33.30355987548828,-20.181239700317384,1.6888759364911168e+18,21.14811674804687,-220.28563537597657,128.15855865478517,-153.3076385498047,1.688875936499536e+18,21.15653621419271,-0.1733980576197305,-0.0517237496872742,-0.8168874581654867,0.5476777752240499,-2.3562132517496743,1.069262425104777,2.5340773264567056
6.2,1.6888759365427817e+18,21.199781819661457,6.952688376108806,-5.689871788024902,-3.410706122716268,1.6888759365427817e+18,21.199781819661457,4.171088616053264,-14.505888938903809,-0.0699900488058726,1.6888759365427817e+18,21.199781819661457,-2.804401159286499,-8.800271987915039,3.2760026454925537,1.6888759365384568e+18,21.19545654296875,0.5729406972726186,1.5268067573197186,1.6750943064689636,1.6888759365427817e+18,21.199781819661457,0.6999497711658478,1.832137574752172,1.8981110254923503,,,,,,,,,,,,1.68887593654112e+18,21.1981201171875,34.711438751220705,34.06483917236328,-20.593599319458008,1.68887593654112e+18,21.1981201171875,-220.91515502929687,128.9198425292969,-153.71999816894532,1.688875936542786e+18,21.1997861328125,-0.1804010346531867,-0.0406118296086787,-0.8024811744689941,0.5670750737190247,-2.2843891382217407,1.1097077131271362,2.4877800941467285
6.25,1.688875936594688e+18,21.25168790690104,-8.925976912180582,-10.239233016967772,3.312432368596395,1.688875936594688e+18,21.25168790690104,-10.091131210327148,-19.586050669352215,6.121638139088948,1.688875936594688e+18,21.25168790690104,-1.1879559357961018,-9.331072489420572,2.7444923718770347,1.688875936590365e+18,21.247365152994792,1.9676987330118816,0.8799004753430685,2.88644011815389,1.688875936594688e+18,21.25168790690104,1.9953913291295369,0.3965024948120117,2.9096020062764487,,,,,,,,,,,,1.688875936591121e+18,21.248120996093753,26.43495903015137,38.95459823608398,-21.323159790039064,1.688875936591121e+18,21.248120996093753,-229.1916351318359,133.80959777832032,-154.44955749511718,1.6888759365860393e+18,21.24303955078125,-0.1979277630647023,0.0025541499877969,-0.7566193143526713,0.6226620674133301,-2.0182179609934487,1.2332109610239663,2.3068695863087973
6.3,1.6888759366465915e+18,21.303591959635416,0.8229373296101886,-11.57843335469564,9.839311599731444,1.6888759366465915e+18,21.303591959635416,1.1597213347752888,-21.20419692993164,11.778470039367676,1.6888759366465915e+18,21.303591959635416,0.3139826357364654,-9.610018412272137,1.874444882074992,1.6888759366422682e+18,21.299268310546875,1.2781337077418964,-2.1108956933021545,3.842240571975708,1.6888759366465915e+18,21.303591959635416,1.0782790084679923,-1.8081101675828295,3.873547395070394,,,,,,,,,,,,1.6888759366411187e+18,21.298118847656248,20.613119888305665,44.59587860107422,-16.32115936279297,1.6888759366411187e+18,21.298118847656248,-235.0134765625,139.45087585449218,-149.4475555419922,1.6888759366379407e+18,21.294940755208337,-0.1402512292067209,-0.0010830569081008,-0.7060521443684896,0.6932872335116068,-1.5394519567489624,1.3630218903223674,1.7377476294835408
6.35,1.688875936698485e+18,21.355485026041663,-4.85343595345815,-5.618343035380046,5.703498323758443,1.688875936698485e+18,21.355485026041663,-2.9056842724482217,-15.094124794006348,7.486743251482646,1.688875936698485e+18,21.355485026041663,1.9249500433603923,-9.460036595662435,1.718531370162964,1.6888759366941665e+18,21.35116634114583,0.3953316075106461,-0.4987714706609646,2.8075876235961914,1.688875936698485e+18,21.355485026041663,0.5001968244711558,-0.9342674811681112,2.671975533167521,,,,,,,,,,,,1.688875936691115e+18,21.348114990234375,11.389919853210449,48.24611968994141,-14.237399673461914,1.688875936691115e+18,21.348114990234375,-244.23667602539064,143.1011199951172,-147.36379699707032,1.688875936689839e+18,21.346839192708337,-0.1227392231424648,-0.0131999216973781,-0.6415180762608846,0.7568442026774088,-0.8001248041788737,1.3160265684127808,0.9564630190531412
6.4,1.688875936750392e+18,21.407391927083335,-3.526587168375651,1.496994177500407,-4.106366157531738,1.688875936750392e+18,21.407391927083335,-0.5096712112426758,-7.759923915068309,-2.7487550179163613,1.688875936750392e+18,21.407391927083335,2.994114637374878,-9.241172790527346,1.292897621790568,1.6888759367460713e+18,21.40307120768229,1.6740761597951253,-1.6449583172798157,2.8859819571177163,1.688875936750392e+18,21.407391927083335,1.6546303431193037,-1.4278974731763203,2.9733356634775796,,,,,,,,,,,,1.6888759367411151e+18,21.39811518554688,6.407439804077148,49.65643997192383,-10.750639915466309,1.6888759367411151e+18,21.39811518554688,-249.21915588378903,144.51143493652344,-143.87703552246094,1.6888759367417403e+18,21.398740722656253,-0.0670797452330589,-0.039409273614486,-0.5970619122187296,0.7979668577512106,-0.4767493903636932,1.2450677156448364,0.5163718859354655
6.45,1.68887593679364e+18,21.450640136718743,-7.148453235626221,11.095380783081056,1.585456371307373,1.68887593679364e+18,21.450640136718743,-3.1983065605163574,2.1747767329216003,2.870788991451263,1.68887593679364e+18,21.450640136718743,3.9273452758789062,-8.904859066009521,1.2206191420555117,1.6888759367979676e+18,21.4549677734375,-0.1234456797440846,-1.81706964969635,1.816407819588979,1.68887593679364e+18,21.450640136718743,-0.1286634877324104,-1.766240477561951,2.006921410560608,,,,,,,,,,,,1.688875936791119e+18,21.448119091796876,-0.978439962863922,50.66903839111328,-7.532279777526855,1.688875936791119e+18,21.448119091796876,-256.60503540039065,145.52403564453124,-140.65867614746094,1.6888759367936415e+18,21.450641682942702,-0.0268143136054277,-0.0582324601709842,-0.5454439918200175,0.8354939421017965,-0.3075781464576721,1.1399554411570232,0.2620113790035248
6.5,1.6888759368368947e+18,21.493894694010415,-7.144213358561198,13.344326655069986,2.0714633464813232,1.6888759368368947e+18,21.493894694010415,-3.0440690914789834,4.582055886586507,3.8913278579711914,1.6888759368368947e+18,21.493894694010415,4.077342828114827,-8.746525446573893,1.7551509936650591,1.6888759368498737e+18,21.50687337239583,-0.0242309918006261,-2.172745863596598,-0.1505782753229141,1.6888759368368947e+18,21.493894694010415,-0.1702786888927221,-2.1662299633026123,0.2740748822689056,,,,,,,,,,,,1.688875936841121e+18,21.498120947265623,-2.4082799911499024,50.58851852416992,-8.349679756164551,1.688875936841121e+18,21.498120947265623,-258.0348754882813,145.44351196289062,-141.47608032226563,1.6888759368455406e+18,21.50254069010417,-0.0034360907350977,-0.110504999756813,-0.5306167205174764,0.8402210672696432,-0.430619349082311,1.099785049756368,0.2747291127840678
6.55,1.6888759368887995e+18,21.54579964192708,-3.6242554982503257,10.163260459899902,-1.021836797396342,1.6888759368887995e+18,21.54579964192708,-0.0931206793369104,1.2518450319766998,1.210967627664407,1.6888759368887995e+18,21.54579964192708,3.508333206176758,-8.895669937133789,2.1680909792582193,1.688875936893125e+18,21.550125,0.4481460005044937,-2.1012237071990967,-1.7444020509719849,1.6888759368887995e+18,21.54579964192708,0.402458389600118,-2.117666165033976,-1.5519031087557476,,,,,,,,,,,,1.6888759368911176e+18,21.54811748046875,0.6417199790477752,50.598280334472655,-8.295999813079835,1.6888759368911176e+18,21.54811748046875,-254.98486938476563,145.45327758789062,-141.42239685058593,1.6888759368974482e+18,21.55444832356771,0.0258041732013225,-0.1552768697341283,-0.5533551573753357,0.817652146021525,-0.5894450346628824,1.1511332591374714,0.326893150806427
6.6,1.6888759369406996e+18,21.597699788411457,8.936774571736654,-5.961668173472087,1.27609916528066,1.6888759369406996e+18,21.597699788411457,11.570294539133709,-15.136597156524658,3.6791642208894095,1.6888759369406996e+18,21.597699788411457,2.610718329747518,-9.159183502197266,2.3383514881134033,1.6888759369363756e+18,21.593375732421876,-0.1235475006202856,-0.7410304148991903,-0.4878776868184407,1.6888759369406996e+18,21.597699788411457,-0.2775364418824513,-0.6323982874552408,0.1781181494394938,,,,,,,,,,,,1.688875936941118e+18,21.598118017578123,6.3708398818969725,50.33231887817383,-7.67623987197876,1.688875936941118e+18,21.598118017578123,-249.25575561523436,145.18731994628905,-140.80263977050782,1.6888759369493496e+18,21.606349609375,0.0453278285761673,-0.1872712423404057,-0.5723509391148885,0.7967685659726461,-0.7367120782534281,1.192527453104655,0.4001216391722361
