seconds_elapsed_rounded,accelerometer_time,accelerometer_seconds_elapsed,accelerometer_z,accelerometer_y,accelerometer_x,accelerometeruncalibrated_time,accelerometeruncalibrated_seconds_elapsed,accelerometeruncalibrated_z,accelerometeruncalibrated_y,accelerometeruncalibrated_x,gravity_time,gravity_seconds_elapsed,gravity_z,gravity_y,gravity_x,gyroscope_time,gyroscope_seconds_elapsed,gyroscope_z,gyroscope_y,gyroscope_x,gyroscopeuncalibrated_time,gyroscopeuncalibrated_seconds_elapsed,gyroscopeuncalibrated_z,gyroscopeuncalibrated_y,gyroscopeuncalibrated_x,location_time,location_seconds_elapsed,location_bearingAccuracy,location_speedAccuracy,location_verticalAccuracy,location_horizontalAccuracy,location_speed,location_bearing,location_altitude,location_longitude,location_latitude,magnetometer_time,magnetometer_seconds_elapsed,magnetometer_z,magnetometer_y,magnetometer_x,magnetometeruncalibrated_time,magnetometeruncalibrated_seconds_elapsed,magnetometeruncalibrated_z,magnetometeruncalibrated_y,magnetometeruncalibrated_x,orientation_time,orientation_seconds_elapsed,orientation_qz,orientation_qy,orientation_qx,orientation_qw,orientation_roll,orientation_pitch,orientation_yaw
0.0,1.6887021373586452e+18,195.0066454264323,-0.5599379142125448,7.321491718292236,-2.0467658042907715,1.6887021373499958e+18,194.9979957682292,-2.240080714225769,-1.6857435703277588,2.0217357079188027,1.6887021373586452e+18,195.0066454264323,-1.6205851236979167,-8.875473658243815,3.843899806340536,1.6887021373586452e+18,195.0066454264323,0.3684026499589284,0.3132720788319905,-1.3004812200864155,1.6887021373586452e+18,195.0066454264323,0.3672827233870824,0.3180062969525655,-1.2983431617418926,,,,,,,,,,,,1.6887021373471818e+18,194.99518173828125,-27.469519424438477,41.521478271484376,-12.331759834289551,1.6887021373471818e+18,194.99518173828125,-282.01031494140625,136.986474609375,-145.5435577392578,1.6887021373586452e+18,195.0066454264323,0.6147778232892355,-0.7594132820765177,0.0720002427697181,0.1999885340531666,-1.966119925181071,1.1309105157852173,-0.9897361397743224
0.05,1.6887021374019e+18,195.0499000244141,0.8896000981330872,1.7441618442535398,0.2259497642517089,1.688702137401895e+18,195.04989501953125,-1.476570963859558,-6.976274410883586,4.265405813852946,1.6887021374019e+18,195.0499000244141,-2.1702224016189575,-8.723270416259766,3.926020860671997,1.6887021374019e+18,195.0499000244141,-1.1662944853305817,-0.3221550453454256,-0.6424775272607803,1.6887021374019e+18,195.0499000244141,-1.1674398183822632,-0.3174972161650657,-0.6403394937515259,,,,,,,,,,,,1.6887021373971825e+18,195.045182421875,-24.319479751586915,42.91959915161133,-12.69287986755371,1.6887021373971825e+18,195.045182421875,-278.8602783203125,138.3845977783203,-145.90467834472656,1.6887021374019e+18,195.0499000244141,0.5928930938243866,-0.7767947912216187,0.0808994509279727,0.1961559578776359,-2.0729809999465942,1.0960593819618225,-0.9007146656513214
0.1,1.688702137445156e+18,195.09315600585936,-0.591453750928243,-2.415609041849772,1.1859232584635415,1.6887021374538043e+18,195.1018045247396,-2.3665016094843545,-10.003992875417074,5.153741041819255,1.688702137445156e+18,195.09315600585936,-1.9414124886194863,-8.44126828511556,4.5998466809590655,1.688702137445156e+18,195.09315600585936,-1.4484633008639018,0.3379102895657221,0.9768244127432504,1.688702137445156e+18,195.09315600585936,-1.4495323101679485,0.3425426781177521,0.9789624710877736,,,,,,,,,,,,1.6887021374471864e+18,195.0951865722656,-24.89287910461426,41.59955978393555,-15.908799743652343,1.6887021374471864e+18,195.0951865722656,-279.4336730957031,137.06455688476564,-149.12059936523437,1.688702137445156e+18,195.09315600585936,0.5931251049041748,-0.7659582297007242,0.1073990563551584,0.2232047567764917,-1.9682735999425252,1.0363987684249878,-1.0033140579859416
0.15,1.688702137497055e+18,195.14505493164063,0.6140920718510946,3.5444103876749673,-2.9064868291219077,1.6887021375057098e+18,195.15370979817703,-0.7790631850560507,-4.851049264272054,2.0913269917170205,1.688702137497055e+18,195.14505493164063,-1.4594200452168782,-8.365193049112955,4.910998821258545,1.688702137497055e+18,195.14505493164063,-0.731816569964091,-0.8701266249020895,1.274264891942342,1.688702137497055e+18,195.14505493164063,-0.7329364816347758,-0.8654942313830057,1.2764029105504353,,,,,,,,,,,,1.6887021374971817e+18,195.1451817382812,-27.74767951965332,39.36695938110351,-17.916919708251953,1.6887021374971817e+18,195.1451817382812,-282.2884765625,134.8319580078125,-151.12871398925782,1.688702137497055e+18,195.14505493164063,0.6133833726247152,-0.7449171741803488,0.1368896613518396,0.2235313405593235,-1.857287605603536,1.021087924639384,-1.15691872437795
0.2,1.688702137548964e+18,195.19696411132813,1.377466877301534,-0.012088934580485,-2.362408002217611,1.6887021375576113e+18,195.20561100260417,-0.1174477140108744,-8.901300271352133,2.8167510827382407,1.688702137548964e+18,195.19696411132813,-1.7139212290445964,-8.172403971354166,5.14159631729126,1.688702137548964e+18,195.19696411132813,-0.8119926253954569,-2.0196731885274253,-0.6298020382722219,1.688702137548964e+18,195.19696411132813,-0.8131634394327799,-2.0149389505386353,-0.6276640196641287,,,,,,,,,,,,1.6887021375471788e+18,195.19517880859377,-27.79647941589355,37.695560455322266,-21.215799713134764,1.6887021375471788e+18,195.19517880859377,-282.33726806640624,133.16055603027343,-154.42759704589844,1.688702137548964e+18,195.19696411132813,0.6089683771133423,-0.7445157170295715,0.1796683271725972,0.2055918524662653,-1.8893141746520996,0.9845887025197348,-1.2140357494354248
0.25,1.6887021376008645e+18,195.24886425781247,2.8468357721964517,-3.263508160909017,-2.713082949320475,1.68870213760952e+18,195.25751953125,-0.5663013557593027,-11.351151784261068,2.526222546895345,1.6887021376008645e+18,195.24886425781247,-3.2696310679117837,-7.718393961588542,5.061563173929851,1.6887021376008645e+18,195.24886425781247,-0.6214026808738708,-2.7631471157073975,-3.132975180943807,1.6887021376008645e+18,195.24886425781247,-0.6225226024786631,-2.7584637800852456,-3.1308370431264243,,,,,,,,,,,,1.688702137597184e+18,195.2451839355469,-20.58139991760254,38.76427993774414,-25.685879516601563,1.688702137597184e+18,195.2451839355469,-275.1221984863281,134.22927856445312,-158.89767456054688,1.6887021376008645e+18,195.24886425781247,0.5492862661679586,-0.7866993546485901,0.2165077924728393,0.1776662717262903,-2.1388937632242837,0.9062201182047526,-1.060986340045929
0.3,1.6887021376527736e+18,195.30077351888025,21.984109083811443,-7.422772884368896,0.9042526880900064,1.6887021376527734e+18,195.30077319335936,10.857732139527798,-15.029019832611084,5.588138103485107,1.6887021376527736e+18,195.30077351888025,-5.545282204945882,-6.608582814534505,4.595375696818034,1.6887021376527736e+18,195.30077351888025,-0.4191044569015503,-2.080657958984375,-5.097874085108439,1.6887021376527736e+18,195.30077351888025,-0.4201734860738118,-2.0760255654652915,-5.095685243606567,,,,,,,,,,,,1.688702137647183e+18,195.2951831054687,-6.209799909591675,40.15507888793945,-29.52887954711914,1.688702137647183e+18,195.2951831054687,-260.75059814453124,135.62007751464844,-162.7406768798828,1.6887021376527736e+18,195.30077351888025,0.4421682059764862,-0.8466536601384481,0.2548693021138509,0.1443043599526086,-2.4435224533081055,0.7411687175432841,-0.8694196542104086
0.35,1.688702137704675e+18,195.3526749674479,-0.9601012865702312,-7.916289329528809,-0.3633138338724772,1.6887021376960207e+18,195.34402091471352,3.2458639144897456,-13.936995188395182,7.288139184315999,1.688702137704675e+18,195.3526749674479,-4.91533883412679,-5.723440647125244,6.206511338551839,1.688702137704675e+18,195.3526749674479,0.8888598481814066,8.8294464747111,-1.111876520017783,1.688702137704675e+18,195.3526749674479,0.8876889844735464,8.834129651387533,-1.109687626361847,,,,,,,,,,,,1.688702137697184e+18,195.34518398437496,-3.7136799454689022,40.70651931762696,-29.123839569091796,1.688702137697184e+18,195.34518398437496,-258.2544799804688,136.17151489257813,-162.33563537597655,1.688702137704675e+18,195.3526749674479,0.4023065070311228,-0.847838560740153,0.1730026851097742,0.2926008949677149,-2.2385121981302896,0.623376707235972,-0.7126752138137817
0.4,1.6887021377565798e+18,195.40457975260415,-2.922792911529541,-5.339154243469238,-6.796428362528483,1.6887021377479355e+18,195.3959357096354,-8.094719727834066,-11.062816619873049,-0.0759721165522932,1.6887021377565798e+18,195.40457975260415,-3.972188711166382,-5.99489180246989,6.6699323654174805,1.6887021377565798e+18,195.40457975260415,-0.2846631978948911,-1.8120299180348711,1.5987361868222554,1.6887021377565798e+18,195.40457975260415,-0.2858340255916118,-1.807295779387156,1.6008741756280265,,,,,,,,,,,,1.6887021377471762e+18,195.395176171875,-11.3947998046875,41.24087905883789,-26.62527961730957,1.6887021377471762e+18,195.395176171875,-265.935595703125,136.70587768554688,-159.8370788574219,1.6887021377565798e+18,195.40457975260415,0.4292393525441487,-0.8250932494799296,0.1446319023768107,0.336857130130132,-2.106659491856893,0.6578630407651266,-0.7306589285532633
0.45,1.6887021378084877e+18,195.45648763020836,12.845127701759338,-8.655334949493408,-4.994436899820964,1.6887021377998318e+18,195.4478317871094,9.178269545237224,-14.74576981862386,0.5044867793718973,1.6887021378084877e+18,195.45648763020836,-4.004708131154378,-6.523378849029541,6.11659558614095,1.6887021378084877e+18,195.45648763020836,1.1412998934586842,0.1186605294545491,2.1822651624679565,1.6887021378084877e+18,195.45648763020836,1.140179951985677,0.1233948469161987,2.184504985809326,,,,,,,,,,,,1.6887021377971822e+18,195.4451822753906,-11.397239875793456,40.12091903686523,-28.428439712524415,1.6887021377971822e+18,195.4451822753906,-265.938037109375,135.5859161376953,-161.6402374267578,1.6887021378084877e+18,195.45648763020836,0.4683903157711029,-0.818450927734375,0.1829961091279982,0.2768042584260304,-2.1475400924682617,0.7283215721448263,-0.8487029870351156
0.5,1.688702137851743e+18,195.4997430419922,-1.258508324623108,-4.823514223098755,-2.0076375007629395,1.6887021378517404e+18,195.4997403971354,-3.744368632634481,-12.893525123596191,3.6572299798329673,1.688702137851743e+18,195.4997430419922,-2.625504970550537,-7.716514348983765,5.442359447479248,1.688702137851743e+18,195.4997430419922,3.917555093765259,1.3276391923427582,2.8656452894210815,1.688702137851743e+18,195.4997430419922,3.916409730911255,1.3322970867156982,2.8678596019744873,,,,,,,,,,,,1.6887021378471852e+18,195.49518530273437,-18.458599853515626,41.172559356689455,-22.67979965209961,1.6887021378471852e+18,195.49518530273437,-272.9993896484375,136.63755798339844,-155.8915985107422,1.688702137851743e+18,195.4997430419922,0.5420449376106262,-0.7863606512546539,0.1214190684258937,0.2694739550352096,-2.0175468921661377,0.9065382778644562,-0.9020912349224092
0.55,1.6887021378949942e+18,195.54299430338543,-0.1830850839614868,-6.135904947916667,3.0261425971984863,1.6887021379036467e+18,195.55164689127605,-1.1351949373881025,-15.37408479054769,8.907282511393229,1.6887021378949942e+18,195.54299430338543,-1.8969393571217856,-8.540715217590332,4.426028728485107,1.6887021378949942e+18,195.54299430338543,2.033010443051656,-1.3146838148434956,1.930537740389506,1.6887021378949942e+18,195.54299430338543,2.03178870677948,-1.3100005388259888,1.932726780573527,,,,,,,,,,,,1.688702137897182e+18,195.54518198242187,-24.099879837036134,41.69715881347656,-16.594439697265624,1.688702137897182e+18,195.54518198242187,-278.640673828125,137.1621551513672,-149.80623779296874,1.6887021378949942e+18,195.54299430338543,0.595935602982839,-0.7660685380299886,0.0963368241985638,0.2197155207395553,-1.9732975165049236,1.0574413935343423,-0.9875033895174662
0.6,1.6887021379469012e+18,195.5949013671875,5.843293984731038,-2.547343889872233,7.750117301940918,1.6887021379555525e+18,195.60355224609373,3.8592240284197032,-9.664211750030518,10.61974589029948,1.6887021379469012e+18,195.5949013671875,-1.5356784264246623,-8.988895416259766,3.604946454366048,1.6887021379469012e+18,195.5949013671875,1.9700404008229573,1.6732617715994518,0.4027638286352157,1.6887021379469012e+18,195.5949013671875,1.968869646390279,1.677944968144099,0.4049527545770009,1.6887021379688635e+18,195.61686376953125,0.0,0.0,1.0743292570114136,6.031000137329102,1.5022262334823608,124.96090698242188,43.400001525878906,-122.755548,49.189603,1.6887021379471834e+18,195.5951833496094,-25.85179939270019,42.1900390625,-13.54687957763672,1.6887021379471834e+18,195.5951833496094,-280.39259643554686,137.65503845214843,-146.75867919921876,1.6887021379469012e+18,195.5949013671875,0.6220584710439047,-0.7567964792251587,0.0676325646539528,0.1876580516497294,-1.969314972559611,1.159621040026347,-0.9987230896949768
0.65,1.688702137998806e+18,195.6468059082031,-1.755783200263977,5.664865493774414,2.279930353164673,1.6887021380074555e+18,195.65545581054687,-3.122434139251709,-3.26081911722819,4.595615307490031,1.688702137998806e+18,195.6468059082031,-0.91327432791392,-9.323534011840822,2.903246959050497,1.688702137998806e+18,195.6468059082031,1.6111570994059246,1.270345151424408,0.5940155386924744,1.688702137998806e+18,195.6468059082031,1.6100371678670249,1.2749775846799214,0.5962044795354208,,,,,,,,,,,,1.688702137997185e+18,195.64518510742187,-28.274719619750975,42.33399887084961,-6.363519954681396,1.688702137997185e+18,195.64518510742187,-282.8155151367188,137.7989959716797,-139.5753204345703,1.688702137998806e+18,195.6468059082031,0.6435858209927877,-0.7388471762339274,0.0013274754358765,0.1993743280569711,-1.8711384932200117,1.2552770376205444,-0.9858923951784768
0.7,1.6887021380507044e+18,195.6987043457031,-4.4740837415059405,7.792969703674316,0.3488332430521648,1.688702138059363e+18,195.7073630371094,-5.242076237996419,-1.39641139904658,2.6472593943277993,1.6887021380507044e+18,195.6987043457031,-0.5738384823004404,-9.464598655700682,2.5131068229675293,1.6887021380507044e+18,195.6987043457031,0.5735006630420685,0.0407752643028895,0.8437576293945312,1.6887021380507044e+18,195.6987043457031,0.5723298490047455,0.0454585502545038,0.8458956480026245,,,,,,,,,,,,1.6887021380471803e+18,195.69518037109373,-29.794839477539064,41.68983917236328,-2.9304399490356445,1.6887021380471803e+18,195.69518037109373,-284.33563842773435,137.15483703613282,-136.14223937988282,1.6887021380507044e+18,195.6987043457031,0.6585930784543356,-0.7268471320470175,-0.0191719289869069,0.1937610954046248,-1.7900145451227825,1.3047726551691692,-1.0465778509775798
0.75,1.688702138102616e+18,195.7506159667969,-1.7847079038619995,9.00104808807373,-0.4541676044464111,1.688702138102619e+18,195.75061889648435,-1.3193426430225372,-0.3005983382463454,1.950150489807129,1.688702138102616e+18,195.7506159667969,-0.3288160661856332,-9.503184954325356,2.411421298980713,1.688702138102616e+18,195.7506159667969,0.0794633875290552,-0.7597127507130305,0.6803002655506134,1.688702138102616e+18,195.7506159667969,0.0782925660411517,-0.7550294200579325,0.6824891865253448,,,,,,,,,,,,1.6887021380971814e+18,195.7451814941406,-31.739519119262695,40.46739883422852,-2.664479875564575,1.6887021380971814e+18,195.7451814941406,-286.2803100585937,135.9323974609375,-135.87627868652345,1.688702138102616e+18,195.7506159667969,0.6727138559023539,-0.7184054851531982,-0.0059877728344871,0.1768559863169987,-1.7015128135681152,1.3199294805526731,-1.1787066062291462
0.8,1.6887021381545208e+18,195.8025209147135,-1.5922377109527588,8.8997433980306,-1.2507799863815308,1.6887021381458698e+18,195.7938697102865,-1.9222342173258464,-0.349152701596419,1.501496195793152,1.6887021381545208e+18,195.8025209147135,-0.4465104838212331,-9.47226905822754,2.5069367090861,1.6887021381545208e+18,195.8025209147135,-0.2513710384567578,-1.9528343677520752,-0.3068579783042272,1.6887021381545208e+18,195.8025209147135,-0.2525927846630414,-1.9482019941012063,-0.3047199547290802,,,,,,,,,,,,1.6887021381471852e+18,195.79518520507813,-32.25679969787598,39.91107940673828,-3.76247992515564,1.6887021381471852e+18,195.79518520507813,-286.79759521484374,135.3760772705078,-136.97427673339843,1.6887021381545208e+18,195.8025209147135,0.6718066533406576,-0.7222892045974731,0.0158184949153413,0.162551333506902,-1.7406847874323528,1.3076114257176716,-1.1911886930465698
0.85,1.6887021382064248e+18,195.8544247233073,22.34985891977946,-11.29028352101644,0.5729266405105592,1.6887021381977713e+18,195.8457714029948,18.339987913767494,-15.686747392018637,2.7164519230524697,1.6887021382064248e+18,195.8544247233073,-1.375636617342631,-9.271085739135742,2.8868203163146973,1.6887021382064248e+18,195.8544247233073,-2.379167397816976,-6.969514528910319,0.5298746625582377,1.6887021382064248e+18,195.8544247233073,-2.3802873690923056,-6.964881817499797,0.5321145256360372,,,,,,,,,,,,1.6887021381971804e+18,195.84518056640624,-29.472759628295897,40.18191909790039,-12.012120056152344,1.6887021381971804e+18,195.84518056640624,-284.0135559082031,135.64691467285155,-145.2239196777344,1.6887021382064248e+18,195.8544247233073,0.651465912659963,-0.7391923864682516,0.1443297788500785,0.0720829640825589,-2.011984427769979,1.2384015719095869,-1.2335967620213826
0.9,1.6887021382583316e+18,195.90633146158856,2.2814789613087973,-14.899425824483236,5.776612599690755,1.6887021382496755e+18,195.89767545572917,5.038686116536458,-25.835106531778973,8.517650922139486,1.6887021382583316e+18,195.90633146158856,-1.51643705368042,-9.076701164245604,3.398390690485636,1.6887021382583316e+18,195.90633146158856,-0.068060557047526,1.5601498087247212,-0.6728680729866028,1.6887021382583316e+18,195.90633146158856,-0.0691295862197876,1.564884066581726,-0.6707300345102946,,,,,,,,,,,,1.6887021382471823e+18,195.89518227539065,-26.134839630126955,37.77852020263672,-22.138119506835935,1.6887021382471823e+18,195.89518227539065,-280.6756286621094,133.24351501464844,-155.34991760253905,1.6887021382583316e+18,195.90633146158856,0.6471847891807556,-0.7341341773668925,0.194168264667193,0.0652336664497852,-1.987281322479248,1.1813931067784629,-1.34045672416687
0.95,1.6887021383015846e+18,195.94958459472656,-2.011135160923004,-0.7275435924530029,2.9323084354400635,1.6887021383015826e+18,195.94958260091144,-3.388635635375977,-10.322836319605509,6.511069933573405,1.6887021383015846e+18,195.94958459472656,-1.2354901432991028,-9.111287117004396,3.4183672666549683,1.6887021383015846e+18,195.94958459472656,0.3652974218130111,3.014009118080139,0.0364228393882512,1.6887021383015846e+18,195.94958459472656,0.364152044057846,3.018666982650757,0.0385608710348606,,,,,,,,,,,,1.688702138297184e+18,195.94518403320313,-28.23079948425293,38.56419906616211,-18.78067970275879,1.688702138297184e+18,195.94518403320313,-282.77159423828124,134.0291961669922,-151.9924743652344,1.6887021383015846e+18,195.94958459472656,0.6532535552978516,-0.7345981001853943,0.1506992653012275,0.1036389991641044,-1.9141618609428408,1.1908521056175232,-1.2952300906181335
1.0,1.6887021383448422e+18,195.99284220377604,-0.972774843374888,7.887990633646647,-1.978005329767863,1.6887021383534892e+18,196.00148933919272,-1.531805257002513,-0.9690931836764016,1.230110267798106,1.6887021383448422e+18,195.99284220377604,-0.7467310031255087,-9.16161314646403,3.423593759536743,1.6887021383448422e+18,195.99284220377604,0.3539964059988658,2.029039899508158,0.5562437077363332,1.6887021383448422e+18,195.99284220377604,0.3527746697266896,2.033773978551229,0.5583817362785339,,,,,,,,,,,,1.6887021383471818e+18,195.99518188476563,-31.454040145874025,38.4397590637207,-14.139799690246582,1.6887021383471818e+18,195.99518188476563,-285.9948303222656,133.90475769042968,-147.35159606933593,1.6887021383448422e+18,195.99284220377604,0.6657949288686117,-0.7244645357131958,0.1119342868526776,0.1384392976760863,-1.7815100351969402,1.2049437363942463,-1.3219700654347737
1.05,1.6887021383967437e+18,196.04474365234375,-1.0408433477083845,4.080659548441569,0.3329753081003825,1.6887021384053914e+18,196.05339119466143,-1.338584880034129,-7.108677228291829,5.162913640340169,1.6887021383967437e+18,196.04474365234375,-0.3939165870348612,-9.160465558369957,3.4852962493896484,1.6887021383967437e+18,196.04474365234375,-0.6509787142276764,0.3200425008932748,0.2605340182781219,1.6887021383967437e+18,196.04474365234375,-0.6520986507336298,0.3247766892115275,0.2626720604797204,,,,,,,,,,,,1.6887021383971848e+18,196.04518496093752,-33.18887939453125,37.61259994506836,-12.636759757995604,1.6887021383971848e+18,196.04518496093752,-287.72966918945315,133.07759704589844,-145.8485595703125,1.6887021383967437e+18,196.04474365234375,0.6752126614252726,-0.7140850027402242,0.0975778400897979,0.1568339765071868,-1.6801007588704426,1.2047590812047324,-1.3762396574020386
1.1,1.688702138448643e+18,196.09664306640624,0.5236237446467081,-3.40908145904541,3.330625057220459,1.6887021384572982e+18,196.10529833984376,-0.2071785628795623,-10.986645380655924,6.507081747055054,1.688702138448643e+18,196.09664306640624,-0.7474160591761271,-8.873718897501627,4.108584880828857,1.688702138448643e+18,196.09664306640624,-0.9795224418242772,-1.35174298286438,-0.8799004952112833,1.688702138448643e+18,196.09664306640624,-0.9806423348685106,-1.347059686978658,-0.8777624567349752,,,,,,,,,,,,1.6887021384471834e+18,196.09518349609377,-32.268999099731445,37.134359741210936,-16.201599502563475,1.6887021384471834e+18,196.09518349609377,-286.80980224609374,132.5993621826172,-149.41339416503905,1.688702138448643e+18,196.09664306640624,0.658962349096934,-0.7205894589424133,0.1346439272165298,0.1679391115903854,-1.7466370264689128,1.1302138566970827,-1.3467191855112712
1.15,1.688702138500551e+18,196.14855078125,1.2351651589075725,4.437074025472005,-2.0442512035369873,1.6887021385092006e+18,196.1572007649739,-0.5296114087104797,-4.303890387217204,2.0065812269846597,1.688702138500551e+18,196.14855078125,-1.654770096143087,-8.735822677612305,4.135901769002278,1.688702138500551e+18,196.14855078125,-0.3395392640183369,-1.4061099688212078,-1.511280616124471,1.688702138500551e+18,196.14855078125,-0.3406591775516669,-1.401477575302124,-1.5091425975163777,1.688702138500551e+18,196.14855102539065,0.0,0.0,1.0892196893692017,5.704999923706055,1.494536280632019,125.00424194335938,43.400001525878906,-122.7555337,49.1895955,1.688702138497184e+18,196.14518403320312,-28.22103958129883,38.51295928955078,-18.78311996459961,1.688702138497184e+18,196.14518403320312,-282.7618408203125,133.97796020507812,-151.9949188232422,1.688702138500551e+18,196.14855078125,0.627658744653066,-0.7471938530604044,0.1592714389165242,0.1488464226325352,-1.9471330642700195,1.0985080798467,-1.2096495230992634
1.2,1.6887021385524544e+18,196.20045467122395,1.0976324478785198,0.4018479983011881,-1.7899161179860432,1.688702138552458e+18,196.2004580078125,-1.732104480266571,-8.126922845840454,2.6814568042755127,1.6887021385524544e+18,196.20045467122395,-2.6739677588144937,-8.359820683797201,4.369901974995931,1.6887021385524544e+18,196.20045467122395,-1.0178542335828145,-1.092532495657603,-1.834733764330546,1.6887021385524544e+18,196.20045467122395,-1.0189741055170696,-1.087900122006734,-1.832595705986023,,,,,,,,,,,,1.6887021385471892e+18,196.195189453125,-23.63871955871582,39.83543930053711,-21.723319625854497,1.6887021385471892e+18,196.195189453125,-278.1795166015625,135.3004364013672,-154.93511962890625,1.6887021385524544e+18,196.20045467122395,0.5852614243825277,-0.7750707864761353,0.1867854346831639,0.1468611458937326,-2.115866502126058,1.0206734935442607,-1.0844494501749675
1.25,1.6887021386043617e+18,196.25236189778647,2.412464221318563,-2.291750907897949,-1.753337303797404,1.6887021385957125e+18,196.24371223958337,-1.4261223077774048,-10.144969940185549,2.914856751759847,1.6887021386043617e+18,196.25236189778647,-3.731172243754069,-7.845086097717285,4.545486768086751,1.6887021386043617e+18,196.25236189778647,-1.0021753509839375,-1.4782429933547974,-1.7948238849639893,1.6887021386043617e+18,196.25236189778647,-1.0032952427864077,-1.4736106395721436,-1.792685866355896,,,,,,,,,,,,1.688702138597182e+18,196.24518198242188,-17.7168399810791,40.42348022460938,-24.71719970703125,1.688702138597182e+18,196.24518198242188,-272.25763549804685,135.88847961425782,-157.9290008544922,1.6887021386043617e+18,196.25236189778647,0.5382903416951498,-0.8010511994361877,0.2187451720237731,0.1428361783425013,-2.25484307607015,0.9273654023806254,-1.0000582138697307
1.3,1.688702138656268e+18,196.30426806640625,6.515079339345296,-5.690645535786946,-0.6554733912150065,1.6887021386476168e+18,196.29561686197917,-0.5453641613324484,-11.946964581807457,3.60877537727356,1.688702138656268e+18,196.30426806640625,-5.16997750600179,-7.047189871470134,4.367663145065308,1.688702138656268e+18,196.30426806640625,-1.0565932393074036,-4.271373351414998,-3.821063915888468,1.688702138656268e+18,196.30426806640625,-1.0577131907145183,-4.2667918999989825,-3.818925817807515,,,,,,,,,,,,1.6887021386471818e+18,196.29518188476564,-11.502159881591798,40.084320068359375,-28.430879592895508,1.6887021386471818e+18,196.29518188476564,-266.04295043945314,135.5493194580078,-161.64267578125,1.688702138656268e+18,196.30426806640625,0.4701972007751465,-0.8318772117296854,0.2653978268305461,0.1192374428113301,-2.432791312535604,0.8032390077908834,-0.9330538312594095
1.35,1.6887021387081697e+18,196.35616935221356,15.899417241414383,-8.95236349105835,1.685244878133138,1.688702138699516e+18,196.34751578776044,17.617356300354004,-15.75414498647054,7.213761965433757,1.6887021387081697e+18,196.35616935221356,-5.862387339274089,-5.729640007019043,5.274603366851807,1.6887021387081697e+18,196.35616935221356,0.9324349015951156,8.977275689442953,-2.290388355652491,1.6887021387081697e+18,196.35616935221356,0.9313149452209472,8.981959025065104,-2.288199385007222,,,,,,,,,,,,1.6887021386971835e+18,196.3451833984375,1.1614399194717406,39.35963897705078,-30.682999420166016,1.6887021386971835e+18,196.3451833984375,-253.37935485839844,134.82463989257812,-163.8947967529297,1.6887021387081697e+18,196.35616935221356,0.3924296796321869,-0.861717939376831,0.2327056725819905,0.2078385725617408,-2.407597223917643,0.6241135199864706,-0.7736836473147074
1.4,1.688702138751427e+18,196.39942700195311,-5.2226550579071045,-5.709655284881592,-6.169405698776245,1.688702138751427e+18,196.39942708333336,-9.337990442911783,-11.927423159281412,0.5998008747895559,1.688702138751427e+18,196.39942700195311,-4.341919183731079,-6.000661849975586,6.431843042373657,1.688702138751427e+18,196.39942700195311,0.7283041030168533,1.9586631022393703,0.3957643136382103,1.688702138751427e+18,196.39942700195311,0.727158710360527,1.9632445722818372,0.3979023396968841,,,,,,,,,,,,1.6887021387471795e+18,196.39517944335935,-8.300879669189452,40.89439849853515,-27.76231918334961,1.6887021387471795e+18,196.39517944335935,-262.8416748046875,136.3593963623047,-160.97411499023437,1.688702138751427e+18,196.39942700195311,0.4245950281620025,-0.8348776996135712,0.154139645397663,0.3145137578248977,-2.1632033586502075,0.6586133539676666,-0.7250920832157135
1.45,1.6887021387946775e+18,196.44267757161455,9.405275026957195,-8.370996475219727,-5.782410144805908,1.6887021388033298e+18,196.45132950846352,7.333802302678426,-15.67099412282308,0.6795616547266642,1.6887021387946775e+18,196.44267757161455,-4.245016892751058,-6.500240166982015,5.990111827850342,1.6887021387946775e+18,196.44267757161455,0.4762203606466452,-2.0927225636939206,2.3889922300974527,1.6887021387946775e+18,196.44267757161455,0.475049523015817,-2.0880900782843432,2.391130208969116,,,,,,,,,,,,1.6887021387971794e+18,196.44517919921873,-11.921839714050291,40.73579864501953,-26.698479461669923,1.6887021387971794e+18,196.44517919921873,-266.4626403808594,136.20079650878907,-159.9102752685547,1.6887021387946775e+18,196.44267757161455,0.458275447289149,-0.8273683786392212,0.1766449262698491,0.2712457875410716,-2.18617836634318,0.7249199946721395,-0.8082389632860819
1.5,1.688702138846586e+18,196.49458601888023,0.2654602527618408,-7.331828594207764,-1.1582446098327637,1.6887021388552369e+18,196.5032370605469,-3.410968621571859,-14.535998662312826,4.363312164942424,1.688702138846586e+18,196.49458601888023,-3.141895850499471,-7.750774065653483,5.0754194259643555,1.688702138846586e+18,196.49458601888023,3.556661049524943,0.8423322662711143,3.2851314544677734,1.688702138846586e+18,196.49458601888023,3.555490255355835,0.8470155969262123,3.2873204549153647,,,,,,,,,,,,1.6887021388471836e+18,196.49518378906248,-18.160919380187988,42.002159881591794,-21.689159774780272,1.6887021388471836e+18,196.49518378906248,-272.70171508789065,137.4671600341797,-154.9009552001953,1.688702138846586e+18,196.49458601888023,0.53516952196757,-0.7996874252955118,0.1403312434752781,0.2302542279163995,-2.120854377746582,0.914569894472758,-0.8862566550572714
1.55,1.6887021388984922e+18,196.5464921875,1.50703227519989,-7.387651761372884,5.079020023345947,1.688702138907143e+18,196.55514298502604,0.7700901826222738,-16.202799479166668,10.167701403299969,1.6887021388984922e+18,196.5464921875,-2.0714029471079507,-8.772119522094727,3.8616862297058105,1.6887021388984922e+18,196.5464921875,1.7855082352956135,-0.943990429242452,1.8080083926518755,1.6887021388984922e+18,196.5464921875,1.7843373616536458,-0.9393071631590524,1.810146450996399,,,,,,,,,,,,1.688702138897177e+18,196.54517753906248,-23.929079818725587,41.99483871459961,-16.85063934326172,1.688702138897177e+18,196.54517753906248,-278.46986694335936,137.45983276367187,-150.06243896484375,1.6887021388984922e+18,196.5464921875,0.6045173406600952,-0.7703066865603129,0.1081112896402676,0.1709031959374745,-2.0604088306427,1.1075824896494548,-0.989843726158142
1.6,1.688702138950395e+18,196.59839493815105,4.275388240814209,0.4751453399658203,6.539700826009114,1.6887021389590405e+18,196.6070402832031,1.495115339756012,-6.803791920344035,8.693523406982422,1.688702138950395e+18,196.59839493815105,-1.4923994541168213,-9.142191251118978,3.213568131128947,1.688702138950395e+18,196.59839493815105,1.8201239109039309,2.263815681139628,0.7706064979235331,1.688702138950395e+18,196.59839493815105,1.8189021746317544,2.268549919128418,0.7728972335656484,,,,,,,,,,,,1.6887021389471846e+18,196.59518457031248,-26.13484001159668,42.033879089355466,-12.346399688720703,1.6887021389471846e+18,196.59518457031248,-280.6756286621094,137.49887390136718,-145.55819702148438,1.688702138950395e+18,196.59839493815105,0.6306179563204447,-0.755581001440684,0.064850453287363,0.1631896297136942,-1.9994362990061445,1.200795571009318,-1.0006134510040283
1.65,1.688702139002298e+18,196.6502980957031,-2.5266994635264077,7.087544759114583,1.5716371536254885,1.6887021390022994e+18,196.65029956054687,-3.131008505821228,-2.31625235080719,4.150051712989807,1.688702139002298e+18,196.6502980957031,-0.678948829571406,-9.439133961995443,2.571659564971924,1.688702139002298e+18,196.6502980957031,1.357698917388916,0.7131342887878418,1.4292210340499878,1.688702139002298e+18,196.6502980957031,1.3565280834833782,0.7178684671719869,1.431359052658081,1.6887021390196024e+18,196.6676025390625,0.0,0.0,1.094309687614441,5.408999919891357,1.4925628900527954,124.81710052490234,43.400001525878906,-122.7555294,49.1895933,1.688702138997182e+18,196.6451818359375,-29.858279418945312,41.35555877685547,-6.483080005645752,1.688702138997182e+18,196.6451818359375,-284.3990783691406,136.820556640625,-139.69487915039062,1.688702139002298e+18,196.6502980957031,0.6621163686116537,-0.7305890123049418,0.0155046704846123,0.1656193137168884,-1.8207830985387168,1.2956499656041462,-1.1060749689737956
1.7,1.6887021390542057e+18,196.70220540364585,-5.1434861818949384,8.442173957824707,0.2538238366444905,1.688702139045553e+18,196.69355289713545,-5.431707223256429,-1.195015549659729,2.680958350499471,1.6887021390542057e+18,196.70220540364585,0.0883855844537416,-9.552686055501304,2.221675395965576,1.6887021390542057e+18,196.70220540364585,0.4714861710866292,-0.7705047080914179,1.8270979324976604,1.6887021390542057e+18,196.70220540364585,0.470366229613622,-0.7658213973045349,1.82933775583903,,,,,,,,,,,,1.6887021390471852e+18,196.6951853515625,-33.76227989196777,39.054638671875,-4.040639925003052,1.6887021390471852e+18,196.6951853515625,-288.303076171875,134.51963806152344,-137.2524383544922,1.6887021390542057e+18,196.70220540364585,0.6947168111801147,-0.7033724188804626,0.0119015808838108,0.1493122826019922,-1.525051832199097,1.3409301042556765,-1.4205979108810425
1.75,1.688702139106104e+18,196.75410408528649,-2.5055998961130777,8.634795188903809,0.1304369767506916,1.6887021390974536e+18,196.74545369466145,-2.1479570865631104,-0.9242277344067892,2.448455731074015,1.688702139106104e+18,196.75410408528649,0.539633313814799,-9.526364008585611,2.2772655487060547,1.688702139106104e+18,196.75410408528649,-0.23889921605587,0.0027997965614,0.6442083319028219,1.688702139106104e+18,196.75410408528649,-0.2400191302100817,0.0074830936888853,0.6463463505109152,,,,,,,,,,,,1.688702139097178e+18,196.74517817382812,-36.387718200683594,36.81715927124024,-4.753119945526123,1.688702139097178e+18,196.74517817382812,-290.928515625,132.28215637207032,-137.9649169921875,1.688702139106104e+18,196.75410408528649,0.7126335104306539,-0.6864654421806335,0.0261326065907875,0.1421848237514495,-1.3343444267908733,1.329270839691162,-1.641731897989909
1.8,1.6887021391580063e+18,196.8060064290365,-2.930063327153524,7.637112458546956,-1.1343367497126262,1.6887021391493548e+18,196.79735473632812,-1.849053740501404,-1.1954143246014912,1.792224129041036,1.6887021391580063e+18,196.8060064290365,0.33079632356142,-9.454305013020834,2.582517464955648,1.6887021391580063e+18,196.8060064290365,-0.7668395241101583,-2.1140518387158713,-0.7912231907248497,1.6887021391580063e+18,196.8060064290365,-0.7680103182792664,-2.1093685726324716,-0.7890851696332296,,,,,,,,,,,,1.6887021391471764e+18,196.79517626953125,-36.55119934082031,36.36087951660157,-5.514399909973145,1.6887021391471764e+18,196.79517626953125,-291.0919982910156,131.82587890625,-138.7261962890625,1.6887021391580063e+18,196.8060064290365,0.7056077520052592,-0.6926357944806417,0.0500683883825937,0.1395214547713597,-1.435559590657552,1.3003762165705364,-1.5782814820607505
1.85,1.6887021392012654e+18,196.84926538085935,23.081207811832428,-14.339265823364258,2.800184011459351,1.6887021392012657e+18,196.8492654622396,25.72064971923828,-23.49751917521159,5.346163988113403,1.6887021392012654e+18,196.84926538085935,-1.27946674823761,-9.21432876586914,3.1042301654815674,1.6887021392012654e+18,196.84926538085935,-2.2492058873176575,-9.599670886993408,-1.4090370833873749,1.6887021392012654e+18,196.84926538085935,-2.2503511905670166,-9.594936847686768,-1.4068990051746368,,,,,,,,,,,,1.6887021391971812e+18,196.8451811035156,-30.909918975830077,37.47839965820312,-15.076759910583496,1.6887021391971812e+18,196.8451811035156,-285.4507141113281,132.94339904785156,-148.28855590820314,1.6887021392012654e+18,196.84926538085935,0.6567266583442688,-0.7297936975955963,0.17632607370615,0.0589106436818837,-1.9557297229766848,1.2205933332443235,-1.3549357056617737
1.9,1.6887021392445166e+18,196.8925166015625,8.003229220708212,-13.511507034301758,4.038750410079956,1.6887021392531717e+18,196.90117138671872,2.470788717269898,-19.56092643737793,7.17926549911499,1.6887021392445166e+18,196.8925166015625,-1.6744762261708577,-9.092734654744469,3.279024044672648,1.6887021392445166e+18,196.8925166015625,-0.1164716432491938,0.3942626317342122,-0.6208427051703135,1.6887021392445166e+18,196.8925166015625,-0.117642472187678,0.3988950252532959,-0.6187046865622202,,,,,,,,,,,,1.688702139247183e+18,196.89518305664063,-25.52971954345703,37.39787902832031,-23.81195983886719,1.688702139247183e+18,196.89518305664063,-280.0705139160156,132.86287841796874,-157.0237579345703,1.6887021392445166e+18,196.8925166015625,0.6433398723602295,-0.7320921222368876,0.2210636883974075,0.0345089342445135,-2.0397295157114663,1.185746431350708,-1.3714820941289263
1.95,1.6887021392964283e+18,196.94442830403645,-1.42888871828715,-2.0427390734354653,3.6692847410837808,1.6887021393050796e+18,196.95307926432292,-2.7345974445343018,-9.513264815012612,6.454639275868733,1.6887021392964283e+18,196.94442830403645,-1.4335887432098389,-9.088116645812988,3.4002346992492676,1.6887021392964283e+18,196.94442830403645,0.1141808951894441,2.52302614847819,0.1452332139015197,1.6887021392964283e+18,196.94442830403645,0.1130100687344868,2.5277603467305503,0.1474221448103586,,,,,,,,,,,,1.6887021392971845e+18,196.94518432617187,-26.93271942138672,37.89807968139648,-20.957159423828124,1.6887021392971845e+18,196.94518432617187,-281.4735107421875,133.36307678222656,-154.16896057128906,1.6887021392964283e+18,196.94442830403645,0.6493508021036783,-0.7341267466545105,0.182982712984085,0.0747790299355983,-1.9664570093154907,1.184538761774699,-1.3312484820683796
2.0,1.6887021393483333e+18,196.9963331705729,-0.4538467327753703,6.8284562428792315,-1.105586290359497,1.6887021393569805e+18,197.0049805501302,-1.2249258160591123,-2.071985046068827,2.148555278778076,1.6887021393483333e+18,196.9963331705729,-1.3097269137700398,-9.114242871602375,3.381683588027954,1.6887021393483333e+18,196.9963331705729,0.3912591934204101,-0.0755436619122823,-0.4758640229701996,1.6887021393483333e+18,196.9963331705729,0.3901392618815103,-0.0708603759606679,-0.4736751019954681,,,,,,,,,,,,1.688702139347181e+18,196.99518120117187,-28.948159790039064,38.34215774536133,-18.412239837646485,1.688702139347181e+18,196.99518120117187,-283.48895263671875,133.80715942382812,-151.62404174804686,1.6887021393483333e+18,196.9963331705729,0.6519022186597189,-0.7354220549265543,0.1593067348003387,0.0935784106453259,-1.937228838602702,1.1917097568511963,-1.299047867457072
2.05,1.688702139400237e+18,197.04823714192707,1.0677364667256672,2.942765712738037,1.2864598433176675,1.6887021394088858e+18,197.0568856608073,-0.3800599972407023,-7.673184235890706,5.730810244878133,1.688702139400237e+18,197.04823714192707,-1.4747791290283203,-9.0634495417277,3.4482626914978027,1.688702139400237e+18,197.04823714192707,-0.6417648593584697,0.8293004669249058,-0.1691078611960013,1.688702139400237e+18,197.04823714192707,-0.6428847561279932,0.8339837777117888,-0.1669698345164457,,,,,,,,,,,,1.688702139397184e+18,197.04518393554685,-27.833079528808593,38.888719177246095,-18.09260025024414,1.688702139397184e+18,197.04518393554685,-282.373876953125,134.35372009277344,-151.3043975830078,1.688702139400237e+18,197.04823714192707,0.6445530652999878,-0.7411139607429504,0.1594020028909047,0.0989243909716605,-1.9726671775182087,1.1781949202219646,-1.2561413447062175
2.1,1.6887021394521354e+18,197.1001354166667,-0.1366004546483357,-0.6513908704121908,1.9370630582173665,1.6887021394521426e+18,197.10014282226564,-1.2634103298187256,-10.02293586730957,6.184549331665039,1.6887021394521354e+18,197.1001354166667,-1.0812102556228638,-8.88385041554769,4.014808654785156,1.6887021394521354e+18,197.1001354166667,-0.6339763303597769,2.254805405934652,-0.0101301819086075,1.6887021394521354e+18,197.1001354166667,-0.6350962320963542,2.2595396439234414,-0.0079921508828799,,,,,,,,,,,,1.6887021394471836e+18,197.09518364257812,-29.821679306030273,37.9127197265625,-17.60215950012207,1.6887021394471836e+18,197.09518364257812,-284.3624755859375,133.37771606445312,-150.81395874023437,1.6887021394521354e+18,197.1001354166667,0.6496560573577881,-0.7305533488591512,0.1442663967609405,0.152197370926539,-1.8317220608393352,1.1326217651367188,-1.2983556191126506
2.15,1.688702139504048e+18,197.1520479329427,-0.8593112230300903,3.963085492451986,-1.8435383637746177,1.6887021394953946e+18,197.14339485677087,-1.7232311169306438,-4.782853603363037,2.774278402328491,1.688702139504048e+18,197.1520479329427,-1.0346712470054624,-8.715872128804525,4.377262910207112,1.688702139504048e+18,197.1520479329427,-0.8453356822331747,1.1584550539652507,-1.2417872349421184,1.688702139504048e+18,197.1520479329427,-0.8465064962704977,1.1631383299827576,-1.2395474116007488,,,,,,,,,,,,1.688702139497182e+18,197.14518203125,-30.54391937255859,38.329959106445315,-15.842919731140135,1.688702139497182e+18,197.14518203125,-285.08470458984374,133.79495544433593,-149.05471801757812,1.688702139504048e+18,197.1520479329427,0.6399435003598531,-0.7324158549308777,0.1254532585541407,0.19517050186793,-1.7997645537058513,1.094173272450765,-1.240272839864095
2.2,1.6887021395559514e+18,197.20395133463543,-0.8438661495844523,0.1645304361979166,-1.983912706375122,1.6887021395472986e+18,197.1952986653646,-2.6053850650787354,-7.584649562835693,2.7890342076619468,1.6887021395559514e+18,197.20395133463543,-1.8399471839269,-8.355802853902182,4.787428061167399,1.6887021395559514e+18,197.20395133463543,-0.9136507908503214,-0.8688030950725079,-1.9405152797698977,1.6887021395559514e+18,197.20395133463543,-0.9147707025210062,-0.8641707065204779,-1.9383772214253745,1.6887021395386511e+18,197.1866511230469,0.0,0.0,1.094309687614441,5.064000129699707,1.4836159944534302,124.4002456665039,43.400001525878906,-122.7555173,49.1895873,1.6887021395471836e+18,197.19518349609376,-27.56223945617676,39.610958862304685,-17.14831962585449,1.6887021395471836e+18,197.19518349609376,-282.10303955078126,135.07595520019532,-150.36011962890626,1.6887021395559514e+18,197.20395133463543,0.5993722279866537,-0.758714477221171,0.1321040044228235,0.2176212022701898,-1.9337371190388997,1.0197367668151855,-1.0821148951848347
2.25,1.6887021396078574e+18,197.2558575032552,1.1265133221944172,-2.880929152170817,-1.9805029233296711,1.688702139599203e+18,197.2472028808594,-2.226920247077942,-10.388439496358236,2.9006992975870767,1.6887021396078574e+18,197.2558575032552,-3.2454211711883545,-7.870265165964763,4.851814905802409,1.6887021396078574e+18,197.2558575032552,-1.1815151969591775,-3.129666248957316,-1.9472856918970745,1.6887021396078574e+18,197.2558575032552,-1.1826860109965007,-3.124982992808024,-1.9451476732889812,,,,,,,,,,,,1.6887021395971814e+18,197.2451814941406,-21.628159713745116,40.93587875366211,-20.993759536743163,1.6887021395971814e+18,197.2451814941406,-276.1689514160156,136.4008758544922,-154.20556030273437,1.6887021396078574e+18,197.2558575032552,0.5458593567212423,-0.796238899230957,0.1746563315391539,0.1916675021251042,-2.155898332595825,0.9318160017331442,-0.9605488975842794
2.3,1.6887021396511114e+18,197.2991115722656,3.0690414905548096,-7.66441535949707,-0.1504988670349121,1.688702139651108e+18,197.29910815429687,-0.1403789520263672,-15.289738019307457,4.871786991755168,1.6887021396511114e+18,197.2991115722656,-4.648467540740967,-7.232245206832886,4.710744857788086,1.6887021396511114e+18,197.2991115722656,-1.9058995842933657,-4.669377446174622,-2.13802832365036,1.6887021396511114e+18,197.2991115722656,-1.9070449471473696,-4.6647197008132935,-2.1358903646469116,,,,,,,,,,,,1.688702139647184e+18,197.295183984375,-12.61479949951172,40.67967910766602,-26.761919021606445,1.688702139647184e+18,197.295183984375,-267.1555969238281,136.14467163085936,-159.9737121582031,1.6887021396511114e+18,197.2991115722656,0.4906617403030395,-0.8241550326347351,0.2386766001582145,0.1499691456556319,-2.346768379211426,0.8294775485992432,-0.92974454164505
2.35,1.6887021396943657e+18,197.3423658040365,22.58624045054118,-12.803078333536783,3.099840005238851,1.6887021397030167e+18,197.35101660156252,18.48694721857707,-17.65643850962321,7.616354306538899,1.6887021396943657e+18,197.3423658040365,-6.107731024424235,-5.853204568227132,4.868383407592773,1.6887021396943657e+18,197.3423658040365,0.1346448759237926,4.603124300638835,-4.437935988108317,1.6887021396943657e+18,197.3423658040365,0.1334740569194158,4.607807477315267,-4.4357980489730835,,,,,,,,,,,,1.6887021396971802e+18,197.34518041992183,-0.4611599683761597,39.57679901123047,-30.578079223632812,1.6887021396971802e+18,197.34518041992183,-255.00195922851563,135.04179992675782,-163.7898742675781,1.6887021396943657e+18,197.3423658040365,0.3942801455656687,-0.86288849512736,0.2553932269414266,0.171373538672924,-2.469874143600464,0.6403540968894958,-0.8038545449574789
2.4,1.688702139746268e+18,197.3942676595052,-5.3282114664713545,-5.16773001352946,-6.0086666742960615,1.688702139754922e+18,197.4029217936198,-8.613762855529785,-10.703893343607584,-0.3483551094929377,1.688702139746268e+18,197.3942676595052,-4.160989125569661,-5.985458691914876,6.562131245930989,1.688702139746268e+18,197.3942676595052,0.9099855696161588,3.1812844276428223,0.3516038656234741,1.688702139746268e+18,197.3942676595052,0.908865675330162,3.185916781425476,0.3537418842315674,,,,,,,,,,,,1.688702139747184e+18,197.395183984375,-10.58471965789795,41.2140396118164,-26.359319305419923,1.688702139747184e+18,197.395183984375,-265.1255249023437,136.67903747558594,-159.5711181640625,1.688702139746268e+18,197.3942676595052,0.4262365996837616,-0.8302021225293478,0.1491608570019404,0.3265590767065683,-2.134512186050415,0.6566601395606995,-0.7266016205151876
2.45,1.6887021397981755e+18,197.44617545572916,10.127000013987224,-6.493250846862793,-6.5905429522196455,1.6887021398068234e+18,197.45482340494792,6.873383124669393,-13.468600273132324,0.1054836145291727,1.6887021397981755e+18,197.44617545572916,-3.888575792312622,-6.462530771891276,6.2602583567301435,1.6887021397981755e+18,197.44617545572916,0.6784167736768723,-0.5314527451992035,2.6528350512186685,1.6887021397981755e+18,197.44617545572916,0.6773477445046107,-0.5267694294452668,2.654973109563192,,,,,,,,,,,,1.6887021397971845e+18,197.44518427734377,-12.96615982055664,40.672359466552734,-26.469119262695312,1.6887021397971845e+18,197.44518427734377,-267.50694580078124,136.13735961914062,-159.68091735839843,1.6887021397981755e+18,197.44617545572916,0.4625043173631032,-0.8187165061632792,0.1651991953452427,0.2966068089008331,-2.124340931574503,0.7199841141700745,-0.812788168589274
2.5,1.6887021398500728e+18,197.49807267252604,-1.6334377924601238,-5.3558370272318525,-2.4956204891204834,1.6887021398587313e+18,197.50673128255207,-4.082155466079712,-13.161720911661783,3.3262229760487876,1.6887021398500728e+18,197.49807267252604,-2.6216625372568765,-7.784989515940349,5.322266419728597,1.6887021398500728e+18,197.49807267252604,3.228524605433146,-0.6537785232067108,3.5203146934509277,1.6887021398500728e+18,197.49807267252604,3.2274046738942466,-0.649146149555842,3.52250345547994,,,,,,,,,,,,1.6887021398471864e+18,197.49518637695311,-20.017759323120117,40.91879806518555,-21.733079528808595,1.6887021398471864e+18,197.49518637695311,-274.5585510253906,136.38379516601563,-154.944873046875,1.6887021398500728e+18,197.49807267252604,0.548770030339559,-0.78468918800354,0.1312576880057652,0.2541053245464961,-2.024985988934835,0.9196683367093405,-0.9326103727022806
2.55,1.6887021399019827e+18,197.5499825032552,1.96342933177948,-6.672768274943034,3.455667018890381,1.688702139901986e+18,197.5499860839844,-0.132203459739685,-15.716657638549805,7.814958810806274,1.6887021399019827e+18,197.5499825032552,-1.772066871325175,-8.712525685628256,4.135288079579671,1.6887021399019827e+18,197.5499825032552,1.6859881083170574,-2.190664609273275,2.0503183205922446,1.6887021399019827e+18,197.5499825032552,1.6848681370417278,-2.186032215754191,2.052507201830546,,,,,,,,,,,,1.688702139897178e+18,197.54517817382813,-25.26131935119629,40.30147857666016,-18.409799575805664,1.688702139897178e+18,197.54517817382813,-279.80211181640624,135.7664764404297,-151.62159423828126,1.6887021399019827e+18,197.5499825032552,0.6169170538584391,-0.7564197381337484,0.1328267008066177,0.1704559524854023,-1.973716179529826,1.0940988858540852,-1.11295747756958
2.6,1.6887021399538844e+18,197.6018844401042,5.164173483848572,0.1698451042175293,6.113235314687093,1.688702139945229e+18,197.59322892252604,4.59003210067749,-10.690732796986898,9.90429178873698,1.6887021399538844e+18,197.6018844401042,-1.311792492866516,-9.104488054911297,3.398956855138143,1.6887021399538844e+18,197.6018844401042,1.9446894725163777,3.2424728075663247,-0.0121154909332593,1.6887021399538844e+18,197.6018844401042,1.943569540977478,3.2470542589823403,-0.0099774698416391,,,,,,,,,,,,1.6887021399471752e+18,197.59517504882817,-27.166959381103517,40.29659805297852,-15.730679702758788,1.6887021399471752e+18,197.59517504882817,-281.707763671875,135.7615997314453,-148.94248046875,1.6887021399538844e+18,197.6018844401042,0.6389122207959493,-0.7471380035082499,0.0859761225680509,0.158823937177658,-1.9344479242960613,1.189944863319397,-1.102262258529663
2.65,1.6887021400057948e+18,197.65379500325523,-2.3226285378138223,6.48521614074707,2.153355916341146,1.688702139997145e+18,197.64514518229169,-2.5738795399665833,-3.36690084139506,5.492724418640137,1.6887021400057948e+18,197.65379500325523,-0.9310753345489502,-9.40111287434896,2.633211135864258,1.6887021400057948e+18,197.65379500325523,1.8118263085683184,0.5480988423029581,0.4381940079232057,1.6887021400057948e+18,197.65379500325523,1.810706377029419,0.5528330355882645,0.4403320401906967,,,,,,,,,,,,1.688702139997181e+18,197.6451808105469,-28.64315910339355,41.53855972290039,-7.7884797096252445,1.688702139997181e+18,197.6451808105469,-283.1839660644531,137.00355834960936,-141.00028076171876,1.6887021400057948e+18,197.65379500325523,0.6517438888549805,-0.739347000916799,0.0156567914721866,0.1679462939500808,-1.9072455565134685,1.2820703585942588,-1.0162699222564695
2.7,1.6887021400577e+18,197.7057001139323,-3.377087116241455,8.196545918782553,0.7184224923451742,1.6887021400490437e+18,197.69704329427088,-4.196412722269694,-1.6241283814112346,3.1441689332326255,1.6887021400577e+18,197.7057001139323,-0.4520907402038574,-9.55252170562744,2.179808696111043,1.6887021400577e+18,197.7057001139323,0.4801909923553467,-0.3703370591004689,1.4375186761220295,1.6887021400577e+18,197.7057001139323,0.4790201634168624,-0.3657046506802241,1.4396566947301228,1.6887021400576973e+18,197.705697265625,0.0,0.0,1.103907585144043,4.9079999923706055,1.4824824333190918,124.10192108154295,43.400001525878906,-122.7555125,49.1895853,1.688702140047184e+18,197.6951840820313,-30.86599922180176,40.51619873046875,-4.272439861297608,1.688702140047184e+18,197.6951840820313,-285.40679321289065,135.98119506835937,-137.48423461914064,1.6887021400577e+18,197.7057001139323,0.6749257644017538,-0.7227930823961893,0.0062747681513427,0.1479995598395665,-1.7683205604553225,1.3412247896194458,-1.1711666981379192
2.75,1.6887021401095977e+18,197.75759773763016,-1.115718166033427,8.709943453470865,0.9436400731404624,1.6887021401009554e+18,197.74895556640624,-1.6677974065144856,-0.9862417380015056,3.209572712580363,1.6887021401095977e+18,197.75759773763016,-0.1224315514167149,-9.550664901733398,2.2367448012034097,1.6887021401095977e+18,197.75759773763016,-0.1653408631682395,-0.5716680486996969,0.3546072654426098,1.6887021401095977e+18,197.75759773763016,-0.1664607822895049,-0.5669847627480825,0.3567453076442082,,,,,,,,,,,,1.688702140097178e+18,197.7451783203125,-33.75251922607422,38.89847869873047,-3.9674399852752686,1.688702140097178e+18,197.7451783203125,-288.29331665039064,134.3634796142578,-137.17923889160156,1.6887021401095977e+18,197.75759773763016,0.6888785560925802,-0.7107956210772196,0.0206623009095588,0.1405767202377319,-1.6205484867095947,1.340152144432068,-1.350118597348531
2.8,1.6887021401528517e+18,197.80085131835935,-0.712467223405838,8.34630537033081,-0.0287630558013916,1.6887021401528586e+18,197.8008586425781,-1.1992029349009197,-1.3742777903874714,2.5439693133036294,1.6887021401528517e+18,197.80085131835935,-0.3073374405503272,-9.502480506896974,2.4157278537750244,1.6887021401528517e+18,197.80085131835935,-0.4234823286533355,-1.050077348947525,-0.5155702531337738,1.6887021401528517e+18,197.80085131835935,-0.4246277064085006,-1.0454195141792295,-0.5134322345256805,,,,,,,,,,,,1.6887021401471862e+18,197.79518603515623,-33.52559928894043,38.66179885864258,-5.6729999542236325,1.6887021401471862e+18,197.79518603515623,-288.06639404296874,134.12679748535157,-138.88479614257812,1.6887021401528517e+18,197.80085131835935,0.6831438541412354,-0.7166247665882111,0.0389666445553302,0.1349268034100532,-1.6919572949409485,1.3196181058883667,-1.3127458691596985
2.85,1.6887021401961142e+18,197.84411401367188,16.138911803563435,-7.779715855916341,-1.1108662287394206,1.6887021402047598e+18,197.8527595214844,20.28535334269206,-21.424935181935627,2.5998018185297647,1.6887021401961142e+18,197.84411401367188,-1.0984897017478945,-9.32701555887858,2.8148794968922934,1.6887021401961142e+18,197.84411401367188,-1.9850574731826784,-6.784778436024983,0.2159408728281656,1.6887021401961142e+18,197.84411401367188,-1.9861774841944375,-6.780196984608968,0.2180788516998291,,,,,,,,,,,,1.6887021401971814e+18,197.84518144531248,-29.94123954772949,39.264479064941405,-13.424879837036134,1.6887021401971814e+18,197.84518144531248,-284.48203735351564,134.72947387695314,-146.63667907714844,1.6887021401961142e+18,197.84411401367188,0.6602801283200582,-0.7333365877469381,0.1229017550746599,0.0856687389314174,-1.9333523511886597,1.2565325498580933,-1.2618982394536336
2.9,1.6887021402480136e+18,197.89601342773437,10.202600161234535,-11.565411249796549,1.8407288392384848,1.6887021402566646e+18,197.9046647135417,4.875376025835673,-17.807984352111816,5.123432159423828,1.6887021402480136e+18,197.89601342773437,-1.3853115638097129,-9.138331413269045,3.2856191794077554,1.6887021402480136e+18,197.89601342773437,-0.7850127558534344,-1.097012201944987,-0.2449569503466288,1.6887021402480136e+18,197.89601342773437,-0.7861835913111767,-1.0922779440879822,-0.2428189317385355,,,,,,,,,,,,1.6887021402471798e+18,197.89517978515624,-26.67895927429199,36.56827926635742,-23.46303939819336,1.6887021402471798e+18,197.89517978515624,-281.2197570800781,132.0332763671875,-156.67483520507812,1.6887021402480136e+18,197.89601342773437,0.6551198561986288,-0.7194567918777466,0.2292110621929168,0.0245688452074924,-1.9664958318074544,1.1983339389165242,-1.4706839323043823
2.95,1.688702140299917e+18,197.9479169921875,-1.4684901237487793,-2.9048055013020835,3.2065234978993735,1.6887021403085688e+18,197.95656884765623,-2.7116662661234536,-11.38066323598226,6.697311242421468,1.688702140299917e+18,197.9479169921875,-1.4260910352071126,-9.091254870096842,3.397791306177775,1.688702140299917e+18,197.9479169921875,0.1447750652829805,1.9678005774815877,-0.2763656172901391,1.688702140299917e+18,197.9479169921875,0.1436551411946614,1.9724838733673096,-0.2742275903001427,,,,,,,,,,,,1.6887021402971776e+18,197.94517778320315,-27.12303924560547,37.16851959228516,-22.36015968322754,1.6887021402971776e+18,197.94517778320315,-281.66383666992186,132.63351745605468,-155.57195739746095,1.688702140299917e+18,197.9479169921875,0.6518665154774984,-0.727195163567861,0.2081949611504872,0.0520052164793014,-1.9653576612472536,1.1853147347768147,-1.4017922480901082
3.0,1.688702140351819e+18,197.9998191731771,0.0506742099920908,4.158212343851726,0.4620368480682373,1.6887021403518126e+18,197.99981262207032,-0.8117650747299194,-4.567300319671631,3.757628917694092,1.688702140351819e+18,197.9998191731771,-1.017039140065511,-9.11399014790853,3.481060345967611,1.688702140351819e+18,197.9998191731771,0.2008219510316848,2.2707897822062173,0.1680897499124208,1.688702140351819e+18,197.9998191731771,0.1996511220932006,2.2754730383555093,0.1702277809381484,,,,,,,,,,,,1.6887021403471782e+18,197.9951783203125,-29.36295967102051,37.29783935546875,-19.546839904785156,1.6887021403471782e+18,197.9951783203125,-283.903759765625,132.76283569335936,-152.75863647460938,1.688702140351819e+18,197.9998191731771,0.6635008653004965,-0.7229834993680319,0.1689508954683939,0.0908375307917594,-1.8520179589589436,1.1915371020634968,-1.402142842610677
3.05,1.6887021404037222e+18,198.05172224934896,-0.8165222406387329,2.605096181233724,1.1738407611846924,1.6887021403950715e+18,198.04307185872395,-1.4205390413602192,-5.62672233581543,4.318446715672811,1.6887021404037222e+18,198.05172224934896,-0.697799026966095,-9.098262468973797,3.599964698155721,1.6887021404037222e+18,198.05172224934896,-0.4088724752267201,1.4971289038658142,-0.4087706661472718,1.6887021404037222e+18,198.05172224934896,-0.4100432942310969,1.5017613172531128,-0.4065817321340243,,,,,,,,,,,,1.6887021403971768e+18,198.04517690429688,-31.32959899902344,37.341758728027344,-16.023479843139647,1.6887021403971768e+18,198.04517690429688,-285.8703918457031,132.80675354003907,-149.2352783203125,1.6887021404037222e+18,198.05172224934896,0.6692794760068258,-0.7189286947250366,0.1349568317333856,0.129887580871582,-1.7595596710840862,1.1873647371927898,-1.3893184264500935
3.1,1.6887021404556275e+18,198.10362744140625,0.1846194465955098,0.4243321418762207,0.9192026456197104,1.688702140446979e+18,198.09497941080727,-0.9212367137273152,-8.956733862559,5.505685488382976,1.6887021404556275e+18,198.10362744140625,-1.0367270708084106,-8.890979131062826,4.009538014729817,1.6887021404556275e+18,198.10362744140625,-0.7443901896476746,-0.181936040520668,-1.1042916576067607,1.6887021404556275e+18,198.10362744140625,-0.7455101211865743,-0.1772527396678924,-1.1021536389986677,,,,,,,,,,,,1.688702140447176e+18,198.09517592773437,-30.621999740600582,37.76387939453125,-16.001519775390626,1.688702140447176e+18,198.09517592773437,-285.16279296875,133.2288787841797,-149.21331787109375,1.6887021404556275e+18,198.10362744140625,0.6507199803988138,-0.7298562328020731,0.1401199946800867,0.1553924481074015,-1.820436716079712,1.134463628133138,-1.2990342775980632
3.15,1.6887021405075323e+18,198.15553247070315,0.6044934789339701,4.212658087412517,-2.1298665205637612,1.6887021404988808e+18,198.146880859375,-0.9148558576901754,-4.778067906697591,2.455235401789347,1.6887021405075323e+18,198.15553247070315,-1.7076480786005657,-8.683690071105957,4.227299690246582,1.6887021405075323e+18,198.15553247070315,-0.5779803196589152,-0.6946555972099304,-1.2060516277949016,1.6887021405075323e+18,198.15553247070315,-0.5791002313296,-0.6899723013242086,-1.2039136091868083,,,,,,,,,,,,1.688702140497176e+18,198.14517602539064,-27.916039276123048,38.722799682617186,-17.49724006652832,1.688702140497176e+18,198.14517602539064,-282.4568359375,134.18779907226562,-150.70903930664062,1.6887021405075323e+18,198.15553247070315,0.6230692466100057,-0.7499214212099711,0.1553419431050618,0.158606062332789,-1.951545238494873,1.0869906743367512,-1.18530535697937
3.2,1.688702140559448e+18,198.2074479980469,1.0337433417638142,0.6882112820943197,-2.155409495035807,1.688702140550794e+18,198.1987937825521,-1.3403794765472412,-6.93459955851237,2.2047866582870483,1.688702140559448e+18,198.2074479980469,-2.446967919667562,-8.376991271972656,4.472783088684082,1.688702140559448e+18,198.2074479980469,-0.8296568195025126,-0.4657847384611766,-1.607695500055949,1.688702140559448e+18,198.2074479980469,-0.8307767510414124,-0.4611523548762004,-1.6055574814478557,1.6887021405767488e+18,198.22474877929687,0.0,0.0,1.103907585144043,4.692999839782715,1.475032925605774,123.6435317993164,43.400001525878906,-122.7554995,49.1895792,1.6887021405471828e+18,198.19518291015623,-24.995359420776367,39.86227874755859,-19.754239654541017,1.6887021405471828e+18,198.19518291015623,-279.5361572265625,135.32727661132813,-152.9660400390625,1.688702140559448e+18,198.2074479980469,0.5906367301940918,-0.7709143360455831,0.1728900521993637,0.1636086106300353,-2.068307399749756,1.0238601764043171,-1.0869237184524536
3.25,1.6887021406027013e+18,198.2507014160156,1.3868083357810974,-2.1224920749664307,-2.0082759857177734,1.688702140602701e+18,198.25070100911455,-1.8019948403040569,-10.073185284932457,2.810769001642863,1.6887021406027013e+18,198.2507014160156,-3.235725998878479,-7.969380140304565,4.71288800239563,1.6887021406027013e+18,198.2507014160156,-0.9937250018119812,-0.791146844625473,-2.1071033477783203,1.6887021406027013e+18,198.2507014160156,-0.9949467778205872,-0.786565363407135,-2.104888916015625,,,,,,,,,,,,1.688702140597186e+18,198.2451861816406,-20.764399337768555,40.57231903076172,-22.27719917297363,1.688702140597186e+18,198.2451861816406,-275.3052001953125,136.03731994628907,-155.48899841308594,1.6887021406027013e+18,198.2507014160156,0.5530374944210052,-0.7931226491928101,0.1881306916475295,0.1720433831214904,-2.1701656579971313,0.9485063850879668,-0.9953379929065704
3.3,1.688702140645955e+18,198.2939553222656,2.408809026082357,-4.477932612101237,-1.264317274093628,1.688702140654603e+18,198.30260278320313,-2.2679970264434814,-12.844472567240397,3.9156548976898193,1.688702140645955e+18,198.2939553222656,-4.159620920817058,-7.404268900553386,4.896148045857747,1.688702140645955e+18,198.2939553222656,-1.4167491992314656,-1.689195156097412,-1.8898643652598064,1.688702140645955e+18,198.2939553222656,-1.4178691705067952,-1.6845627625783284,-1.8877263069152832,,,,,,,,,,,,1.6887021406471798e+18,198.2951798828125,-13.893359565734864,40.689439392089845,-25.942079162597658,1.6887021406471798e+18,198.2951798828125,-268.4341552734375,136.15443725585936,-159.15387573242188,1.688702140645955e+18,198.2939553222656,0.5086929102738699,-0.8151377439498901,0.2166789323091506,0.1715088635683059,-2.2723507086435952,0.8560125231742859,-0.937592069307963
3.35,1.6887021406978532e+18,198.3458532714844,27.930755774180096,-12.023175557454428,0.8811736106872559,1.6887021407065108e+18,198.35451066080728,13.473386764526367,-17.931413650512695,6.228517214457194,1.6887021406978532e+18,198.3458532714844,-6.020738919576009,-6.0873457590738935,4.729122797648112,1.6887021406978532e+18,198.3458532714844,-0.5621996521949768,0.8017606337865194,-4.358879963556926,1.6887021406978532e+18,198.3458532714844,-0.5633195439974467,0.8063930074373881,-4.356691002845764,,,,,,,,,,,,1.6887021406971835e+18,198.34518359375,-1.212679934501648,39.65243835449219,-29.802159118652344,1.6887021406971835e+18,198.34518359375,-255.75347595214845,135.1174346923828,-163.01395568847656,1.6887021406978532e+18,198.3458532714844,0.4083661238352458,-0.8595729470252991,0.2594236234823863,0.1574858576059341,-2.4741549491882324,0.6709311604499817,-0.8274279236793518
3.4,1.6887021407497656e+18,198.39776554361976,-4.37019697825114,-7.089337189992269,-4.736299196879069,1.688702140758416e+18,198.4064158528646,-8.32044251759847,-12.848660151163736,0.5443671445051829,1.6887021407497656e+18,198.39776554361976,-4.445224444071452,-6.054081439971924,6.294549624125163,1.6887021407497656e+18,198.39776554361976,0.941394234697024,4.863301853338878,0.7501934369405111,1.6887021407497656e+18,198.39776554361976,0.9401725133260088,4.867934187253316,0.7524332602818807,,,,,,,,,,,,1.688702140747179e+18,198.39517910156252,-9.201239776611327,40.58939895629883,-27.571999740600585,1.688702140747179e+18,198.39517910156252,-263.7420349121094,136.0543975830078,-160.78379516601564,1.6887021407497656e+18,198.39776554361976,0.4314696788787842,-0.834010104338328,0.1739870607852935,0.2952834765116373,-2.183889468510946,0.6654679179191589,-0.7668046156565348
3.45,1.6887021408016668e+18,198.44966674804687,7.9732612768809,-6.87258243560791,-6.106661478678386,1.68870214080167e+18,198.4496701660156,2.778665304183961,-12.635000705718994,-0.50907301902771,1.6887021408016668e+18,198.44966674804687,-4.0357357660929365,-6.510317802429199,6.124133586883545,1.6887021408016668e+18,198.44966674804687,0.2477058523024121,-2.1316651900609336,1.9168442090352376,1.6887021408016668e+18,198.44966674804687,0.2465350298831859,-2.126981894175211,1.9190840323766072,,,,,,,,,,,,1.688702140797184e+18,198.4451840820313,-12.927119827270507,40.38687896728515,-26.73507957458496,1.688702140797184e+18,198.4451840820313,-267.46791381835936,135.85187683105468,-159.946875,1.6887021408016668e+18,198.44966674804687,0.4666412969430287,-0.8194746573766073,0.1833799183368682,0.2765642503897348,-2.1526407400767007,0.72604767481486,-0.8440798918406168
3.5,1.688702140853575e+18,198.50157470703127,1.3623765309651692,-6.857478936513265,-1.6138500372568767,1.688702140844924e+18,198.492923828125,2.0995024840037027,-14.660425504048666,3.3930225372314453,1.688702140853575e+18,198.50157470703127,-3.0870668093363443,-7.553537527720134,5.398422718048096,1.688702140853575e+18,198.50157470703127,3.3037628332773843,1.570381800333659,2.870761235555013,1.688702140853575e+18,198.50157470703127,3.3026429812113443,1.5750142137209575,2.8728992144266763,,,,,,,,,,,,1.6887021408471798e+18,198.49517978515624,-16.916519927978516,40.6845588684082,-24.07547950744629,1.6887021408471798e+18,198.49517978515624,-271.4573181152344,136.1495574951172,-157.2872741699219,1.688702140853575e+18,198.50157470703127,0.5309633016586304,-0.7959607442220052,0.1511134207248687,0.2456649988889694,-2.0858065287272134,0.8817953864733378,-0.913712739944458
3.55,1.688702140905476e+18,198.553476155599,1.6362152099609375,-5.585327784220378,3.0588974952697754,1.688702140896824e+18,198.5448239746094,-1.5014961858590443,-13.932409286499023,6.237091541290283,1.688702140905476e+18,198.553476155599,-2.049439271291097,-8.654801368713379,4.126474221547444,1.688702140905476e+18,198.553476155599,2.1124229033788047,-0.9761626521746316,1.7411186695098877,1.688702140905476e+18,198.553476155599,2.1112521489461265,-0.9714284539222716,1.743307630221049,,,,,,,,,,,,1.6887021408971853e+18,198.5451853027344,-23.499639892578124,41.72155914306641,-17.219079399108885,1.6887021408971853e+18,198.5451853027344,-278.0404296875,137.18655700683593,-150.43087463378907,1.688702140905476e+18,198.553476155599,0.5997926592826843,-0.7696754932403564,0.1078960920373598,0.189368799328804,-2.0299225648244223,1.081644892692566,-0.9927525122960408
3.6,1.6887021409573814e+18,198.60538134765625,4.46241295337677,-1.5030028025309246,7.024765650431315,1.6887021409487352e+18,198.59673518880209,3.5547375281651816,-12.157134056091309,11.0055882136027,1.6887021409573814e+18,198.60538134765625,-1.4401421149571736,-9.060554504394531,3.4595104853312173,1.6887021409573814e+18,198.60538134765625,1.6880243221918745,1.7432057460149128,0.9592620531717936,1.6887021409573814e+18,198.60538134765625,1.686904350916545,1.7478891015052795,0.9614001115163168,,,,,,,,,,,,1.688702140947184e+18,198.59518398437496,-25.441879272460938,41.553199768066406,-13.73475971221924,1.688702140947184e+18,198.59518398437496,-279.98267822265626,137.01819763183593,-146.9465576171875,1.6887021409573814e+18,198.60538134765625,0.6302462617556254,-0.7530713677406311,0.0744751306871572,0.172272448738416,-1.960187276204427,1.1783006191253662,-1.040330171585083
3.65,1.688702141009286e+18,198.65728597005207,-1.717231571674347,6.241909503936768,2.123832861582438,1.6887021410006392e+18,198.6486389160156,-1.8610178430875144,-3.84207550684611,5.645864963531494,1.688702141009286e+18,198.65728597005207,-0.7681768735249838,-9.372761408487955,2.783970594406128,1.688702141009286e+18,198.65728597005207,1.5509868462880452,1.1442015369733174,0.7492771148681641,1.688702141009286e+18,198.65728597005207,1.5498160521189372,1.1488847931226094,0.7514660557111105,,,,,,,,,,,,1.688702140997184e+18,198.64518408203125,-28.93595962524414,41.21403884887695,-7.934879875183105,1.688702140997184e+18,198.64518408203125,-283.47675170898435,136.67903747558594,-141.14667358398438,1.688702141009286e+18,198.65728597005207,0.6559547583262125,-0.7336353659629822,0.0198412782823045,0.1759141782919565,-1.8354598681132,1.2717766364415486,-1.0824610392252605
3.7,1.688702141052542e+18,198.7005421142578,-5.771861553192139,8.276010274887085,0.8878703117370605,1.68870214105254e+18,198.7005398763021,-5.369892756144206,-1.2662019928296406,3.2973095575968423,1.688702141052542e+18,198.7005421142578,-0.3640970140695572,-9.515635013580322,2.35422945022583,1.688702141052542e+18,198.7005421142578,0.9799805879592896,0.2071596905589104,1.213560163974762,1.688702141052542e+18,198.7005421142578,0.9789115488529204,0.2118938714265823,1.2157745957374573,,,,,,,,,,,,1.6887021410471795e+18,198.6951794921875,-30.98555908203125,40.494239044189456,-3.479439878463745,1.6887021410471795e+18,198.6951794921875,-285.52635498046874,135.95923767089843,-136.6912384033203,1.688702141052542e+18,198.7005421142578,0.6729556918144226,-0.7197883129119873,-0.0036401008255779,0.1702491044998168,-1.7193814516067505,1.3252791166305542,-1.173789381980896
3.75,1.688702141095794e+18,198.74379394531252,-2.212169607480367,9.196829160054524,0.3614919185638428,1.688702141104445e+18,198.75244490559896,-1.7136598030726116,-0.1339980692913134,2.465404987335205,1.688702141095794e+18,198.74379394531252,-0.0427302609508235,-9.574140548706056,2.1371378898620605,1.688702141095794e+18,198.74379394531252,0.453363835811615,-0.7169012626012167,0.7012733022371928,1.688702141095794e+18,198.74379394531252,0.4522438943386077,-0.7122179865837097,0.7034622256954511,1.6887021410957837e+18,198.74378369140624,0.0,0.0,0.9286594986915588,4.703999996185303,1.474532961845398,123.42316436767578,43.30000305175781,-122.7554955,49.1895774,1.688702141097183e+18,198.74518305664063,-33.40115966796875,39.13759918212891,-2.215519905090332,1.688702141097183e+18,198.74518305664063,-287.94195556640625,134.60259704589845,-135.4273193359375,1.688702141095794e+18,198.74379394531252,0.6890062689781189,-0.7083056966463724,0.0005314713829041,0.1534014642238616,-1.586197018623352,1.3508895635604858,-1.337455948193868
3.8,1.6887021411477023e+18,198.79570247395836,-1.081395983695984,9.235129038492838,-0.3959598938624064,1.6887021411563515e+18,198.8043515625,-1.6683955589930215,-0.7639086246490479,1.6297115882237752,1.6887021411477023e+18,198.79570247395836,-0.2442910994092623,-9.570167223612469,2.1386571725209556,1.6887021411477023e+18,198.79570247395836,-0.0428623755772908,-0.9666433334350586,-0.462984949350357,1.6887021411477023e+18,198.79570247395836,-0.0440331989278396,-0.9619091351826986,-0.4607960283756256,,,,,,,,,,,,1.688702141147182e+18,198.7951821777344,-33.09127960205078,39.04487991333008,-2.9353199005126953,1.688702141147182e+18,198.7951821777344,-287.632080078125,134.50987854003907,-136.1471160888672,1.6887021411477023e+18,198.79570247395836,0.6848761836687723,-0.7153027653694153,0.0155506997058788,0.1377293020486831,-1.6788936058680215,1.349112073580424,-1.2886252800623577
3.85,1.688702141199607e+18,198.8476072591146,16.22194488843282,-5.136804421742757,-0.4601649045944214,1.6887021412082586e+18,198.85625838216149,19.845671971638996,-19.30190356572469,2.710270414749781,1.688702141199607e+18,198.8476072591146,-1.0826194286346436,-9.41140111287435,2.5219051837921143,1.688702141199607e+18,198.8476072591146,-2.3101905584335327,-7.520667394002278,0.207745095094045,1.688702141199607e+18,198.8476072591146,-2.3113104899724326,-7.515933275222778,0.2099340260028839,,,,,,,,,,,,1.6887021411971845e+18,198.8451847167969,-30.453639602661134,39.57435913085938,-9.306159687042236,1.6887021411971845e+18,198.8451847167969,-284.99443969726565,135.03935852050782,-142.51795654296876,1.688702141199607e+18,198.8476072591146,0.6619034012158712,-0.7339209914207458,0.1118882459898789,0.0750009647260109,-1.965442379315694,1.2861745754877727,-1.229285677274068
3.9,1.6887021412515077e+18,198.89950748697916,10.811229387919107,-17.401821772257488,5.496277888615926,1.6887021412515123e+18,198.89951220703125,8.92492938041687,-27.308687210083008,8.938089609146118,1.6887021412515077e+18,198.89950748697916,-1.5235512256622314,-9.11169465382894,3.2964720726013184,1.6887021412515077e+18,198.89950748697916,-0.830878516038259,0.2603813409805298,-1.1098912343926106,1.6887021412515077e+18,198.89950748697916,-0.8319475452105204,0.2650137543678283,-1.1077532125248883,,,,,,,,,,,,1.6887021412471795e+18,198.89517958984376,-26.46667938232422,37.21731948852539,-21.8770393371582,1.6887021412471795e+18,198.89517958984376,-281.0074768066406,132.68231811523438,-155.08883666992188,1.6887021412515077e+18,198.89950748697916,0.6491506695747375,-0.727151075998942,0.2200337251027425,0.0349622492988903,-2.000320076942444,1.1911205053329468,-1.4085935751597087
3.95,1.688702141303417e+18,198.9514171549479,-1.5263630151748655,-1.1901720364888508,3.94383160273234,1.6887021412947628e+18,198.94276277669272,-2.7461628119150796,-13.089736938476562,8.456235408782959,1.688702141303417e+18,198.9514171549479,-1.6830737193425496,-9.079467137654625,3.310931921005249,1.688702141303417e+18,198.9514171549479,0.6973536014556885,3.696701924006144,-1.0282898445924122,1.688702141303417e+18,198.9514171549479,0.6961318651835123,3.701385259628296,-1.026100883881251,,,,,,,,,,,,1.688702141297182e+18,198.94518203125,-26.3153995513916,39.388919067382815,-18.800199508666992,1.688702141297182e+18,198.94518203125,-280.8561950683594,134.85391540527343,-152.01199951171876,1.688702141303417e+18,198.9514171549479,0.6371705929438273,-0.7482999563217163,0.158051495750745,0.0912227978308995,-2.03839381535848,1.1823575894037883,-1.1996033191680908
4.0,1.688702141355322e+18,199.00332210286456,-0.6394355297088623,8.064324378967285,-1.6502471764882405,1.6887021413466714e+18,198.99467138671875,-1.9272192319234211,-1.5443676312764485,2.035494407018026,1.688702141355322e+18,199.00332210286456,-1.274885932604472,-9.148714701334637,3.300023158391317,1.688702141355322e+18,199.00332210286456,0.6276640295982361,2.442697445551554,0.2926044488946597,1.688702141355322e+18,199.00332210286456,0.6265441179275513,2.44727889696757,0.2947933872540791,,,,,,,,,,,,1.688702141347182e+18,198.99518198242183,-29.09699935913086,40.09651947021485,-13.146719932556152,1.688702141347182e+18,198.99518198242183,-283.63779296875,135.56151733398437,-146.3585174560547,1.688702141355322e+18,199.00332210286456,0.6444899241129557,-0.7448115944862366,0.0977893049518267,0.141573096315066,-1.935769279797872,1.201602300008138,-1.1428409814834597
4.05,1.6887021414072207e+18,199.0552206217448,-0.8462217648824056,3.1360408465067544,1.2011548678080242,1.688702141398576e+18,199.0465759277344,-2.054238239924113,-4.379862427711487,3.742374539375305,1.6887021414072207e+18,199.0552206217448,-0.9245303273200988,-9.131500244140629,3.4575955867767334,1.6887021414072207e+18,199.0552206217448,-1.022384797533353,0.5952372880031666,0.2206241662303606,1.6887021414072207e+18,199.0552206217448,-1.02355561653773,0.5998187518368164,0.2227621873219807,,,,,,,,,,,,1.688702141397182e+18,199.04518193359377,-30.49511947631836,39.8378791809082,-10.147959899902345,1.688702141397182e+18,199.04518193359377,-285.0359191894531,135.3028778076172,-143.35975646972656,1.6887021414072207e+18,199.0552206217448,0.6514590779940287,-0.7350707848866781,0.0788444429636001,0.1701273918151855,-1.830087661743164,1.197099248568217,-1.1800175110499065
4.1,1.6887021414591283e+18,199.10712833658857,0.0771304965019226,-1.8211867014567056,2.065976540247599,1.688702141450484e+18,199.09848413085936,-1.065803070863088,-11.383255322774252,6.9481587409973145,1.6887021414591283e+18,199.10712833658857,-1.0415013829867046,-8.834892590840658,4.132954279581706,1.6887021414591283e+18,199.10712833658857,-0.8818857856094837,-0.8846855958302816,-0.2661845237016677,1.6887021414591283e+18,199.10712833658857,-0.8830057385688027,-0.8800022999445597,-0.2640465050935744,,,,,,,,,,,,1.6887021414471872e+18,199.0951873046875,-30.741558837890626,39.00583953857422,-13.039359664916992,1.6887021414471872e+18,199.0951873046875,-285.28236083984376,134.47084045410156,-146.25115661621095,1.6887021414591283e+18,199.10712833658857,0.641727864742279,-0.734740138053894,0.1125284632047017,0.1886970649162927,-1.81481675306956,1.121132453282674,-1.2162289222081502
4.15,1.6887021415023862e+18,199.15038598632816,0.6626463234424591,4.409769058227539,-1.826174259185791,1.688702141502386e+18,199.1503859049479,-0.6037889222304026,-4.894718011220296,2.590429941813151,1.6887021415023862e+18,199.15038598632816,-1.4123610854148865,-8.750192642211914,4.202969551086426,1.6887021415023862e+18,199.15038598632816,-0.5062545537948608,-1.1565970182418823,-0.5975789278745651,1.6887021415023862e+18,199.15038598632816,-0.5073999539017677,-1.15193909406662,-0.5953645557165146,,,,,,,,,,,,1.688702141497182e+18,199.1451819824219,-29.038439559936524,39.20103912353515,-15.330519485473634,1.688702141497182e+18,199.1451819824219,-283.5792236328125,134.6660369873047,-148.5423156738281,1.6887021415023862e+18,199.15038598632816,0.6303512752056122,-0.7443795204162598,0.1317139044404029,0.1765418872237205,-1.8923245072364807,1.1016589403152466,-1.1840826869010923
4.2,1.6887021415456366e+18,199.1936363932292,0.9663729667663574,1.502298355102539,-2.0378339290618896,1.6887021415542884e+18,199.20228833007812,-1.228714406490326,-7.6269229253133135,2.6452654202779136,1.6887021415456366e+18,199.1936363932292,-2.0202753146489463,-8.463859875996908,4.520112832387288,1.6887021415456366e+18,199.1936363932292,-1.1063278913497925,-0.641561230023702,-1.6085608800252278,1.6887021415456366e+18,199.1936363932292,-1.1074477831522624,-0.6368779142697653,-1.6063719590504963,,,,,,,,,,,,1.6887021415471877e+18,199.1951875,-26.334919738769532,39.701239013671874,-18.026719665527345,1.6887021415471877e+18,199.1951875,-280.8757080078125,135.1662353515625,-151.23851623535157,1.6887021415456366e+18,199.1936363932292,0.6037674148877462,-0.7607805132865906,0.1536355266968408,0.1812452524900436,-1.9875177542368572,1.041232148806254,-1.113626758257548
4.25,1.68870214159754e+18,199.24554012044268,1.502366026242574,-1.9173982938130696,-1.928581714630127,1.688702141606196e+18,199.25419580078128,-1.5242279767990112,-10.295318921407064,3.0139595667521157,1.68870214159754e+18,199.24554012044268,-3.0444041887919107,-7.97696574529012,4.818039258321126,1.68870214159754e+18,199.24554012044268,-1.0936015248298645,-1.2379184365272522,-1.9571104447046916,1.68870214159754e+18,199.24554012044268,-1.0947723189989726,-1.2333369255065918,-1.9549723863601685,1.6887021416148342e+18,199.26283422851563,0.0,0.0,0.9294073581695556,4.638000011444092,1.4695838689804075,123.05684661865234,43.30000305175781,-122.7554811,49.1895708,1.6887021415971804e+18,199.24518032226564,-21.21579933166504,40.58939971923828,-21.518359756469728,1.6887021415971804e+18,199.24518032226564,-275.756591796875,136.05439453125,-154.73015747070312,1.68870214159754e+18,199.24554012044268,0.5574081540107727,-0.7890859444936117,0.1786118547121683,0.1854972789684931,-2.1309980551401773,0.9501720070838928,-1.0004276831944785
4.3,1.688702141649453e+18,199.2974529622396,2.7609315713246665,-5.52877680460612,-1.7231484254201253,1.6887021416581007e+18,199.3061007486979,-0.5561318397521972,-13.573884646097818,3.4999019304911294,1.688702141649453e+18,199.2974529622396,-4.308552980422974,-7.235778172810872,5.004231293996175,1.688702141649453e+18,199.2974529622396,-1.771560112635295,-3.113325595855713,-2.4696263869603476,1.688702141649453e+18,199.2974529622396,-1.7727818489074707,-3.108693281809489,-2.4674373865127563,,,,,,,,,,,,1.6887021416471785e+18,199.29517871093748,-15.084079933166503,40.611359405517575,-25.502879333496093,1.6887021416471785e+18,199.29517871093748,-269.6248779296875,136.07635803222655,-158.7146759033203,1.688702141649453e+18,199.2974529622396,0.4998587469259898,-0.8170352379480997,0.226308599114418,0.1746069590250651,-2.2778674761454263,0.8305228352546692,-0.9425204992294312
4.35,1.6887021417013555e+18,199.34935538736977,19.959491570790608,-12.08931573232015,1.2674082914988198,1.688702141701355e+18,199.34935510253905,29.740094423294067,-18.48156356811523,6.754638910293579,1.6887021417013555e+18,199.34935538736977,-5.998033364613851,-5.612829526265462,5.276288191477458,1.6887021417013555e+18,199.34935538736977,-0.0042760620514551,4.6301547686258955,-4.483496387799581,1.6887021417013555e+18,199.34935538736977,-0.0053959786891937,4.634838422139485,-4.481358289718628,,,,,,,,,,,,1.6887021416971855e+18,199.34518564453128,-2.0129998683929444,39.371839141845705,-30.463399505615236,1.6887021416971855e+18,199.34518564453128,-256.5537902832031,134.8368347167969,-163.67519836425782,1.6887021417013555e+18,199.34935538736977,0.3877894580364227,-0.8617239197095236,0.2484357555707295,0.2007653762896855,-2.4212332566579184,0.6100286444028219,-0.7953280409177145
4.4,1.6887021417532598e+18,199.4012596028646,-5.155413309733073,-6.7152072588602705,-6.740105946858724,1.6887021417445937e+18,199.3925935058594,-10.208778699239096,-12.954143524169922,1.5399808138608932,1.6887021417532598e+18,199.4012596028646,-4.072969357172648,-5.785539309183757,6.792074521382649,1.6887021417532598e+18,199.4012596028646,1.1157962481180828,2.8590529362360635,0.5429573878645897,1.6887021417532598e+18,199.4012596028646,1.114727218945821,2.863736351331075,0.5450954114397367,,,,,,,,,,,,1.688702141747182e+18,199.3951819824219,-9.189039802551267,40.76751937866211,-27.30603942871094,1.688702141747182e+18,199.3951819824219,-263.729833984375,136.23251647949218,-160.51783447265626,1.6887021417532598e+18,199.4012596028646,0.4167382717132568,-0.8282126784324646,0.1453816244999567,0.3450655738512675,-2.109738747278849,0.6311889092127482,-0.7138291994730631
4.45,1.6887021418051612e+18,199.4531612141927,9.959810098012287,-8.100849628448486,-6.215634346008301,1.6887021417965138e+18,199.4445139160156,5.525027434031169,-14.46321709950765,-0.296510636806488,1.6887021418051612e+18,199.4531612141927,-3.716999133427938,-6.472679138183594,6.351750532786052,1.6887021418051612e+18,199.4531612141927,1.442405526836713,-0.6816237966219584,2.477974812189738,1.6887021418051612e+18,199.4531612141927,1.4411838452021282,-0.6769404858350754,2.4801129500071206,,,,,,,,,,,,1.688702141797184e+18,199.4451840820313,-13.227239608764648,41.084719848632815,-25.524839401245117,1.688702141797184e+18,199.4451840820313,-267.7680419921875,136.54971618652343,-158.73663330078125,1.6887021418051612e+18,199.4531612141927,0.4625980257987976,-0.8159492413202921,0.1521898756424585,0.310718943675359,-2.09845765431722,0.7215828696886698,-0.7963546713193258
4.5,1.6887021418570703e+18,199.5050704752604,-0.4151928424835205,-5.223636309305827,-1.3166842460632324,1.688702141848417e+18,199.49641691080728,-2.944368282953898,-13.11705462137858,3.4131622314453125,1.6887021418570703e+18,199.5050704752604,-2.6209636529286704,-7.888675689697266,5.172842184702556,1.6887021418570703e+18,199.5050704752604,3.148653984069824,-0.9620618373155594,3.411987860997518,1.6887021418570703e+18,199.5050704752604,3.1474831899007163,-0.957378551363945,3.414176861445109,,,,,,,,,,,,1.6887021418471816e+18,199.4951815917969,-18.858759689331055,41.870399475097656,-20.359359741210938,1.6887021418471816e+18,199.4951815917969,-273.39954833984376,137.335400390625,-153.57115783691407,1.6887021418570703e+18,199.5050704752604,0.5483154455820719,-0.7873468995094299,0.1145532329877217,0.2551950464646021,-2.0367189248402915,0.9369834462801616,-0.8948014974594116
4.55,1.6887021419089705e+18,199.55697054036457,3.2712594270706177,-6.716988881429036,5.5181953112284345,1.6887021419003238e+18,199.54832381184897,0.2382852435111999,-15.45045566558838,8.837093035380045,1.6887021419089705e+18,199.55697054036457,-1.8097069660822551,-8.707387924194336,4.1307863394419355,1.6887021419089705e+18,199.55697054036457,1.5792393684387207,-0.9524916410446168,1.7659096121788025,1.6887021419089705e+18,199.55697054036457,1.5781194766362507,-0.94780832529068,1.7680476705233257,,,,,,,,,,,,1.6887021418971848e+18,199.54518471679688,-24.941679382324217,41.32627944946289,-16.589559173583986,1.6887021418971848e+18,199.54518471679688,-279.48247680664065,136.79127807617186,-149.80135803222657,1.6887021419089705e+18,199.55697054036457,0.6106155713399252,-0.7611526648203532,0.1115522682666778,0.1872981886068979,-1.981128414471944,1.0928966999053955,-1.0500952800114949
4.6,1.6887021419522284e+18,199.6002282714844,4.4976420402526855,0.8934643268585205,6.316051721572876,1.6887021419522266e+18,199.6002266438802,2.90129753947258,-8.572486718495687,9.721439997355144,1.6887021419522284e+18,199.6002282714844,-1.2842443585395813,-9.048346519470217,3.561942934989929,1.6887021419522284e+18,199.6002282714844,1.9230037927627563,3.018666982650757,0.1618029363453388,1.6887021419522284e+18,199.6002282714844,1.9219347834587095,3.023401260375977,0.1639409624040126,,,,,,,,,,,,1.688702141947184e+18,199.59518383789063,-27.56467971801758,41.11887817382812,-12.336640167236329,1.688702141947184e+18,199.59518383789063,-282.1054748535156,136.58387451171876,-145.5484405517578,1.6887021419522284e+18,199.6002282714844,0.6325383186340332,-0.7485976219177246,0.0665526818484067,0.186547465622425,-1.9139442443847656,1.17441725730896,-1.0543667078018188
4.65,1.6887021419954824e+18,199.64348258463545,-1.7338725328445437,6.314646402994792,2.01062289873759,1.6887021420041288e+18,199.6521288248698,-3.147159973780314,-2.50149667263031,4.421138683954875,1.6887021419954824e+18,199.64348258463545,-0.9040783842404684,-9.297342618306478,2.988506635030111,1.6887021419954824e+18,199.64348258463545,1.6716327667236328,1.1935798227787018,0.4101960211992264,1.6887021419954824e+18,199.64348258463545,1.6705127954483032,1.1982630888621013,0.4123340447743733,,,,,,,,,,,,1.6887021419971876e+18,199.64518764648437,-29.09943962097168,41.48243942260742,-5.616879940032959,1.6887021419971876e+18,199.64518764648437,-283.6402282714844,136.94743957519532,-138.82867736816405,1.6887021419954824e+18,199.64348258463545,0.6451501250267029,-0.7384815216064453,0.0128892476980884,0.1951934943596521,-1.861235936482747,1.246841231981913,-1.0183727343877156
4.7,1.6887021420473874e+18,199.69538745117188,-4.496880292892456,8.034667491912842,0.3418051401774089,1.6887021420560392e+18,199.7040390625,-4.901896556218465,-1.4412768284479778,2.8071796894073486,1.6887021420473874e+18,199.69538745117188,-0.484441727399826,-9.459436734517416,2.5490482648213706,1.6887021420473874e+18,199.69538745117188,0.5813909967740377,-0.0739656118676066,1.1844676931699116,1.6887021420473874e+18,199.69538745117188,0.5802710851033529,-0.0692313980932037,1.186656634012858,,,,,,,,,,,,1.688702142047184e+18,199.69518403320313,-31.022159576416016,40.669918823242185,-2.4009599447250367,1.688702142047184e+18,199.69518403320313,-285.5629638671875,136.13491516113282,-135.61275634765624,1.6887021420473874e+18,199.69538745117188,0.6642786661783854,-0.7239873210589091,-0.0066333365005751,0.1856297900279362,-1.7535895903905232,1.3027804692586262,-1.1127683718999226
4.75,1.688702142099295e+18,199.74729475911457,-1.385836919148763,8.559596061706543,0.0536386966705322,1.6887021421079432e+18,199.75594311523437,-1.6055839856465657,-0.9495517810185752,2.6847469806671143,1.688702142099295e+18,199.74729475911457,-0.2668692817290624,-9.476887702941896,2.5201656818389893,1.688702142099295e+18,199.74729475911457,-0.069282295803229,-0.748360832532247,0.2311106820901234,1.688702142099295e+18,199.74729475911457,-0.0704531222581863,-0.7436775167783102,0.2332487106323242,,,,,,,,,,,,1.6887021420971802e+18,199.74518037109377,-33.11811981201172,39.24007949829102,-2.732799959182739,1.6887021420971802e+18,199.74518037109377,-287.6589111328125,134.7050750732422,-135.94459533691406,1.688702142099295e+18,199.74729475911457,0.676184892654419,-0.7162520885467529,0.0076652710558846,0.172238623102506,-1.6722124814987185,1.309390902519226,-1.234093427658081
4.8,1.6887021421511936e+18,199.79919368489584,-1.2777178486188252,7.59621016184489,-0.699992855389913,1.688702142151197e+18,199.79919689941408,-1.615155279636383,-1.4524433612823486,2.090130567550659,1.6887021421511936e+18,199.79919368489584,-0.602705329656601,-9.393661499023438,2.7545546690622964,1.6887021421511936e+18,199.79919368489584,-0.7227044999599457,-1.4606806635856628,-0.7020368774731954,1.6887021421511936e+18,199.79919368489584,-0.7239261964956919,-1.455997308095296,-0.6998988389968872,1.6887021421338954e+18,199.7818955078125,0.0,0.0,0.9389912486076356,4.665999889373779,1.4701991081237793,122.93373107910156,43.30000305175781,-122.7554763,49.1895688,1.688702142147182e+18,199.79518212890625,-32.154319763183594,39.46211929321289,-4.3968799114227295,1.688702142147182e+18,199.79518212890625,-286.6951110839844,134.92711486816407,-137.60867614746093,1.6887021421511936e+18,199.79919368489584,0.6652843952178955,-0.7273668448130289,0.0311930142343044,0.1647774179776509,-1.7798182169596355,1.2787654399871826,-1.1705420811971028
4.85,1.6887021422030991e+18,199.85109928385415,23.111070950826008,-15.03372891743978,1.4686919053395588,1.6887021421944456e+18,199.84244571940107,19.288543065388996,-19.806589603424072,3.959124525388082,1.6887021422030991e+18,199.85109928385415,-1.6586829821268718,-9.101918856302897,3.256459395090739,1.6887021422030991e+18,199.85109928385415,-2.426305890083313,-7.446141958236694,0.7897469600041708,1.6887021422030991e+18,199.85109928385415,-2.427476723988851,-7.441407521565755,0.7918849388758341,,,,,,,,,,,,1.688702142197184e+18,199.8451841796875,-27.984359741210938,39.65243911743164,-14.3862398147583,1.688702142197184e+18,199.8451841796875,-282.5251525878906,135.11743774414063,-147.59803771972656,1.6887021422030991e+18,199.85109928385415,0.6395111282666525,-0.7437716722488403,0.1693003003795941,0.0776482112705707,-2.038956562678019,1.1888285477956135,-1.235116481781006
4.9,1.6887021422550065e+18,199.90300659179687,2.42837413152059,-11.425375938415527,4.9607283274332685,1.6887021422463532e+18,199.89435310872395,4.008376598358154,-22.397218704223633,7.851848125457764,1.6887021422550065e+18,199.90300659179687,-1.6244488954544067,-9.013360659281412,3.513975779215494,1.6887021422550065e+18,199.90300659179687,0.1421279824959735,2.068135142326355,-0.3525710602601369,1.6887021422550065e+18,199.90300659179687,0.1410080649269124,2.072818453113238,-0.3504330317179361,,,,,,,,,,,,1.688702142247184e+18,199.89518408203125,-26.073839569091795,37.224639129638675,-22.108839416503905,1.688702142247184e+18,199.89518408203125,-280.6146301269531,132.68963623046875,-155.3206359863281,1.6887021422550065e+18,199.90300659179687,0.64288330078125,-0.7347438534100851,0.2057856072982151,0.0641183095673719,-2.0013295809427896,1.164803942044576,-1.3452129364013672
4.95,1.688702142306912e+18,199.9549119466146,-2.2744558652242026,2.448606014251709,1.3911828597386675,1.6887021422982592e+18,199.9462591145833,-3.6695929368337,-9.324431339899698,6.673382918039958,1.688702142306912e+18,199.9549119466146,-1.227503538131714,-9.02472368876139,3.643439928690592,1.688702142306912e+18,199.9549119466146,0.3874921947717666,2.256383498509725,-0.597884344557921,1.688702142306912e+18,199.9549119466146,0.38642318546772,2.261066814263662,-0.5957463184992472,,,,,,,,,,,,1.688702142297179e+18,199.94517900390625,-28.396718978881836,37.710198974609376,-18.51716003417969,1.688702142297179e+18,199.94517900390625,-282.93751220703126,133.1751953125,-151.7289581298828,1.688702142306912e+18,199.9549119466146,0.6505325237909952,-0.73458864291509,0.1494385699431101,0.1207396884759266,-1.8931884765625,1.167803446451823,-1.2898462613423665
5.0,1.6887021423588165e+18,200.0068163248698,1.0122488538424177,7.866251786549886,-1.9816254774729412,1.6887021423501647e+18,199.99816471354168,-1.1064810554186504,-1.0396814147631328,1.3649059136708577,1.6887021423588165e+18,200.0068163248698,-1.848404328028361,-9.026813507080078,3.3612119356791177,1.6887021423588165e+18,200.0068163248698,0.5957463284333547,-0.9432777563730876,-1.0750719507535298,1.6887021423588165e+18,200.0068163248698,0.5946264167626699,-0.9385944604873656,-1.0728320876757305,,,,,,,,,,,,1.688702142347188e+18,199.9951881347656,-28.152719497680664,39.24007873535156,-15.58427963256836,1.688702142347188e+18,199.9951881347656,-282.6935119628906,134.7050750732422,-148.79607543945312,1.6887021423588165e+18,200.0068163248698,0.6276101668675741,-0.7577801545461019,0.1395728588104247,0.1108498374621073,-2.0708380540211997,1.1685209671656291,-1.1122148434321086
5.05,1.6887021424020695e+18,200.05006958007812,2.101919651031494,1.7832102775573728,1.7473738193511963,1.6887021424020685e+18,200.05006852213535,-0.3419742385546366,-7.155137936274211,5.309274593989055,1.6887021424020695e+18,200.05006958007812,-2.0524317026138306,-8.92832088470459,3.504098892211914,1.6887021424020695e+18,200.05006958007812,-1.184238612651825,1.586417019367218,-0.3378084897994995,1.6887021424020695e+18,200.05006958007812,-1.1854603588581083,1.5909984707832336,-0.3355940878391265,,,,,,,,,,,,1.688702142397182e+18,200.04518198242187,-25.64927978515625,40.882199096679685,-15.718479537963868,1.688702142397182e+18,200.04518198242187,-280.19007568359376,136.34719848632812,-148.9302764892578,1.6887021424020695e+18,200.05006958007812,0.6172873973846436,-0.7646146714687347,0.139724001288414,0.1211038976907729,-2.099038004875183,1.1438180804252625,-1.0694780349731443
5.1,1.688702142445325e+18,200.09332486979167,-0.7559517621994019,-2.55144468943278,2.589890638987223,1.6887021424539758e+18,200.10197583007812,-2.2735803524653115,-10.133404731750488,6.12303360303243,1.688702142445325e+18,200.09332486979167,-1.4506929318110149,-8.683897336324057,4.316717306772868,1.688702142445325e+18,200.09332486979167,-1.0224865848819416,3.0333531697591147,0.4503095000982284,1.688702142445325e+18,200.09332486979167,-1.0236065189043682,3.0380874474843345,0.4524475187063217,,,,,,,,,,,,1.6887021424471823e+18,200.09518222656249,-28.14783935546875,39.48651962280273,-15.464720153808594,1.6887021424471823e+18,200.09518222656249,-282.6886291503906,134.9515167236328,-148.67651977539063,1.688702142445325e+18,200.09332486979167,0.6244934797286987,-0.7467377583185831,0.1254553894201914,0.1901752054691314,-1.8937803904215496,1.0869685411453247,-1.1534510056177776
5.15,1.6887021424972257e+18,200.14522534179687,-1.0131906270980835,3.940239747365316,-2.154682715733846,1.6887021425058767e+18,200.1538768717448,-1.9872392018636067,-4.903691291809082,2.535594383875529,1.6887021424972257e+18,200.14522534179687,-0.910303314526876,-8.576176961263021,4.672853946685791,1.6887021424972257e+18,200.14522534179687,-0.7835364739100138,0.979573334256808,-0.0884227454662323,1.6887021424972257e+18,200.14522534179687,-0.7847073276837667,0.9843075126409532,-0.0862847243746121,,,,,,,,,,,,1.6887021424971832e+18,200.145183203125,-30.395079803466796,38.67155990600586,-13.607879638671877,1.6887021424971832e+18,200.145183203125,-284.9358703613281,134.13656005859374,-146.819677734375,1.6887021424972257e+18,200.14522534179687,0.6318663954734802,-0.7311558524767557,0.1063649555047352,0.2340152810017267,-1.7613088687260945,1.0639360745747883,-1.193505883216858
5.2,1.6887021425491313e+18,200.19713118489585,-0.3229685624440511,0.0962634086608886,-2.3486990928649902,1.688702142557786e+18,200.20578572591145,-1.616152326265971,-8.642476558685303,2.8683961232503257,1.6887021425491313e+18,200.19713118489585,-1.4695183436075847,-8.21973959604899,5.137059847513835,1.6887021425491313e+18,200.19713118489585,-1.2435180346171062,-1.7469727595647175,-1.3495540221532183,1.6887021425491313e+18,200.19713118489585,-1.244637926419576,-1.7423404256502788,-1.347365101178487,,,,,,,,,,,,1.6887021425471844e+18,200.19518447265625,-28.47967948913574,38.800879669189456,-16.172319602966308,1.6887021425471844e+18,200.19518447265625,-283.0204772949219,134.26587829589843,-149.38411865234374,1.6887021425491313e+18,200.19713118489585,0.6053186257680258,-0.7458510796229044,0.1337103322148322,0.2429760346810022,-1.845763365427653,0.99374790986379,-1.1345224777857463
5.25,1.688702142601034e+18,200.24903417968747,1.5898917118708291,-2.767160256703695,-2.4186851183573403,1.6887021426096814e+18,200.2576814778646,-1.3918251991271973,-10.98305606842041,2.9387850761413574,1.688702142601034e+18,200.24903417968747,-3.060344616572062,-7.714043458302816,5.201263268788655,1.688702142601034e+18,200.24903417968747,-1.1520918409029643,-3.769089460372925,-2.1568634112675986,1.688702142601034e+18,200.24903417968747,-1.153262694676717,-3.764406204223633,-2.1547253131866455,,,,,,,,,,,,1.6887021425971768e+18,200.245176953125,-21.945359420776366,39.82567825317383,-21.95999946594238,1.6887021425971768e+18,200.245176953125,-276.4861633300781,135.29067687988282,-155.1717956542969,1.688702142601034e+18,200.24903417968747,0.549109677473704,-0.7869286139806112,0.1891126533349354,0.2058896720409393,-2.098007599512736,0.90549502770106,-1.0187188188234966
5.3,1.6887021426529395e+18,200.300939453125,15.469199816385904,-8.491881529490152,-0.5200042724609375,1.6887021426529367e+18,200.30093664550785,3.7402806878089905,-15.693028450012209,4.8346980810165405,1.6887021426529395e+18,200.300939453125,-5.267264048258464,-6.716742515563965,4.738874276479085,1.6887021426529395e+18,200.300939453125,-1.3806063334147136,-4.941034317016602,-4.367533763249715,1.6887021426529395e+18,200.300939453125,-1.38167538245519,-4.936351140340169,-4.365344842274983,1.688702142652935e+18,200.3009345703125,0.0,0.0,0.9389912486076356,4.695000171661377,1.4670708179473877,122.8184814453125,43.30000305175781,-122.7554633,49.1895626,1.6887021426471767e+18,200.29517666015624,-10.5017596244812,39.64999923706055,-28.211279296875,1.6887021426471767e+18,200.29517666015624,-265.0425537109375,135.11499938964843,-161.4230743408203,1.6887021426529395e+18,200.300939453125,0.4569115936756134,-0.8347950975100199,0.2654343446095784,0.1457628111044565,-2.401606877644857,0.7561933596928915,-0.9255955020586648
5.35,1.688702142704846e+18,200.35284619140623,6.024848461151123,-8.951768080393473,0.932593027750651,1.6887021426961925e+18,200.3441924641927,12.17248805363973,-15.238890329996744,7.405786196390788,1.688702142704846e+18,200.35284619140623,-5.424712022145589,-5.306107997894287,6.116387685139974,1.688702142704846e+18,200.35284619140623,1.2660182639956474,9.949772834777832,-2.4571036299069724,1.688702142704846e+18,200.35284619140623,1.264898270368576,9.954456329345703,-2.454965571562449,,,,,,,,,,,,1.6887021426971807e+18,200.34518061523437,-1.3542000472545623,39.33035888671875,-30.090079498291015,1.6887021426971807e+18,200.34518061523437,-255.8949951171875,134.79535827636718,-163.3018798828125,1.688702142704846e+18,200.35284619140623,0.3808508515357971,-0.8545735081036886,0.2094972481330235,0.2733595569928486,-2.294853369394938,0.571885903676351,-0.7437480290730795
5.4,1.6887021427567534e+18,200.40475349934897,2.4333534240722656,-5.219766298929851,-8.606577555338541,1.6887021427481037e+18,200.39610367838543,-6.872984389464062,-9.971689542134603,-1.4592230319976809,1.6887021427567534e+18,200.40475349934897,-4.183566729227702,-5.725445747375488,6.775793711344401,1.6887021427567534e+18,200.40475349934897,0.1577559436360995,-1.198263128598531,1.2635747243960698,1.6887021427567534e+18,200.40475349934897,0.156636026998361,-1.193579832712809,1.2657127877076466,,,,,,,,,,,,1.6887021427471803e+18,200.3951808105469,-9.938119888305664,41.12131881713867,-26.073839569091795,1.6887021427471803e+18,200.3951808105469,-264.4789184570312,136.58631591796876,-159.28563537597657,1.6887021427567534e+18,200.40475349934897,0.4132775366306305,-0.830560028553009,0.1511185864607493,0.3406825065612793,-2.123042186101278,0.623614509900411,-0.7159227530161539
5.45,1.688702142808666e+18,200.45666569010416,6.349289973576863,-7.586169560750325,-4.51418407758077,1.6887021428000084e+18,200.44800862630208,6.817749579747518,-14.97229035695394,1.1726824442545574,1.688702142808666e+18,200.45666569010416,-3.48933211962382,-6.7143785158793134,6.212414741516113,1.688702142808666e+18,200.45666569010416,2.531883716583252,0.4127922008434931,3.1496211687723794,1.688702142808666e+18,200.45666569010416,2.530763785044352,0.4174754867951075,3.1518101692199707,,,,,,,,,,,,1.6887021427971845e+18,200.4451842285156,-13.624959564208984,40.50887908935547,-25.702959060668945,1.6887021427971845e+18,200.4451842285156,-268.1657470703125,135.973876953125,-158.91475524902344,1.688702142808666e+18,200.45666569010416,0.4810799459616343,-0.8084057172139486,0.1538173009951908,0.3006185094515482,-2.080061753590902,0.7558301488558451,-0.8348189989725748
5.5,1.6887021428519132e+18,200.49991320800785,-1.7152103185653689,-5.548213243484497,-1.4777226448059082,1.6887021428519114e+18,200.49991137695312,-4.005585114161174,-13.526825904846191,4.014358679453532,1.6887021428519132e+18,200.49991320800785,-2.3620234727859497,-7.9226233959198,5.269573450088501,1.6887021428519132e+18,200.49991320800785,2.206063449382782,-1.0366382896900177,4.315152168273926,1.6887021428519132e+18,200.49991320800785,2.204841732978821,-1.0319804549217224,4.317366361618042,,,,,,,,,,,,1.6887021428471836e+18,200.49518383789064,-20.64483985900879,40.93831939697266,-19.742039489746094,1.6887021428471836e+18,200.49518383789064,-275.1856323242188,136.4033172607422,-152.95383911132814,1.6887021428519132e+18,200.49991320800785,0.5627879500389099,-0.7763071060180664,0.1313053220510482,0.2508216872811317,-1.989469051361084,0.9408689439296722,-0.9739943146705629
5.55,1.6887021428951675e+18,200.54316756184895,1.471754531065623,-7.536930084228516,3.9362266858418784,1.6887021429038182e+18,200.551818359375,1.9886350631713867,-15.657434781392416,9.061818758646648,1.6887021428951675e+18,200.54316756184895,-1.7386176188786824,-8.534306844075521,4.503781318664551,1.6887021428951675e+18,200.54316756184895,1.6561574935913086,-2.330959955851237,1.9716184735298157,1.6887021428951675e+18,200.54316756184895,1.6550884644190471,-2.326276659965515,1.9737565318743389,,,,,,,,,,,,1.6887021428971863e+18,200.54518637695313,-26.11775932312012,39.144918823242186,-18.37564010620117,1.6887021428971863e+18,200.54518637695313,-280.65855102539064,134.60991516113282,-151.58743591308593,1.6887021428951675e+18,200.54316756184895,0.613805373509725,-0.7528258760770162,0.1464268167813618,0.1856674551963805,-1.938110947608948,1.0559054613113403,-1.1459158261617024
5.6,1.6887021429470728e+18,200.59507250976563,6.951447427272797,-0.0607832272847493,5.818118095397949,1.6887021429557204e+18,200.60372021484375,3.4444681803385415,-7.491927782694499,8.983852545420328,1.6887021429470728e+18,200.59507250976563,-1.324987769126892,-8.960200945536295,3.757084767023722,1.6887021429470728e+18,200.59507250976563,1.778534173965454,3.461467901865641,-0.0107410463194052,1.6887021429470728e+18,200.59507250976563,1.7774142026901243,3.4661512772242227,-0.0086030190189679,,,,,,,,,,,,1.688702142947184e+18,200.5951837890625,-27.79403953552246,39.85008010864258,-15.418359756469728,1.688702142947184e+18,200.5951837890625,-282.3348327636719,135.31508178710936,-148.63015747070312,1.6887021429470728e+18,200.59507250976563,0.6348401506741842,-0.7458129525184631,0.1003051300843556,0.1718918184439341,-1.9054514567057292,1.15196696917216,-1.1326826016108196
5.65,1.6887021429989773e+18,200.64697721354165,-2.850029786427816,6.146537144978841,1.4552278518676758,1.6887021430076283e+18,200.65562841796876,-4.159124533335368,-2.6480570236841836,4.001995801925659,1.6887021429989773e+18,200.64697721354165,-0.8329865137736002,-9.264029184977211,3.1102025508880615,1.6887021429989773e+18,200.64697721354165,1.726457913716634,1.0572041496634483,0.2077450963358084,1.6887021429989773e+18,200.64697721354165,1.7252870798110962,1.0618874430656433,0.2099849308530489,,,,,,,,,,,,1.688702142997184e+18,200.64518403320312,-29.082359313964844,40.66259918212891,-7.4053997039794925,1.688702142997184e+18,200.64518403320312,-283.62315063476564,136.12760009765626,-140.61719665527343,1.6887021429989773e+18,200.64697721354165,0.6482168634732565,-0.7357459863026937,0.0242090867832302,0.194312905271848,-1.829870104789734,1.2363062699635825,-1.0671467383702595
5.7,1.6887021430508849e+18,200.6988848470052,-3.85880708694458,8.045782566070557,0.1101667881011962,1.6887021430595297e+18,200.707529296875,-3.798805276552836,-1.1507482926050825,2.8376882870992026,1.6887021430508849e+18,200.6988848470052,-0.5075593094031016,-9.438846906026203,2.61996857325236,1.6887021430508849e+18,200.6988848470052,0.6056728810071945,-0.8294532001018524,1.3162109851837158,1.6887021430508849e+18,200.6988848470052,0.6046038518349329,-0.8248716890811919,1.3183999061584473,,,,,,,,,,,,1.688702143047184e+18,200.6951841308594,-31.15879898071289,40.04527893066406,-3.842999887466431,1.688702143047184e+18,200.6951841308594,-285.6995910644531,135.5102752685547,-137.05479736328124,1.6887021430508849e+18,200.6988848470052,0.667171041170756,-0.7246864835421244,0.0140625204270084,0.1713785131772358,-1.7573176225026448,1.2949421803156536,-1.159169356028239
5.75,1.6887021431027868e+18,200.7507870279948,-1.170474112033844,8.601526260375977,0.5750231742858887,1.688702143102782e+18,200.75078186035157,-1.5664015412330627,-0.8718847334384918,3.3370903730392456,1.6887021431027868e+18,200.7507870279948,-0.2220126738150914,-9.45480982462565,2.606159289677938,1.6887021431027868e+18,200.7507870279948,-0.0661261640489101,-0.8423322439193726,0.4720461244384448,1.6887021431027868e+18,200.7507870279948,-0.067246081928412,-0.8376998901367188,0.474235047896703,,,,,,,,,,,,1.6887021430971866e+18,200.7451865234375,-33.20352020263672,38.376319122314456,-4.814119815826416,1.6887021430971866e+18,200.7451865234375,-287.74431762695315,133.84131774902343,-138.02591552734376,1.6887021431027868e+18,200.7507870279948,0.6823976238568624,-0.7138700683911642,0.0345112960785627,0.1532558153072992,-1.6521347363789876,1.300716757774353,-1.3197811841964722
5.8,1.6887021431546888e+18,200.80268872070317,-2.7022924025853476,6.671885808308919,-1.074619213740031,1.688702143146038e+18,200.79403776041667,-1.7926229238510132,-1.858226219813029,2.368296225865682,1.6887021431546888e+18,200.80268872070317,-0.4862070779005686,-9.37521998087565,2.836259682973226,1.6887021431546888e+18,200.80268872070317,-0.7825183669726054,-1.683951864639918,-0.8319984575112661,1.6887021431546888e+18,200.80268872070317,-0.7836892008781433,-1.6792685588200886,-0.8297586292028427,1.6887021431719836e+18,200.81998364257817,0.0,0.0,0.949425995349884,4.744999885559082,1.468905329704285,122.82292938232422,43.30000305175781,-122.7554586,49.1895603,1.6887021431471844e+18,200.795184375,-32.93023910522461,38.29091873168945,-5.973119926452637,1.6887021431471844e+18,200.795184375,-287.4710327148438,133.75591430664062,-139.1849151611328,1.6887021431546888e+18,200.80268872070317,0.6740353107452393,-0.7215737501780192,0.0585576246182123,0.1460133244593937,-1.7337393363316853,1.2722108364105225,-1.2827151616414387
5.85,1.6887021432065966e+18,200.8545965169271,26.436939239501953,-15.691529909769692,-0.6416624387105306,1.688702143197946e+18,200.84594580078124,20.70589200655619,-22.03291130065918,1.9326031139741344,1.6887021432065966e+18,200.8545965169271,-1.4164526462554932,-9.138834317525228,3.2697041034698486,1.6887021432065966e+18,200.8545965169271,-1.6721927126248677,-5.5441112120946245,0.6044511497020723,1.6887021432065966e+18,200.8545965169271,-1.6733126242955525,-5.539377133051555,0.6065891782442728,,,,,,,,,,,,1.6887021431971784e+18,200.84517841796873,-28.816399765014648,38.27871932983398,-15.576959991455078,1.6887021431971784e+18,200.84517841796873,-283.35718994140626,133.74371948242188,-148.78875427246095,1.6887021432065966e+18,200.8545965169271,0.6510016520818075,-0.7330009937286377,0.1835724413394927,0.0645848934849102,-1.976987361907959,1.198808471361796,-1.3362056811650591
5.9,1.688702143258502e+18,200.9065020345052,0.3372891346613566,-8.422475496927897,3.849043846130371,1.6887021432498473e+18,200.89784716796876,0.5682954216996828,-18.503498077392575,6.027520179748535,1.688702143258502e+18,200.9065020345052,-1.4869043429692586,-9.06551202138265,3.440016746520996,1.688702143258502e+18,200.9065020345052,0.1445205360651016,1.9993619521458943,-0.3899356511731942,1.688702143258502e+18,200.9065020345052,0.1432988047599792,2.0040452678998313,-0.3877976102133592,,,,,,,,,,,,1.688702143247183e+18,200.895183203125,-26.434959411621097,37.105078887939456,-20.337399291992188,1.688702143247183e+18,200.895183203125,-280.9757568359375,132.57007446289063,-153.5491973876953,1.688702143258502e+18,200.9065020345052,0.6479558149973551,-0.7331451972325643,0.194309189915657,0.0678193432589371,-1.9763654867808025,1.178478121757507,-1.3478896220525105
5.95,1.688702143301755e+18,200.9497550048828,-1.8835721015930176,-1.7945125102996826,4.9352428913116455,1.688702143301744e+18,200.9497440592448,-3.193819999694824,-10.703893423080444,8.073383569717407,1.688702143301755e+18,200.9497550048828,-0.9574695527553558,-9.093571186065674,3.550727605819702,1.688702143301755e+18,200.9497550048828,0.4932736903429031,3.864944338798523,0.1839468050748109,1.688702143301755e+18,200.9497550048828,0.4921282976865768,3.8696022033691406,0.1861611809581518,,,,,,,,,,,,1.6887021432971776e+18,200.9451775878906,-28.79199981689453,37.24904022216797,-15.8258394241333,1.6887021432971776e+18,200.9451775878906,-283.3327880859375,132.7140350341797,-149.03763732910156,1.688702143301755e+18,200.9497550048828,0.6614413857460022,-0.7262362837791443,0.1441781446337699,0.1182739473879337,-1.831281006336212,1.1860617399215698,-1.347659707069397
6.0,1.688702143345014e+18,200.99301424153649,0.0506473382314044,7.051117420196533,-1.0605401595433552,1.6887021433536622e+18,201.00166210937505,-0.6366902391115824,-2.253041903177897,2.270589272181193,1.688702143345014e+18,200.99301424153649,-1.3785279194513955,-9.144481341044107,3.2604660193125405,1.688702143345014e+18,200.99301424153649,0.92093026638031,-0.5844962199529012,-1.6776395638783772,1.688702143345014e+18,200.99301424153649,0.919759432474772,-0.5798129340012868,-1.675501545270284,,,,,,,,,,,,1.688702143347189e+18,200.9951889160156,-27.462199401855468,38.947278594970705,-12.048719596862792,1.688702143347189e+18,200.9951889160156,-282.00299682617185,134.4122802734375,-145.26051635742186,1.688702143345014e+18,200.99301424153649,0.6446983019510905,-0.7453081210454305,0.1193643485506374,0.1200593312581379,-1.9685324827829995,1.20027752717336,-1.1720593372980754
6.05,1.6887021433969157e+18,201.04491569010415,-0.175965408484141,1.2598613103230794,2.100220600763957,1.688702143405561e+18,201.05356127929687,-2.66979185740153,-9.700901826222738,6.525626341501872,1.6887021433969157e+18,201.04491569010415,-1.816122849782308,-9.040964444478352,3.3367950916290283,1.6887021433969157e+18,201.04491569010415,-1.0607165942589445,1.271872341632843,-0.3785837193330129,1.6887021433969157e+18,201.04491569010415,-1.0618874529997508,1.276606559753418,-0.3763947983582814,,,,,,,,,,,,1.688702143397185e+18,201.0451849121094,-25.393079376220705,40.77971878051758,-11.502159690856931,1.688702143397185e+18,201.0451849121094,-279.9338745117187,136.24471740722657,-144.71395874023438,1.6887021433969157e+18,201.04491569010415,0.6249313751856486,-0.761108934879303,0.1133344049255052,0.1307040701309839,-2.068703015645345,1.1727455457051594,-1.0477840900421145
6.1,1.6887021434488095e+18,201.09680957031253,-1.5830360253651936,-1.2288654645284016,1.6033875942230225,1.6887021434574684e+18,201.10546826171876,-2.1808584729830423,-8.46740166346232,4.63549558321635,1.6887021434488095e+18,201.09680957031253,-1.207656741142273,-8.871480941772461,4.00351866086324,1.6887021434488095e+18,201.09680957031253,-0.5529348403215408,0.9819149672985076,1.2536991039911909,1.6887021434488095e+18,201.09680957031253,-0.5541565914948782,0.986598253250122,1.255888024965922,,,,,,,,,,,,1.6887021434471798e+18,201.09517993164064,-27.823319244384766,39.1400390625,-12.30735969543457,1.6887021434471798e+18,201.09517993164064,-282.36411743164064,134.60503845214845,-145.51915588378907,1.6887021434488095e+18,201.09680957031253,0.6384554505348206,-0.7401297092437744,0.1151780684789021,0.1766202996174494,-1.861405650774638,1.1297202507654829,-1.1911087036132812
6.15,1.688702143500725e+18,201.14872509765624,-0.2872676253318786,3.9082064628601074,-2.0037413438161216,1.688702143509372e+18,201.1573719075521,-1.334596832593282,-5.420341491699219,2.234497547149658,1.688702143500725e+18,201.14872509765624,-0.798738420009613,-8.833077112833658,4.1913042068481445,1.688702143500725e+18,201.14872509765624,-0.5920811295509338,-0.6036875819166502,0.4325943986574809,1.688702143500725e+18,201.14872509765624,-0.5933028757572174,-0.599004253745079,0.4348342393835386,,,,,,,,,,,,1.6887021434971822e+18,201.1451821777344,-30.65371971130371,37.34907989501953,-13.036919784545898,1.6887021434971822e+18,201.1451821777344,-285.19451293945315,132.81408081054687,-146.24871520996095,1.688702143500725e+18,201.14872509765624,0.6535940170288086,-0.723879873752594,0.1273053213953971,0.1804137428601583,-1.7569444576899211,1.120592673619588,-1.3075884977976482
6.2,1.6887021435526295e+18,201.20062931315104,0.3423026800155639,-1.6905587514241536,-1.1746200720469158,1.6887021435526282e+18,201.20062829589844,-1.4823536276817322,-10.321440696716309,3.2231321334838867,1.6887021435526295e+18,201.20062931315104,-1.7666937112808228,-8.571702003479004,4.393090724945068,1.6887021435526295e+18,201.20062931315104,-0.8930340806643168,-3.84468412399292,-2.126880049705506,1.6887021435526295e+18,201.20062931315104,-0.8941539923350016,-3.840051651000977,-2.124691088994344,,,,,,,,,,,,1.6887021435471854e+18,201.19518535156251,-28.796879959106445,37.419839477539064,-16.865280151367188,1.6887021435471854e+18,201.19518535156251,-283.3376770019531,132.88483581542968,-150.0770751953125,1.6887021435526295e+18,201.20062931315104,0.6215782364209493,-0.7465219497680664,0.1779661228259404,0.1529290477434794,-1.9461876153945925,1.0633219480514526,-1.2321776549021404
6.25,1.688702143604532e+18,201.25253173828125,5.865697542826335,-2.5159408251444497,-0.328866163889567,1.6887021435958838e+18,201.2438839518229,-0.0823529809713363,-11.319247563680014,3.830909093221029,1.688702143604532e+18,201.25253173828125,-4.154892762502034,-7.941733519236247,3.9228106339772544,1.688702143604532e+18,201.25253173828125,-0.4948008457819621,-4.7865363756815595,-3.5894951025644937,1.688702143604532e+18,201.25253173828125,-0.4959716697533925,-4.781802177429199,-3.5873570442199707,,,,,,,,,,,,1.6887021435971832e+18,201.245183203125,-18.431759452819826,39.59143905639648,-23.380079650878905,1.6887021435971832e+18,201.245183203125,-272.97255249023436,135.0564392089844,-156.5918762207031,1.688702143604532e+18,201.25253173828125,0.5295466780662537,-0.8045058846473694,0.2523011167844136,0.0838163842757542,-2.3775373299916587,0.9445375005404154,-1.0156761407852173
6.3,1.6887021436564398e+18,201.3044395345052,16.96980841954549,-5.216108163197835,1.4548862775166829,1.6887021436477878e+18,201.29578784179685,14.016755799452463,-10.704491456349691,5.361717303593953,1.6887021436564398e+18,201.3044395345052,-5.624701976776123,-6.807270050048828,4.228989442189534,1.6887021436564398e+18,201.3044395345052,0.3381139238675435,5.20039775967598,-3.95998477935791,1.6887021436564398e+18,201.3044395345052,0.3369939873615901,5.205080956220627,-3.9578468004862466,,,,,,,,,,,,1.688702143647182e+18,201.29518198242187,-5.980439853668213,41.00175857543945,-26.547199249267575,1.688702143647182e+18,201.29518198242187,-260.5212341308594,136.46675720214844,-159.75899353027344,1.6887021436564398e+18,201.3044395345052,0.4422567586104075,-0.8512746095657349,0.2467361291249592,0.124837631980578,-2.498096704483032,0.7677097121874491,-0.8305578629175822
6.35,1.6887021437083443e+18,201.35634423828128,-3.304595470428467,-9.144739151000977,-2.6280481020609536,1.6887021436996943e+18,201.34769417317708,-8.59481954574585,-15.854443868001304,3.207578738530477,1.6887021437083443e+18,201.35634423828128,-4.970646222432454,-6.533875624338786,5.368951320648193,1.6887021437083443e+18,201.35634423828128,0.4719442923863728,1.857793966929118,-0.9118690689404806,1.6887021437083443e+18,201.35634423828128,0.4708243906497955,1.8624263604482016,-0.9096801479657493,1.6887021436910428e+18,201.3390427246094,0.0,0.0,0.949425995349884,4.809999942779541,1.4669917821884155,122.94343566894533,43.30000305175781,-122.7554454,49.1895535,1.688702143697182e+18,201.3451818847656,-7.273639965057373,42.63411865234375,-23.29223976135254,1.688702143697182e+18,201.3451818847656,-261.81443481445314,138.0991180419922,-156.50403747558593,1.6887021437083443e+18,201.35634423828128,0.4359257519245147,-0.8525347312291464,0.1616798589626948,0.2385124117136,-2.316666523615519,0.7291572292645773,-0.7058007518450419
6.4,1.688702143751594e+18,201.39959387207028,4.589156150817871,-8.773499011993408,-0.5163488388061523,1.6887021437515958e+18,201.399595703125,-0.8406783143679301,-14.651652018229166,4.4562333424886065,1.688702143751594e+18,201.39959387207028,-5.355022430419922,-6.386969089508057,5.173205137252808,1.688702143751594e+18,201.39959387207028,-0.7626652419567108,-1.8709274530410769,0.1668425723910331,1.688702143751594e+18,201.39959387207028,-0.7637342512607574,-1.8661933541297913,0.1689805965870619,,,,,,,,,,,,1.6887021437471818e+18,201.3951818847657,-5.799879932403565,42.519439697265625,-23.343479537963866,1.6887021437471818e+18,201.3951818847657,-260.34067993164064,137.98443603515625,-156.5552764892578,1.688702143751594e+18,201.39959387207028,0.424094557762146,-0.8603141009807587,0.1801696717739105,0.2179063111543654,-2.372512102127075,0.7092277407646179,-0.7103413641452789
6.45,1.6887021438034944e+18,201.4514943847656,7.985228379567464,-3.9107044537862143,0.198370615641276,1.6887021438034944e+18,201.4514943847656,2.9820552666982016,-10.618947982788086,5.3916276295979815,1.6887021438034944e+18,201.4514943847656,-5.009019056955974,-6.690738836924235,5.130569616953532,1.6887021437948416e+18,201.44284138997395,0.2065742636720338,0.2411899616320927,1.2220359245936077,1.6887021437948416e+18,201.44284138997395,0.2054034397006034,0.2458732624848683,1.2242757479349773,,,,,,,,,,,,1.688702143797176e+18,201.445176171875,-6.397679805755615,42.17295913696289,-24.053519821166994,1.688702143797176e+18,201.445176171875,-260.9384826660156,137.63795776367186,-157.26531982421875,1.6887021438034944e+18,201.4514943847656,0.4476861258347829,-0.849019726117452,0.1848016480604807,0.2107832332452137,-2.342921495437622,0.7508939504623413,-0.758597731590271
6.5,1.6887021438553992e+18,201.50339925130208,3.0992945035298667,-3.098512967427572,-0.2311733563741048,1.6887021438553992e+18,201.50339925130208,-0.9387840628623962,-10.342178344726562,5.0771708488464355,1.6887021438553992e+18,201.50339925130208,-4.043924570083618,-7.226160685221355,5.245656808217366,1.6887021438467494e+18,201.49474943033857,0.1177442756791909,1.0919725199540455,2.081472357114156,1.6887021438467494e+18,201.49474943033857,0.1166243577996889,1.0966049234072368,2.083661357561747,,,,,,,,,,,,1.6887021438471767e+18,201.4951768554687,-11.199599647521971,41.821598815917966,-23.09947967529297,1.6887021438471767e+18,201.4951768554687,-265.7403930664062,137.2865997314453,-156.311279296875,1.6887021438553992e+18,201.50339925130208,0.4969698886076609,-0.8203268448511759,0.1810764620701471,0.2165851593017578,-2.2254716555277505,0.8283276359240214,-0.8622785607973734
6.55,1.6887021439073055e+18,201.5553056640625,0.7158677180608114,-1.1633652051289878,-0.5444599787394205,1.6887021439073055e+18,201.5553056640625,-1.6977076530456543,-8.843473434448242,5.121637344360352,1.6887021439073055e+18,201.5553056640625,-2.419421394666036,-7.662603537241618,5.603409926096599,1.6887021438986534e+18,201.54665356445312,0.1830559515704711,3.0201687018076577,2.275625785191854,1.6887021438986534e+18,201.54665356445312,0.1819360355536142,3.0248520374298096,2.277763843536377,,,,,,,,,,,,1.6887021438971768e+18,201.54517695312495,-18.47567958831787,40.306359100341794,-21.501279830932617,1.6887021438971768e+18,201.54517695312495,-273.0164794921875,135.7713592529297,-154.71307678222655,1.6887021439073055e+18,201.5553056640625,0.5568409959475199,-0.7735760609308878,0.1558147519826888,0.2577275286118188,-1.9756667216618855,0.8965421716372172,-1.0131328503290813
6.6,1.6887021439592087e+18,201.60720857747393,-0.4162841240564982,1.0660910606384275,-1.1267627080281577,1.6887021439592087e+18,201.60720857747393,-1.7248263359069824,-6.893123785654704,4.5421756108601885,1.6887021439592087e+18,201.60720857747393,-1.3143882354100545,-7.941710154215495,5.606250921885173,1.6887021439505592e+18,201.59855932617188,0.5669338504473368,1.3630440185467405,0.68798698981603,1.6887021439505592e+18,201.59855932617188,0.565763016541799,1.3677272498607635,0.6901759207248688,,,,,,,,,,,,1.6887021439471775e+18,201.59517763671872,-25.063679885864257,38.871639251708984,-17.72171974182129,1.6887021439471775e+18,201.59517763671872,-279.60447998046874,134.33663635253907,-150.9335174560547,1.6887021439592087e+18,201.60720857747393,0.5923444827397665,-0.7427269816398621,0.1226231356461842,0.2870974540710449,-1.8000075419743855,0.943308154741923,-1.096434235572815
