seconds_elapsed_rounded,accelerometer_time,accelerometer_seconds_elapsed,accelerometer_z,accelerometer_y,accelerometer_x,accelerometeruncalibrated_time,accelerometeruncalibrated_seconds_elapsed,accelerometeruncalibrated_z,accelerometeruncalibrated_y,accelerometeruncalibrated_x,gravity_time,gravity_seconds_elapsed,gravity_z,gravity_y,gravity_x,gyroscope_time,gyroscope_seconds_elapsed,gyroscope_z,gyroscope_y,gyroscope_x,gyroscopeuncalibrated_time,gyroscopeuncalibrated_seconds_elapsed,gyroscopeuncalibrated_z,gyroscopeuncalibrated_y,gyroscopeuncalibrated_x,location_time,location_seconds_elapsed,location_altitude,location_speedAccuracy,location_bearingAccuracy,location_latitude,location_altitudeAboveMeanSeaLevel,location_bearing,location_horizontalAccuracy,location_verticalAccuracy,location_longitude,location_speed,magnetometer_time,magnetometer_seconds_elapsed,magnetometer_z,magnetometer_y,magnetometer_x,magnetometeruncalibrated_time,magnetometeruncalibrated_seconds_elapsed,magnetometeruncalibrated_z,magnetometeruncalibrated_y,magnetometeruncalibrated_x,orientation_time,orientation_seconds_elapsed,orientation_yaw,orientation_qx,orientation_qz,orientation_roll,orientation_qw,orientation_qy,orientation_pitch
0.0,1.6897266470071557e+18,134.9961557128906,0.9150186617435514,0.6282765095478295,0.3672981971663981,1.6897266470146724e+18,135.00367241210938,-0.0882598876953125,1.0152801513671874,-0.066510009765625,1.6897266470071557e+18,134.9961557128906,-1.7188716937844457,9.617589668103456,-0.8312945373568683,1.6897266470071557e+18,134.9961557128906,0.6377578139305115,-0.8018288373947143,1.1193591237068177,1.6897266470096625e+18,134.99866230468749,0.6421256303787232,-0.8016191482543945,1.1133538126945497,,,,,,,,,,,,,1.6897266470071557e+18,134.9961557128906,-24.250642776489254,39.43652801513672,-24.93091278076172,1.6897266470109809e+18,134.9999808959961,5.623287200927734,51.22129821777344,54.5410041809082,1.6897266470071557e+18,134.9961557128906,1.732713782606287,0.2680181878061195,-0.6664612351251407,-0.454026163295725,-0.3786545511280261,0.5835130612022537,-1.3744154783558784
0.05,1.6897266470572593e+18,135.04625942382813,1.0385369340887665,-0.4989385326862335,-0.6956267071931437,1.6897266470647762e+18,135.05377626953126,-0.1102325439453125,0.9470916748046876,-0.0923583984375,1.6897266470572593e+18,135.04625942382813,-2.1742864050775763,9.54417266661942,-0.5747964391294121,1.6897266470572593e+18,135.04625942382813,0.6157614707946777,-0.2331666231155395,0.9212974071502684,1.6897266470597658e+18,135.04876562500002,0.6191357851028443,-0.2163194149732589,0.9280896306037902,,,,,,,,,,,,,1.6897266470572593e+18,135.04625942382813,-25.54063186645508,39.22859344482422,-24.430421447753908,1.6897266470577902e+18,135.04679018554685,4.241146850585937,51.02265625,55.09913330078125,1.6897266470572593e+18,135.04625942382813,1.95810973554152,0.2589445777154228,-0.6902545907453385,-0.2604823700938838,-0.3665656426477796,0.5675062291501284,-1.3391391170018758
0.1,1.6897266471073633e+18,135.09636318359375,2.281601876771152,0.5958050326275826,-0.3842679891753754,1.6897266471148795e+18,135.10387968749998,-0.0491241455078125,1.03704833984375,-0.1098419189453125,1.6897266471073633e+18,135.09636318359375,-2.5808170538926123,9.45592143481016,-0.2826667048373073,1.6897266471073633e+18,135.09636318359375,0.6534834623336792,0.028567524626851,0.627459317445755,1.6897266471098696e+18,135.09886958007812,0.6482980966567993,0.0652849420905113,0.5926735579967499,,,,,,,,,,,,,1.6897266471073633e+18,135.09636318359375,-27.086777114868163,39.148048400878906,-23.511555480957032,1.6897266471098004e+18,135.09880058593748,2.635791015625,51.02574157714844,56.26126708984375,1.6897266471073633e+18,135.09636318359375,2.1212547999634297,0.2575120855954894,-0.7092469811404103,-0.1101555388310398,-0.3585145230525827,0.5496194921948229,-1.3026542831000196
0.15,1.6897266471574666e+18,135.14646665039064,1.0470175283774732,0.6735943747508525,-2.712725991833806,1.6897266471649836e+18,135.15398344726563,-0.1744537353515625,1.011358642578125,-0.3410491943359375,1.6897266471574666e+18,135.14646665039064,-2.7379523199313875,9.416469129865764,0.0042254114724486,1.6897266471574666e+18,135.14646665039064,0.3655653432011604,0.2474892139434814,0.1178308583796023,1.689726647159973e+18,135.14897309570313,0.3390607818961143,0.2332154182717204,0.1065652184188365,,,,,,,,,,,,,1.6897266471574666e+18,135.14646665039064,-28.213443756103516,39.38014907836914,-21.96630630493164,1.689726647161814e+18,135.1508140136719,1.6954376220703125,51.356362915039064,57.775247192382814,1.6897266471574666e+18,135.14646665039064,2.225045408962597,0.2661047064172389,-0.717043713369679,0.0014206145364956,-0.3541803542863764,0.5381273461823248,-1.287766832724263
0.2,1.6897266472075702e+18,135.19657026367187,2.439683249940574,2.367421672875881,-4.729215452093482,1.689726647215087e+18,135.204087109375,0.030615234375,1.3194091796875,-0.5007843017578125,1.6897266472075702e+18,135.19657026367187,-2.688709974761009,9.43033632717669,0.0027023440190765,1.6897266472075702e+18,135.19657026367187,-0.472407928109169,-0.0229680374264716,-0.535324427857995,1.6897266472100767e+18,135.19907670898436,-0.5180009633302689,-0.0071778025478124,-0.6074861586093903,,,,,,,,,,,,,1.6897266472075702e+18,135.19657026367187,-28.199012756347656,39.70875930786133,-21.467832183837892,1.6897266472138235e+18,135.20282387695312,2.110906982421875,51.594784545898435,57.7305908203125,1.6897266472075702e+18,135.19657026367187,2.2214060358099763,0.2676727182649347,-0.7151519254631199,0.0003435762620024,-0.3544452316810318,0.5396766892989877,-1.2929702632467392
0.25,1.6897266472576742e+18,135.24667416992187,3.335667307059616,4.5232196505826705,-3.5551740690156812,1.689726647265191e+18,135.254190625,0.33077392578125,1.4202972412109376,-0.20706787109375,1.6897266472576742e+18,135.24667416992187,-2.082063288575709,9.566327098377943,-0.4602614133654161,1.6897266472576742e+18,135.24667416992187,-1.2504652976989743,-0.8600386377424002,-1.8817783355712892,1.6897266472601802e+18,135.24918032226563,-1.2623569011688232,-0.9198231160640716,-1.953774666786194,,,,,,,,,,,,,1.6897266472576742e+18,135.24667416992187,-26.038210296630854,40.260155487060544,-23.020447540283204,1.6897266472606326e+18,135.24963256835937,4.724647521972656,52.2835807800293,55.872947692871094,1.6897266472576742e+18,135.24667416992187,1.998225131321372,0.261811081167248,-0.6910153505675997,-0.2290543180006727,-0.3585667420255591,0.5701596727066269,-1.349954852671017
0.3,1.6897266473077775e+18,135.29677749023438,5.011325589800477,3.4297567727291587,4.337806735277772,1.6897266473152942e+18,135.30429418945312,0.11663818359375,1.3392578125,0.311346435546875,1.6897266473077775e+18,135.29677749023438,-0.7501554518941698,9.697889531742929,-1.14044039067097,1.6897266473077775e+18,135.29677749023438,-1.3540184259414674,0.9094129413366318,-3.4843747138977053,1.689726647310284e+18,135.29928403320312,-1.3712085962295533,1.1385864436626434,-3.5015820980072023,,,,,,,,,,,,,1.6897266473077775e+18,135.29677749023438,-20.113749694824214,41.47752304077149,-25.897615814208983,1.6897266473074406e+18,135.29644067382813,10.457614135742189,53.42039184570312,53.32066955566406,1.6897266473077775e+18,135.29677749023438,1.226982324696803,0.2584180132561424,-0.6411501493889402,-1.0130762947298944,-0.3559574751810607,0.6282114797300371,-1.4222950654232895
0.35,1.689726647357881e+18,135.34688120117187,-4.567085797220469,3.824994458635449,4.078335130358338,1.689726647365398e+18,135.35439819335937,-0.3411712646484375,1.3033233642578126,0.16376953125,1.689726647357881e+18,135.34688120117187,0.5732574989384598,9.605518823463916,-1.8604365241779388,1.689726647357881e+18,135.34688120117187,-1.3716444492340087,3.20522780418396,-2.5506152629852297,1.6897266473603876e+18,135.34938759765626,-1.3530849933624267,3.12689893245697,-2.4854949951171874,,,,,,,,,,,,,1.689726647357881e+18,135.34688120117187,-17.219680786132812,41.93907089233399,-26.36440963745117,1.68972664735945e+18,135.34845004882814,13.260302734375,53.73694458007813,53.10225830078125,1.689726647357881e+18,135.34688120117187,0.2408086444626514,0.3031901631637687,-0.5577180742731235,-1.855789799715683,-0.3986591698761842,0.6611222258197114,-1.369915266344151
0.4,1.689726647407985e+18,135.3969849121094,-1.607274745379388,1.0474970116835831,0.9168179954765736,1.6897266474155013e+18,135.40450146484375,-0.0290374755859375,1.0384735107421874,-0.2317352294921875,1.689726647407985e+18,135.3969849121094,1.3771020955978333,9.374972050446868,-2.5115358954912423,1.689726647407985e+18,135.3969849121094,-1.085160028934479,0.3959107290953397,-1.73446946144104,1.6897266474104914e+18,135.39949130859375,-1.0706932306289674,0.313073399104178,-1.7081489324569703,,,,,,,,,,,,,1.689726647407985e+18,135.3969849121094,-15.654046630859376,41.48934478759766,-26.589742279052736,1.6897266474114578e+18,135.4004578125,15.11064453125,53.161871337890624,52.45878295898437,1.689726647407985e+18,135.3969849121094,-0.072618374568507,0.3292278091481094,-0.4958722877254984,-2.0688094161562307,-0.4286435580150523,0.6795310521786597,-1.2740250024714144
0.45,1.6897266474580884e+18,135.4470884765625,-4.437305161931812,-0.1206768822133541,-0.258709914444983,1.6897266474656054e+18,135.4546052734375,-0.262078857421875,0.85855712890625,-0.337286376953125,1.6897266474580884e+18,135.4470884765625,2.051183698569834,9.115183517758846,-2.9721154714277387,1.6897266474580884e+18,135.4470884765625,-1.1190585851669312,-0.547572910785675,-0.9440684199333192,1.6897266474605952e+18,135.44959506835937,-1.1372603893280029,-0.5667955100536346,-0.8928351879119873,,,,,,,,,,,,,1.6897266474580884e+18,135.4470884765625,-13.159560775756836,40.69316482543945,-28.010999298095705,1.6897266474634652e+18,135.45246513671876,17.506021118164064,52.150213623046874,50.902200317382814,1.6897266474580884e+18,135.4470884765625,-0.1782296292376399,0.3255415863110777,-0.461250302303006,-2.174182128967276,-0.4273370145382398,0.7060688123675092,-1.193558782365726
0.5,1.6897266475081925e+18,135.49719218750002,-4.085946131431759,-1.4470945294606683,1.5913765098583696,1.689726647515709e+18,135.50470913085937,-0.1445831298828125,0.728839111328125,-0.1027069091796875,1.6897266475081925e+18,135.49719218750002,2.4190130069382487,8.8522110943377,-3.4538261566504835,1.6897266475081925e+18,135.49719218750002,-1.3145197868347167,-1.1355140209197998,-0.2131634697318076,1.6897266475106985e+18,135.49969838867187,-1.3032085657119752,-1.1741235852241516,-0.191408097743988,,,,,,,,,,,,,1.6897266475081925e+18,135.49719218750002,-11.429873657226562,39.06736831665039,-30.159117889404296,1.689726647510272e+18,135.49927215576173,18.879310607910156,50.602317810058594,48.74974060058594,1.6897266475081925e+18,135.49719218750002,-0.1489234430794015,0.3015066130655591,-0.4431717147863925,-2.1818453985597706,-0.4245591469240798,0.7295900205367619,-1.1262511314745254
0.55,1.689726647558296e+18,135.54729599609374,-3.623936931857467,-2.129732042366862,4.25601558094114,1.6897266475658125e+18,135.5548124511719,-0.0878143310546875,0.6373321533203125,0.043792724609375,1.689726647558296e+18,135.54729599609374,2.6764315663984415,8.646060394526124,-3.774301973108946,1.689726647558296e+18,135.54729599609374,-0.8916234254837037,-1.377411413192749,0.2151898995041847,1.6897266475608023e+18,135.5498023925781,-0.8619011759757995,-1.363450002670288,0.2468281008303165,,,,,,,,,,,,,1.689726647558296e+18,135.54729599609374,-9.878994369506836,37.142241668701175,-32.560021209716794,1.6897266475570808e+18,135.54608090820312,20.29704895019531,48.83467407226563,46.66773376464844,1.689726647558296e+18,135.54729599609374,-0.0855713376420399,0.2682801205998397,-0.4392465680272938,-2.18760439477754,-0.4130250418396832,0.7512566944105485,-1.0794246811444774
0.6,1.6897266476083994e+18,135.59739951171872,-3.9018170600053663,-3.6382006688183544,3.9141636236202713,1.6897266476159163e+18,135.60491630859374,-0.1617706298828125,0.4744720458984375,0.0239349365234375,1.6897266476083994e+18,135.59739951171872,2.695468684467077,8.612663268741368,-3.8371000823274257,1.6897266476083994e+18,135.59739951171872,-0.2597843499854207,-1.3994868516921997,1.00840904712677,1.689726647610906e+18,135.5999059082031,-0.225877609103918,-1.3711848258972168,1.060439383983612,,,,,,,,,,,,,1.6897266476083994e+18,135.59739951171872,-8.923666000366211,36.04731903076172,-34.07007751464844,1.6897266476090906e+18,135.59809067382812,21.20319519042969,47.7880859375,45.14682312011719,1.6897266476083994e+18,135.59739951171872,-0.0078261180592103,0.2385208316770142,-0.4516663131490556,-2.183127194523498,-0.3981165700888123,0.7618856487984607,-1.0722121089423011
0.65,1.6897266476585032e+18,135.64750322265624,-3.6978154718255993,-3.7705745354706046,4.946902275919913,1.6897266476610097e+18,135.65000964355468,-0.112518310546875,0.5469512939453125,0.15203857421875,1.6897266476585032e+18,135.64750322265624,2.2322351745687423,8.816624115745423,-3.659869304434359,1.6897266476585032e+18,135.64750322265624,0.592263039946556,-0.200941264629364,1.768782639503479,1.6897266476610094e+18,135.65000942382812,0.6458225786685944,-0.1159513711929321,1.7776402473449706,,,,,,,,,,,,,1.6897266476585032e+18,135.64750322265624,-9.50702133178711,35.871437072753906,-34.471710968017575,1.6897266476610995e+18,135.65009931640623,19.85823974609375,47.84837646484375,45.099072265625,1.6897266476585032e+18,135.64750322265624,0.110851586858606,0.2188543342848757,-0.4845034558246969,-2.1170857016127975,-0.3890022797927102,0.7522393591023332,-1.118011493210691
0.7,1.6897266477086067e+18,135.69760673828128,2.3247152176672214,1.0596916580593585,1.1842816220632195,1.6897266477061023e+18,135.69510268554686,0.438848876953125,1.08953857421875,-0.25587158203125,1.6897266477086067e+18,135.69760673828128,1.3947369018139688,9.154780199609991,-3.2134272671827673,1.6897266477086067e+18,135.69760673828128,1.2856770992279052,0.4820536389946938,1.4908791303634643,1.6897266477111132e+18,135.70011333007812,1.2642454862594603,0.461388286203146,1.4208905458450318,,,,,,,,,,,,,1.6897266477086067e+18,135.69760673828128,-12.959118843078612,36.869590759277344,-33.061615753173825,1.6897266477131118e+18,135.70211186523437,16.141482543945312,49.1246337890625,46.9462890625,1.6897266477086067e+18,135.69760673828128,0.2377045241741551,0.228076639148977,-0.5235542467839889,-1.9774105920885665,-0.3932765638863862,0.7203947369327357,-1.205045149660068
0.75,1.6897266477587103e+18,135.74771040039064,11.84585211042285,8.081722513307929,-11.127851607712506,1.6897266477562066e+18,135.74520649414063,1.2919677734375,1.7402374267578125,-1.45439453125,1.6897266477587103e+18,135.74771040039064,1.0043073030026255,9.288599238182304,-2.979203208505511,1.6897266477587103e+18,135.74771040039064,-0.4526235669851303,0.3359400868415833,0.0805893834680318,1.6897266477612168e+18,135.75021669921875,-0.5403936266899109,0.3518962562084198,0.0549526765942573,,,,,,,,,,,,,1.6897266477587103e+18,135.74771040039064,-15.42651309967041,37.74127960205078,-31.66101531982422,1.6897266477651254e+18,135.75412534179688,14.303399658203125,49.391912841796874,47.559503173828126,1.6897266477587103e+18,135.74771040039064,0.2978685415687715,0.2381666324394617,-0.5385425253115598,-1.896273348785991,-0.3984199656617092,0.7031924024533922,-1.2443858449540142
0.8,1.6897266478088136e+18,135.7978135253906,1.347798318154365,-1.9035194991618392,-2.256243212917745,1.6897266478063096e+18,135.7953095703125,0.176922607421875,0.7318878173828125,-0.5190643310546875,1.6897266478088136e+18,135.7978135253906,0.9631148763926326,9.158339937918186,-3.3698613407626743,1.6897266478088136e+18,135.7978135253906,-0.6894775375723838,0.0018277183175087,0.216051211208105,1.6897266478113198e+18,135.8003197265625,-0.626297388225794,-0.0056133061647415,0.2637372605502605,,,,,,,,,,,,,1.6897266478088136e+18,135.7978135253906,-16.42389259338379,36.34965515136719,-32.96620864868164,1.6897266478119398e+18,135.80093994140626,13.49335479736328,47.89818572998047,46.11140823364258,1.6897266478088136e+18,135.7978135253906,0.3295353783020092,0.2286937765219036,-0.5278443888569511,-1.8495200513376824,-0.415040154678649,0.704833579914615,-1.2052656142797586
0.85,1.6897266478589169e+18,135.84791704101562,0.3495382448136805,5.334556725542545,4.809021277831793,1.689726647856413e+18,135.845412890625,0.1554412841796875,1.530169677734375,0.143853759765625,1.6897266478589169e+18,135.84791704101562,0.843642240789458,9.17343813832879,-3.360948317179978,1.6897266478589169e+18,135.84791704101562,0.3854091882705688,-0.7053989872336388,0.0126142665743827,1.6897266478614236e+18,135.8504236328125,0.3794586971402168,-0.690050745010376,-0.0373464703559875,,,,,,,,,,,,,1.6897266478589169e+18,135.84791704101562,-17.20683059692383,35.65670318603516,-33.75612106323242,1.6897266478587494e+18,135.8477494140625,12.878201293945311,47.50762939453125,45.59822998046875,1.6897266478589169e+18,135.84791704101562,0.3746834941958762,0.2227082601195948,-0.5347439304735764,-1.8169315908657,-0.4135141426667206,0.7024297633563309,-1.2095338197744652
0.9,1.689726647909021e+18,135.89802080078124,-5.407206921985596,0.1164769755315781,2.7817167013081905,1.6897266479065167e+18,135.895516796875,-0.4848175048828125,0.8651824951171875,-0.026409912109375,1.689726647909021e+18,135.89802080078124,1.0061255021796374,9.211662479687332,-3.2092312767976523,1.689726647909021e+18,135.89802080078124,0.4378916338086128,0.0289155509322881,0.0757842142134904,1.689726647911527e+18,135.900526953125,0.4828666925430298,0.0547129899263381,0.1247975908219814,,,,,,,,,,,,,1.689726647909021e+18,135.89802080078124,-16.632801055908203,35.80825576782227,-34.0755111694336,1.6897266479107615e+18,135.89976162109377,13.395037841796874,47.63479309082031,45.3744140625,1.689726647909021e+18,135.89802080078124,0.3300954908105229,0.2261533868965239,-0.5353793488025358,-1.8746533465770017,-0.4025751125185528,0.7072094558131955,-1.2207228712233529
0.95,1.6897266479591245e+18,135.94812426757812,-2.9731652142894265,-4.614740347129702,5.233468574705124,1.6897266479566203e+18,135.94562045898437,-0.22637939453125,0.54619140625,0.2463348388671875,1.6897266479591245e+18,135.94812426757812,0.7147747748229653,9.362412194794416,-2.8212204441788793,1.6897266479591245e+18,135.94812426757812,1.3035172820091248,1.380292820930481,0.4376183778047561,1.6897266479616307e+18,135.95063066406252,1.3351627945899964,1.4151912808418274,0.3812425285577774,,,,,,,,,,,,,1.6897266479591245e+18,135.94812426757812,-17.770814895629883,36.27241973876953,-32.87694244384765,1.6897266479627727e+18,135.95177275390623,11.607131958007812,48.56258544921875,47.30630798339844,1.6897266479591245e+18,135.94812426757812,0.3519367907081864,0.2478261883402706,-0.54687893875439,-1.817115387325472,-0.4055319445215323,0.689071184949797,-1.2692875479294528
1.0,1.689726648009228e+18,135.99822807617187,-4.36587044953227,4.3296560451436035,2.2097324846683444,1.689726648006724e+18,135.99572392578125,-0.3841552734375,1.394171142578125,-0.017303466796875,1.689726648009228e+18,135.99822807617187,0.6569227875436842,9.545550384713412,-2.1378166230753064,1.689726648009228e+18,135.99822807617187,1.4721162557601928,-0.9314816176891328,-0.1411918357014656,1.6897266480117345e+18,136.00073447265623,1.4532556772232057,-1.0889436185359955,-0.072176307439804,,,,,,,,,,,,,1.689726648009228e+18,135.99822807617187,-18.702194595336913,38.41123275756836,-29.762611389160156,1.689726648014782e+18,136.0037818359375,11.903021240234375,50.848565673828126,50.21611633300781,1.689726648009228e+18,135.99822807617187,0.257691962892383,0.2836202928521265,-0.5561358817250321,-1.873367401665294,-0.3963198763388379,0.6730746236950652,-1.3403381290519014
1.05,1.6897266480593316e+18,136.04833154296875,-2.169926923919916,-1.5305710357618332,-2.068221050349474,1.6897266480568276e+18,136.04582763671874,-0.1631988525390625,0.8244293212890625,-0.3740081787109375,1.6897266480593316e+18,136.04833154296875,0.3172336214934755,9.674895960359573,-1.5416962993404266,1.6897266480593316e+18,136.04833154296875,0.7410167276859283,-0.9638071537017824,1.9801028490066528,1.6897266480618378e+18,136.05083793945312,0.7062214732170105,-0.870579743385315,2.008451986312866,,,,,,,,,,,,,1.6897266480593316e+18,136.04833154296875,-17.967940521240234,39.48166275024414,-28.55969619750977,1.689726648061592e+18,136.05059191894532,11.806785583496094,51.29751205444336,50.924072265625,1.6897266480593316e+18,136.04833154296875,0.4435043243169874,0.2745786282377019,-0.5928753593848245,-1.7584485408205972,-0.3634959211570122,0.6638370455890261,-1.4074722011215357
1.1,1.6897266481094354e+18,136.0984353515625,1.189017827578783,-0.5038505039340258,-2.764868325455487,1.6897266481069317e+18,136.09593139648436,0.0685638427734375,0.939056396484375,-0.415216064453125,1.6897266481094354e+18,136.0984353515625,-0.4515140250199474,9.702193600225447,-1.3452576645347476,1.6897266481094354e+18,136.0984353515625,0.0809786647558212,-0.2270109545439481,1.2099672079086303,1.6897266481119416e+18,136.10094155273435,0.051206886768341,-0.1595635086297989,1.1971798419952393,,,,,,,,,,,,,1.6897266481094354e+18,136.0984353515625,-20.102627182006835,38.89009323120117,-28.56229019165039,1.6897266481084017e+18,136.0974016601563,9.825360107421876,50.672543334960935,50.79059753417969,1.6897266481094354e+18,136.0984353515625,0.9811870363667206,0.2592123464011654,-0.6266886512678527,-1.2499747169636015,-0.3608954877394262,0.6401189185074976,-1.4247812094832388
1.15,1.6897266481595387e+18,136.14853886718748,1.2394672542905063,-0.439889546868205,-0.3938505277837812,1.6897266481570348e+18,136.1460347167969,0.0251190185546875,0.944830322265625,-0.1699615478515625,1.6897266481595387e+18,136.14853886718748,-1.0341642573494465,9.65762579351127,-1.344189976851046,1.6897266481595387e+18,136.14853886718748,-0.0779396016150712,1.6918793201446534,0.8994555115699768,1.6897266481620454e+18,136.15104545898438,-0.0597213877364993,1.7139684915542603,0.8811316132545471,,,,,,,,,,,,,1.6897266481595387e+18,136.14853886718748,-22.591551208496092,37.90581436157227,-28.371473693847655,1.689726648160409e+18,136.149408984375,6.61207275390625,49.53362121582031,51.346673583984376,1.6897266481595387e+18,136.14853886718748,1.2745205809994191,0.2611755470378554,-0.637706557740971,-0.918727278056254,-0.3820397918025491,0.6155860059937897,-1.396436053824231
1.2,1.6897266482096428e+18,136.19864262695313,1.9754716595642268,-0.1172820959824323,-0.2804495110183954,1.6897266482071386e+18,136.1961385253906,0.04327392578125,0.965826416015625,-0.1496429443359375,1.6897266482096428e+18,136.19864262695313,-1.4794829165942966,9.615019992972016,-1.2343318933895229,1.6897266482096428e+18,136.19864262695313,0.2626765698194503,0.0556645728647709,0.6617658615112305,1.689726648212149e+18,136.20114897460937,0.2756958156824112,0.0167901616543531,0.6425298452377319,,,,,,,,,,,,,1.6897266482096428e+18,136.19864262695313,-25.76807632446289,37.217962646484374,-27.329056549072263,1.689726648212417e+18,136.20141713867187,3.8419281005859376,48.97445373535156,52.12081298828125,1.6897266482096428e+18,136.19864262695313,1.448994749559062,0.2712869624369466,-0.6438640236668551,-0.6963720919619194,-0.401070644641712,0.5924169176278664,-1.3728413355605875
1.25,1.6897266482597463e+18,136.24874633789062,-0.6984077673594653,-1.3766831395334005,1.0302467185795303,1.6897266482572424e+18,136.2462423828125,-0.266229248046875,0.83419189453125,0.007159423828125,1.6897266482597463e+18,136.24874633789062,-1.76031765676409,9.591937691165803,-1.0236027359073607,1.6897266482597463e+18,136.24874633789062,0.5385574698448181,0.908092087507248,0.6279889285564423,1.6897266482622523e+18,136.2512525390625,0.5614842116832733,0.9761476516723632,0.6582500576972962,,,,,,,,,,,,,1.6897266482597463e+18,136.24874633789062,-27.10705909729004,37.02555770874024,-26.797034454345702,1.6897266482644255e+18,136.25342539062498,2.3598541259765624,48.8486083984375,53.053060913085936,1.6897266482597463e+18,136.24874633789062,1.6065533786325197,0.2760341614321567,-0.6539021563778811,-0.527837730868628,-0.402680597777684,0.5779169820253258,-1.3611897230902603
1.3,1.68972664830985e+18,136.2988498535156,-0.2947585776518285,0.0872539205610752,1.0894499962568656,1.689726648307346e+18,136.296345703125,-0.242755126953125,0.988580322265625,0.0437744140625,1.68972664830985e+18,136.2988498535156,-2.2390550252644714,9.52777004715979,-0.5796047892592101,1.68972664830985e+18,136.2988498535156,0.8636692881584167,0.4252894014120102,1.1506264209747314,1.6897266483123564e+18,136.3013564453125,0.8631070137023926,0.3345303803682327,1.1706854820251464,,,,,,,,,,,,,1.68972664830985e+18,136.2988498535156,-29.83215255737305,36.838311767578126,-24.747279357910156,1.6897266483112294e+18,136.30022955322266,-0.2381324768066406,48.6057014465332,55.00516128540039,1.68972664830985e+18,136.2988498535156,1.8346096215440248,0.2929108441210316,-0.6673184677327758,-0.2569659887339356,-0.4108601349181303,0.5476930444775269,-1.3320646985867175
1.35,1.6897266483599537e+18,136.348953515625,2.9777280506125092,1.4485451958864926,-3.2433294781368973,1.6897266483574497e+18,136.3464495605469,0.028143310546875,1.1096923828125,-0.37960205078125,1.6897266483599537e+18,136.348953515625,-2.7885860025557876,9.397248413471578,-0.2583399595812149,1.6897266483599537e+18,136.348953515625,0.5251568555831909,-0.3730890467762947,0.904822677373886,1.6897266483624596e+18,136.35145976562498,0.4967003017663955,-0.3268058121204376,0.8494951128959656,,,,,,,,,,,,,1.6897266483599537e+18,136.348953515625,-31.62975044250488,36.03577194213867,-23.88875045776367,1.6897266483580347e+18,136.34703452148435,-1.63941650390625,47.80938720703125,55.51459655761719,1.6897266483599537e+18,136.348953515625,2.017057827088975,0.2867098946608099,-0.692486162037244,-0.093375714623089,-0.4032358995712344,0.5249683836297716,-1.2810838387139347
1.4,1.6897266484100572e+18,136.39905712890624,2.9887290448373554,1.8158927705395225,-5.314748564649223,1.6897266484075533e+18,136.39655322265625,-0.0098388671875,1.1400482177734377,-0.5458099365234375,1.6897266484100572e+18,136.39905712890624,-2.976219107354283,9.342912661458849,-0.1492683320559561,1.6897266484100572e+18,136.39905712890624,-0.1223131500184536,0.4782888948917388,0.1015230948105454,1.6897266484125637e+18,136.40156352539063,-0.1397880464792251,0.4892426073551178,0.097645812574774,,,,,,,,,,,,,1.6897266484100572e+18,136.39905712890624,-32.2767692565918,35.61108322143555,-23.597908782958985,1.6897266484100424e+18,136.39904243164062,-2.2674224853515623,47.40593566894531,55.81049499511719,1.6897266484100572e+18,136.39905712890624,2.057726444309969,0.2868729970200014,-0.6991338704548683,-0.0501127145785392,-0.4036690942167075,0.5157071429800233,-1.2620411587980642
1.45,1.6897266484601608e+18,136.44916083984376,3.5737502915742994,3.0514357348322867,-2.3626853212298453,1.6897266484576568e+18,136.44665668945314,0.0853973388671875,1.2682952880859375,-0.26787109375,1.6897266484601608e+18,136.44916083984376,-2.9454816146197915,9.351725848702788,-0.1836978330957516,1.6897266484601608e+18,136.44916083984376,-0.1688583701848983,0.0582948509603739,-0.5253093644976616,1.6897266484626673e+18,136.45166723632812,-0.1789965420961379,0.0387850534170866,-0.6074474953114987,,,,,,,,,,,,,1.6897266484601608e+18,136.44916083984376,-32.52248840332031,35.6227783203125,-23.803651428222658,1.6897266484620518e+18,136.451051953125,-2.268621826171875,47.62740783691406,55.39931945800781,1.6897266484601608e+18,136.44916083984376,2.030443422321166,0.2902820767400295,-0.6946285026404719,-0.0624787655620372,-0.4094670011312954,0.5153139378872733,-1.2650999734231898
1.5,1.6897266485102646e+18,136.49926455078125,4.8419767388767,2.671312966662645,-5.5666129678875205,1.6897266485077606e+18,136.49676064453124,0.274114990234375,1.2463348388671875,-0.601708984375,1.6897266485102646e+18,136.49926455078125,-2.2796122811630366,9.522954054406284,-0.4178137807962484,1.6897266485102646e+18,136.49926455078125,-0.7535953998565674,-0.7440706133842468,-2.207625317573547,1.6897266485127706e+18,136.501770703125,-0.7761483192443848,-0.819766840338707,-2.2885563373565674,,,,,,,,,,,,,1.6897266485102646e+18,136.49926455078125,-30.31422119140625,36.7697265625,-25.110247802734374,1.6897266485140628e+18,136.50306279296873,1.1788970947265625,49.225765991210935,53.49040222167969,1.6897266485102646e+18,136.49926455078125,1.91435286211962,0.2934613411199387,-0.6742140179721415,-0.190790940981438,-0.4019505354474599,0.5453865941713298,-1.33134369011735
1.55,1.689726648560368e+18,136.54936796875,4.9395991425257915,3.143613083270192,0.6091926881802081,1.689726648557864e+18,136.54686401367186,0.373504638671875,1.3175140380859376,-0.0109619140625,1.689726648560368e+18,136.54936796875,-0.7766812570908619,9.7138182208544,-0.9530597993288188,1.689726648560368e+18,136.54936796875,-1.0212087988853455,-0.9145609319210052,-3.6452810764312744,1.6897266485628746e+18,136.55187456054688,-1.0279271125793457,-0.7736415803432465,-3.662913179397583,,,,,,,,,,,,,1.689726648560368e+18,136.54936796875,-23.181669616699217,39.178992462158206,-28.65562973022461,1.6897266485608735e+18,136.54987335205078,8.532646179199219,51.449119567871094,50.02414321899414,1.689726648560368e+18,136.54936796875,1.2156162627993898,0.2889918025687178,-0.630515023145086,-0.9436144149298198,-0.3764463163334001,0.6135275710747201,-1.4346779927520017
1.6,1.689726648610472e+18,136.59947182617185,-8.43096767884612,3.581491524124741,2.4039367260985074,1.6897266486079675e+18,136.59696767578126,-0.78612060546875,1.32987060546875,0.0758087158203125,1.689726648610472e+18,136.59947182617185,0.8079193170186876,9.649824530562755,-1.501173091841936,1.689726648610472e+18,136.59947182617185,-1.1310564517974853,1.229860496520996,-2.6427168607711793,1.6897266486129782e+18,136.60197802734373,-1.1461684465408326,1.256741714477539,-2.543930435180664,,,,,,,,,,,,,1.689726648610472e+18,136.59947182617185,-16.0757698059082,40.43052291870117,-31.224134826660155,1.689726648607683e+18,136.59668334960938,14.415115356445312,52.29552307128906,48.02139587402344,1.689726648610472e+18,136.59947182617185,0.0934192464582711,0.3066262580364292,-0.5648958580812541,-2.0405918657206894,-0.3733012627044739,0.6686045498704505,-1.394378619686143
1.65,1.6897266486605755e+18,136.649575390625,-3.655581456434279,0.3994688060569762,-1.044258731188625,1.6897266486580713e+18,136.64707138671875,-0.172174072265625,1.0070098876953124,-0.345074462890625,1.6897266486605755e+18,136.649575390625,1.5777736041198671,9.415051781187652,-2.226101055727899,1.6897266486605755e+18,136.649575390625,-1.625427293777466,0.8030354253947735,-1.2537410974502563,1.6897266486630815e+18,136.65208178710935,-1.642866349220276,0.7383814319968224,-1.2209788799285888,,,,,,,,,,,,,1.6897266486605755e+18,136.649575390625,-13.477534103393555,39.4882194519043,-33.068651580810545,1.689726648659694e+18,136.6486939453125,16.715484619140625,51.20469360351562,46.14145202636719,1.6897266486605755e+18,136.649575390625,-0.1125250284652455,0.3150362706399588,-0.5122069814323733,-2.1882643428471824,-0.3962283952759265,0.6936526713413995,-1.2887076272818514
1.7,1.689726648710679e+18,136.69967890625,-3.160522249399423,0.5047580326199531,-0.7246939213213324,1.689726648708175e+18,136.6971749511719,-0.1319854736328125,0.9603973388671876,-0.3843994140625,1.689726648710679e+18,136.69967890625,2.014597772068083,9.101498223659991,-3.0347115698811407,1.689726648710679e+18,136.69967890625,-1.7997215032577514,-0.6888394221663475,-0.5459857970476151,1.6897266487131853e+18,136.7021853515625,-1.795076107978821,-0.7595454663038254,-0.5032752305269241,,,,,,,,,,,,,1.689726648710679e+18,136.69967890625,-11.57636947631836,37.44846115112305,-35.48967819213867,1.6897266487117002e+18,136.70070024414062,19.041412353515625,48.762692260742185,43.2971923828125,1.689726648710679e+18,136.69967890625,-0.077745835020321,0.2928369806915877,-0.4784938252985816,-2.1575103893345307,-0.4102224987012706,0.7188847897341881,-1.1900885797162557
1.75,1.6897266487607826e+18,136.7497826171875,-4.307447077492773,-2.047561591776013,1.467399417055845,1.689726648758279e+18,136.747278515625,-0.2039093017578125,0.6831573486328125,-0.19537353515625,1.6897266487607826e+18,136.7497826171875,2.361619182529151,8.80932565852642,-3.600722761912942,1.6897266487607826e+18,136.7497826171875,-1.343446707725525,-2.129228401184082,0.0899651702493429,1.689726648763289e+18,136.75228906249998,-1.3083025455474853,-2.154441165924072,0.1201718374155461,,,,,,,,,,,,,1.6897266487607826e+18,136.7497826171875,-8.571941375732422,35.14439315795899,-38.34412384033203,1.6897266487637066e+18,136.75270659179688,22.62195739746094,46.39543151855469,40.287374877929686,1.6897266487607826e+18,136.7497826171875,0.0139520082076262,0.2463843626593055,-0.4686345586235529,-2.151059110746026,-0.3998998403069618,0.7479383366368021,-1.1161285556246094
1.8,1.6897266488108864e+18,136.7998863769531,-4.641863682568073,-2.469752984868288,5.3864955870944256,1.6897266488083825e+18,136.797382421875,-0.198681640625,0.630792236328125,0.1797210693359375,1.6897266488108864e+18,136.7998863769531,2.611549987356365,8.679114172152875,-3.7445219856819505,1.6897266488108864e+18,136.7998863769531,-0.5328768193721771,-2.0568838834762575,0.6184413015842438,1.6897266488133924e+18,136.80239252929687,-0.4864087432622909,-2.0237892627716065,0.6435258746147156,,,,,,,,,,,,,1.6897266488108864e+18,136.7998863769531,-4.678497314453125,33.41970977783203,-40.25978927612304,1.6897266488105137e+18,136.79951361083985,26.04967498779297,45.045772552490234,38.919864654541016,1.6897266488108864e+18,136.7998863769531,0.1080905815300227,0.1977462346911883,-0.4789516677775115,-2.1797792303986614,-0.3706083223251297,0.7706447082909901,-1.086548396322773
1.85,1.68972664886099e+18,136.84998999023438,-3.4353110166293384,-3.0679333975511787,6.431713547930121,1.689726648858486e+18,136.84748603515624,-0.090985107421875,0.581756591796875,0.2918060302734375,1.68972664886099e+18,136.84998999023438,2.5071686694185433,8.774452965683341,-3.5879706570109726,1.68972664886099e+18,136.84998999023438,0.2582501456141471,-0.915418954193592,1.2498870968818665,1.6897266488634964e+18,136.8524963378906,0.2978015364380553,-0.8143365446478128,1.2831592082977294,,,,,,,,,,,,,1.68972664886099e+18,136.84998999023438,-2.3889869689941405,33.447103118896486,-40.57466506958008,1.68972664885732e+18,136.8463201171875,27.761618041992183,45.348388671875,38.83283386230469,1.68972664886099e+18,136.84998999023438,0.1993075968473736,0.1670774006121764,-0.5032548216578436,-2.1803698484836573,-0.3446826563710344,0.7745197932060651,-1.1080372982808313
1.9,1.6897266489110935e+18,136.9000936035156,-0.7930366882809997,-2.198400738732219,5.345269199762642,1.6897266489085896e+18,136.89758955078125,0.13455810546875,0.7170196533203125,0.191168212890625,1.6897266489110935e+18,136.9000936035156,1.8774008983996509,9.049798314656616,-3.2670424206098914,1.6897266489110935e+18,136.9000936035156,1.13580824136734,0.5098348926752806,1.4505640983581545,1.6897266489136e+18,136.9026,1.173294758796692,0.4819707989692688,1.4361091613769532,,,,,,,,,,,,,1.6897266489110935e+18,136.9000936035156,-4.106029510498047,35.13939437866211,-39.46345520019531,1.6897266489093253e+18,136.8983252441406,25.7223388671875,47.171807861328126,40.065179443359376,1.6897266489110935e+18,136.9000936035156,0.3005291056911656,0.1676571613693447,-0.5367850336028832,-2.09043498000231,-0.3406497123890363,0.753336015005247,-1.1760681781779758
1.95,1.6897266489611973e+18,136.9501973144531,9.274061009742022,5.656932121238112,-5.616647983192503,1.6897266489586934e+18,136.94769340820312,1.108282470703125,1.57828369140625,-0.9276275634765624,1.6897266489611973e+18,136.9501973144531,1.396386758686751,9.30392528522551,-2.765182447519004,1.6897266489611973e+18,136.9501973144531,0.4808644667267799,-0.2549245907925069,0.4859004288911819,1.6897266489637036e+18,136.952703515625,0.3720821589231491,-0.149021029472351,0.4309678986668587,,,,,,,,,,,,,1.6897266489611973e+18,136.9501973144531,-5.747341537475586,37.348687744140626,-37.39307708740235,1.6897266489613317e+18,136.95033164062502,24.193316650390624,49.27542724609375,42.106039428710936,1.6897266489611973e+18,136.9501973144531,0.361683133685868,0.1772157230136261,-0.5664285509588367,-2.038477837327471,-0.3285119279317481,0.734702840930063,-1.2493858791612626
2.0,1.6897266490113009e+18,137.00030073242186,4.3342531929016115,1.8794871154761317,-7.060625374319851,1.689726649008797e+18,136.99779682617185,0.53438720703125,1.07626953125,-0.9740325927734376,1.6897266490113009e+18,137.00030073242186,1.2477985178494453,9.245411020032169,-3.018454788632989,1.6897266490113009e+18,137.00030073242186,-0.9764631390571594,0.6586145117878914,0.0808063533157109,1.6897266490138074e+18,137.00280732421874,-0.9621027708053588,0.5837967693805695,0.0931772962212562,,,,,,,,,,,,,1.6897266490113009e+18,137.00030073242186,-6.817959976196289,37.09475936889648,-37.68535385131836,1.6897266490133394e+18,137.00233925781248,22.806552124023437,48.546444702148435,41.28749389648438,1.6897266490113009e+18,137.00030073242186,0.4121472395941018,0.1749479844712049,-0.5628584033440809,-1.9637982753911811,-0.3456956466021398,0.7300695179739154,-1.23109178116626
2.05,1.6897266490614047e+18,137.05040458984374,-0.6890879749937355,6.103649702108502,0.242113233717978,1.6897266490589005e+18,137.04790043945314,0.0675537109375,1.5878143310546875,-0.3123626708984375,1.6897266490614047e+18,137.05040458984374,1.1597580500205606,9.14678627824664,-3.3402699785494803,1.6897266490614047e+18,137.05040458984374,-0.3932782232761383,0.0922932146117091,-0.1126191589981317,1.689726649063911e+18,137.05291079101562,-0.3815309584140777,0.1218623034656047,-0.1512416034936904,,,,,,,,,,,,,1.6897266490614047e+18,137.05040458984374,-7.90265998840332,35.93044662475586,-39.03566818237304,1.6897266490601462e+18,137.04914617919923,22.091751098632812,47.69829559326172,40.15838241577149,1.6897266490614047e+18,137.05040458984374,0.4653490563475892,0.1639559142125909,-0.5585700903989903,-1.904973300552318,-0.3589719353673155,0.7295517945896512,-1.2019070082781655
2.1,1.6897266491115082e+18,137.10050815429688,-6.0500206370604035,-1.5951504169869422,4.416247760855853,1.6897266491090043e+18,137.09800424804686,-0.546343994140625,0.7033447265625,0.152862548828125,1.6897266491115082e+18,137.10050815429688,1.1603426742015777,9.116205846543906,-3.421007941345274,1.6897266491115082e+18,137.10050815429688,0.4311760552227497,0.5860527470707894,0.5588112905621528,1.6897266491140145e+18,137.10301455078124,0.5149327926337719,0.6695309430360794,0.6537733435630798,,,,,,,,,,,,,1.6897266491115082e+18,137.10050815429688,-8.219636917114258,35.70214996337891,-39.77976303100586,1.6897266491069537e+18,137.09595390625,21.772445678710938,47.55712890625,39.60729370117187,1.6897266491115082e+18,137.10050815429688,0.4632395076543106,0.1645062619393972,-0.5550571367617718,-1.8972452578880896,-0.3643253274497547,0.7294321996592255,-1.1934217712738822
2.15,1.6897266491616118e+18,137.15061176757814,-2.1050087538075446,-3.341951297312975,8.032845026701093,1.6897266491591078e+18,137.14810776367187,-0.14656982421875,0.664764404296875,0.5044525146484375,1.6897266491616118e+18,137.15061176757814,0.5178327570724115,9.330567442244291,-2.963212852334678,1.6897266491616118e+18,137.15061176757814,1.517554759979248,1.9356513261795043,0.4246575117111206,1.689726649164118e+18,137.15311811523438,1.5438721895217895,1.871034836769104,0.3243021696805954,,,,,,,,,,,,,1.6897266491616118e+18,137.15061176757814,-12.031521224975586,37.274716186523435,-37.85056915283203,1.6897266491589617e+18,137.1479615722656,17.6995361328125,49.312234497070314,41.77718811035156,1.6897266491616118e+18,137.15061176757814,0.5491952283155686,0.1975077396162526,-0.5742957704679833,-1.7413214444272451,-0.3791371350061023,0.6979145735848195,-1.2586913089593537
2.2,1.6897266492117156e+18,137.2007155761719,-2.5714097585999967,2.3463979402607675,2.8263328772087393,1.6897266492092114e+18,137.19821147460937,-0.213665771484375,1.198077392578125,0.0411529541015625,1.6897266492117156e+18,137.2007155761719,0.4898904772404953,9.55526806112945,-2.1307574106657503,1.6897266492117156e+18,137.2007155761719,2.0135075092315673,-0.7637432426214218,-0.2993053525686264,1.6897266492142218e+18,137.20322182617187,2.0133336067199705,-0.9135704129934312,-0.268156461417675,,,,,,,,,,,,,1.6897266492117156e+18,137.2007155761719,-12.532217407226565,40.654578399658206,-34.14829864501953,1.689726649210971e+18,137.19997099609378,17.700238037109376,52.7991943359375,45.54398803710937,1.6897266492117156e+18,137.2007155761719,0.4510711264282624,0.2392401560180797,-0.5853025431108939,-1.8035515066598424,-0.3636642593335099,0.683873428910295,-1.3455182384987665
2.25,1.689726649261819e+18,137.2508189453125,-2.336975096685886,-0.7058920148611068,-3.256010300594419,1.689726649259315e+18,137.2483150390625,-0.185504150390625,0.91707763671875,-0.477203369140625,1.689726649261819e+18,137.2508189453125,0.4361884017551131,9.715362527686953,-1.2353023604699225,1.689726649261819e+18,137.2508189453125,1.253703510761261,-2.433948016166687,1.3572862088680266,1.6897266492643254e+18,137.25332553710936,1.1945361614227294,-2.3848479747772218,1.435383152961731,,,,,,,,,,,,,1.689726649261819e+18,137.2508189453125,-9.996232986450195,43.31586532592773,-31.490237426757812,1.689726649262983e+18,137.2519830078125,20.351333618164062,55.61951599121094,48.31983642578125,1.689726649261819e+18,137.2508189453125,0.4574443263509963,0.2354380751954129,-0.6196691642042909,-1.897038141843042,-0.3055018838093641,0.6831751852538448,-1.4363098558317808
2.3,1.6897266493119227e+18,137.3009227050781,0.2850592954090051,-0.5150239905685187,-5.562404410281777,1.6897266493094188e+18,137.2984187988281,0.0064697265625,0.9354461669921876,-0.65189208984375,1.6897266493119227e+18,137.3009227050781,-0.2358883431942434,9.762477563892006,-0.8791951855947078,1.6897266493119227e+18,137.3009227050781,0.2135206297039985,-1.02342087328434,1.4327251434326171,1.689726649314429e+18,137.30342900390625,0.1749474734067916,-0.9063107341527938,1.4088770151138306,,,,,,,,,,,,,1.6897266493119227e+18,137.3009227050781,-9.973098754882812,44.27322235107422,-30.33182373046875,1.6897266493149944e+18,137.3039943359375,19.76632080078125,56.08551025390625,49.16412353515625,1.6897266493119227e+18,137.3009227050781,1.1380859837337678,0.2063185291099472,-0.6619008787100154,-1.3130875580191876,-0.2716851714955157,0.6673309725311556,-1.4759137298397589
2.35,1.6897266493620265e+18,137.3510263671875,-0.1487848593879491,-1.4482999305015802,-1.2653309450566024,1.6897266493595223e+18,137.34852236328123,-0.108892822265625,0.85452880859375,-0.1939544677734375,1.6897266493620265e+18,137.3510263671875,-0.8358903845536709,9.730830613549353,-0.8688005743782222,1.6897266493620265e+18,137.3510263671875,-0.1117981748655438,2.1177076935768127,1.039621615409851,1.6897266493645327e+18,137.35353276367186,-0.0965119459608103,2.1642998933792112,1.0567124247550963,,,,,,,,,,,,,1.6897266493620265e+18,137.3510263671875,-12.848083114624025,43.93338241577148,-30.10821075439453,1.6897266493618063e+18,137.35080639648436,16.34549331665039,55.69579315185547,49.3713264465332,1.6897266493620265e+18,137.3510263671875,1.6136280413823882,0.2065616568766745,-0.6784419911926293,-0.8139196498148003,-0.2866549511172126,0.6438523051031769,-1.446839257760783
2.4,1.68972664941213e+18,137.4011298828125,1.7707118003630635,0.6180257491683959,1.830232612250447,1.689726649409626e+18,137.39862607421873,0.0394927978515625,1.047515869140625,0.1151580810546875,1.68972664941213e+18,137.4011298828125,-1.5001970279644428,9.659144381380678,-0.7669676257489622,1.68972664941213e+18,137.4011298828125,0.3738574415445327,-0.5332179456949233,1.293733048439026,1.6897266494146363e+18,137.40363627929688,0.39668949842453,-0.6289623200893402,1.2627804636955262,,,,,,,,,,,,,1.68972664941213e+18,137.4011298828125,-17.35572280883789,43.511392211914064,-29.368741607666017,1.6897266494086193e+18,137.39761928710936,12.480502319335937,55.32023315429687,50.054812622070315,1.68972664941213e+18,137.4011298828125,1.9017198304871197,0.2159329897462347,-0.6940480552562297,-0.478184657643166,-0.307749101737104,0.6138620061575362,-1.397719736036006
2.45,1.6897266494622336e+18,137.45123359375,1.963961955938786,-0.4937808284360169,0.1826187545417249,1.6897266494597297e+18,137.44872958984374,-0.0051422119140625,0.9249725341796876,-0.0452362060546875,1.6897266494622336e+18,137.45123359375,-1.9173348493811488,9.599977555949687,-0.5673668590375036,1.6897266494622336e+18,137.45123359375,0.5986866354942322,-0.0604415565729141,0.5823677361011506,1.68972664946474e+18,137.45373994140624,0.6086034655570984,0.0033435374498367,0.5650133728981018,,,,,,,,,,,,,1.6897266494622336e+18,137.45123359375,-18.48556251525879,43.65544128417969,-28.80239944458008,1.6897266494606328e+18,137.4496327636719,11.524554443359374,55.538507080078126,50.65625915527344,1.6897266494622336e+18,137.45123359375,2.1296218802165803,0.2049601137988871,-0.7156358404722799,-0.288970691179452,-0.2925734726847838,0.6001832330792158,-1.365198931618699
2.5,1.6897266495123374e+18,137.50133740234375,-0.1648665032649039,-0.0842051712888479,-0.3661481211223453,1.6897266495098332e+18,137.49883330078123,-0.25146484375,0.9690216064453124,-0.062091064453125,1.6897266495123374e+18,137.50133740234375,-2.19165649594292,9.55515817101419,-0.2074128250486217,1.6897266495123374e+18,137.50133740234375,0.7511062145233154,0.4266863048076629,0.6924742698669434,1.6897266495148436e+18,137.5038435546875,0.7520337581634522,0.4283949196338653,0.7182518720626831,,,,,,,,,,,,,1.6897266495123374e+18,137.50133740234375,-20.083084106445312,44.14074630737305,-27.26098861694336,1.689726649512645e+18,137.50164506835938,9.762435913085938,56.03031005859375,52.334738159179686,1.6897266495123374e+18,137.50133740234375,2.316763455510055,0.2148678907830383,-0.728120306411397,-0.0964820294175987,-0.2856004461626256,0.5848448693057555,-1.3440016566114863
2.55,1.6897266495624407e+18,137.55144072265625,0.9298461408409476,1.158928043550253,-2.1352604796256123,1.6897266495599368e+18,137.54893681640627,-0.15621337890625,1.08328857421875,-0.2158172607421875,1.6897266495624407e+18,137.55144072265625,-2.6235642502769827,9.446307803290486,0.1641141998466755,1.6897266495624407e+18,137.55144072265625,0.6725783348083496,-0.0549122296273708,0.9647312760353088,1.6897266495649472e+18,137.55394736328125,0.6627492666244507,-0.0574463551864027,0.942815375328064,,,,,,,,,,,,,1.6897266495624407e+18,137.55144072265625,-21.893107986450197,44.20939178466797,-25.751329040527345,1.6897266495646597e+18,137.55365971679686,7.568124389648437,56.03846130371094,54.10894775390625,1.6897266495624407e+18,137.55144072265625,2.472313030892148,0.2216199903271881,-0.7457238420845245,0.0608372437173033,-0.2786016827811612,0.5631014641842236,-1.2992659421861472
2.6,1.6897266496125445e+18,137.60154453125,2.801947354623377,0.6648108812189102,-5.852514197666645,1.6897266496100406e+18,137.59904052734373,-0.0158355712890625,1.0217742919921875,-0.5647979736328125,1.6897266496125445e+18,137.60154453125,-2.9121105585113165,9.355581238182785,0.4001689317633956,1.6897266496125445e+18,137.60154453125,0.2434605352580547,0.1034946948289871,0.2947293877601623,1.6897266496150508e+18,137.60405078125,0.2150586664676666,0.102129778265953,0.2832347929477691,,,,,,,,,,,,,1.6897266496125445e+18,137.60154453125,-23.453728485107423,44.331529998779295,-24.37907257080078,1.689726649611472e+18,137.60047192382814,6.498558044433594,56.20329666137695,55.19049072265625,1.6897266496125445e+18,137.60154453125,2.554558543258797,0.2234011194334269,-0.7582106142059517,0.1364017500146001,-0.2712745621990641,0.5491912024857429,-1.2663468282223582
2.65,1.6897266496626483e+18,137.6516482421875,3.714474228777289,2.25297158544898,-4.643099069581926,1.689726649660144e+18,137.64914409179687,0.0933258056640625,1.1975311279296874,-0.431707763671875,1.6897266496626483e+18,137.6516482421875,-2.967004295119941,9.339662953560948,0.3641819283093884,1.6897266496626483e+18,137.6516482421875,-0.3493922531604766,-0.282786801457405,-0.2976151838898658,1.6897266496651546e+18,137.65415463867186,-0.3829430162906647,-0.2914108663797378,-0.3758093066513539,,,,,,,,,,,,,1.6897266496626483e+18,137.6516482421875,-23.605767440795898,44.349919128417966,-24.27207717895508,1.6897266496582843e+18,137.64728432617187,6.507659912109375,56.1891845703125,55.05647583007813,1.6897266496626483e+18,137.6516482421875,2.548814223411482,0.2189385921151341,-0.7605854558477447,0.1218716426824965,-0.2697833447031043,0.5484291722999914,-1.2609911168178545
2.7,1.689726649712752e+18,137.70175170898438,4.520541605092883,3.415524599950314,-5.293393641931415,1.6897266497102477e+18,137.69924780273436,0.2198028564453125,1.321514892578125,-0.53980712890625,1.689726649712752e+18,137.70175170898438,-2.4026906423340737,9.500624733698368,-0.0844022684167884,1.689726649712752e+18,137.70175170898438,-1.315601658821106,-0.9600796043872832,-2.0320670127868654,1.689726649715258e+18,137.70425810546874,-1.365341567993164,-1.0017208218574525,-2.0982045412063597,,,,,,,,,,,,,1.689726649712752e+18,137.70175170898438,-20.64101791381836,44.76945343017578,-26.107501220703124,1.6897266497102996e+18,137.69929951171875,9.82396240234375,56.6518310546875,53.06346740722656,1.689726649712752e+18,137.70175170898438,2.4081395188377153,0.204079961930884,-0.7417071052325664,-0.0458370584661504,-0.2688568287595601,0.5792913398617923,-1.321888632540568
2.75,1.6897266497628557e+18,137.75185571289063,2.7635418553181736,4.792956745833158,0.8291824259606748,1.6897266497603515e+18,137.7493517089844,0.126300048828125,1.4920501708984375,0.0111663818359375,1.6897266497628557e+18,137.75185571289063,-1.1486827922896294,9.67289946739316,-1.015900081801638,1.6897266497628557e+18,137.75185571289063,-2.0362356185913084,-0.1566210150718689,-2.950923728942871,1.689726649765362e+18,137.7543618652344,-2.042193603515625,0.0246877133846283,-2.9648109912872314,,,,,,,,,,,,,1.6897266497628557e+18,137.75185571289063,-13.90992317199707,44.38576202392578,-30.402159118652342,1.6897266497623168e+18,137.75131679687502,16.701004028320312,56.1609375,48.606878662109374,1.6897266497628557e+18,137.75185571289063,1.7491582564333743,0.1760938217678946,-0.695801987411584,-0.7449914416473163,-0.2722236585380637,0.6403699608017146,-1.4059436767897142
2.8,1.6897266498129595e+18,137.80195952148438,-4.986441791530251,6.177260297242403,6.692460228899717,1.6897266498104556e+18,137.79945561523436,-0.4874114990234375,1.5789337158203125,0.4893341064453125,1.6897266498129595e+18,137.80195952148438,0.0355622432698728,9.610225393719672,-1.9251556645868717,1.6897266498129595e+18,137.80195952148438,-1.685248589515686,2.668196272850037,-2.254830002784729,1.6897266498154662e+18,137.80446616210938,-1.6683721780776977,2.6431778192520143,-2.1942562103271483,,,,,,,,,,,,,1.6897266498129595e+18,137.80195952148438,-10.7985107421875,43.058544921875,-33.39895172119141,1.6897266498143322e+18,137.80333232421876,19.34224853515625,54.40089416503906,45.404971313476565,1.6897266498129595e+18,137.80195952148438,0.8284041196744962,0.1892665714104026,-0.6296093994647332,-1.5753715721601158,-0.3179837980809942,0.6825421258345743,-1.3717015243195974
2.85,1.6897266498630636e+18,137.85206342773438,0.5647874662296475,1.21534223849833,4.52035642855823,1.6897266498605594e+18,137.84955927734376,0.1244659423828125,1.0724578857421876,0.170574951171875,1.6897266498630636e+18,137.85206342773438,0.7300569315787777,9.393604387106894,-2.7051924399107694,1.6897266498630636e+18,137.85206342773438,-1.362929129600525,1.352249813079834,-1.7860337257385257,1.6897266498655695e+18,137.8545695800781,-1.3320516109466554,1.2966904759407043,-1.7627272367477418,,,,,,,,,,,,,1.6897266498630636e+18,137.85206342773438,-10.55764274597168,41.1060188293457,-35.581024169921875,1.6897266498611448e+18,137.85014471435548,19.638343811035156,52.63679122924805,43.43082046508789,1.6897266498630636e+18,137.85206342773438,0.4670439890234716,0.2076686446109808,-0.5734716626788298,-1.830347507842897,-0.3655040080477297,0.7028865365883809,-1.280611459965657
2.9,1.689726649913167e+18,137.9021669433594,-4.677312830898762,-1.896772362989187,0.1331412269890307,1.689726649910663e+18,137.89966293945312,-0.3438140869140625,0.7228363037109375,-0.360931396484375,1.689726649913167e+18,137.9021669433594,1.2609667292716351,9.136838417110445,-3.323744024971127,1.689726649913167e+18,137.9021669433594,-1.4005955934524537,0.045569385588169,-0.8100011587142945,1.689726649915673e+18,137.90467338867188,-1.4248318672180176,0.0272840956225991,-0.7781900405883789,,,,,,,,,,,,,1.689726649913167e+18,137.9021669433594,-9.309477996826171,39.306208801269534,-37.524332427978514,1.689726649907956e+18,137.89695600585938,20.880130004882812,50.98312072753906,41.70008850097656,1.689726649913167e+18,137.9021669433594,0.3289708394507594,0.2052369443311851,-0.535006063077288,-1.9330033060727232,-0.3865141010421252,0.7225773308524331,-1.199732203927352
2.95,1.689726649963271e+18,137.95227045898437,-2.983785918572843,-2.081474850389361,1.806010726568103,1.6897266499607667e+18,137.9497665527344,-0.1393218994140625,0.6884490966796875,-0.183026123046875,1.689726649963271e+18,137.95227045898437,1.642225004277229,8.815466294786333,-3.9636651457965377,1.689726649963271e+18,137.95227045898437,-1.3828657388687131,-1.146718537807465,-0.5804595053195953,1.689726649965777e+18,137.954776953125,-1.358590579032898,-1.205101382732391,-0.5648848056793213,,,,,,,,,,,,,1.689726649963271e+18,137.95227045898437,-7.593281555175781,36.57110595703125,-40.02680435180664,1.6897266499599693e+18,137.94896914062502,22.69634094238281,48.17745361328125,39.137936401367185,1.689726649963271e+18,137.95227045898437,0.3177991275690756,0.1795523892369745,-0.5097057109721523,-1.9628165556429955,-0.3955173870820134,0.7425207481804217,-1.1177922262008024
3.0,1.6897266500133742e+18,138.00237421875,-3.9104147340285778,-2.507483872847557,5.871850064873099,1.6897266500108703e+18,137.99987016601565,-0.18502197265625,0.613079833984375,0.1669097900390625,1.6897266500133742e+18,138.00237421875,2.096298325511813,8.570201962013245,-4.279646339636445,1.6897266500133742e+18,138.00237421875,-0.6642756283283233,-1.5676097631454469,0.0176883019506931,1.6897266500158807e+18,138.00488056640626,-0.623769998550415,-1.5536613464355469,0.063559217005968,,,,,,,,,,,,,1.6897266500133742e+18,138.00237421875,-3.9527416229248047,34.39848022460937,-42.05400085449219,1.6897266500119844e+18,138.00098432617187,26.38905029296875,46.133856201171874,37.22620544433594,1.6897266500133742e+18,138.00237421875,0.3296808457736545,0.1446763691535936,-0.4990880503536145,-2.0260437977929326,-0.3794598156184524,0.7654024049187107,-1.0632703316230094
3.05,1.689726650063478e+18,138.0524779296875,-4.412638162830471,-3.661244275275469,6.328692383203506,1.6897266500609738e+18,138.04997392578125,-0.2342132568359375,0.4967742919921875,0.2159515380859375,1.689726650063478e+18,138.0524779296875,2.13670980165109,8.57761708980143,-4.244419835693538,1.689726650063478e+18,138.0524779296875,0.2696000013500452,-0.573002889752388,1.0380146265029908,1.6897266500609738e+18,138.0499737548828,0.2084230408072471,-0.663702292367816,0.9884071052074432,,,,,,,,,,,,,1.689726650063478e+18,138.0524779296875,-2.121131896972656,33.775569915771484,-42.57110366821289,1.6897266500639985e+18,138.05299843749998,27.93230285644531,45.76678466796875,36.85129089355469,1.689726650063478e+18,138.0524779296875,0.386658603468184,0.1205175926508525,-0.5109065727907156,-2.0369248921623924,-0.3605190559740171,0.7709720053339018,-1.0648582165428464
3.1,1.6897266501135813e+18,138.10258125,-2.0233016829447448,-2.8713932897454497,4.704716152322292,1.6897266501110774e+18,138.10007744140626,-0.0299041748046875,0.633734130859375,0.0597625732421875,1.6897266501135813e+18,138.10258125,1.473233646941185,8.878205834911466,-3.8825771712931982,1.6897266501135813e+18,138.10258125,1.3604755401611328,0.7624480962753296,1.6673471927642822,1.689726650106067e+18,138.09506704101562,1.2351863861083985,0.6537624835968018,1.6472708940505982,,,,,,,,,,,,,1.6897266501135813e+18,138.10258125,-3.9754878997802736,35.24897003173828,-41.62137985229492,1.6897266501108116e+18,138.09981170654297,25.368953704833984,47.53561782836914,38.13541793823242,1.6897266501135813e+18,138.10258125,0.4943795298082911,0.1266532042349599,-0.5451031635222228,-1.9309064700948768,-0.3572259842349664,0.7476228007654461,-1.132913037113695
3.15,1.689726650163685e+18,138.15268520507811,9.27935747948885,6.066954820726513,-6.31587603934586,1.6897266501611812e+18,138.15018115234375,1.04840087890625,1.6147918701171875,-1.064630126953125,1.689726650163685e+18,138.15268520507811,0.6852799902389943,9.188867762650847,-3.3511319734689593,1.689726650163685e+18,138.15268520507811,0.6828378409147262,1.327083134651184,0.8006585955619812,1.6897266501561708e+18,138.14517075195312,0.9842797629535198,1.1977898120880126,0.9901197552680968,,,,,,,,,,,,,1.689726650163685e+18,138.15268520507811,-8.326649856567382,37.92896041870117,-39.22033767700195,1.689726650157623e+18,138.14662314453125,21.400051879882813,49.930963134765626,40.34384460449219,1.689726650163685e+18,138.15268520507811,0.6124292168724828,0.1526373302169694,-0.5777344957308703,-1.7712015949752775,-0.3622715920516927,0.7152219431912243,-1.2141777137328695
3.2,1.6897266502137887e+18,138.20278872070313,6.247794553670883,3.6118984697306153,-8.771735406513809,1.6897266502112847e+18,138.2002848144531,0.635589599609375,1.2384552001953124,-1.1883514404296875,1.6897266502137887e+18,138.20278872070313,0.3553239228495582,9.140637224871517,-3.531198968475163,1.6897266502137887e+18,138.20278872070313,-1.000187909603119,0.5208893172442913,-0.0107132770121097,1.6897266502062743e+18,138.19527436523435,-0.9183144509792328,0.8292192026972771,0.0262162642553448,,,,,,,,,,,,,1.6897266502137887e+18,138.20278872070313,-11.671880722045898,37.64975128173828,-38.87195358276367,1.6897266502096356e+18,138.19863540039063,18.239346313476563,49.37631530761719,40.44009704589844,1.6897266502137887e+18,138.20278872070313,0.6560038346393758,0.1613908258211329,-0.574925179145414,-1.671402040460448,-0.3889574159668501,0.7014662800019705,-1.2004298365557216
3.25,1.6897266502638925e+18,138.25289228515626,-1.403542037268877,4.182216594402194,3.221396580174565,1.6897266502613883e+18,138.25038842773438,-0.09554443359375,1.3938262939453123,-0.029754638671875,1.6897266502638925e+18,138.25289228515626,0.269797783235684,9.022493543623684,-3.832785901616216,1.6897266502638925e+18,138.25289228515626,-0.1218753643333911,-0.1591237317770719,0.1066442877054214,1.689726650256378e+18,138.2453780761719,-0.2654768394306302,-0.0415003523230552,0.2564862683415413,,,,,,,,,,,,,1.6897266502638925e+18,138.25289228515626,-12.320314407348633,36.30607452392578,-40.10421142578125,1.689726650261649e+18,138.2506489746094,17.74317626953125,48.09189453125,39.216607666015626,1.6897266502638925e+18,138.25289228515626,0.6838240665525854,0.1496143002903774,-0.5707544828092916,-1.641104348356332,-0.4005996478496029,0.7009764659432842,-1.16818097155207
3.3,1.6897266503139963e+18,138.30299624023436,-3.0077041524400188,1.9394203660088776,5.616411193374991,1.689726650311492e+18,138.30049208984374,-0.3135223388671875,1.03358154296875,0.1864013671875,1.6897266503139963e+18,138.30299624023436,0.4027227152059599,8.992773060525058,-3.890461027184725,1.6897266503139963e+18,138.30299624023436,-0.067997744679451,1.2818662032485009,-0.5163194797933102,1.6897266503064817e+18,138.2954815917969,-0.1386152951978147,0.8610397696495056,-0.6549797564744949,,,,,,,,,,,,,1.6897266503139963e+18,138.30299624023436,-12.12602996826172,35.893611145019534,-40.25738525390625,1.689726650313661e+18,138.3026609375,17.87647705078125,47.70541687011719,39.14607543945313,1.6897266503139963e+18,138.30299624023436,0.6339471475220542,0.1552935210225453,-0.5613854641126654,-1.67392515536512,-0.4052664279180713,0.7045345177495592,-1.1605275897919145
3.35,1.6897266503640996e+18,138.35309956054687,-2.352971590336561,-5.853727431300878,6.7543151535969965,1.6897266503615954e+18,138.35059560546875,-0.2356842041015625,0.3835601806640625,0.3187530517578125,1.6897266503640996e+18,138.35309956054687,0.0229344730237056,9.10813570352614,-3.6257819167500727,1.6897266503640996e+18,138.35309956054687,1.390000855922699,1.9200533866882323,0.4563731074333191,1.6897266503565852e+18,138.3455853515625,1.1828636050224304,1.9381424188613892,0.4228848293423652,,,,,,,,,,,,,1.6897266503640996e+18,138.35309956054687,-14.77718276977539,36.40991439819336,-39.110285949707034,1.689726650360472e+18,138.34947204589844,14.548812866210938,48.5412483215332,40.731964111328125,1.6897266503640996e+18,138.35309956054687,0.644090037278914,0.1901692344577571,-0.561777278344269,-1.5748443184779386,-0.4280193729419022,0.6817241284719978,-1.1915885210555772
3.4,1.6897266504142031e+18,138.403203125,-3.6969688503205775,5.0242112579542395,3.7646339226013423,1.6897266504116992e+18,138.40069921875002,-0.400128173828125,1.4568817138671877,0.0660919189453125,1.6897266504142031e+18,138.403203125,-0.1930999471498047,9.367753555822372,-2.886111375571191,1.6897266504142031e+18,138.403203125,1.5252110481262209,-0.4433822870254517,-0.3346420586109161,1.689726650406689e+18,138.39568891601562,1.580959606170654,0.0867482498288154,-0.2703834444284439,,,,,,,,,,,,,1.6897266504142031e+18,138.403203125,-17.216411972045897,39.25904159545898,-35.594878387451175,1.6897266504072837e+18,138.39628374023437,12.859747314453124,51.35328674316406,44.059756469726565,1.6897266504142031e+18,138.403203125,0.6646092188801462,0.2300039196711816,-0.575355594549945,-1.505607360047463,-0.4227284484444423,0.6612225942284301,-1.271220302783041
3.45,1.689726650464307e+18,138.45330698242188,-2.6416420510202645,-0.8805780182552339,-0.8406513445712627,1.689726650461803e+18,138.4508029296875,-0.26756591796875,0.87957763671875,-0.3269500732421875,1.689726650464307e+18,138.45330698242188,-0.105046067283498,9.549802080034612,-2.2177018268862367,1.689726650464307e+18,138.45330698242188,1.2670999765396118,-0.9720234096050262,1.0061547785997391,1.6897266504567926e+18,138.4457923828125,1.3329635620117188,-1.2888858556747436,0.69796072691679,,,,,,,,,,,,,1.689726650464307e+18,138.45330698242188,-14.88051986694336,41.79467086791992,-33.27431106567383,1.689726650459297e+18,138.44829692382814,15.333303833007813,53.796023559570315,46.27916870117187,1.689726650464307e+18,138.45330698242188,0.716613403846782,0.2331192378180904,-0.5999291412372949,-1.519946159992408,-0.3811161512875016,0.6635369323114133,-1.342038118710811
3.5,1.6897266505144102e+18,138.5034103515625,1.0095136467805876,-0.5613800835520029,-3.804288004502058,1.6897266505119063e+18,138.50090629882814,0.0331939697265625,0.9244659423828124,-0.575323486328125,1.6897266505144102e+18,138.5034103515625,-0.7438171102382242,9.622594695236083,-1.730388090185523,1.6897266505144102e+18,138.5034103515625,0.6055553257465363,0.5563696313649417,0.9901755809783936,1.689726650506896e+18,138.49589614257812,0.7468092799186706,0.6501153357326984,1.1867068767547608,,,,,,,,,,,,,1.6897266505144102e+18,138.5034103515625,-17.062816047668456,42.61023025512695,-30.96730194091797,1.689726650511308e+18,138.50030791015627,12.749285888671874,54.48915405273438,48.58844909667969,1.6897266505144102e+18,138.5034103515625,1.0769105260983918,0.238329357820572,-0.6304851173632542,-1.1634644084979362,-0.3746804560722016,0.6365707117926069,-1.3767739152699814
3.55,1.6897266505645143e+18,138.55351406250003,0.1624803972329199,-1.6498843453109262,-3.105429015469849,1.6897266505620104e+18,138.55101020507814,-0.10966796875,0.803521728515625,-0.46328125,1.6897266505645143e+18,138.55351406250003,-1.2306534532985836,9.59435410465777,-1.6029480266736449,1.6897266505645143e+18,138.55351406250003,-0.0751922221854328,0.8420774787664413,1.146025276184082,1.6897266505569997e+18,138.54599965820313,-0.0199133053421973,0.6490066317841411,1.0865081906318663,,,,,,,,,,,,,1.6897266505645143e+18,138.55351406250003,-19.61953659057617,42.45529327392578,-29.968120574951172,1.6897266505633172e+18,138.55231723632812,10.20589599609375,54.2236083984375,49.45975341796875,1.6897266505645143e+18,138.55351406250003,1.3052591353003358,0.2391704780201063,-0.6450319665860095,-0.9200234995623584,-0.3829211230157823,0.6164355037266369,-1.362656564299619
3.6,1.6897266506146176e+18,138.60361782226562,0.6092261228322983,-0.6690388449513912,0.3532214633710681,1.689726650612114e+18,138.60111372070313,-0.1301788330078125,0.9099273681640624,-0.1055877685546875,1.6897266506146176e+18,138.60361782226562,-1.8289520416945215,9.509030041567682,-1.5408351816925403,1.6897266506146176e+18,138.60361782226562,0.014315715059638,1.9250031232833864,0.912687349319458,1.6897266506071035e+18,138.59610336914062,-0.0496392957866191,1.8162245750427248,0.8973975658416748,,,,,,,,,,,,,1.6897266506146176e+18,138.60361782226562,-23.29644470214844,41.573987579345705,-29.126782989501955,1.6897266506101253e+18,138.59912524414062,6.5295562744140625,53.39143371582031,50.37044525146485,1.6897266506146176e+18,138.60361782226562,1.4588073255526188,0.2496051325974139,-0.6512810901391312,-0.702360022772403,-0.4110880831599899,0.5867800001187655,-1.3239791214529784
3.65,1.6897266506647212e+18,138.6537212890625,1.9012906587442755,0.5018768073213099,2.0590853239268063,1.6897266506622172e+18,138.65121733398436,-0.04847412109375,1.0085357666015624,0.0899810791015625,1.6897266506647212e+18,138.6537212890625,-2.464137541526258,9.410537401729226,-1.2229702345456928,1.6897266506647212e+18,138.6537212890625,0.6060414910316467,0.8721121102571487,1.1904018878936768,1.689726650657207e+18,138.64620712890627,0.521472030878067,1.1834008932113649,1.2019737720489505,,,,,,,,,,,,,1.6897266506647212e+18,138.6537212890625,-27.453196334838868,40.93233795166016,-27.131421661376955,1.6897266506569352e+18,138.64593515625,2.263897705078125,52.708169555664064,52.441464233398435,1.6897266506647212e+18,138.6537212890625,1.6258615410757256,0.2679305979774148,-0.6604645650160885,-0.4632524425945677,-0.4351862348603424,0.5499863670443185,-1.2858321234441523
3.7,1.6897266507148252e+18,138.70382509765625,2.9355000265705584,0.2540651281529665,0.1828208675981313,1.6897266507123213e+18,138.7013211914063,-0.0011383056640625,0.9922607421875,-0.091009521484375,1.6897266507148252e+18,138.70382509765625,-2.913503357270062,9.326931832994818,-0.8201272320413588,1.6897266507148252e+18,138.70382509765625,0.9372450947761536,-0.4142930895090103,0.6297045946121216,1.6897266507073103e+18,138.69631044921874,0.956768238544464,-0.3317414954304695,0.710789293050766,,,,,,,,,,,,,1.6897266507148252e+18,138.70382509765625,-29.898801803588867,40.45784225463867,-25.19944458007813,1.689726650708946e+18,138.69794594726562,0.0850128173828125,52.309384155273435,54.30326538085937,1.6897266507148252e+18,138.70382509765625,1.8237467569130472,0.268987274233564,-0.6828704380189549,-0.2749556929088643,-0.4268045849584339,0.5282874823341154,-1.2567504809820682
3.75,1.6897266507649285e+18,138.75392841796875,2.691952142326534,2.0730405502343174,-4.792533201271891,1.6897266507624243e+18,138.7514244628906,-0.0451080322265625,1.1465362548828124,-0.5591522216796875,1.6897266507649285e+18,138.75392841796875,-3.1542724829027056,9.268532484804986,-0.5561730018151552,1.6897266507649285e+18,138.75392841796875,0.2703816886991262,0.1934175444766878,0.416480004787445,1.6897266507574144e+18,138.74641435546874,0.3862699955701827,0.0394469037652015,0.4802132129669189,,,,,,,,,,,,,1.6897266507649285e+18,138.75392841796875,-30.624394989013673,40.418827056884766,-24.02511978149414,1.6897266507609595e+18,138.749959375,-0.62877197265625,52.23841552734375,55.45084228515625,1.6897266507649285e+18,138.75392841796875,1.946726604666166,0.2664030823991997,-0.6992991214790036,-0.1748038532510959,-0.4144844289178069,0.5178766527367845,-1.238027127713902
3.8,1.6897266508150316e+18,138.80403144531252,3.128207424345612,1.1495954501551389,-4.81383715368092,1.6897266508125274e+18,138.80152749023438,-0.0103668212890625,1.066778564453125,-0.5252288818359375,1.6897266508150316e+18,138.80403144531252,-3.2617738910093896,9.233518220760226,-0.5216711515784636,1.6897266508150316e+18,138.80403144531252,-0.4368753939867019,0.6686272025108337,0.0434048422612249,1.689726650807517e+18,138.79651704101562,-0.3513143502175808,0.643597674369812,0.089466555416584,,,,,,,,,,,,,1.6897266508150316e+18,138.80403144531252,-31.544029998779298,40.16374893188477,-23.196292114257812,1.6897266508129723e+18,138.80197265625,-1.5339111328125,51.971221923828125,56.22861328125,1.6897266508150316e+18,138.80403144531252,1.9421803895703296,0.270525091442953,-0.6985047773027683,-0.1585467969563402,-0.4223420285281556,0.5104013319152201,-1.2272283628543732
3.85,1.689726650865135e+18,138.85413510742188,7.752674800241588,3.6901025885868073,-1.77360530062139,1.6897266508626312e+18,138.85163105468752,0.531634521484375,1.3219482421875,-0.2515411376953125,1.689726650865135e+18,138.85413510742188,-3.0299324020066853,9.29470012695372,-0.7306698173931613,1.689726650865135e+18,138.85413510742188,-0.8856084465980529,0.2761640191078186,-1.708178347349167,1.6897266508576207e+18,138.84662070312498,-0.8340983271598816,0.4932881027460098,-1.2013026118278505,,,,,,,,,,,,,1.689726650865135e+18,138.85413510742188,-31.407069778442384,40.244425201416014,-23.444012451171876,1.6897266508649882e+18,138.85398803710936,-1.175640869140625,52.169271850585936,55.870697021484375,1.689726650865135e+18,138.85413510742188,1.827599508079998,0.2774925492803436,-0.6810165952611393,-0.239782290047195,-0.4365851655007597,0.5180911969311099,-1.2468625669768223
3.9,1.689726650915239e+18,138.90423867187502,5.581930568589419,3.672945702080727,-1.2682291507161407,1.6897266509127347e+18,138.90173461914063,0.3331787109375,1.37388916015625,-0.2651275634765625,1.689726650915239e+18,138.90423867187502,-1.5240280438591538,9.595001404198406,-1.211355755371526,1.689726650915239e+18,138.90423867187502,-1.0921127200126648,-0.8323980569839478,-3.764996290206909,1.6897266509077243e+18,138.89672426757812,-1.0303981184959412,-0.6155476093292236,-3.821919870376587,,,,,,,,,,,,,1.689726650915239e+18,138.90423867187502,-26.71718864440918,42.36722259521484,-24.862135314941405,1.6897266509118003e+18,138.9008003540039,4.822742462158203,54.83335494995117,54.15371322631836,1.689726650915239e+18,138.90423867187502,1.362706430013322,0.2928963366387332,-0.6299093297653126,-0.7076868523249363,-0.4249416419342274,0.5796759099931361,-1.3651519175435465
3.95,1.6897266509653422e+18,138.95434223632813,-7.384575062820912,5.554796507174372,1.8283598917941748,1.6897266509628385e+18,138.95183837890625,-0.7538055419921875,1.5442413330078124,0.0374237060546875,1.6897266509653422e+18,138.95434223632813,0.0762743472368549,9.634197922363878,-1.788137450034022,1.6897266509653422e+18,138.95434223632813,-1.0329924821853638,0.316458411514759,-2.668598937988281,1.689726650957828e+18,138.94682802734377,-1.0507971048355105,-0.4773801922798156,-2.779026174545288,,,,,,,,,,,,,1.6897266509653422e+18,138.95434223632813,-18.616641998291016,44.17985076904297,-27.825338745117183,1.689726650958613e+18,138.94761308593752,12.020443725585938,56.08473205566406,51.3319091796875,1.6897266509653422e+18,138.95434223632813,0.5101596664212746,0.2929972669707441,-0.5776041899754893,-1.5976638521858952,-0.4027693548195762,0.6464154023270661,-1.3836127187725669
4.0,1.689726651015446e+18,139.00444594726565,-3.6307598220670223,2.2982740192741153,3.03803627193749,1.6897266510129418e+18,139.001941796875,-0.2173797607421875,1.1784027099609375,0.035369873046875,1.689726651015446e+18,139.00444594726565,0.7988081112892925,9.465395716311336,-2.4259585298402606,1.689726651015446e+18,139.00444594726565,-1.3215506315231322,3.048115038871765,-1.4516567707061767,1.6897266510079316e+18,138.9969314941406,-1.2827937602996826,3.2916396141052244,-1.562700128555298,,,,,,,,,,,,,1.689726651015446e+18,139.00444594726565,-16.688492202758788,43.81879806518555,-28.648966979980468,1.689726651010625e+18,138.99962509765626,13.300497436523438,55.58150024414063,50.72377014160156,1.689726651015446e+18,139.00444594726565,0.0874187123364552,0.3280337636720731,-0.5122138407323711,-1.888835689867929,-0.4430976967049729,0.6580475571214119,-1.3072360795990403
4.05,1.6897266510655493e+18,139.05454946289063,-0.9720629420626162,0.0775652364307642,1.1386917788249256,1.6897266510630456e+18,139.05204545898437,-0.010797119140625,0.9323974609375,-0.199310302734375,1.6897266510655493e+18,139.05454946289063,1.2533517242232708,9.217354203135963,-3.096400548813939,1.6897266510655493e+18,139.05454946289063,-1.2439176797866822,-0.0344489097595214,-1.160888385772705,1.6897266510580352e+18,139.04703530273437,-1.2703004837036134,0.2690182104706765,-1.2557019591331482,,,,,,,,,,,,,1.6897266510655493e+18,139.05454946289063,-16.660015487670897,42.82576446533203,-29.851696014404297,1.689726651062637e+18,139.05163676757812,13.527279663085938,54.591488647460935,49.37701416015625,1.6897266510655493e+18,139.05454946289063,-0.0543659136646755,0.339720308871017,-0.4630881366577511,-1.953909760094544,-0.4707085263201055,0.6696530101249947,-1.2230094600674286
4.1,1.6897266511156534e+18,139.10465327148438,-3.56375771451354,-2.1632903792887923,1.3524098743769526,1.6897266511131492e+18,139.1021492675781,-0.1954864501953125,0.6868377685546875,-0.214385986328125,1.6897266511156534e+18,139.10465327148438,1.7168406848004458,8.962793283516168,-3.5864991816058747,1.6897266511156534e+18,139.10465327148438,-1.0158112525939942,-0.7636119484901428,-0.5460007071495057,1.6897266511081385e+18,139.09713857421875,-1.066258716583252,-0.6058731287717819,-0.679239934682846,,,,,,,,,,,,,1.6897266511156534e+18,139.10465327148438,-14.68471736907959,41.454534912109374,-32.15879898071289,1.6897266511146496e+18,139.10364951171874,15.557720947265626,53.17388000488281,47.035345458984374,1.6897266511156534e+18,139.10465327148438,-0.1018011702080299,0.3264423785859081,-0.437820951172345,-2.0167637592796326,-0.4698453848433963,0.6934639210819651,-1.1532117829597126
4.15,1.689726651165757e+18,139.154756640625,-4.001636915246546,-3.388429555371403,4.7893801732945445,1.6897266511632527e+18,139.15225263671874,-0.2005645751953125,0.546893310546875,0.1078460693359375,1.689726651165757e+18,139.154756640625,2.000143977814764,8.802108216041328,-3.832627320827544,1.689726651165757e+18,139.154756640625,-0.4697017163038254,-1.2427500247955323,0.149876495078206,1.6897266511582426e+18,139.14724252929688,-0.5861351191997528,-1.2119503498077393,0.0703358396887779,,,,,,,,,,,,,1.689726651165757e+18,139.154756640625,-12.939697647094729,40.26752700805664,-34.07750701904297,1.6897266511614597e+18,139.15045941162109,17.297470092773438,51.97174453735352,45.14854431152344,1.689726651165757e+18,139.154756640625,-0.0797130965063981,0.3027721635338666,-0.4342445984819642,-2.051712806277609,-0.4576346979837023,0.714314493762867,-1.1142433317209004
4.2,1.6897266512158605e+18,139.20486049804688,-3.6642749628213047,-3.490791145597696,5.158140186641812,1.6897266512133563e+18,139.20235649414062,-0.166650390625,0.546044921875,0.1448486328125,1.6897266512158605e+18,139.20486049804688,2.043640180548578,8.826838869576454,-3.751546711300016,1.6897266512158605e+18,139.20486049804688,0.2611727777868509,-1.055286455154419,0.74949991106987,1.689726651208346e+18,139.19734614257814,0.1469575380906462,-1.1507556915283204,0.6469641208648682,,,,,,,,,,,,,1.6897266512158605e+18,139.20486049804688,-11.671405029296874,39.637166595458986,-35.05320281982422,1.6897266512082714e+18,139.19727133789064,18.486911010742187,51.45838928222656,44.28331298828125,1.6897266512158605e+18,139.20486049804688,-0.0330257316755311,0.2832857088281516,-0.4494696337021162,-2.0695802986518643,-0.4401299301871335,0.7238277569694557,-1.1200406961149922
4.25,1.6897266512609536e+18,139.2499535522461,-2.804911253236793,-3.006907003406435,4.882164796136692,1.68972665126346e+18,139.25246010742188,-0.0619781494140625,0.65245361328125,0.119488525390625,1.6897266512609536e+18,139.2499535522461,1.7337676203951238,9.019608811193702,-3.4319894417651,1.6897266512609536e+18,139.2499535522461,1.079109624028206,-0.1637633666396141,1.2719308137893677,1.6897266512584497e+18,139.24744965820315,1.0305604696273805,-0.2150710823014378,1.2435680866241454,,,,,,,,,,,,,1.6897266512609536e+18,139.2499535522461,-12.014279842376707,40.113980293273926,-34.64764404296875,1.689726651260283e+18,139.24928286132814,17.683026123046876,52.1707275390625,45.07638854980469,1.6897266512609536e+18,139.2499535522461,0.0319457127628776,0.2777008168722061,-0.4763188962399922,-2.0379435901613414,-0.4297186646064103,0.7150212663379061,-1.1677817018755512
4.3,1.689726651306047e+18,139.29504716796876,5.169008202136754,0.9781317990344762,-0.4779642506229876,1.6897266513135636e+18,139.302563671875,1.0487030029296875,1.3083709716796874,-0.7214935302734375,1.689726651306047e+18,139.29504716796876,1.3146396773006022,9.271445391190053,-2.906539012763202,1.689726651306047e+18,139.29504716796876,1.107612097263336,-0.2700928453356027,0.5366464644670487,1.6897266513085537e+18,139.2975533203125,1.0378426432609558,-0.3024859830737114,0.4642397820949554,,,,,,,,,,,,,1.689726651306047e+18,139.29504716796876,-13.747503280639648,41.39819412231445,-32.46104202270508,1.6897266513122929e+18,139.30129282226562,16.169387817382812,53.61310729980469,47.556375122070314,1.689726651306047e+18,139.29504716796876,0.078843719194108,0.2876243291503314,-0.5050446888362657,-1.9957199887205668,-0.4217055764871869,0.6958977455652516,-1.2394017613300086
4.35,1.6897266513561503e+18,139.3451504394531,8.78019823133707,6.764119689965844,-12.030127779939177,1.6897266513636677e+18,139.3526673339844,0.7263427734375,1.3959991455078125,-1.3668212890625,1.6897266513561503e+18,139.3451504394531,1.377262108465135,9.284153598498104,-2.838343019250035,1.6897266513561503e+18,139.3451504394531,-0.9224684357643128,-0.0649142444133758,-0.3972135901451111,1.689726651358657e+18,139.34765703124998,-0.9963662087917328,-0.0388690516352653,-0.4020266890525817,,,,,,,,,,,,,1.6897266513561503e+18,139.3451504394531,-13.358698272705078,41.69020767211914,-31.77003707885742,1.6897266513643008e+18,139.35330087890625,16.88861999511719,53.12651062011719,47.12559814453125,1.6897266513561503e+18,139.3451504394531,0.063330571807629,0.2870943922303471,-0.5069615173442445,-2.022636856843947,-0.4156145927444438,0.6984084077980739,-1.2432275354554592
4.4,1.6897266514062543e+18,139.39525424804688,0.5390321750479937,-2.921055789250135,-1.1530339586234093,1.689726651413771e+18,139.40277114257813,0.0199737548828125,0.591204833984375,-0.222509765625,1.6897266514062543e+18,139.39525424804688,1.5013061582501233,9.087261608514783,-3.364764719049931,1.6897266514062543e+18,139.39525424804688,-0.97686465382576,-0.6446492373943329,0.4311361655592918,1.6897266514087603e+18,139.3977604003906,-0.8951610967516899,-0.6195667415857316,0.510073471069336,,,,,,,,,,,,,1.6897266514062543e+18,139.39525424804688,-12.908095932006836,39.71078720092773,-34.07987289428711,1.6897266514111089e+18,139.40010888671875,17.255584716796875,51.16567611694336,44.89167785644531,1.6897266514062543e+18,139.39525424804688,0.1133295806234073,0.2640318514483669,-0.4935825432998973,-1.9908995737973656,-0.4240602523741385,0.7118599127259291,-1.18554185220388
4.45,1.689726651456358e+18,139.44535791015625,-3.5450876177394384,3.799156720641255,4.241090691270829,1.6897266514638746e+18,139.45287446289063,-0.042047119140625,1.591259765625,-0.022442626953125,1.689726651456358e+18,139.44535791015625,1.1638745308156309,9.12770689924538,-3.388934231570959,1.689726651456358e+18,139.44535791015625,0.4466413408517837,0.0846542716026306,0.3884676814079285,1.6897266514588644e+18,139.4478643066406,0.4293383657932281,0.0258307576179504,0.3099728345870971,,,,,,,,,,,,,1.689726651456358e+18,139.44535791015625,-14.079180335998537,38.960139465332034,-34.48051071166992,1.6897266514579195e+18,139.44691987304685,15.543728637695311,50.86558837890625,45.092471313476565,1.689726651456358e+18,139.44535791015625,0.2127806681995963,0.2541588433394394,-0.5067315800743915,-1.9011830116116648,-0.4287936289285117,0.7033593258254516,-1.196644190975401
4.5,1.6897266515064614e+18,139.4954614746094,-0.6316561712748558,3.0391258207398653,2.3958389644214515,1.6897266515139784e+18,139.50297832031248,-0.15546875,0.908251953125,0.101983642578125,1.6897266515064614e+18,139.4954614746094,1.1626299668081104,9.159151605014204,-3.3046778561645747,1.6897266515064614e+18,139.4954614746094,0.1864160045981407,0.653203946352005,0.3392953425645828,1.689726651508968e+18,139.49796787109375,0.2422683503478765,0.8290161080658436,0.4001322325319051,,,,,,,,,,,,,1.6897266515064614e+18,139.4954614746094,-14.456877517700196,39.08137817382813,-34.33206634521484,1.6897266515099313e+18,139.49893129882813,15.21629638671875,50.849545288085935,45.15599365234375,1.6897266515064614e+18,139.4954614746094,0.2117448831181483,0.2548550265922533,-0.5102710844213523,-1.9088276953678032,-0.4246506428349689,0.7030634510470194,-1.2054025031383315
4.55,1.6897266515565652e+18,139.545565234375,-4.378547326467038,-3.995022523995041,7.291167997231483,1.689726651564082e+18,139.55308193359377,-0.3376312255859375,0.6986907958984375,0.407708740234375,1.6897266515565652e+18,139.545565234375,0.5918780172965302,9.308893370574712,-3.0176372763180734,1.6897266515565652e+18,139.545565234375,1.2798309087753297,1.873245882987976,0.6347114644944668,1.6897266515590712e+18,139.54807138671876,1.3211009979248047,1.818955135345459,0.5803058862686157,,,,,,,,,,,,,1.6897266515565652e+18,139.545565234375,-17.910987854003906,39.30533065795898,-32.55171356201172,1.6897266515619425e+18,139.55094248046876,11.001065063476563,51.48402404785156,47.81156921386719,1.6897266515565652e+18,139.545565234375,0.276884363979687,0.2830946038969981,-0.5183873494105268,-1.7617358442104112,-0.4483854043390579,0.6706608323691429,-1.2514173616813196
4.6,1.6897266516066688e+18,139.59566870117186,-3.6047153971326344,2.4800017578732967,3.2917143881472946,1.6897266516141855e+18,139.6031854003906,-0.37481689453125,1.243609619140625,-0.0429168701171875,1.6897266516066688e+18,139.59566870117186,0.466814824370779,9.522878767986892,-2.277859621502906,1.6897266516066688e+18,139.59566870117186,1.8952961206436156,-0.4028059691190719,-0.4663677453994751,1.6897266516091753e+18,139.59817514648438,1.905069637298584,-0.5748532295227051,-0.446543301641941,,,,,,,,,,,,,1.6897266516066688e+18,139.59566870117186,-19.6577091217041,41.40514526367187,-28.801946258544923,1.6897266516139546e+18,139.6029544921875,10.978485107421877,54.0045654296875,51.59290771484375,1.6897266516066688e+18,139.59566870117186,0.20895307034243,0.3227307289831906,-0.5290395328835462,-1.778970380629324,-0.442935153742907,0.6477305469411557,-1.3309206923963903
4.65,1.6897266516567724e+18,139.645772265625,-3.5411210521960257,0.0966861164861918,-2.087792246068716,1.689726651664289e+18,139.65328906250002,-0.2084381103515625,0.92569580078125,-0.4059967041015625,1.6897266516567724e+18,139.645772265625,0.4494285258094128,9.691378542413712,-1.4045099032268673,1.6897266516567724e+18,139.645772265625,1.3188778519630433,-1.9698145508766176,1.521949148178101,1.6897266516592788e+18,139.64827871093752,1.2694982171058655,-1.8677338719367984,1.630578553676605,1.689726651659117e+18,139.64811694335938,338.41715812683105,-1.0,-1.0,49.27796613055007,357.5985870361328,-1.0,40.0,20.971832275390625,-122.90975673747428,-1.0,1.6897266516567724e+18,139.645772265625,-17.732294845581055,43.412130737304686,-26.201138305664063,1.6897266516607672e+18,139.6497674560547,12.419342041015623,55.4609489440918,53.415897369384766,1.6897266516567724e+18,139.645772265625,0.2038255529496078,0.3240979969203011,-0.5665408943215923,-1.8678722594611468,-0.3946367863884673,0.6463847449959877,-1.4192014182368702
4.7,1.689726651706876e+18,139.69587602539065,1.206647241580486,-1.4158383904534575,-3.9973636510676145,1.6897266517143926e+18,139.7033927246094,0.0977874755859375,0.8586700439453125,-0.5107086181640625,1.689726651706876e+18,139.69587602539065,-0.3956111734742298,9.74897721251905,-0.9627936231620609,1.689726651706876e+18,139.69587602539065,0.442940205335617,-0.3927148174494504,1.5595965147018434,1.689726651709382e+18,139.6983822265625,0.402627282589674,-0.3433554321527481,1.5020578622817993,,,,,,,,,,,,,1.689726651706876e+18,139.69587602539065,-19.696177673339843,43.22858581542969,-25.2044319152832,1.6897266517075817e+18,139.69658183593748,10.00166015625,54.97224731445313,54.26905212402344,1.689726651706876e+18,139.69587602539065,0.9446332558104328,0.3051998138223363,-0.6130627068109834,-1.1840440734259323,-0.3797969357928524,0.6217931021328827,-1.4623379588605507
4.75,1.6897266517569797e+18,139.7459794921875,0.8425042643485219,-1.0593583636778592,-2.677979117327481,1.6897266517644964e+18,139.75349638671875,-0.0594146728515625,0.8851318359375,-0.302532958984375,1.6897266517569797e+18,139.7459794921875,-0.934172128894329,9.719964000906945,-0.8997961919791996,1.6897266517569797e+18,139.7459794921875,-0.2057850025594234,1.9034781217575072,0.6229593276977539,1.6897266517594862e+18,139.7484861328125,-0.2167550042271613,1.9925609350204467,0.6040193200111389,,,,,,,,,,,,,1.6897266517569797e+18,139.7459794921875,-22.200447845458985,42.55536422729492,-24.63845367431641,1.6897266517595945e+18,139.74859443359375,6.8825836181640625,54.19341125488281,55.10478820800781,1.6897266517569797e+18,139.7459794921875,1.331606005664226,0.3055789151525209,-0.6252768342717758,-0.769731748019995,-0.3956355038066099,0.5990684368149773,-1.43795270327065
4.8,1.689726651807084e+18,139.796083984375,0.1736017152887582,-0.0476857633781433,-0.0210599145200848,1.689726651814601e+18,139.80360087890625,-0.0999298095703125,1.01751708984375,-0.0068572998046875,1.689726651807084e+18,139.796083984375,-1.42292586449638,9.66061492155075,-0.884127732013017,1.689726651807084e+18,139.796083984375,-0.0282701455056667,1.1039877772331237,1.2154281497001649,1.68972665180959e+18,139.79859018554689,-0.0031110502779483,1.0470309019088746,1.2318159580230712,,,,,,,,,,,,,1.689726651807084e+18,139.796083984375,-25.91481246948242,41.67930526733399,-23.235518646240234,1.689726651811607e+18,139.80060703125,3.0822418212890623,53.174618530273435,56.40299987792969,1.689726651807084e+18,139.796083984375,1.4516581093370982,0.3219179481095416,-0.6217864208321929,-0.5621176292458331,-0.4311276628331388,0.5689847782642158,-1.3987057090182122
4.85,1.6897266518571876e+18,139.84618764648437,1.7506075791326166,-0.0964713631439209,2.2401556215305627,1.6897266518647045e+18,139.85370419921875,-0.01790771484375,0.9453338623046876,0.1657928466796875,1.6897266518571876e+18,139.84618764648437,-2.0126829075835646,9.570955576509236,-0.6957757310489192,1.6897266518571876e+18,139.84618764648437,0.6152001142501831,0.5724363565444947,1.0358254432678222,1.689726651859694e+18,139.84869404296876,0.6549631953239441,0.555172997713089,1.029932153224945,,,,,,,,,,,,,1.6897266518571876e+18,139.84618764648437,-29.11685104370117,40.62249908447266,-22.126078033447264,1.6897266518636183e+18,139.85261826171876,0.279437255859375,52.244537353515625,57.753204345703125,1.6897266518571876e+18,139.84618764648437,1.645385713259342,0.3240527374425431,-0.6351261901518631,-0.3361508124483768,-0.4463263913247643,0.5406554190600321,-1.351384042121916
4.9,1.6897266519072914e+18,139.89629130859376,2.431131694694459,0.606138210593462,-0.431771604572907,1.6897266519148078e+18,139.90380795898437,-0.0024200439453125,1.0611572265625,-0.2069671630859375,1.6897266519072914e+18,139.89629130859376,-2.4693190942695735,9.485930554817914,-0.2470444247761554,1.6897266519072914e+18,139.89629130859376,0.907452356815338,0.1582483261823654,0.7798665642738343,1.6897266519097974e+18,139.89879750976564,0.8861454844474792,0.1621507197618484,0.7597459077835083,,,,,,,,,,,,,1.6897266519072914e+18,139.89629130859376,-31.310560989379884,39.9831184387207,-20.15122756958008,1.6897266519104274e+18,139.89942736816403,-1.537261962890625,51.75886154174805,59.62873840332031,1.6897266519072914e+18,139.89629130859376,1.8729204213784656,0.3293955467658972,-0.6552631614861215,-0.101827252838156,-0.4432754925555963,0.5153239479778507,-1.314522534638895
4.95,1.689726651957395e+18,139.94639482421877,2.565492818867266,1.4155607425558565,-4.97833038126707,1.6897266519649114e+18,139.95391147460936,-0.03853759765625,1.0948272705078126,-0.5497314453125,1.689726651957395e+18,139.94639482421877,-2.704506269664466,9.425952880621551,0.0653387304153968,1.689726651957395e+18,139.94639482421877,0.2881035923957825,0.4178873747587204,0.1553852908313274,1.6897266519599012e+18,139.94890122070314,0.2655241340398788,0.4581466287374496,0.128338423371315,,,,,,,,,,,,,1.689726651957395e+18,139.94639482421877,-32.4693115234375,39.61451950073242,-18.692852020263672,1.6897266519572375e+18,139.9462375,-2.46065673828125,51.441339111328126,60.77094421386719,1.689726651957395e+18,139.94639482421877,1.994881088502381,0.3344450990290977,-0.6670204033213728,0.0240145456584407,-0.4392883816986613,0.5002443592706289,-1.2912570054190202
5.0,1.6897266520074985e+18,139.99649843749998,2.0327972118166087,1.326427934832573,-6.1226708627295485,1.6897266520150152e+18,140.00401518554685,-0.008404541015625,1.1763427734375,-0.5756561279296875,1.6897266520074985e+18,139.99649843749998,-2.727834012212157,9.418030387833117,0.1716729629294666,1.6897266520074985e+18,139.99649843749998,-0.2082073181867599,0.4446680795401335,0.0566288623958825,1.689726652010005e+18,139.99900483398437,-0.2399526814697309,0.4091445183381438,0.0414175361394882,,,,,,,,,,,,,1.6897266520074985e+18,139.99649843749998,-33.01966552734375,39.578286743164064,-17.943269348144533,1.6897266520092498e+18,139.9982498046875,-3.07947998046875,51.39237060546875,61.55211791992187,1.6897266520074985e+18,139.99649843749998,2.007723820520271,0.3435519005754334,-0.6640267796761433,0.0628664252103149,-0.4451312209505099,0.4928366125200563,-1.2883365861739788
5.05,1.689726652057602e+18,140.04660205078125,6.318735520430207,3.7121699265837664,-4.423447200066745,1.6897266520651187e+18,140.05411875,0.52628173828125,1.3244384765625,-0.3876922607421875,1.689726652057602e+18,140.04660205078125,-2.4486281591923533,9.49212157686472,-0.0694816863988083,1.689726652057602e+18,140.04660205078125,-0.8438593029975892,-0.3142251268029213,-1.6186627745628357,1.6897266520601083e+18,140.04910849609374,-0.8636572241783143,-0.360300126671791,-1.7462541937828064,,,,,,,,,,,,,1.689726652057602e+18,140.04660205078125,-32.622484588623045,39.93519821166992,-18.732870483398436,1.6897266520612623e+18,140.05026240234375,-1.6646942138671874,52.245950317382814,59.94947509765625,1.689726652057602e+18,140.04660205078125,1.9079154504092188,0.3437508578611124,-0.6508864713916449,-0.0334473670829985,-0.448473299131549,0.5068248927217718,-1.3178677284352545
5.1,1.6897266521077056e+18,140.09670561523438,6.192571497429609,3.6217384281259775,-0.6190697052633761,1.6897266521152225e+18,140.10422231445312,0.2497161865234375,1.402789306640625,-0.105926513671875,1.6897266521077056e+18,140.09670561523438,-1.1180311146750674,9.706602181221845,-0.6406694330551103,1.6897266521077056e+18,140.09670561523438,-1.2871161937713622,-0.8525159418582916,-3.528922128677368,1.6897266521102118e+18,140.09921201171875,-1.3179858446121215,-0.7988207876682282,-3.5588784217834473,,,,,,,,,,,,,1.6897266521077056e+18,140.09670561523438,-26.99038276672363,42.455807495117185,-22.08388671875,1.6897266521132744e+18,140.1022744140625,5.359735107421875,55.079400634765626,56.215869140625,1.6897266521077056e+18,140.09670561523438,1.3771963918560195,0.3464083128614784,-0.6099112757201732,-0.5990382741243352,-0.4297728157977689,0.5679151947988681,-1.4314927130963526
5.15,1.6897266521578092e+18,140.1468091796875,-7.278022918263078,6.023861996548772,2.1688617058411985,1.689726652165326e+18,140.15432602539062,-0.74864501953125,1.5626922607421876,0.1337646484375,1.6897266521578092e+18,140.1468091796875,0.4739112735646543,9.688385322721004,-1.3856586485061049,1.6897266521578092e+18,140.1468091796875,-1.487321949005127,1.9705784618854525,-2.69662344455719,1.6897266521603156e+18,140.1493155761719,-1.4847017049789428,2.120217967033386,-2.5984901666641234,,,,,,,,,,,,,1.6897266521578092e+18,140.1468091796875,-19.80283546447754,44.383792877197266,-25.421446228027342,1.6897266521600845e+18,140.1490844116211,11.147064208984377,56.39888000488281,53.52829360961914,1.6897266521578092e+18,140.1468091796875,0.0908093619028741,0.3626919478887681,-0.541955889657619,-1.863092701019886,-0.4261211469144692,0.6264639604476606,-1.4184218708970937
5.2,1.689726652207913e+18,140.19691303710937,-1.9043007711195947,0.8577735981553793,1.9520086586512624,1.6897266522154296e+18,140.20442958984376,0.1617218017578125,0.976531982421875,-0.0928375244140625,1.689726652207913e+18,140.19691303710937,1.201363236762956,9.477426345844863,-2.1969055317384005,1.689726652207913e+18,140.19691303710937,-1.4615777730941772,1.5339043200016025,-1.5443439245224,1.6897266522104192e+18,140.19941923828125,-1.4483786582946778,1.4032531559467316,-1.5492506980895997,,,,,,,,,,,,,1.689726652207913e+18,140.19691303710937,-17.91512107849121,44.298526763916016,-27.1258056640625,1.6897266522068954e+18,140.19589521484377,12.263821411132811,56.10201110839843,52.11627197265625,1.689726652207913e+18,140.19691303710937,-0.2319254424616539,0.3883677393625994,-0.4741643432961167,-2.069974876712633,-0.462180769448205,0.6406186317557682,-1.3124753812304548
5.25,1.6897266522580165e+18,140.24701635742187,-2.8327193926015495,0.4110504058748483,0.5623886760726571,1.6897266522655334e+18,140.25453334960935,-0.2840240478515625,0.9209014892578123,-0.2917083740234375,1.6897266522580165e+18,140.24701635742187,1.8478643643397092,9.194875361728668,-2.855135865523219,1.6897266522580165e+18,140.24701635742187,-1.375222635269165,-0.3065093077719211,-1.039377498626709,1.689726652260523e+18,140.24952294921874,-1.3890782833099364,-0.309668743610382,-0.9609607517719267,,,,,,,,,,,,,1.6897266522580165e+18,140.24701635742187,-15.678535842895508,43.76393051147461,-29.279776763916015,1.6897266522589097e+18,140.247909765625,15.030044555664062,55.351226806640625,49.54239501953125,1.6897266522580165e+18,140.24701635742187,-0.3265645347935609,0.3868215335138411,-0.4313493265717167,-2.1444387851884015,-0.4686707679274202,0.66670608016339,-1.216498471653572
5.3,1.6897266523081203e+18,140.29712026367187,-4.66232042895019,-1.67188118996799,0.1991204212355612,1.689726652315637e+18,140.30463701171874,-0.2209991455078125,0.7199615478515625,-0.2498870849609375,1.6897266523081203e+18,140.29712026367187,2.0799645335046946,8.914669830147028,-3.511528228678107,1.6897266523081203e+18,140.29712026367187,-1.563693141937256,-0.3530371770262718,0.0642409928143024,1.6897266523106266e+18,140.29962641601563,-1.5551313877105712,-0.3913481172174215,0.1009325817227363,,,,,,,,,,,,,1.6897266523081203e+18,140.29712026367187,-13.752795600891114,42.36127624511719,-32.0338851928711,1.689726652310926e+18,140.299926171875,16.510394287109374,53.68126220703125,46.40611877441406,1.6897266523081203e+18,140.29712026367187,-0.267427772811834,0.3622372869153568,-0.4098378799814428,-2.1064515272474496,-0.4753496203655983,0.6890034762489037,-1.1413689120416972
5.35,1.689726652358224e+18,140.34722382812498,-4.129960921986102,-2.292492747071982,4.3997333808109165,1.6897266523657403e+18,140.35474038085937,-0.1794281005859375,0.6220977783203125,0.0733551025390625,1.689726652358224e+18,140.34722382812498,2.0775314026866853,8.70512259053886,-4.008431105431319,1.689726652358224e+18,140.34722382812498,-1.0199984669685365,-1.6684334754943848,0.7983236312866211,1.68972665236073e+18,140.3497302734375,-0.972556972503662,-1.7172443151474,0.824680483341217,,,,,,,,,,,,,1.689726652358224e+18,140.34722382812498,-13.153536987304689,40.22566299438476,-35.180844116210935,1.6897266523629394e+18,140.35193950195313,17.169232177734376,51.48668212890625,43.564352416992186,1.689726652358224e+18,140.34722382812498,-0.1454287186136313,0.3220899809162478,-0.4104091505847444,-2.0491061249114155,-0.4749766901453768,0.7085065009009626,-1.0923313877950371
5.4,1.6897266524083274e+18,140.39732744140625,-3.573940787258148,-3.3044484897750612,5.193629316269755,1.6897266524158444e+18,140.40484428710937,-0.1899566650390625,0.544378662109375,0.1583282470703125,1.6897266524083274e+18,140.39732744140625,2.0631097571372985,8.696729323820472,-4.034446479627787,1.6897266524083274e+18,140.39732744140625,-0.0854161500930786,-2.138630819320679,1.1329935312271118,1.6897266524108337e+18,140.39983383789064,-0.0429900206625461,-2.1189285039901735,1.1524829626083375,,,,,,,,,,,,,1.6897266524083274e+18,140.39732744140625,-11.703060531616211,38.85300674438477,-37.063540649414065,1.6897266524149548e+18,140.4039547363281,18.885247802734376,50.59508361816406,42.04444580078125,1.6897266524083274e+18,140.39732744140625,-0.0241997530029404,0.2794218852381844,-0.4368781872219522,-2.043532046149807,-0.4514154389684353,0.7259371461229842,-1.0904564028970405
5.45,1.689726652458431e+18,140.4474310058594,-4.009073553440272,-3.416976318515539,7.178064063716531,1.689726652465948e+18,140.45494790039064,-0.19000244140625,0.598809814453125,0.402288818359375,1.689726652458431e+18,140.4474310058594,1.7839027642998098,8.892575604143143,-3.7230515614387385,1.689726652458431e+18,140.4474310058594,0.8028177857398987,-0.6461255311965942,1.5965769052505494,1.6897266524609377e+18,140.44993740234375,0.8602696120738983,-0.5117134660482406,1.6093034744262695,,,,,,,,,,,,,1.689726652458431e+18,140.4474310058594,-10.934508514404296,38.98105163574219,-37.06677017211914,1.6897266524617672e+18,140.45076708984374,18.96326446533203,50.95811080932617,42.516815185546875,1.689726652458431e+18,140.4474310058594,0.0960478673639337,0.2525328483532482,-0.4760305626355615,-2.0165510615614295,-0.4269525268672911,0.7260463921315488,-1.136039228434897
5.5,1.6897266525085348e+18,140.49753466796875,2.485644688357189,1.0949098033392428,3.200458655372858,1.6897266525110408e+18,140.50004077148438,0.5763626098632812,1.1980743408203125,-0.1821784973144531,1.6897266525085348e+18,140.49753466796875,1.1462692867940665,9.22257281456709,-3.1194446813407537,1.6897266525085348e+18,140.49753466796875,1.4752915859222413,-0.5932857774198055,1.0758183479309082,1.689726652511041e+18,140.50004111328127,1.4191919922828675,-0.6509826719760895,1.0078007698059082,,,,,,,,,,,,,1.6897266525085348e+18,140.49753466796875,-13.349805450439453,40.60698318481445,-34.66363296508789,1.689726652508579e+18,140.49757905273435,16.6312255859375,52.68778991699219,45.028594970703125,1.6897266525085348e+18,140.49753466796875,0.206610576218139,0.2583391533738582,-0.5169634562880011,-1.922191300742176,-0.4172743662743103,0.7011930289006149,-1.2249016434648
5.55,1.6897266525586383e+18,140.5476382324219,9.074430417801144,7.72197395702958,-12.130895145163535,1.689726652556134e+18,140.54513427734375,0.98558349609375,1.693115234375,-1.5632843017578124,1.6897266525586383e+18,140.5476382324219,0.8130241951031237,9.315344972479938,-2.9478468239942193,1.6897266525586383e+18,140.5476382324219,-0.8407994233071804,1.689979261159897,0.3193660050630569,1.6897266525611446e+18,140.55014458007813,-0.921334981918335,1.7537713646888733,0.3018788397312164,,,,,,,,,,,,,1.6897266525586383e+18,140.5476382324219,-14.392683029174805,41.32581329345703,-33.35885925292969,1.689726652560592e+18,140.5495919921875,14.78841552734375,52.88135986328125,46.06424865722656,1.6897266525586383e+18,140.5476382324219,0.2786202496367961,0.2617187512411019,-0.5305008877917317,-1.8418411320587331,-0.4205690993301545,0.6876865773650412,-1.253117132680395
5.6,1.689726652608742e+18,140.59774204101564,-0.25395044495821,-2.783172686883211,-3.652423255438208,1.6897266526062382e+18,140.5952380859375,-0.0373016357421875,0.6537628173828125,-0.663787841796875,1.689726652608742e+18,140.59774204101564,0.5504125751249119,9.156837599757312,-3.464760047762394,1.689726652608742e+18,140.59774204101564,-0.7565097227692604,-0.3924822270870208,0.6062258161604405,1.689726652611248e+18,140.60024814453124,-0.6788760870695114,-0.4409281194210052,0.6661488387733698,,,,,,,,,,,,,1.689726652608742e+18,140.59774204101564,-17.026388931274415,39.908634948730466,-34.212503051757814,1.6897266526126067e+18,140.60160678710938,12.768350219726562,51.35020446777344,44.729559326171874,1.689726652608742e+18,140.59774204101564,0.3518585983129431,0.2523867849156281,-0.5180847876527441,-1.72885200882321,-0.4511281071575196,0.6813986356986422,-1.204846636245383
5.65,1.6897266526588454e+18,140.64784541015624,1.2241090147042275,6.617654871023296,3.9383019811245794,1.6897266526563415e+18,140.64534135742187,0.2252838134765625,1.6646087646484375,0.048046875,1.6897266526588454e+18,140.64784541015624,0.4027508672414719,9.17255399051845,-3.4431210474061964,1.6897266526588454e+18,140.64784541015624,0.4523509576916694,-1.0379738211631775,-0.1034651905298233,1.689726652661352e+18,140.6503520019531,0.4408663317561149,-0.9967661783099174,-0.1960129737854004,,,,,,,,,,,,,1.6897266526588454e+18,140.64784541015624,-17.51865997314453,39.35433654785156,-34.92879180908203,1.689726652664623e+18,140.65362314453125,12.985302734375,51.385189819335935,44.51163330078125,1.6897266526588454e+18,140.64784541015624,0.4358602281917109,0.2359709675466248,-0.5329480666034077,-1.687627796128508,-0.4419815043444473,0.6817854404900169,-1.2092937544807956
5.7,1.6897266527089492e+18,140.69794912109376,-3.4121888504302498,1.2670143242597585,3.953324018332958,1.6897266527064453e+18,140.69544526367187,-0.3330291748046875,0.98291015625,0.09189453125,1.6897266527089492e+18,140.69794912109376,0.616808862272352,9.203217658138277,-3.329394948791861,1.6897266527089492e+18,140.69794912109376,0.3356247022747993,0.9470973134040832,0.0591725617647171,1.6897266527114552e+18,140.70045537109374,0.382623379305005,1.027250361442566,0.1313509464263916,,,,,,,,,,,,,1.6897266527089492e+18,140.69794912109376,-16.312586784362793,39.844061279296874,-34.60925140380859,1.6897266527114353e+18,140.70043542480468,13.63214111328125,51.737335205078125,44.90068435668945,1.6897266527089492e+18,140.69794912109376,0.3722372375762209,0.2429326170445879,-0.5292617116307566,-1.7537415894576704,-0.4340718007242642,0.6873072779426714,-1.2182029475675442
5.75,1.6897266527590528e+18,140.74805278320315,-2.20045346270442,-5.774970354737043,6.436707352242469,1.6897266527565489e+18,140.74554887695314,-0.19918212890625,0.4062591552734375,0.3455169677734375,1.6897266527590528e+18,140.74805278320315,0.1963569460449646,9.32826489361644,-3.01380672901839,1.6897266527590528e+18,140.74805278320315,1.007453489303589,2.035127544403076,0.1477064035832881,1.6897266527615593e+18,140.7505592285156,1.030090093612671,1.972184419631958,0.0770220756530761,,,,,,,,,,,,,1.6897266527590528e+18,140.74805278320315,-19.24264450073242,40.78211364746094,-32.22282409667969,1.6897266527582477e+18,140.74724760742188,10.559323120117188,52.734371948242185,47.43851318359375,1.6897266527590528e+18,140.74805278320315,0.4072378330245648,0.2749300752138132,-0.5317430409865732,-1.6342617462878866,-0.4551742447960897,0.6589155974156247,-1.257465209181998
5.8,1.6897266528091558e+18,140.79815571289063,-4.331693454642296,4.751609771635532,3.256805981016755,1.6897266528066516e+18,140.7956517089844,-0.4203033447265625,1.4493316650390624,0.061077880859375,1.6897266528091558e+18,140.79815571289063,0.3995461857953853,9.500084986185431,-2.379540594440847,1.6897266528091558e+18,140.79815571289063,1.613343858718872,-1.876776672899723,-0.791740408539772,1.6897266528116623e+18,140.8006623046875,1.6116852521896363,-2.04619956612587,-0.721888256072998,,,,,,,,,,,,,1.6897266528091558e+18,140.79815571289063,-19.06398162841797,42.9333984375,-29.409104919433595,1.6897266528102605e+18,140.79926054687502,12.0139892578125,55.3695068359375,50.41143798828125,1.6897266528091558e+18,140.79815571289063,0.2759397579875812,0.3072033649847647,-0.53587707831298,-1.745165128829457,-0.4383154436025349,0.652644569980733,-1.3209927149724623
5.85,1.6897266528592594e+18,140.84825947265625,-3.416255252312422,-0.4091142355674504,-1.4299848138710856,1.6897266528567557e+18,140.8457555175781,-0.2741851806640625,0.932696533203125,-0.3215728759765625,1.6897266528592594e+18,140.84825947265625,0.4530415213682781,9.647559975857735,-1.682208025871366,1.6897266528592594e+18,140.84825947265625,0.882552969455719,-1.7474767424166202,1.6990398049354554,1.6897266528617656e+18,140.85076572265626,0.8475888967514038,-1.5701877683401109,1.7844029664993286,,,,,,,,,,,,,1.6897266528592594e+18,140.84825947265625,-15.449586486816406,44.87519912719726,-28.024948120117188,1.689726652862274e+18,140.85127412109375,14.527667236328124,56.86134643554688,51.60963134765625,1.6897266528592594e+18,140.84825947265625,0.3192909228305429,0.2913234992672359,-0.5748210445688972,-1.8247197944548692,-0.3823535963365547,0.6619224370719801,-1.3913042974194567
5.9,1.689726652909363e+18,140.89836303710936,1.4324784408780469,-1.0731002394956348,-2.503236678344906,1.689726652906859e+18,140.8958591796875,0.113494873046875,0.8762786865234375,-0.397528076171875,1.689726652909363e+18,140.89836303710936,-0.363527234566845,9.701384271216988,-1.376597010232955,1.689726652909363e+18,140.89836303710936,0.3434570729732513,0.1778793022036552,1.201929461956024,1.6897266529118694e+18,140.90086943359375,0.3216611802577972,0.202259461581707,1.1409541487693786,,,,,,,,,,,,,1.689726652909363e+18,140.89836303710936,-17.965805435180663,44.77582931518555,-26.991574859619146,1.6897266529142876e+18,140.90328754882813,11.283352661132811,56.49593811035156,52.668707275390624,1.689726652909363e+18,140.89836303710936,0.8615835625847993,0.277996963981293,-0.6126760092591151,-1.3119744993463995,-0.3783232394725583,0.6357267325229616,-1.4241494499275418
5.95,1.6897266529594668e+18,140.948466796875,0.4613873413489013,-1.545851256288886,-1.8532088233336808,1.6897266529569628e+18,140.94596274414062,-0.04798583984375,0.8414093017578125,-0.307745361328125,1.6897266529594668e+18,140.948466796875,-0.8476619685987382,9.68571779862523,-1.2736484138989446,1.6897266529594668e+18,140.948466796875,0.0475605502724647,1.314210796356201,0.7596701264381409,1.6897266529619732e+18,140.95097319335937,0.0512432660441845,1.3855523467063904,0.74493488073349,,,,,,,,,,,,,1.6897266529594668e+18,140.948466796875,-20.888784408569336,44.153132629394534,-25.948819732666017,1.689726652961098e+18,140.9500980224609,8.593624114990234,55.84593200683594,53.68537139892578,1.6897266529594668e+18,140.948466796875,1.1597690035048565,0.2814276745518939,-0.6242807421757665,-0.9862568517546472,-0.3917150960100271,0.6144228525281054,-1.413685322799606
6.0,1.6897266530095703e+18,140.9985702636719,-0.044103637881577,0.4354372436344623,-0.0508135692359506,1.6897266530070664e+18,140.99606625976563,-0.1380950927734375,1.023565673828125,-0.1161773681640625,1.6897266530095703e+18,140.9985702636719,-1.3500998584819583,9.643523618400692,-1.146825810085237,1.6897266530095703e+18,140.9985702636719,0.2060647577047347,0.8702445983886719,1.1684401988983155,1.6897266530120768e+18,141.0010767089844,0.2145232737064361,0.8014003694057464,1.1925676703453063,,,,,,,,,,,,,1.6897266530095703e+18,140.9985702636719,-24.428433227539063,43.56656188964844,-24.59415283203125,1.6897266530079084e+18,140.99690830078126,5.355059814453125,55.343344116210936,54.881753540039064,1.6897266530095703e+18,140.9985702636719,1.3704147369687072,0.295931363673055,-0.6283496110956518,-0.7093862478477144,-0.4170971122318558,0.5861053153774234,-1.3885060355070802
6.05,1.689726653059674e+18,141.04867392578126,1.4481334586673973,-0.2716104879069328,1.3713989739723504,1.68972665305717e+18,141.046169921875,-0.047174072265625,0.949420166015625,0.0487548828125,1.689726653059674e+18,141.04867392578126,-1.9322708449673651,9.567667173262238,-0.9303869258802384,1.689726653059674e+18,141.04867392578126,0.6075812816619873,0.4482541352510452,1.0465727210044862,1.6897266530621804e+18,141.05118032226562,0.6414743781089782,0.4376715540885925,1.0444681882858275,,,,,,,,,,,,,1.689726653059674e+18,141.04867392578126,-27.473938369750975,42.72479782104492,-23.41126708984375,1.6897266530599186e+18,141.04891860351563,2.2667022705078126,54.515533447265625,56.14097290039062,1.689726653059674e+18,141.04867392578126,1.6071899399295764,0.2970982844335366,-0.6449651900659995,-0.4516447659368121,-0.4272142885649802,0.5596044099751686,-1.349772765980903
6.1,1.6897266531097777e+18,141.09877758789065,2.4771798030942676,0.0027744916015863,-0.6651843614803254,1.6897266531072737e+18,141.09627348632813,0.007159423828125,0.9726715087890624,-0.1389495849609375,1.6897266531097777e+18,141.09877758789065,-2.413852935374379,9.490145074546934,-0.500851665524654,1.6897266531097777e+18,141.09877758789065,1.001244592666626,-0.1155041545629501,0.8230880498886108,1.689726653112284e+18,141.10128398437502,0.9971641540527344,-0.1291515413671732,0.7976203799247742,,,,,,,,,,,,,1.6897266531097777e+18,141.09877758789065,-29.718921661376953,42.30812225341797,-21.93178253173828,1.689726653111929e+18,141.100929296875,-0.1876434326171875,53.9887451171875,57.97399291992187,1.6897266531097777e+18,141.09877758789065,1.8521417631187636,0.3006601906268381,-0.6668645260589304,-0.2065924881263529,-0.4222657770541458,0.5352560864805932,-1.3161784040362765
6.15,1.6897266531598812e+18,141.14888125,2.376752746514082,1.4785250897997615,-4.776001285570264,1.6897266531573775e+18,141.14637739257813,-0.035711669921875,1.116192626953125,-0.5129425048828125,1.6897266531598812e+18,141.14888125,-2.675489083303511,9.433288045815228,-0.1386065075709158,1.6897266531598812e+18,141.14888125,0.5796740591526032,-0.2745470583438872,0.2844487205147742,1.6897266531623877e+18,141.15138754882813,0.550833648443222,-0.2585484653711319,0.2609962821006774,,,,,,,,,,,,,1.6897266531598812e+18,141.14888125,-30.96731491088867,42.00624389648438,-20.413133239746095,1.6897266531639424e+18,141.1529425292969,-0.9990966796875,53.90322570800781,59.27431030273438,1.6897266531598812e+18,141.14888125,2.0268467215144588,0.3011606472438814,-0.6851915449176763,-0.0520916966328966,-0.4085351294768728,0.5223859851211499,-1.2939944174475908
6.2,1.6897266532099845e+18,141.19898471679687,0.8036046102377771,1.2380607338804006,-4.743941136703789,1.6897266532074808e+18,141.19648076171876,-0.2058868408203125,1.0786895751953125,-0.4689697265625,1.6897266532099845e+18,141.19898471679687,-2.804738037481308,9.396593515146376,-0.0457790986397582,1.6897266532099845e+18,141.19898471679687,-0.1117516010999679,0.1365183696150779,0.5020455628633499,1.6897266532124913e+18,141.20149130859377,-0.1355219811201095,0.1785341635346412,0.5382890373468399,,,,,,,,,,,,,1.6897266532099845e+18,141.19898471679687,-31.405530548095705,41.77275161743164,-19.839283752441407,1.6897266532107535e+18,141.19975360107424,-1.4795417785644531,53.44636535644531,59.526023864746094,1.6897266532099845e+18,141.19898471679687,2.071695576813999,0.2989777681432986,-0.6922908341208257,-0.0161969637139644,-0.4046334030456652,0.5173017235302918,-1.280690444331291
6.25,1.6897266532600886e+18,141.24908857421875,5.3329934217485775,2.593974875438213,-0.3926879429712892,1.6897266532575844e+18,141.24658452148438,0.2814971923828125,1.2337066650390625,-0.052020263671875,1.6897266532600886e+18,141.24908857421875,-2.998107932366133,9.336571300382015,-0.0766951573316566,1.6897266532600886e+18,141.24908857421875,-0.2735927134752273,0.5240501344203949,-0.3142703056335448,1.6897266532625948e+18,141.25159477539063,-0.2908143162727356,0.5137688338756561,-0.4459200203418731,,,,,,,,,,,,,1.6897266532600886e+18,141.24908857421875,-32.819332122802734,40.94935913085938,-19.79392395019531,1.6897266532575634e+18,141.24656337890625,-2.8203887939453125,52.775946044921874,59.60556640625,1.6897266532600886e+18,141.24908857421875,2.0404058840192127,0.2993805906961143,-0.6925114250575323,-0.0256667809586173,-0.4162605227541636,0.507443119873012,-1.25998465912128
6.3,1.689726653310192e+18,141.29919189453125,6.154413733114302,1.5689611475282903,-3.288039382122457,1.689726653307688e+18,141.2966879394531,0.3894744873046875,1.1199188232421875,-0.3706573486328125,1.689726653310192e+18,141.29919189453125,-2.2574014722682536,9.529959666158556,-0.3276239474338572,1.689726653310192e+18,141.29919189453125,-0.9254589319229126,-0.1235198572278022,-2.6185367822647097,1.6897266533126984e+18,141.3016984375,-0.9488767385482788,-0.1443026915192604,-2.707896184921265,,,,,,,,,,,,,1.689726653310192e+18,141.29919189453125,-30.562364959716795,42.40570220947266,-20.78629150390625,1.6897266533095752e+18,141.29857519531248,-0.1382293701171875,54.44198303222656,58.44179992675781,1.689726653310192e+18,141.29919189453125,1.89630090078394,0.3110611847923005,-0.6645277597556121,-0.1562172798460722,-0.416345561373072,0.5365787303225394,-1.335100659941468
6.35,1.6897266533602954e+18,141.34929560546874,1.7278110500782726,2.7083890732210874,-2.470712536002398,1.6897266533577915e+18,141.346791796875,0.0484161376953125,1.2850830078125,-0.3370147705078125,1.6897266533602954e+18,141.34929560546874,-0.6589794868070165,9.727334003605243,-0.9136112207114696,1.6897266533602954e+18,141.34929560546874,-1.4115324020385742,-0.878797447681427,-3.3717723846435548,1.689726653362802e+18,141.35180190429688,-1.426058292388916,-0.8760136365890503,-3.3142582893371584,,,,,,,,,,,,,1.6897266533602954e+18,141.34929560546874,-24.86776123046875,44.729339599609375,-23.232342529296872,1.6897266533615877e+18,141.35058750000002,7.079043579101563,56.994140625,55.19670104980469,1.6897266533602954e+18,141.34929560546874,1.0845164786899792,0.3206902778957255,-0.6096830096986673,-0.9819590950125108,-0.4019664770649955,0.6025958554493286,-1.444436489687648
6.4,1.6897266534103995e+18,141.3993993652344,-7.651565255903006,5.019471486855148,1.8169366097301245,1.6897266534078953e+18,141.39689531250002,-0.7098388671875,1.4816162109375,0.024822998046875,1.6897266534103995e+18,141.3993993652344,0.6454728037890605,9.646689856572744,-1.6109753826890885,1.6897266534103995e+18,141.3993993652344,-1.2801133155822757,1.4336283415555957,-2.053300476074219,1.6897266534129055e+18,141.40190556640624,-1.2811988592147827,1.5289153754711151,-1.985199236869812,,,,,,,,,,,,,1.6897266534103995e+18,141.3993993652344,-18.905655670166016,45.51209716796875,-26.613762664794923,1.6897266534136008e+18,141.40260083007814,11.9923583984375,57.27627258300781,52.21461791992188,1.6897266534103995e+18,141.3993993652344,0.118914444349804,0.3260053376633199,-0.5527861963472266,-1.937035693296392,-0.4014471752039332,0.6531034152926241,-1.3919702326205674
6.45,1.6897266534605028e+18,141.44950263671876,-2.4779919085817035,0.1864710168296098,-1.6957493522287903,1.6897266534579986e+18,141.44699873046875,-0.1019561767578125,0.97247314453125,-0.4386810302734375,1.6897266534605028e+18,141.44950263671876,1.2198089794227482,9.443068149169086,-2.332943853795379,1.6897266534605028e+18,141.44950263671876,-1.6484050750732422,0.0418070781975984,-0.9560335397720336,1.6897266534630093e+18,141.45200927734373,-1.677877426147461,-0.0698727160692214,-0.9346999645233154,,,,,,,,,,,,,1.6897266534605028e+18,141.44950263671876,-17.340228271484374,44.60055770874023,-28.71165237426758,1.6897266534604114e+18,141.4494114379883,12.903961181640623,56.15057373046875,50.14584732055664,1.6897266534605028e+18,141.44950263671876,-0.055287224469136,0.3320836896850949,-0.5055584006705084,-2.0521541178815363,-0.4267467771376741,0.6721881875983267,-1.298910456532861
6.5,1.6897266535106063e+18,141.4996065429687,-3.950685720331669,0.1618352896493673,-1.6987188695588706,1.689726653508103e+18,141.4971025390625,-0.2514129638671875,0.9390228271484377,-0.4802825927734375,1.6897266535106063e+18,141.4996065429687,1.6385156868174668,9.136315737636684,-3.1533401120364664,1.6897266535106063e+18,141.4996065429687,-2.0061562299728393,-1.1654001951217652,-0.2366532172076404,1.6897266535131126e+18,141.50211259765624,-1.9955453395843503,-1.2118118286132813,-0.1918963558971881,,,,,,,,,,,,,1.6897266535106063e+18,141.4996065429687,-15.786044692993164,42.1653938293457,-32.67929229736328,1.6897266535072228e+18,141.49622270507814,14.406939697265624,53.76253051757813,46.3587646484375,1.6897266535106063e+18,141.4996065429687,-0.0175085133722306,0.298881817609389,-0.4789335399516486,-2.0507635741973944,-0.4324978487689009,0.7028372743091683,-1.1998240258819357
6.55,1.68972665356071e+18,141.54971020507813,-5.24409325373739,-1.5535982756060362,1.9481340091750023,1.689726653558206e+18,141.54720610351563,-0.33424072265625,0.7377105712890625,-0.1724334716796875,1.68972665356071e+18,141.54971020507813,1.97672627734825,8.83391731275618,-3.7674281125906104,1.68972665356071e+18,141.54971020507813,-1.419157123565674,-2.8368059635162353,0.1944072619080543,1.6897266535632166e+18,141.55221655273436,-1.3807431697845458,-2.8710122108459473,0.211337698996067,,,,,,,,,,,,,1.68972665356071e+18,141.54971020507813,-13.125960731506348,38.878502655029294,-36.937653350830075,1.689726653559236e+18,141.54823613281252,17.265927124023438,50.484625244140624,42.12239990234375,1.68972665356071e+18,141.54971020507813,0.0835743580593875,0.2447973161547664,-0.4729358295762444,-2.05341751770368,-0.4188645036983648,0.7351610252994661,-1.1219085237993152
6.6,1.689726653610814e+18,141.59981372070314,-4.921956342972814,-1.222760873417854,4.749775249684751,1.6897266536083098e+18,141.597309765625,-0.2495330810546875,0.7622833251953125,0.0987335205078125,1.689726653610814e+18,141.59981372070314,2.371024665803909,8.667621068949103,-3.9260502854123702,1.689726653610814e+18,141.59981372070314,-0.7032099843025208,-2.52835464477539,0.5063937544822693,1.6897266536133202e+18,141.60232016601563,-0.6686196088790893,-2.476341485977173,0.5258839190006256,,,,,,,,,,,,,1.689726653610814e+18,141.59981372070314,-8.927032470703125,36.69739303588867,-39.99620513916015,1.6897266536112504e+18,141.60025058593752,21.764889526367188,48.30647583007813,39.03887939453125,1.689726653610814e+18,141.59981372070314,0.169230465008291,0.1895481165766885,-0.4831289120277182,-2.113956196362578,-0.3815397925516578,0.764686393823344,-1.0840559738918802
6.65,1.6897266536609172e+18,141.64991733398438,-3.0426705952876807,-0.7289326987087726,5.7828525155150885,1.6897266536584133e+18,141.64741328125,-0.0559234619140625,0.81033935546875,0.200836181640625,1.6897266536609172e+18,141.64991733398438,2.43152046020329,8.674838745242953,-3.872997617399693,1.6897266536609172e+18,141.64991733398438,-0.172917765378952,-1.2853946208953857,1.074910545349121,1.6897266536634235e+18,141.65242373046877,-0.1373632382601499,-1.1878009915351868,1.1104491829872132,,,,,,,,,,,,,1.6897266536609172e+18,141.64991733398438,-6.34798583984375,35.62948913574219,-41.267032623291016,1.689726653663265e+18,141.6522649902344,24.094729614257812,47.23164978027344,37.99109497070312,1.6897266536609172e+18,141.64991733398438,0.2562096210289367,0.1522279134126039,-0.5012398087931706,-2.1313143189099124,-0.3531535915026,0.7750733331314869,-1.0856422981983345
6.7,1.689726653711021e+18,141.70002104492187,-0.5807318497538566,-1.078928624162078,7.743282117996214,1.6897266537085169e+18,141.69751689453125,0.152667236328125,0.795416259765625,0.4074005126953125,1.689726653711021e+18,141.70002104492187,1.913404582647085,8.86837405982256,-3.715726040856242,1.689726653711021e+18,141.70002104492187,0.8356771886348724,0.928557999432087,1.1980750799179076,1.6897266537135273e+18,141.70252739257813,0.8912506759166717,0.9909916996955872,1.1700301051139832,,,,,,,,,,,,,1.689726653711021e+18,141.70002104492187,-7.242018127441407,35.51183929443359,-41.1338394165039,1.6897266537100774e+18,141.69907733154298,22.15701675415039,47.51260757446289,38.42637634277344,1.689726653711021e+18,141.70002104492187,0.355726528583257,0.147370659411256,-0.5275423614394457,-2.0449522640074744,-0.3522410398360168,0.7587705750846663,-1.1301541378262123
