seconds_elapsed_rounded,accelerometer_time,accelerometer_seconds_elapsed,accelerometer_z,accelerometer_y,accelerometer_x,accelerometeruncalibrated_time,accelerometeruncalibrated_seconds_elapsed,accelerometeruncalibrated_z,accelerometeruncalibrated_y,accelerometeruncalibrated_x,gravity_time,gravity_seconds_elapsed,gravity_z,gravity_y,gravity_x,gyroscope_time,gyroscope_seconds_elapsed,gyroscope_z,gyroscope_y,gyroscope_x,gyroscopeuncalibrated_time,gyroscopeuncalibrated_seconds_elapsed,gyroscopeuncalibrated_z,gyroscopeuncalibrated_y,gyroscopeuncalibrated_x,location_time,location_seconds_elapsed,location_altitude,location_speedAccuracy,location_bearingAccuracy,location_latitude,location_altitudeAboveMeanSeaLevel,location_bearing,location_horizontalAccuracy,location_verticalAccuracy,location_longitude,location_speed,magnetometer_time,magnetometer_seconds_elapsed,magnetometer_z,magnetometer_y,magnetometer_x,magnetometeruncalibrated_time,magnetometeruncalibrated_seconds_elapsed,magnetometeruncalibrated_z,magnetometeruncalibrated_y,magnetometeruncalibrated_x,orientation_time,orientation_seconds_elapsed,orientation_yaw,orientation_qx,orientation_qz,orientation_roll,orientation_qw,orientation_qy,orientation_pitch
0.0,1.689726632006112e+18,119.99511196289065,6.24944851680994,2.5702833849185707,-5.728659153034687,1.689726632013629e+18,120.0026285644531,0.707073974609375,1.1826324462890625,-0.8618804931640625,1.689726632006112e+18,119.99511196289065,1.5327845324797926,9.38312753366053,-2.402678075113445,1.689726632006112e+18,119.99511196289065,-0.5177137546241284,-0.2122208714485168,-0.050952661037445,1.6897266320086182e+18,119.99761816406252,-0.5759676441550254,-0.1969197198748588,-0.0685752257704734,,,,,,,,,,,,,1.689726632006112e+18,119.99511196289065,-14.942880249023435,44.36766052246094,-11.21422119140625,1.6897266320104333e+18,119.99943334960938,15.079273223876951,56.11634826660156,68.00184631347656,1.689726632006112e+18,119.99511196289065,-1.1439211362165298,0.6219652218449919,-0.2301367249769186,-2.1388133772618736,-0.6073581944728303,0.4373735188660439,-1.2759112608401089
0.05,1.6897266320562153e+18,120.04521538085936,1.3221081134851276,-0.0685899028146266,-2.876910416505635,1.6897266320637322e+18,120.05273212890624,0.2057464599609375,0.8245269775390625,-0.4454071044921875,1.6897266320562153e+18,120.04521538085936,1.611656993664652,9.238442116254568,-2.8625894548517463,1.6897266320562153e+18,120.04521538085936,-1.2000734567642213,0.0221991978585719,-0.1061867251992225,1.6897266320587218e+18,120.04772197265623,-1.181226336956024,0.0227491477504372,-0.0830157406628131,,,,,,,,,,,,,1.6897266320562153e+18,120.04521538085936,-15.02110195159912,43.94755859375,-13.037065124511718,1.6897266320572462e+18,120.04624614257814,14.95435791015625,55.66459045410157,65.8403564453125,1.6897266320562153e+18,120.04521538085936,-1.0821879525376612,0.6124903269017412,-0.214579128168515,-2.0845092549622644,-0.6097118371122422,0.4549547596703504,-1.229083806513494
0.1,1.689726632106319e+18,120.09531904296875,-1.700776766549796,-2.091805573363304,0.9976426720947028,1.689726632113836e+18,120.10283603515624,-0.0583251953125,0.87838134765625,-0.2003448486328125,1.689726632106319e+18,120.09531904296875,1.490026990057975,9.147937084943056,-3.202432994959652,1.689726632106319e+18,120.09531904296875,-0.114471574127674,-0.4473908901214599,0.7950837075710296,1.689726632108825e+18,120.09782543945312,-0.0478104595094919,-0.5094537556171417,0.8245443880558014,,,,,,,,,,,,,1.689726632106319e+18,120.09531904296875,-15.746083641052246,43.22068405151367,-14.881361389160157,1.689726632109261e+18,120.09826088867187,13.958694458007812,54.87031860351563,64.26473083496094,1.689726632106319e+18,120.09531904296875,-0.9799358975736858,0.5955913411482217,-0.2120724102517592,-2.006060067229544,-0.6156468306244159,0.4703254383219023,-1.2022183794083487
0.15,1.689726632156423e+18,120.14542299804688,0.928153277770132,4.838954059280754,0.263532746104598,1.6897266321639396e+18,120.15293959960935,0.2294769287109375,1.4114105224609377,-0.244415283203125,1.689726632156423e+18,120.14542299804688,1.4412685413339734,9.206271901916264,-3.054214201182723,1.689726632156423e+18,120.14542299804688,0.0291970238089561,-1.468449240922928,0.0051901612430811,1.6897266321589294e+18,120.14792939453125,0.0015031948685646,-1.3696324452757835,-0.0288941204547882,1.689726632171174e+18,120.16017407226562,338.41717529296875,-1.0,-1.0,49.27791633084822,357.5986042022705,-1.0,40.0,20.971832275390625,-122.90962136805268,-1.0,1.689726632156423e+18,120.14542299804688,-16.547577476501466,42.8293571472168,-15.693892669677734,1.689726632161275e+18,120.15027495117188,13.686636352539065,54.62765808105469,63.37893981933594,1.689726632156423e+18,120.14542299804688,-0.9059423485635352,0.578614451816584,-0.2426224885296294,-2.011632580664026,-0.6062558884747086,0.4884727268489253,-1.219072069101021
0.2,1.6897266322065265e+18,120.19552651367188,-3.0942213635309037,-0.6678838296973706,6.142187464104294,1.6897266322140434e+18,120.203043359375,-0.25321044921875,0.743017578125,0.44158935546875,1.6897266322065265e+18,120.19552651367188,1.3607592873405665,9.226944921397566,-3.0256551046267153,1.6897266322065265e+18,120.19552651367188,0.3757831122726202,1.679908573627472,0.6366406202316284,1.6897266322090332e+18,120.19803315429688,0.4256947424262762,1.7977947115898132,0.6854622960090636,,,,,,,,,,,,,1.6897266322065265e+18,120.19552651367188,-16.813758850097656,42.66464004516602,-16.085298919677733,1.6897266322132846e+18,120.20228471679688,12.582949829101562,54.47127990722656,63.69660339355469,1.6897266322065265e+18,120.19552651367188,-0.876053504541427,0.5743964315084075,-0.2485570931814269,-1.9923681884104616,-0.6072706399707071,0.4892463039610055,-1.225347688765624
0.25,1.6897266322566303e+18,120.24563032226564,-3.3188626826703547,-1.043500869332552,5.876813064881861,1.6897266322641472e+18,120.25314716796876,-0.2185333251953125,0.910015869140625,0.20556640625,1.6897266322566303e+18,120.24563032226564,0.7055317594074457,9.386994029056428,-2.741366453836858,1.6897266322566303e+18,120.24563032226564,1.2779168367385865,1.9430867433547976,0.3333169519901275,1.6897266322591368e+18,120.24813671875,1.31933650970459,1.8407795310020447,0.2702115684747695,,,,,,,,,,,,,1.6897266322566303e+18,120.24563032226564,-19.71842727661133,42.46985702514648,-13.272035217285156,1.6897266322600945e+18,120.24909442138672,9.867229461669922,54.26996994018555,66.83797073364258,1.6897266322566303e+18,120.24563032226564,-0.7953921588803132,0.582790682337414,-0.2434575763882892,-1.8209838267894485,-0.6361815555425403,0.442838761562539,-1.2777792640637922
0.3,1.6897266323067343e+18,120.29573422851564,-2.641159352843762,0.0526067362630367,0.3224614665438235,1.6897266323142508e+18,120.30325092773435,-0.2171051025390625,1.0344635009765626,-0.3229400634765625,1.6897266323067343e+18,120.29573422851564,0.6180287229235097,9.579804536492825,-1.9852342857135832,1.6897266323067343e+18,120.29573422851564,1.863676404953003,-0.9469851702451706,0.072080374136567,1.6897266323092403e+18,120.29824038085935,1.8641446113586424,-1.0667566046118735,0.1159377858042716,,,,,,,,,,,,,1.6897266323067343e+18,120.29573422851564,-20.05871925354004,42.99863967895508,-9.813980102539062,1.6897266323069e+18,120.29589995117188,10.136138916015623,54.88955383300781,69.92455444335937,1.6897266323067343e+18,120.29573422851564,-0.8665853643159117,0.5997093500444496,-0.2667670102845733,-1.8783381262683432,-0.630146574517965,0.4145389803186045,-1.3568378400721728
0.35,1.689726632356838e+18,120.34583784179688,-2.3359463381600376,1.0619661496365072,-5.8020541764956715,1.6897266323643546e+18,120.35335454101562,-0.14788818359375,1.06727294921875,-0.7064361572265625,1.689726632356838e+18,120.34583784179688,0.465176825985834,9.71792717593014,-1.218852248606756,1.689726632356838e+18,120.34583784179688,0.818812882900238,-2.2020676374435424,1.0890863418579102,1.689726632359344e+18,120.34834409179686,0.7441569954156876,-2.166982555389404,1.119641661643982,,,,,,,,,,,,,1.689726632356838e+18,120.34583784179688,-19.87538070678711,42.95482635498047,-8.176612854003906,1.6897266323589094e+18,120.34790957031248,9.927310180664062,54.62568969726563,71.26143493652344,1.689726632356838e+18,120.34583784179688,-0.822666290315564,0.5913550291011885,-0.3245016236461618,-1.929548181085772,-0.6088515487171017,0.4170605214816003,-1.4371468676586538
0.4,1.6897266324069414e+18,120.39594150390626,-0.0496176041136379,-0.0394422511678933,-2.1376775068655607,1.6897266324144584e+18,120.40345839843752,0.02740478515625,0.9748870849609376,-0.2032562255859375,1.6897266324069414e+18,120.39594150390626,-0.0166720246852701,9.746791568269131,-1.072527992565632,1.6897266324069414e+18,120.39594150390626,-0.1274429738521575,-0.6600967079401017,1.069875931739807,1.689726632409448e+18,120.39844794921872,-0.1477324690669774,-0.5804094776511193,1.0528085589408875,,,,,,,,,,,,,1.6897266324069414e+18,120.39594150390626,-21.325036239624023,42.16708908081055,-8.839427185058593,1.68972663241092e+18,120.39991997070312,8.252517700195312,53.7645263671875,70.2602752685547,1.6897266324069414e+18,120.39594150390626,-0.3717693421429957,0.5633738973645436,-0.3627659082734757,-1.557646605143394,-0.6076308387981754,0.4262807651179655,-1.4602813926405886
0.45,1.6897266324570455e+18,120.44604536132812,0.9714009052638336,-0.9480862048608064,0.8782745782314987,1.6897266324645622e+18,120.453562109375,0.0291259765625,0.8637725830078125,-0.036541748046875,1.6897266324570455e+18,120.44604536132812,-0.4127437950153648,9.724900171360968,-1.1910170093458892,1.6897266324570455e+18,120.44604536132812,-0.2871873140335083,0.3040918797254562,0.547669667005539,1.6897266324595515e+18,120.4485515625,-0.2852159857749938,0.3845793653279544,0.5163137435913085,,,,,,,,,,,,,1.6897266324570455e+18,120.44604536132812,-22.833943176269532,41.35611419677734,-9.640425109863282,1.6897266324629335e+18,120.45193354492189,6.971392822265625,53.03447265625,69.72055053710938,1.6897266324570455e+18,120.44604536132812,-0.0417867880855802,0.546232471042097,-0.3706720221786589,-1.23965041992544,-0.6193820972986191,0.4249414985206334,-1.4417365281665904
0.5,1.6897266325071488e+18,120.49614892578124,-0.2997841653419286,-0.1241105976021289,0.4904220779795943,1.6897266325146655e+18,120.503665625,-0.119775390625,1.0348480224609375,-0.0883880615234375,1.6897266325071488e+18,120.49614892578124,-0.640358854655549,9.703819623218177,-1.2617741147448125,1.6897266325071488e+18,120.49614892578124,-0.0733110282570123,1.5452130436897278,0.272403509914875,1.6897266325096556e+18,120.49865532226563,-0.0542191378772258,1.4981185793876648,0.2953045636415481,,,,,,,,,,,,,1.6897266325071488e+18,120.49614892578124,-23.61886100769043,40.943895721435545,-8.972988891601563,1.6897266325149458e+18,120.50394580078124,6.2384521484375,52.70626525878906,70.786083984375,1.6897266325071488e+18,120.49614892578124,0.0412587275650506,0.5489620895569954,-0.3556128373376106,-1.1018502876411953,-0.6372698394668744,0.4073305215650263,-1.4258746617044171
0.55,1.6897266325572524e+18,120.54625244140624,0.4053411029303818,-0.3385383611804246,-0.2101442264271527,1.6897266325647693e+18,120.55376938476564,-0.0080322265625,0.907366943359375,-0.18143310546875,1.6897266325572524e+18,120.54625244140624,-0.9610652065473048,9.684513332819344,-1.2018959554001687,1.6897266325572524e+18,120.54625244140624,0.1870457932353019,-0.2477209985256195,0.7749831795692443,1.689726632559759e+18,120.54875908203124,0.1909428983926772,-0.2824783518910408,0.7682753682136536,,,,,,,,,,,,,1.6897266325572524e+18,120.54625244140624,-24.68089637756348,40.50969543457031,-8.018475341796876,1.6897266325617567e+18,120.55075646972657,5.1431121826171875,52.23206329345703,71.42372131347656,1.6897266325572524e+18,120.54625244140624,0.2157043469999746,0.5458657073503157,-0.3541397079115319,-0.8983430345296302,-0.6508174848773456,0.3911671799954608,-1.4128862898049044
0.6,1.6897266326073564e+18,120.59635639648435,1.2287599384760857,-0.3623562253326177,-0.6736767338851093,1.689726632614873e+18,120.603873046875,-0.0333099365234375,0.972576904296875,-0.1310302734375,1.6897266326073564e+18,120.59635639648435,-1.2277723449043183,9.663470427886248,-1.129785550309196,1.6897266326073564e+18,120.59635639648435,0.1768495976924896,-0.1305806078016758,0.4512510001659393,1.689726632609863e+18,120.59886293945311,0.183286628127098,-0.0902447804808616,0.4556200981140136,,,,,,,,,,,,,1.6897266326073564e+18,120.59635639648435,-25.37000274658203,39.967202758789064,-8.0018310546875,1.68972663260857e+18,120.59756992187502,4.57264404296875,51.70406799316406,71.43327331542969,1.6897266326073564e+18,120.59635639648435,0.3878652255875257,0.5351776328802563,-0.3672196616097906,-0.7444199062834256,-0.654019530814131,0.3885622450626149,-1.3997311391884293
0.65,1.68972663265746e+18,120.64646010742187,0.6838284470303356,-0.470102665015459,0.879428073728606,1.689726632664977e+18,120.65397705078126,-0.0989013671875,0.92435302734375,-0.0097015380859375,1.68972663265746e+18,120.64646010742187,-1.4929487811757622,9.641810267837643,-0.9820793530034272,1.68972663265746e+18,120.64646010742187,0.4583995163440704,0.2702848732471466,0.6070039629936218,1.6897266326599665e+18,120.64896635742188,0.478495591878891,0.2821782082319259,0.6109779953956604,,,,,,,,,,,,,1.68972663265746e+18,120.64646010742187,-26.290466690063475,39.53473739624023,-7.408042907714844,1.6897266326605852e+18,120.64958515624998,3.3947723388671873,51.16304626464843,72.31200561523437,1.68972663265746e+18,120.64646010742187,0.5456661428851862,0.5302539451607099,-0.3754740524021385,-0.5830109506664967,-0.6596419315404007,0.3777421135617752,-1.387222866915372
0.7,1.689726632707564e+18,120.6965638671875,-0.0641111207392811,-0.4963321495801209,-0.0518759450769796,1.6897266327150804e+18,120.70408056640623,-0.2249359130859375,0.9252685546875,-0.0945037841796875,1.689726632707564e+18,120.6965638671875,-1.8190482242827115,9.612225276913046,-0.667970667730607,1.689726632707564e+18,120.6965638671875,0.647381854057312,0.414345782995224,0.7095595002174377,1.68972663271007e+18,120.69907011718747,0.6461223483085632,0.4333531439304351,0.7160637259483338,,,,,,,,,,,,,1.689726632707564e+18,120.6965638671875,-27.573316192626955,38.73950347900391,-5.996044921875,1.689726632712598e+18,120.70159809570312,2.148248291015625,50.3888427734375,73.92884826660156,1.689726632707564e+18,120.6965638671875,0.7621763507889391,0.5280995764032541,-0.3869672759939601,-0.3539927414777149,-0.6655725183188785,0.3582244747835729,-1.371439113044977
0.75,1.6897266327576673e+18,120.7466673828125,-0.2937414511115849,0.1163586683011054,-1.8967277931950983,1.6897266327651845e+18,120.75418417968748,-0.2448455810546875,1.0302154541015625,-0.315301513671875,1.6897266327576673e+18,120.7466673828125,-2.141430868049711,9.563039162748456,-0.3507991133286617,1.6897266327576673e+18,120.7466673828125,0.4075853943824768,0.3982179790735244,0.5343238174915313,1.6897266327601738e+18,120.74917373046875,0.3829820558428763,0.3827417761087417,0.5408251047134399,,,,,,,,,,,,,1.6897266327576673e+18,120.7466673828125,-28.67784729003906,38.04934234619141,-3.9653900146484378,1.689726632764611e+18,120.75361123046874,1.137530517578125,49.76515197753906,75.8370147705078,1.6897266327576673e+18,120.7466673828125,0.9328555544614784,0.526818735366413,-0.3957680276841248,-0.163335774557253,-0.6727144580646237,0.3365340711504015,-1.3475122479737762
0.8,1.689726632807771e+18,120.79677099609376,0.943652138710022,1.3070046231514216,-3.659491557163149,1.6897266328152878e+18,120.80428774414062,-0.0478057861328125,1.15509033203125,-0.312066650390625,1.689726632807771e+18,120.79677099609376,-2.57449243936792,9.456487953425643,-0.2777729450996406,1.689726632807771e+18,120.79677099609376,-0.182924138684757,0.2819939225912094,1.3155397415161132,1.6897266328102774e+18,120.79927724609374,-0.1915465287864208,0.3195140331983566,1.3109489679336548,,,,,,,,,,,,,1.689726632807771e+18,120.79677099609376,-30.167509841918942,37.06994705200195,-3.0457061767578124,1.6897266328114225e+18,120.8004224243164,-0.5141029357910156,48.577388763427734,76.4254264831543,1.689726632807771e+18,120.79677099609376,0.9765213096373052,0.5148673315996332,-0.401140919039017,-0.1074845106667144,-0.6857884987356113,0.3218446775212428,-1.3035216072103943
0.85,1.6897266328578747e+18,120.846874609375,6.909059023680688,3.4635552312433715,-1.939645173127651,1.689726632865391e+18,120.85439130859376,0.3738739013671875,1.3102142333984377,-0.3002197265625,1.6897266328578747e+18,120.846874609375,-2.7869319225123523,9.397168217068314,-0.2774154259390756,1.6897266328578747e+18,120.846874609375,-0.3170990824699401,1.239393150806427,-0.8848313748836517,1.689726632860381e+18,120.84938095703126,-0.3367445141077042,1.2432403564453125,-1.000223553180695,,,,,,,,,,,,,1.6897266328578747e+18,120.846874609375,-31.081061553955077,36.45138168334961,-2.202598571777344,1.689726632858233e+18,120.84723339843752,-0.71256103515625,48.56334228515625,77.41449890136718,1.6897266328578747e+18,120.846874609375,0.9441240914807656,0.513529755032857,-0.390558229237212,-0.0992908319199569,-0.6996300312355905,0.3067879679843169,-1.2811395912847443
0.9,1.6897266329079782e+18,120.89697807617188,2.8224157329910993,3.0002389822715516,-3.306821473290622,1.689726632915495e+18,120.90449501953124,0.1693878173828125,1.254791259765625,-0.28897705078125,1.6897266329079782e+18,120.89697807617188,-2.041756441854685,9.575604629811048,-0.4602453170938789,1.6897266329079782e+18,120.89697807617188,-0.7854050517082214,-0.4497445493936539,-2.044577717781067,1.6897266329104847e+18,120.89948471679688,-0.8001310229301453,-0.5229191839694977,-2.094350242614746,,,,,,,,,,,,,1.6897266329079782e+18,120.89697807617188,-28.578261947631837,38.34337539672852,-1.5321502685546875,1.6897266329102423e+18,120.89924233398438,2.5799407958984375,50.9054931640625,77.57738647460937,1.6897266329079782e+18,120.89697807617188,0.7783785830087269,0.5421517520024114,-0.3615352064794959,-0.2323298934358315,-0.6879688369706225,0.3190662292040014,-1.3547691681750305
0.95,1.689726632958082e+18,120.94708208007812,3.9427723460847135,1.9101534718966484,1.7485171096593883,1.6897266329655987e+18,120.95459868164065,0.1478424072265625,1.1971221923828126,0.09637451171875,1.689726632958082e+18,120.94708208007812,-0.7132636633538547,9.725067929143307,-0.921410028668046,1.689726632958082e+18,120.94708208007812,-0.895781147480011,0.1193959109485149,-3.3325852394104003,1.6897266329605883e+18,120.949588671875,-0.9007014632225037,0.2564063817262649,-3.3620102405548096,,,,,,,,,,,,,1.689726632958082e+18,120.94708208007812,-23.635079193115235,41.40725860595703,-3.1114013671875,1.6897266329622523e+18,120.95125239257814,8.267535400390624,54.273919677734376,75.92965087890624,1.689726632958082e+18,120.94708208007812,0.0661726993345947,0.5754638764338325,-0.3310061722925472,-0.9629280805146234,-0.6530608278885377,0.3635371196757163,-1.443026692173981
1.0,1.689726633008186e+18,120.9971857421875,-5.250408486685752,2.9420742611682416,1.3829268270024655,1.6897266330157028e+18,121.00470268554687,-0.439459228515625,1.2717010498046877,-0.0292022705078125,1.689726633008186e+18,120.9971857421875,0.6898730499970354,9.669472532458304,-1.442811810640171,1.689726633008186e+18,120.9971857421875,-1.1372146368026734,2.258475995063782,-2.44105920791626,1.689726633010692e+18,120.9996919921875,-1.1486471891403198,2.2569751024246214,-2.3709040880203247,,,,,,,,,,,,,1.689726633008186e+18,120.9971857421875,-17.408152770996093,44.44422378540039,-3.764366149902344,1.6897266330142623e+18,121.00326220703126,14.070309448242188,56.80048522949219,75.52840881347656,1.689726633008186e+18,120.9971857421875,-1.047006750067268,0.6251346599078855,-0.2643164295224676,-1.9964705217214995,-0.6280660268062961,0.3797787538101562,-1.4058007366578873
1.05,1.6897266330582894e+18,121.04728950195312,-3.253476953498423,0.8586965582191943,0.9152564744743704,1.6897266330658063e+18,121.05480620117189,-0.15743408203125,1.006707763671875,-0.15048828125,1.6897266330582894e+18,121.04728950195312,1.5052007106967271,9.456032377064824,-2.1007154989799854,1.6897266330582894e+18,121.04728950195312,-1.202295994758606,0.4415012929588556,-1.5813157558441162,1.689726633060796e+18,121.04979575195313,-1.1904847621917725,0.3422777712345123,-1.5425890922546386,,,,,,,,,,,,,1.6897266330582894e+18,121.04728950195312,-13.362479782104492,45.82151412963867,-4.688723754882813,1.6897266330610698e+18,121.05006964111328,17.293201446533203,57.836090087890625,74.37907791137695,1.6897266330582894e+18,121.04728950195312,-1.3216150074105193,0.6532993054745916,-0.2024203186806682,-2.1899757735687837,-0.6181604727132534,0.3871535804317674,-1.3039327452390763
1.1,1.6897266331083932e+18,121.09739321289062,-2.945144930011332,0.1897500677263736,0.5002705119423567,1.68972663311591e+18,121.10490991210936,-0.0825103759765625,0.9258514404296876,-0.207257080078125,1.6897266331083932e+18,121.09739321289062,2.124083398181498,9.217757289431097,-2.57924556679219,1.6897266331083932e+18,121.09739321289062,-1.032026505470276,-0.7301851749420166,-0.9084327459335328,1.6897266331108997e+18,121.09989965820311,-1.0310786247253418,-0.7316223382949829,-0.8711219191551208,,,,,,,,,,,,,1.6897266331083932e+18,121.09739321289062,-10.464184188842774,46.51851501464843,-7.049208068847657,1.6897266331078774e+18,121.09687739257814,19.79783325195313,58.39854431152344,72.13809204101562,1.6897266331083932e+18,121.09739321289062,-1.3742942541433851,0.659195564882847,-0.1794575725112627,-2.2589945789306056,-0.5995474143136226,0.4167370410750505,-1.2230146863877696
1.15,1.6897266331584968e+18,121.14749692382811,-3.8832198531109094,-0.9492117602115868,1.255382455559373,1.6897266331610035e+18,121.1500034790039,-0.1496162414550781,0.8053054809570312,-0.1729202270507812,1.6897266331584968e+18,121.14749692382811,2.423475305496305,9.02009583483219,-2.986180587850511,1.6897266331584968e+18,121.14749692382811,-1.1632865905761718,-0.7770587921142578,0.120312650501728,1.6897266331610033e+18,121.150003125,-1.1698378086090089,-0.7817700743675232,0.1674341615289449,,,,,,,,,,,,,1.6897266331584968e+18,121.14749692382811,-9.32666130065918,46.64764556884766,-9.100917053222656,1.6897266331598897e+18,121.14888964843747,20.74309387207031,58.45858154296875,69.65177612304687,1.6897266331584968e+18,121.14749692382811,-1.322824956078207,0.649563942172924,-0.1725043903710168,-2.253016840597968,-0.5887942373656162,0.4489041936605902,-1.1677160923218073
1.2,1.6897266332086006e+18,121.19760053710938,-3.119560007509589,-1.559780646728873,4.058816190896034,1.6897266332060966e+18,121.19509663085935,-0.0705078125,0.7458770751953125,0.0859466552734375,1.6897266332086006e+18,121.19760053710938,2.3855874149374663,8.899116287184357,-3.358512146848142,1.6897266332086006e+18,121.19760053710938,-0.7947079718112946,-0.9713698983192444,0.5416694641113281,1.6897266332111068e+18,121.20010698242189,-0.7501941084861755,-0.9585691809654237,0.5486544251441956,,,,,,,,,,,,,1.6897266332086006e+18,121.19760053710938,-9.955438232421876,46.28581314086914,-11.736463928222657,1.6897266332119004e+18,121.2009005859375,19.78337707519531,58.046365356445314,67.03254089355468,1.6897266332086006e+18,121.19760053710938,-1.19680827489687,0.6258026995227328,-0.1776162121148059,-2.188553709288541,-0.5889053088296087,0.4794789066241758,-1.137218557914631
1.25,1.6897266332587044e+18,121.24770424804689,-2.0563855049966273,-2.4911905589812995,4.739249880921543,1.6897266332562002e+18,121.24520014648438,0.0247039794921875,0.6497955322265625,0.127911376953125,1.6897266332587044e+18,121.24770424804689,2.2655793426702915,8.906603311164975,-3.421361577088535,1.6897266332587044e+18,121.24770424804689,0.0302147734910249,-0.8225533604621887,0.7319478154182434,1.689726633261211e+18,121.25021083984376,0.0702590905129909,-0.8079276442527771,0.7507674217224121,,,,,,,,,,,,,1.6897266332587044e+18,121.24770424804689,-11.055028915405272,46.03260879516601,-13.18792724609375,1.6897266332639127e+18,121.25291274414062,18.642532348632812,57.822940063476565,66.10185546875,1.6897266332587044e+18,121.24770424804689,-1.105762660989951,0.6067715982706043,-0.1949587423069103,-2.1556136951764366,-0.5885855580824566,0.4973052179689338,-1.1390536562444216
1.3,1.689726633308808e+18,121.29780795898436,-1.362493286139369,-2.036709358372092,3.5214621781933304,1.689726633306304e+18,121.29530400390624,0.065203857421875,0.7273223876953125,0.029437255859375,1.689726633308808e+18,121.29780795898436,1.9537117800812425,9.067223379805684,-3.179570122670829,1.689726633308808e+18,121.29780795898436,0.7091448068618774,-0.206373220309615,1.035371041297913,1.6897266333113144e+18,121.30031450195312,0.7339034914970398,-0.1518469519913196,1.0350435256958008,,,,,,,,,,,,,1.689726633308808e+18,121.29780795898436,-12.786797714233398,45.94979095458984,-12.74302978515625,1.6897266333107226e+18,121.29972259521485,16.931774139404297,57.762203216552734,66.85863494873047,1.689726633308808e+18,121.29780795898436,-1.0304837074252728,0.5938200777752773,-0.2226556378527085,-2.1211827914520356,-0.5922355672284791,0.4969613685276003,-1.1803130768078578
1.35,1.689726633358912e+18,121.34791176757813,1.9228245912908015,0.8566575120592116,0.8577304604399203,1.6897266333564078e+18,121.34540776367189,0.3735015869140625,1.0510101318359375,-0.2232940673828125,1.689726633358912e+18,121.34791176757813,1.5048643475753067,9.276352569358348,-2.797512703950703,1.689726633358912e+18,121.34791176757813,0.9124816656112672,0.5305133759975433,0.7192863583564758,1.6897266333614182e+18,121.35041821289062,0.8997515797615051,0.5359225630760193,0.7032869815826416,,,,,,,,,,,,,1.689726633358912e+18,121.34791176757813,-14.92030143737793,45.96364517211914,-10.63562469482422,1.6897266333575337e+18,121.34653359375,15.0056396484375,57.8154052734375,68.95401000976562,1.689726633358912e+18,121.34791176757813,-0.9775441012139854,0.5913934145146484,-0.2444181119044202,-2.0635578497162497,-0.6029129188856561,0.4763672431768485,-1.2408348342127464
1.4,1.6897266334090156e+18,121.39801557617189,6.170548816905021,2.741444604413509,-5.175497213442921,1.6897266334065116e+18,121.39551162109376,0.7571563720703125,1.2424591064453123,-0.8007904052734375,1.6897266334090156e+18,121.39801557617189,1.1872519723369923,9.397726786186098,-2.5375131588605044,1.6897266334090156e+18,121.39801557617189,0.1384273827075958,0.1560364961624145,0.4022130668163299,1.6897266334115218e+18,121.40052177734376,0.08282947614789,0.1753475323319435,0.3758822821080684,,,,,,,,,,,,,1.6897266334090156e+18,121.39801557617189,-16.437689971923827,46.03925552368164,-8.963751220703125,1.6897266334095447e+18,121.39854453125,13.475946044921876,57.8919677734375,70.48536071777343,1.6897266334090156e+18,121.39801557617189,-0.933008999810465,0.5908180120708847,-0.2567257408795833,-2.008176192148814,-0.6111885836604195,0.4598502441173437,-1.281038083746621
1.45,1.689726633459119e+18,121.44811909179688,5.291692390971481,1.203742050884366,-4.262796560931205,1.6897266334566152e+18,121.445615234375,0.6361328125,1.05491943359375,-0.7020538330078125,1.689726633459119e+18,121.44811909179688,1.0824208063528684,9.347744787016511,-2.7568231415224074,1.689726633459119e+18,121.44811909179688,-0.8999574899673461,0.3881176963448524,-0.034300984442234,1.6897266334616256e+18,121.45062553710936,-0.9277344822883606,0.3537187591195107,-0.0270867992192506,,,,,,,,,,,,,1.689726633459119e+18,121.44811909179688,-17.002272033691405,45.981807708740234,-9.30137939453125,1.689726633461556e+18,121.45055600585938,12.992575073242188,57.77193603515625,69.73910217285156,1.689726633459119e+18,121.44811909179688,-0.8821908664496274,0.5853421287992703,-0.2475956253556524,-1.9456909401067872,-0.6192486203347872,0.4610325644039864,-1.263913284945771
1.5,1.689726633509223e+18,121.49822299804688,0.0972010364318639,-0.8168290088266135,-0.9362954046586156,1.689726633506719e+18,121.49571899414062,0.076043701171875,0.877520751953125,-0.4043853759765625,1.689726633509223e+18,121.49822299804688,1.029569929909557,9.232417682946323,-3.1414787600421903,1.689726633509223e+18,121.49822299804688,-0.4413485892117023,-0.4701748609542847,0.3739007145166396,1.6897266335117292e+18,121.50072919921874,-0.3851375166326761,-0.4476194798946381,0.3851418256759643,,,,,,,,,,,,,1.689726633509223e+18,121.49822299804688,-17.528239059448243,45.687842559814456,-10.96888427734375,1.6897266335135657e+18,121.50256557617188,12.309646606445312,57.43504638671875,68.04296875,1.689726633509223e+18,121.49822299804688,-0.8111951919808428,0.5715899207525398,-0.2391186801376381,-1.887649122100525,-0.6247589990375612,0.4751251931658878,-1.2269210068733962
1.55,1.6897266335593267e+18,121.54832680664065,0.9964592783029378,6.652965020048617,1.066852226564586,1.6897266335568228e+18,121.54582275390626,0.219873046875,1.619732666015625,-0.2166717529296875,1.6897266335593267e+18,121.54832680664065,1.0630329897634685,9.21050641229391,-3.1927534878230093,1.6897266335593267e+18,121.54832680664065,-0.2330092869699001,-0.2214321881532669,-0.495495855808258,1.689726633561833e+18,121.5508330078125,-0.2635137201985344,-0.1568741381168365,-0.5170656770467759,,,,,,,,,,,,,1.6897266335593267e+18,121.54832680664065,-18.006621170043946,45.53731994628906,-11.55770263671875,1.6897266335603743e+18,121.5493741455078,12.13327407836914,57.41910171508789,67.7525749206543,1.6897266335593267e+18,121.54832680664065,-0.7940928340537003,0.5662369972733825,-0.2431861279026713,-1.891727524992978,-0.6218055195636645,0.4832745160937117,-1.220377786560028
1.6,1.6897266336094305e+18,121.598430078125,-5.820503937743455,-4.412102506970763,5.542893654125928,1.6897266336069263e+18,121.59592622070312,-0.47662353515625,0.4396484375,0.262542724609375,1.6897266336094305e+18,121.598430078125,1.0135753944072126,9.177251442232729,-3.3005441758128997,1.6897266336094305e+18,121.598430078125,0.446884800773114,1.2533375859260558,0.6132300186902284,1.6897266336119368e+18,121.60093671875,0.5429710984230042,1.1968277037143706,0.66457699239254,,,,,,,,,,,,,1.6897266336094305e+18,121.598430078125,-17.849251556396485,45.789136505126955,-11.643215942382811,1.689726633607183e+18,121.59618310546875,12.129348754882812,57.630316162109374,67.82466430664063,1.6897266336094305e+18,121.598430078125,-0.8026424886124353,0.5698514100346219,-0.2301209038490893,-1.8678032697362557,-0.6287406888715344,0.4763048336544037,-1.2107124528480573
1.65,1.689726633659534e+18,121.64853403320312,-1.006664314457551,-0.7828255000334977,4.29133829718709,1.68972663365703e+18,121.64602998046875,-0.054083251953125,0.91513671875,0.1334442138671875,1.689726633659534e+18,121.64853403320312,0.7636228453657031,9.3586464709723,-2.8209392306977508,1.689726633659534e+18,121.64853403320312,1.414915943145752,-0.3829230029135942,-0.3719212546944618,1.6897266336620406e+18,121.65104057617188,1.4393674612045289,-0.4242095500230789,-0.4580136328935623,,,,,,,,,,,,,1.689726633659534e+18,121.64853403320312,-18.77202262878418,45.87321014404297,-9.115452575683594,1.6897266336591946e+18,121.64819458007813,11.37113037109375,57.76163024902344,70.51144714355469,1.689726633659534e+18,121.64853403320312,-0.7866405530741672,0.5771883719449773,-0.2476024980564332,-1.837488370402123,-0.6322040957058894,0.4535913943701021,-1.267831225928322
1.7,1.689726633709638e+18,121.69863779296875,-5.298155507957935,1.3540290584635737,-1.2032986910310386,1.6897266337071337e+18,121.6961337402344,-0.4173797607421875,1.1017608642578125,-0.3656768798828125,1.689726633709638e+18,121.69863779296875,1.1741132062049957,9.519627657236455,-2.025252378621101,1.689726633709638e+18,121.69863779296875,1.4439952850341795,-1.9399786233901977,-0.2316431403160095,1.689726633712144e+18,121.7011439941406,1.3911903977394104,-1.9886780738830567,-0.1162037841975689,,,,,,,,,,,,,1.689726633709638e+18,121.69863779296875,-16.89676628112793,46.61490478515625,-6.606227111816406,1.6897266337112054e+18,121.70020527343748,13.611428833007812,58.700634765625,73.47845764160157,1.689726633709638e+18,121.69863779296875,-1.004775055513636,0.5969585215205238,-0.2809007985493348,-2.1019123724944366,-0.6007633415891334,0.4510938525474025,-1.3288100603648283
1.75,1.6897266337597414e+18,121.74874150390625,-2.340509832070246,0.1475971547472477,-5.287600094769597,1.6897266337572378e+18,121.74623764648436,-0.1264404296875,0.9928924560546876,-0.6815673828125,1.6897266337597414e+18,121.74874150390625,0.8308757566490025,9.647559975857735,-1.5302483504526316,1.6897266337597414e+18,121.74874150390625,0.2334484972059726,-1.37009437084198,1.8117972373962403,1.689726633762248e+18,121.75124775390626,0.1915511658415198,-1.3620825171470643,1.7861530661582947,,,,,,,,,,,,,1.6897266337597414e+18,121.74874150390625,-17.623498153686523,46.69673385620117,-5.415553283691406,1.6897266337632187e+18,121.75221870117188,11.539047241210938,58.2361328125,73.86088562011719,1.6897266337597414e+18,121.74874150390625,-0.8695416456540712,0.5773437257449626,-0.3317298227434689,-2.058490321928977,-0.5894274154722233,0.4570839269745735,-1.3911797211442007
1.8,1.6897266338098452e+18,121.79884526367186,-0.0410091132388636,-0.0917609350436925,-0.0321429171660543,1.6897266338073413e+18,121.79634135742188,0.016162109375,0.986053466796875,-0.131573486328125,1.6897266338098452e+18,121.79884526367186,0.2743240138754248,9.685297527386544,-1.505652633795738,1.6897266338098452e+18,121.79884526367186,-0.0408018171787261,-1.2913641571998595,1.2591016054153443,1.6897266338123515e+18,121.80135166015626,-0.0176251731812953,-1.245778238773346,1.2834282040596008,,,,,,,,,,,,,1.6897266338098452e+18,121.79884526367186,-20.62081184387207,45.662322235107425,-6.556800842285156,1.6897266338100293e+18,121.79902923583984,8.965084075927734,57.34092330932617,72.50735855102539,1.6897266338098452e+18,121.79884526367186,-0.4793478084551762,0.5431731283870022,-0.3684783111649221,-1.7494645838116116,-0.5917414002394246,0.4678313440304077,-1.4133344616480763
1.85,1.689726633859949e+18,121.84894887695312,0.1528705870250985,-1.4183852692312002,1.5589224516904352,1.689726633857445e+18,121.84644497070312,-0.01796875,0.8282958984375,0.0061248779296875,1.689726633859949e+18,121.84894887695312,-0.2419047411531349,9.688377139414548,-1.4947875993624329,1.689726633859949e+18,121.84894887695312,-0.0788926370441913,-0.1264554142951965,0.8673931121826172,1.6897266338624553e+18,121.8514552734375,-0.0917031288146972,0.0267421722412109,0.8273703694343567,,,,,,,,,,,,,1.689726633859949e+18,121.84894887695312,-23.029243850708006,44.74151458740234,-7.62874755859375,1.6897266338568392e+18,121.84583935546875,6.8832550048828125,56.520257568359376,71.70567016601562,1.689726633859949e+18,121.84894887695312,-0.0913724057872877,0.516748332594025,-0.3950521521993073,-1.4118952943032428,-0.596862438033623,0.4696925063487852,-1.415370136388172
1.9,1.6897266339100529e+18,121.899052734375,-1.564882558364719,-0.0918487302315235,2.1969783047136664,1.6897266339075487e+18,121.89654868164064,-0.23529052734375,0.9869537353515624,0.076629638671875,1.6897266339100529e+18,121.899052734375,-0.6548415096771716,9.675209030283687,-1.4525013569402696,1.6897266339100529e+18,121.899052734375,0.2770350497215986,2.188120722770691,0.6630749106407166,1.689726633912559e+18,121.90155913085935,0.313219322822988,2.1767072677612305,0.6867440342903137,,,,,,,,,,,,,1.6897266339100529e+18,121.899052734375,-24.991888809204102,44.125206756591794,-6.366246032714844,1.6897266339088502e+18,121.89785009765625,4.91756591796875,55.92533874511719,73.24042053222657,1.6897266339100529e+18,121.899052734375,0.1103646753698275,0.5197213827553908,-0.3858812885288171,-1.1473216364649317,-0.6199817198283922,0.4430757693324486,-1.4068868754037929
1.95,1.6897266339601564e+18,121.94915625000002,-1.278937167956829,-0.7883235129278898,1.307904494600594,1.6897266339576522e+18,121.94665234375,-0.2448699951171875,0.90382080078125,0.0115966796875,1.6897266339601564e+18,121.94915625000002,-1.204418634971678,9.663568978276848,-1.1388140315781534,1.6897266339601564e+18,121.94915625000002,0.7316487193107605,-0.0121981531381606,1.228473997116089,1.689726633962663e+18,121.95166284179687,0.740211284160614,-0.1241453289985657,1.2495117425918578,,,,,,,,,,,,,1.6897266339601564e+18,121.94915625000002,-27.027084732055663,43.34636764526367,-3.734297180175781,1.6897266339608591e+18,121.94985913085938,2.6641937255859376,54.98316955566406,75.85774841308594,1.6897266339601564e+18,121.94915625000002,0.4370425833366855,0.522628905258161,-0.3877892833823942,-0.7610339048506253,-0.6410677768617536,0.4066957615641728,-1.3998577162298165
2.0,1.6897266340102602e+18,121.99926015625002,1.3982098240084944,0.6350996335661411,-0.6958334745050966,1.689726634007756e+18,121.99675610351562,-0.0340789794921875,1.0489715576171874,-0.1677001953125,1.6897266340102602e+18,121.99926015625002,-1.831440672865957,9.595712767338156,-0.8366650514140724,1.6897266340102602e+18,121.99926015625002,0.6758129000663757,-0.8240288674831391,1.3795666217803957,1.6897266340127667e+18,122.00176655273438,0.6656804323196411,-0.7861907064914703,1.36343252658844,,,,,,,,,,,,,1.6897266340102602e+18,121.99926015625002,-29.33805160522461,41.8463493347168,-3.1529815673828123,1.6897266340128737e+18,122.00187353515624,-0.085577392578125,53.14107971191406,76.24862670898438,1.6897266340102602e+18,121.99926015625002,0.8064998562263265,0.5008368864756512,-0.4224423178009419,-0.4331759633513979,-0.6440622937547975,0.3946225365395285,-1.3634799219412972
2.05,1.6897266340603638e+18,122.04936386718752,3.123967711723149,0.9739624043953418,-1.940176620429754,1.6897266340578598e+18,122.04685986328124,0.0837799072265625,1.0642669677734375,-0.25704345703125,1.6897266340603638e+18,122.04936386718752,-2.3024574132125077,9.512432075870038,-0.6116829852390289,1.6897266340603638e+18,122.04936386718752,0.4326935827732086,-0.0053161650896072,0.5151768885552883,1.68972663406287e+18,122.05187011718748,0.4252108335494995,0.0329464986920356,0.4584990317001939,,,,,,,,,,,,,1.6897266340603638e+18,122.04936386718752,-31.830944061279297,40.28342361450195,-2.902635192871094,1.6897266340648852e+18,122.05388525390624,-2.15386962890625,51.93632202148437,76.71619873046875,1.6897266340603638e+18,122.04936386718752,1.0061524393475518,0.4851417302283348,-0.4468813695984194,-0.2603605458453276,-0.6462794596658343,0.3837103122906099,-1.3252876670143887
2.1,1.6897266341104676e+18,122.09946762695311,1.7790400974734126,0.4022767323106526,-1.810797054835707,1.689726634107964e+18,122.09696381835938,-0.068695068359375,1.0183502197265626,-0.232110595703125,1.6897266341104676e+18,122.09946762695311,-2.316747862823754,9.520103107341528,-0.4057547836847602,1.6897266341104676e+18,122.09946762695311,0.3279522031545639,0.3124503552913665,-0.3561297118663787,1.6897266341129738e+18,122.101973828125,0.3169521689414977,0.3184925436973571,-0.3696834087371826,,,,,,,,,,,,,1.6897266341104676e+18,122.09946762695311,-32.307997131347655,40.175011444091794,-1.78338623046875,1.6897266341116948e+18,122.10069470214845,-2.1357192993164062,52.10304641723633,77.83495330810547,1.6897266341104676e+18,122.09946762695311,1.0868970055309244,0.4905418086056176,-0.4511290356146576,-0.1728780217521029,-0.6438950226617479,0.3758088206159048,-1.3285416844833633
2.15,1.6897266341605714e+18,122.1495712890625,-1.637765248389393,0.8651024505126476,-3.1430162279686327,1.6897266341580672e+18,122.14706723632813,-0.3995819091796875,1.0549896240234375,-0.3513763427734375,1.6897266341605714e+18,122.1495712890625,-2.234586560000479,9.543599133741258,-0.3081954280279949,1.6897266341605714e+18,122.1495712890625,-0.0717641515657305,0.1896350350230932,0.2346027724444866,1.6897266341630776e+18,122.152077734375,-0.0859323784708976,0.1774755015969276,0.2847483322024345,,,,,,,,,,,,,1.6897266341605714e+18,122.1495712890625,-31.99354667663574,40.56576995849609,-0.8611038208007813,1.6897266341585055e+18,122.14750551757814,-1.939227294921875,52.41304931640625,78.56873474121093,1.6897266341605714e+18,122.1495712890625,1.1107017908736283,0.4976760054463446,-0.4486013057501919,-0.1370442179252552,-0.6424062238975556,0.3719986876671962,-1.3386939713291066
2.2,1.6897266342106752e+18,122.19967509765624,0.643309360411167,1.063680318530202,-0.7636303199393675,1.689726634208171e+18,122.19717109375,-0.1763427734375,1.0807159423828123,-0.09776611328125,1.6897266342106752e+18,122.19967509765624,-2.547298289102614,9.461559382244944,-0.3744533515376224,1.6897266342106752e+18,122.19967509765624,-0.0838821172714233,-0.1205039590597152,0.9881617426872252,1.6897266342131812e+18,122.20218129882812,-0.0662092730402946,-0.0870301306247711,0.9980180263519288,,,,,,,,,,,,,1.6897266342106752e+18,122.19967509765624,-33.42079620361328,39.90532684326172,-1.031591796875,1.6897266342105167e+18,122.19951674804688,-3.495477294921875,51.657666015625,78.32469177246094,1.6897266342106752e+18,122.19967509765624,1.1038160038422722,0.4852990885783333,-0.4531747248247874,-0.1459709658677117,-0.651528558009912,0.3668421728027587,-1.305109438177535
2.25,1.6897266342607785e+18,122.24977871093748,7.262991061086953,1.7899618597561122,-0.9202981657425312,1.6897266342582748e+18,122.2472748046875,0.4643646240234375,1.1396636962890625,-0.145599365234375,1.6897266342607785e+18,122.24977871093748,-2.7326827381914853,9.412686922526358,-0.2947293442508205,1.6897266342607785e+18,122.24977871093748,0.1866554111242294,0.6205600619316101,-0.6985616326332094,1.689726634263285e+18,122.25228500976564,0.1813574880361556,0.6205828011035919,-0.8026136994361878,,,,,,,,,,,,,1.6897266342607785e+18,122.24977871093748,-34.4495361328125,39.205963134765625,-0.7631866455078125,1.6897266342625275e+18,122.25152749023437,-4.250308227539063,51.22224426269531,78.97059326171875,1.6897266342607785e+18,122.24977871093748,1.130332877778269,0.4829500422662486,-0.4548874153857885,-0.1068561704048809,-0.6575630265162051,0.356911281615942,-1.286662388219543
2.3,1.6897266343108823e+18,122.29988232421874,1.5063185211324692,1.1828296112370489,-4.0841233583709595,1.689726634308378e+18,122.29737827148438,-0.06875,1.0964385986328125,-0.4457122802734375,1.6897266343108823e+18,122.29988232421874,-2.2171270957382023,9.54804126629412,-0.2561154957713,1.6897266343108823e+18,122.29988232421874,-0.2269285485148429,-0.3355289876461029,-1.127296757698059,1.6897266343133888e+18,122.30238891601562,-0.2515811543911695,-0.3756696015596389,-1.1516937017440796,,,,,,,,,,,,,1.6897266343108823e+18,122.29988232421874,-33.00917205810547,40.739306640625,0.0998855590820312,1.689726634314539e+18,122.30353891601564,-2.3419281005859376,53.14832763671875,79.34369812011718,1.6897266343108823e+18,122.29988232421874,1.1102302477338275,0.5031846140724096,-0.4431125549285684,-0.1167074403941305,-0.6455004833370174,0.3656744463948551,-1.3410814803155238
2.35,1.689726634360986e+18,122.34998608398436,5.596618580763936,0.9955630601155756,-1.9369763484706728,1.6897266343584822e+18,122.34748212890624,0.4385528564453125,1.090521240234375,-0.2355438232421875,1.689726634360986e+18,122.34998608398436,-1.2949263404708355,9.697929396135809,-0.5101969430447741,1.689726634360986e+18,122.34998608398436,-0.6134522795677185,-0.4307190582156181,-2.9074315547943117,1.6897266343634929e+18,122.35249267578124,-0.6370876789093017,-0.3732598781585693,-2.9894606113433837,,,,,,,,,,,,,1.689726634360986e+18,122.34998608398436,-29.85334587097168,43.560184478759766,-1.2246856689453125,1.689726634361347e+18,122.35034735107422,1.105926513671875,56.107479095458984,77.82347106933594,1.689726634360986e+18,122.34998608398436,0.8278855502222753,0.5229370451156636,-0.4251599955798159,-0.4226356751515686,-0.6205317198569812,0.4002937464752779,-1.4258872472085748
2.4,1.68972663441109e+18,122.40008979492188,-3.302567264525294,1.528737390593886,-0.6409290265328437,1.689726634408586e+18,122.3975859375,-0.357684326171875,1.1553619384765623,-0.1681976318359375,1.68972663441109e+18,122.40008979492188,0.184628665025453,9.753698278917668,-0.9278117708560824,1.68972663441109e+18,122.40008979492188,-0.960646903514862,0.9993287801742554,-2.614895963668823,1.6897266344135962e+18,122.40259604492186,-0.965885865688324,1.0231194019317629,-2.5319395065307617,,,,,,,,,,,,,1.68972663441109e+18,122.40008979492188,-23.660066223144533,47.37851104736328,-2.37435302734375,1.689726634408153e+18,122.39715332031253,6.89462890625,59.48671264648438,76.95416870117188,1.68972663441109e+18,122.40008979492188,-0.4789878348723914,0.5634783281539917,-0.3755687491003297,-1.7066338600780695,-0.590964474062222,0.4378874088534072,-1.4684709319638891
2.45,1.6897266344611937e+18,122.45019370117188,-6.21070547072649,0.8496163613760471,-4.629302424063086,1.6897266344586898e+18,122.44768969726564,-0.5130615234375,1.0560943603515625,-0.6431365966796875,1.6897266344611937e+18,122.45019370117188,1.0676610879555344,9.630672203229665,-1.4869550060406325,1.6897266344611937e+18,122.45019370117188,-1.4357953548431397,-0.2765923127532005,-1.2371219635009765,1.6897266344637e+18,122.45269990234374,-1.4725917816162108,-0.3615104330237955,-1.1863656759262085,,,,,,,,,,,,,1.6897266344611937e+18,122.45019370117188,-19.660852432250977,49.57930603027344,-4.074609375,1.689726634460162e+18,122.44916201171876,10.628805541992188,61.538491821289064,75.08460083007813,1.6897266344611937e+18,122.45019370117188,-0.9955946827694134,0.5835906741248955,-0.3297626908541086,-2.190727606486492,-0.5802898391726713,0.4623352414620186,-1.3829193896872982
2.5,1.6897266345112973e+18,122.500297265625,-3.886514510742128,1.1167218221747874,-2.769058645978272,1.689726634508793e+18,122.497793359375,-0.2296142578125,1.0844818115234376,-0.494024658203125,1.6897266345112973e+18,122.500297265625,1.5465411967013776,9.410342288322449,-2.2694190085114534,1.6897266345112973e+18,122.500297265625,-2.0379894018173217,-1.60783371925354,-0.382269736006856,1.6897266345138038e+18,122.50280366210936,-2.046297478675842,-1.673382306098938,-0.3396912034600973,,,,,,,,,,,,,1.6897266345112973e+18,122.500297265625,-18.082362747192384,50.31363754272461,-8.1606201171875,1.6897266345121723e+18,122.50117236328124,12.152133178710937,62.16465454101562,69.9821044921875,1.6897266345112973e+18,122.500297265625,-0.924119109582155,0.565660631571442,-0.3085219485056569,-2.1706732118671423,-0.5709131700857917,0.5084843376048696,-1.2868018532460606
2.55,1.6897266345614008e+18,122.55040083007812,-4.840512453090846,1.5581588322937487,-0.2454022799390554,1.689726634558897e+18,122.54789697265626,-0.3132415771484375,1.0819854736328125,-0.3306488037109375,1.6897266345614008e+18,122.55040083007812,1.8562597645629944,9.14667638813138,-3.003888503141999,1.6897266345614008e+18,122.55040083007812,-1.8833616256713868,-2.7026705741882324,0.3454925775527954,1.689726634563907e+18,122.5529072265625,-1.8677582025527957,-2.6956217765808104,0.37411889731884,,,,,,,,,,,,,1.6897266345614008e+18,122.55040083007812,-17.563997650146483,49.92803268432617,-14.225937652587891,1.6897266345641828e+18,122.55318291015628,12.657797241210938,61.44580993652344,63.275384521484376,1.6897266345614008e+18,122.55040083007812,-0.7556386324455913,0.5213430033488217,-0.3110669005089206,-2.124708436212484,-0.5554680366463977,0.56774395391252,-1.2023562055574355
2.6,1.6897266346115046e+18,122.60050473632812,-5.278718986082077,0.3036814504283666,1.6721239419087766,1.6897266346090007e+18,122.5980006347656,-0.3212982177734375,0.93697509765625,-0.1748138427734375,1.6897266346115046e+18,122.60050473632812,2.0198215857440234,8.921117924920916,-3.5334361675557497,1.6897266346115046e+18,122.60050473632812,-1.5165277242660522,-2.52337908744812,0.7374751210212708,1.6897266346140111e+18,122.60301118164064,-1.4839800119400024,-2.5274680137634276,0.7429128646850586,,,,,,,,,,,,,1.6897266346115046e+18,122.60050473632812,-17.082100296020506,48.42410583496094,-20.7428466796875,1.689726634610989e+18,122.59998919677734,13.012645721435549,59.94609069824219,57.526817321777344,1.6897266346115046e+18,122.60050473632812,-0.5765032625919453,0.4667806290404231,-0.3284862294780549,-2.0903400452728795,-0.5376393478172907,0.6202356000065974,-1.1427692113939736
2.65,1.6897266346616082e+18,122.65060825195312,-2.4781869343101977,-0.383130016387701,4.665442243458628,1.6897266346591045e+18,122.64810439453125,-0.0147796630859375,0.8529998779296875,0.1042205810546875,1.6897266346616082e+18,122.65060825195312,2.207911669755876,8.792374289916754,-3.739365041310191,1.6897266346616082e+18,122.65060825195312,-0.6868667364120483,-2.9701019287109376,0.6628290891647339,1.6897266346641147e+18,122.65311484375,-0.6459395408630371,-2.965950632095337,0.6596142411231994,,,,,,,,,,,,,1.6897266346616082e+18,122.65060825195312,-16.301732444763182,46.96284637451172,-25.9233154296875,1.6897266346577958e+18,122.64679580078123,13.911264038085935,58.71560363769531,53.11316528320312,1.6897266346616082e+18,122.65060825195312,-0.439416924389953,0.4160303585425685,-0.3554088416556576,-2.104046314642422,-0.510793722731099,0.662713422240526,-1.11198404954072
2.7,1.6897266347117125e+18,122.70071206054688,-2.025510737296343,-1.4750363124489785,5.953377892098426,1.689726634709208e+18,122.69820810546877,0.0329376220703125,0.742559814453125,0.2467376708984375,1.6897266347117125e+18,122.70071206054688,2.369677196717709,8.807277844538092,-3.6032295424890513,1.6897266347117125e+18,122.70071206054688,-0.0626148059964179,-1.7820110321044922,0.8156364440917969,1.6897266347142182e+18,122.70321831054687,-0.030243232101202,-1.6782156229019165,0.8283634185791016,,,,,,,,,,,,,1.6897266347117125e+18,122.70071206054688,-14.55685634613037,46.18541946411133,-28.971664428710938,1.6897266347098043e+18,122.6988046875,15.591766357421877,57.98960876464844,50.25462341308594,1.6897266347117125e+18,122.70071206054688,-0.350690342163471,0.377587350477463,-0.3884129564722017,-2.152572575215495,-0.4777047671238568,0.6914955783687389,-1.1154457572289245
2.75,1.689726634761816e+18,122.750816015625,-1.8245150821603833,-2.123331527674794,6.111318863109946,1.689726634759312e+18,122.7483119140625,0.036505126953125,0.695672607421875,0.2723846435546875,1.689726634761816e+18,122.750816015625,2.138903278494328,8.949977991797924,-3.3871960972797863,1.689726634761816e+18,122.750816015625,0.6211889147758484,0.1529070764780044,0.7944660067558289,1.6897266347643223e+18,122.75332241210938,0.6566029548645019,0.2301579892635345,0.7886240482330322,,,,,,,,,,,,,1.689726634761816e+18,122.750816015625,-15.275570678710938,46.211117553710935,-29.22947387695313,1.6897266347618132e+18,122.7508130859375,14.509503173828126,58.1006591796875,50.32925720214844,1.689726634761816e+18,122.750816015625,-0.2860479095335745,0.3647244767662597,-0.4135345115576914,-2.1336252254824433,-0.4689395583280413,0.689931768727618,-1.1499071923776862
2.8,1.68972663481192e+18,122.80091987304688,1.477147897775471,-0.984551602948904,1.6306569653671978,1.6897266348094157e+18,122.7984157714844,0.3593597412109375,0.8550506591796875,-0.1852294921875,1.68972663481192e+18,122.80091987304688,1.7418562927567958,9.167544053401944,-3.0100760180574655,1.68972663481192e+18,122.80091987304688,0.953763210773468,-0.3643891781568527,0.8136630535125733,1.689726634814426e+18,122.80342602539062,0.9283817887306214,-0.4565194334834814,0.8112289071083069,,,,,,,,,,,,,1.68972663481192e+18,122.80091987304688,-17.143167877197264,46.82359161376953,-27.59779815673828,1.6897266348138232e+18,122.80282324218749,12.565615844726562,58.901919555664065,52.31829833984375,1.68972663481192e+18,122.80091987304688,-0.2562111463422384,0.3725814060075846,-0.4354434680242317,-2.095219757793866,-0.4706400780701914,0.6708011703157761,-1.208211884451903
2.85,1.6897266348620232e+18,122.85102319335938,6.240379075169563,4.330577134737372,-10.724122923027872,1.6897266348595192e+18,122.84851928710935,0.7882354736328125,1.3885528564453125,-1.4203521728515625,1.6897266348620232e+18,122.85102319335938,1.5177621153321863,9.267440948628186,-2.822688938522339,1.6897266348620232e+18,122.85102319335938,-0.6356083750724792,-0.214713242277503,0.444793402403593,1.68972663486453e+18,122.85352983398435,-0.7234890282154083,-0.1499328792095184,0.4120003424584865,,,,,,,,,,,,,1.6897266348620232e+18,122.85102319335938,-18.18059730529785,47.08469467163086,-27.05320053100586,1.689726634860633e+18,122.84963336181642,11.68478775024414,58.82054901123047,52.110260009765625,1.6897266348620232e+18,122.85102319335938,-0.1882531701156006,0.361852335217102,-0.4566307007996911,-2.0646836949795664,-0.4626935734477357,0.6681456910534895,-1.2377080525788349
2.9,1.689726634912127e+18,122.90112700195314,1.83902712402001,-1.7139000136256215,-5.322706537916362,1.689726634909623e+18,122.898623046875,0.294268798828125,0.72745361328125,-0.8336822509765625,1.689726634912127e+18,122.90112700195314,1.4222946977598965,9.130776925114391,-3.2806174738803504,1.689726634912127e+18,122.90112700195314,-1.041286253929138,-1.2013599395751953,0.5558883652091027,1.6897266349146332e+18,122.9036334472656,-1.007377564907074,-1.262556493282318,0.6113247826695443,,,,,,,,,,,,,1.689726634912127e+18,122.90112700195314,-18.957343673706056,45.80938186645508,-29.83674011230469,1.6897266349074417e+18,122.896441796875,11.104840087890626,57.527975463867186,49.25992431640625,1.689726634912127e+18,122.90112700195314,-0.0782956987093223,0.3358930362569878,-0.4531911264083624,-1.9803023155380213,-0.4712651831706672,0.6778978299093774,-1.1975051265301324
2.95,1.6897266349622308e+18,122.95123081054687,-4.272098408474922,0.3969116396939753,1.467522984983325,1.6897266349597268e+18,122.94872680664062,-0.3012481689453125,1.013201904296875,-0.168585205078125,1.6897266349622308e+18,122.95123081054687,1.174121214154884,9.091907505398392,-3.4802983347037433,1.6897266349622308e+18,122.95123081054687,-0.1002760484814643,-0.5740340381860733,1.0627502083778382,1.6897266349647373e+18,122.95373725585937,-0.04806664660573,-0.5517636153614148,1.0141396045684814,,,,,,,,,,,,,1.6897266349622308e+18,122.95123081054687,-19.351094818115236,44.1272705078125,-32.80210494995117,1.6897266349594527e+18,122.94845263671876,10.632791137695312,55.871682739257814,46.43330993652344,1.6897266349622308e+18,122.95123081054687,0.0738638368954363,0.3011926473710472,-0.471708716398125,-1.8958277677587971,-0.4664621345049066,0.6849134734866487,-1.1866672905922626
3.0,1.6897266350123343e+18,123.00133437499998,5.102435162876397,7.282227618024349,2.760792863484025,1.6897266350098304e+18,122.99883041992186,0.6258819580078125,1.66156005859375,-0.0858154296875,1.6897266350123343e+18,123.00133437499998,1.1245542839791625,9.132240334117412,-3.3915452324,1.6897266350123343e+18,123.00133437499998,0.0018269799649715,0.4905108988285064,-0.4136173754930496,1.6897266350148408e+18,123.003841015625,-0.0290589228272437,0.7048627972602844,-0.4333263963460922,,,,,,,,,,,,,1.6897266350123343e+18,123.00133437499998,-19.46947898864746,44.03514022827149,-33.57250747680664,1.689726635011463e+18,123.000462890625,10.642080688476565,55.902398681640626,45.79183654785156,1.6897266350123343e+18,123.00133437499998,0.105500469761827,0.2942012740036556,-0.4819171260926561,-1.891008941938653,-0.4586651015400288,0.6861197600243772,-1.1977862865629043
3.05,1.6897266350624384e+18,123.05143828125,-4.926501526734829,-4.450118992345333,7.267314009626507,1.6897266350599342e+18,123.04893427734376,-0.435858154296875,0.4282989501953125,0.4305206298828125,1.6897266350624384e+18,123.05143828125,0.8212233859410881,9.142724084922076,-3.444941073214114,1.6897266350624384e+18,123.05143828125,0.6698526479303837,2.3856698751449583,0.422993540763855,1.6897266350649444e+18,123.05394448242188,0.7312034651637078,2.332519268989563,0.4711909025907516,,,,,,,,,,,,,1.6897266350624384e+18,123.05143828125,-21.829640579223632,44.17848587036133,-32.49655456542969,1.6897266350634734e+18,123.05247329101562,7.316732788085938,56.10968017578125,47.55372924804688,1.6897266350624384e+18,123.05143828125,0.0863660416368655,0.3222661608575051,-0.4647440469114074,-1.803438488720457,-0.4919772820389128,0.6616571419660612,-1.2009031232438026
3.1,1.689726635112542e+18,123.10154204101563,-3.161571583095789,-1.4743668010765312,6.334674847840071,1.689726635110038e+18,123.09903803710937,-0.2881988525390625,0.859588623046875,0.322052001953125,1.689726635112542e+18,123.10154204101563,0.3457212839946709,9.3354591890347,-2.9744426868793368,1.689726635112542e+18,123.10154204101563,1.639355683326721,1.134061861038208,-0.0457654505968093,1.6897266351150482e+18,123.10404824218747,1.705446720123291,1.0559346735477448,-0.1148457869887352,,,,,,,,,,,,,1.689726635112542e+18,123.10154204101563,-25.12933235168457,45.07308654785156,-29.127444458007812,1.689726635110281e+18,123.09928088378906,4.573497772216797,57.237674713134766,50.94176483154297,1.689726635112542e+18,123.10154204101563,0.1177295348759173,0.3557280278980982,-0.4708786578609632,-1.68628508681403,-0.5105239468151106,0.6252141686765456,-1.2603863077171442
3.15,1.6897266351626455e+18,123.15164555664062,-4.580635482240915,3.3387035767894986,-1.3961635590031742,1.6897266351601418e+18,123.14914169921876,-0.425189208984375,1.3003143310546874,-0.39833984375,1.6897266351626455e+18,123.15164555664062,0.5212663555568084,9.569664133846164,-2.062739404067993,1.6897266351626455e+18,123.15164555664062,1.571469819545746,-1.3936625957489013,-0.1288959145545959,1.689726635165152e+18,123.15415190429688,1.4791627407073975,-1.4427827715873718,0.0054096758365631,,,,,,,,,,,,,1.6897266351626455e+18,123.15164555664062,-24.3055362701416,48.243727111816405,-24.839703369140626,1.6897266351570885e+18,123.14608813476562,5.9815216064453125,60.340576171875,54.83215942382813,1.6897266351626455e+18,123.15164555664062,-0.0212860976899249,0.3890166256961995,-0.489892542690938,-1.824553916920855,-0.4828779133252478,0.6125553967815356,-1.3515729475908551
3.2,1.6897266352127493e+18,123.20174926757814,-1.536760654956102,0.7107907759141922,-5.269009376068115,1.6897266352102454e+18,123.19924521484374,-0.118896484375,1.0497589111328125,-0.695257568359375,1.6897266352127493e+18,123.20174926757814,0.0007606739543518,9.65726935206294,-1.67992149314329,1.6897266352127493e+18,123.20174926757814,0.2323857277631759,0.0523790851235389,1.955797028541565,1.689726635215256e+18,123.204255859375,0.2319406628608703,0.0939414620399475,1.9028382658958436,,,,,,,,,,,,,1.6897266352127493e+18,123.20174926757814,-25.006309509277344,48.45032272338867,-23.801289367675786,1.6897266352090964e+18,123.19809653320311,4.7691650390625,60.168389892578126,55.601129150390626,1.6897266352127493e+18,123.20174926757814,0.2835178728718993,0.3749222140220173,-0.5263180435338274,-1.5680765836260928,-0.472055654657159,0.5994684428065231,-1.3960754749511408
3.25,1.689726635262853e+18,123.25185307617188,1.5789520294755697,-1.298154260315299,-2.3992515493439135,1.689726635260349e+18,123.24934897460938,0.0895843505859375,0.851031494140625,-0.3908233642578125,1.689726635262853e+18,123.25185307617188,-0.6442257738298177,9.665649174777863,-1.5185902367193995,1.689726635262853e+18,123.25185307617188,0.4282573401927948,-0.6797151863574982,1.133553075790405,1.6897266352653594e+18,123.25435947265626,0.4219724863767624,-0.7262086987495422,1.1486549258232115,,,,,,,,,,,,,1.689726635262853e+18,123.25185307617188,-28.015442657470704,47.15802154541016,-23.36301498413086,1.6897266352611072e+18,123.2501072265625,1.8955718994140625,58.92560729980469,56.051821899414065,1.689726635262853e+18,123.25185307617188,0.6966567458085017,0.3613602219023448,-0.5521879233821746,-1.1698716913914464,-0.4773562789395401,0.5801187982163977,-1.401026590153338
3.3,1.689726635312957e+18,123.30195673828123,1.0246702628475428,-2.444420273786783,-1.0247995006373525,1.689726635310453e+18,123.29945288085938,-0.013531494140625,0.73214111328125,-0.240252685546875,1.689726635312957e+18,123.30195673828123,-1.074559352262765,9.63696119114518,-1.462596313010007,1.689726635312957e+18,123.30195673828123,0.0201725393533706,-0.7336723864078522,0.6397646903991699,1.6897266353154632e+18,123.3044631347656,0.022671278566122,-0.664329469203949,0.5901936650276184,,,,,,,,,,,,,1.689726635312957e+18,123.30195673828123,-29.373567199707033,46.21800918579102,-24.1911865234375,1.6897266353131187e+18,123.30211879882812,0.6149139404296875,57.97054443359375,54.95374145507813,1.689726635312957e+18,123.30195673828123,0.9782700970035368,0.3391641746884951,-0.577366941085974,-0.9379854803118086,-0.4705467342552857,0.574589212072459,-1.384580637441718
3.35,1.6897266353630605e+18,123.35206044921875,-1.4135417162705957,-0.3253367004930972,1.980109139332622,1.6897266353605563e+18,123.34955639648436,-0.2888427734375,0.9563568115234377,0.0769500732421875,1.6897266353630605e+18,123.35206044921875,-1.235103798383996,9.64321089918971,-1.2753457485622168,1.6897266353630605e+18,123.35206044921875,0.8204760491847992,1.4307242333889008,0.3187193050980568,1.689726635365567e+18,123.35456689453125,0.8506225228309632,1.5341417729854585,0.372000203281641,,,,,,,,,,,,,1.6897266353630605e+18,123.35206044921875,-29.991522979736327,46.188672637939455,-24.207928466796876,1.6897266353651308e+18,123.3541306640625,-0.433270263671875,58.16428833007812,56.01228637695313,1.6897266353630605e+18,123.35206044921875,1.1068736261175671,0.3444410724398341,-0.5835505821485814,-0.7984980096432395,-0.4716256745058241,0.5641167552340923,-1.3880905267724244
3.4,1.6897266354131643e+18,123.40216420898436,-0.5973994037599862,-0.2430426819747685,1.8141071000056712,1.68972663541066e+18,123.39966025390626,-0.2190826416015625,0.957403564453125,0.1121826171875,1.6897266354131643e+18,123.40216420898436,-1.7859984214048086,9.609009471284748,-0.7670927207398787,1.6897266354131643e+18,123.40216420898436,0.8034976482391357,0.490397372841835,1.4718839406967164,1.6897266354156703e+18,123.40467045898438,0.8126431345939636,0.3506208777427673,1.4820346593856812,,,,,,,,,,,,,1.6897266354131643e+18,123.40216420898436,-33.30090980529785,45.99586868286133,-20.610186767578124,1.6897266354119393e+18,123.40093939208984,-4.030200958251953,57.601295471191406,59.34371566772461,1.6897266354131643e+18,123.40216420898436,1.4270323817830897,0.3648237789034431,-0.594422300353995,-0.4131324048736504,-0.4875068528523454,0.5251083369103756,-1.3702687986624076
3.45,1.6897266354632678e+18,123.45226796875,2.6064154886251685,1.0315751030260325,-0.9705306909940392,1.6897266354607642e+18,123.4497640625,0.0157958984375,1.0788848876953123,-0.165911865234375,1.6897266354632678e+18,123.45226796875,-2.46033928906098,9.480766187018157,-0.4421978968758135,1.6897266354632678e+18,123.45226796875,0.7456737399101258,-1.313056802749634,1.3673266410827636,1.689726635465774e+18,123.45477416992188,0.7200293779373169,-1.3102887153625489,1.3523981332778932,,,,,,,,,,,,,1.6897266354632678e+18,123.45226796875,-36.32558135986328,44.38372421264648,-19.801229095458982,1.689726635458749e+18,123.44774897460938,-6.41470947265625,56.08890380859375,59.552651977539064,1.6897266354632678e+18,123.45226796875,1.7004882282901967,0.3477359715265399,-0.6291459474259017,-0.1800785634862821,-0.4790381561825836,0.5035468208633225,-1.312854279639772
3.5,1.6897266355133714e+18,123.50237143554686,3.6785687442073223,1.5799980898493529,-4.061303740701973,1.6897266355108677e+18,123.49986748046874,0.0785919189453125,1.1101318359375,-0.4664031982421875,1.6897266355133714e+18,123.50237143554686,-2.916075195132494,9.355637586092948,-0.3670414751524478,1.6897266355133714e+18,123.50237143554686,0.1099375084042549,-0.409640708565712,0.4683223098516464,1.689726635515878e+18,123.504878125,0.0738849833607673,-0.3213915102183818,0.4097215235233307,,,,,,,,,,,,,1.6897266355133714e+18,123.50237143554686,-37.49086074829101,43.084069061279294,-20.857674407958985,1.6897266355107602e+18,123.49976025390625,-7.477578735351562,54.8617431640625,58.44114685058594,1.6897266355133714e+18,123.50237143554686,1.8098544613500471,0.325153205515994,-0.6555633137557514,-0.1252532404716184,-0.4678708695503548,0.4955651733681575,-1.2664071053416073
3.55,1.6897266355634757e+18,123.55247529296877,2.7936280883762237,1.197131926642656,-4.280073245198578,1.6897266355609713e+18,123.54997119140626,-0.022735595703125,1.0849029541015625,-0.4556365966796875,1.6897266355634757e+18,123.55247529296877,-2.94446267606169,9.345016355739832,-0.4127117120701447,1.6897266355634757e+18,123.55247529296877,-0.3639719903469085,0.6643066287040711,-0.1650029063224792,1.6897266355609713e+18,123.5499713745117,-0.3697175309062004,0.6735537201166153,-0.1620424315333365,,,,,,,,,,,,,1.6897266355634757e+18,123.55247529296877,-37.89796524047851,42.93330001831055,-21.270408630371097,1.6897266355627732e+18,123.55177319335937,-7.840765380859375,54.78934326171875,58.11415100097656,1.6897266355634757e+18,123.55247529296877,1.781558236504187,0.326582260051146,-0.6519588482662122,-0.139299802969618,-0.4743941141805604,0.4931655954726709,-1.2627498898046965
3.6,1.689726635613579e+18,123.60257905273438,4.46871058782965,2.554253924233317,-1.7243818355080485,1.689726635611075e+18,123.60007500000002,0.2133697509765625,1.216363525390625,-0.2452362060546875,1.689726635613579e+18,123.60257905273438,-2.7616744393980506,9.391704807869791,-0.5598362151108681,1.689726635613579e+18,123.60257905273438,-0.6102943003177643,0.0003849655389785,-1.0369809329509736,1.6897266356060646e+18,123.59506459960936,-0.54681875705719,0.1880192250013351,-0.7188331454992294,,,,,,,,,,,,,1.689726635613579e+18,123.60257905273438,-37.60094223022461,43.18225173950195,-21.44741897583008,1.6897266356147835e+18,123.60378339843749,-6.975332641601563,55.3298828125,57.50374755859375,1.689726635613579e+18,123.60257905273438,1.6922768711221756,0.3333351640922181,-0.6375704418758715,-0.2015953280143946,-0.4840231281399592,0.4980385247559654,-1.2790958119360096
3.65,1.6897266356636828e+18,123.65268286132812,8.334529984163044,3.5333402475136517,-2.0889213670030236,1.689726635661179e+18,123.65017880859376,0.64656982421875,1.3499481201171877,-0.310498046875,1.6897266356636828e+18,123.65268286132812,-1.5574730273736268,9.617441316447852,-0.9764047852722556,1.6897266356636828e+18,123.65268286132812,-0.9521407604217528,-0.7256952881813049,-3.625246524810791,1.6897266356561682e+18,123.6451683105469,-0.8892597317695617,-0.6325073599815368,-3.443362760543823,,,,,,,,,,,,,1.6897266356636828e+18,123.65268286132812,-32.901794815063475,45.762185668945314,-23.85848007202149,1.689726635661593e+18,123.65059313964844,-1.4036407470703125,58.36916732788086,54.99897384643555,1.6897266356636828e+18,123.65268286132812,1.30359834589952,0.3460905770290903,-0.5990673042795283,-0.6021274616999573,-0.4692647744211498,0.5480497706610192,-1.3773954813506424
3.7,1.6897266357137864e+18,123.70278623046876,-6.755757052194475,4.868091774055362,-0.1915582569660246,1.6897266357112822e+18,123.70028217773438,-0.7140533447265625,1.4906005859375,-0.1579559326171875,1.6897266357137864e+18,123.70278623046876,0.0621977358257956,9.678509123968482,-1.53121929976359,1.6897266357137864e+18,123.70278623046876,-1.1212956428527832,0.4641429781913757,-2.6513956069946287,1.6897266357062725e+18,123.69527207031253,-1.119986367225647,-0.0354740500450134,-2.8475319385528564,,,,,,,,,,,,,1.6897266357137864e+18,123.70278623046876,-24.14675445556641,48.95494918823242,-27.51121826171875,1.689726635708406e+18,123.69740600585938,6.531228637695312,60.94539794921875,51.59919738769531,1.6897266357137864e+18,123.70278623046876,0.3320077111420435,0.3598851808980251,-0.5439632728756725,-1.5889672651058004,-0.4479585517182512,0.6111331952943662,-1.4097965494791085
3.75,1.6897266357638897e+18,123.75288969726562,-4.697256483966112,2.079822991529107,0.8676820917423068,1.689726635761386e+18,123.75038579101565,-0.329638671875,1.153472900390625,-0.1479034423828125,1.6897266357638897e+18,123.75288969726562,0.907654314294532,9.524423659341334,-2.1377760280300677,1.6897266357638897e+18,123.75288969726562,-1.2007826805114743,1.4259626924991609,-1.5867343187332152,1.6897266357563756e+18,123.74537553710935,-1.184257173538208,1.7412373900413514,-1.6611032724380492,,,,,,,,,,,,,1.6897266357638897e+18,123.75288969726562,-20.577024841308592,49.47835159301758,-29.3462646484375,1.6897266357604183e+18,123.74941850585938,9.635845947265626,61.31761474609375,49.93246765136719,1.6897266357638897e+18,123.75288969726562,-0.1318655208428971,0.3844525898585124,-0.4845318638524747,-1.9690099091453424,-0.4676393969259827,0.6312179182989398,-1.3314918280621757
3.8,1.6897266358139932e+18,123.80299316406249,-1.0055165618880093,0.2902997569990158,0.0170989603868128,1.689726635811489e+18,123.8004890625,0.0335601806640625,0.974822998046875,-0.268963623046875,1.6897266358139932e+18,123.80299316406249,1.654105762398243,9.275882263045906,-2.704859437790214,1.6897266358139932e+18,123.80299316406249,-1.1940792322158813,-1.2330273926258086,-1.3598634958267213,1.6897266358064788e+18,123.79547880859374,-1.2015716075897216,-0.9742839679121972,-1.4862095713615415,,,,,,,,,,,,,1.6897266358139932e+18,123.80299316406249,-17.068388366699217,48.792762756347656,-31.889784240722655,1.6897266358124303e+18,123.80143012695312,13.409982299804687,60.55768737792969,47.2251953125,1.6897266358139932e+18,123.80299316406249,-0.2857749221842777,0.3834774038177154,-0.4447104518067247,-2.116554955931474,-0.4667005098762058,0.6611417879349812,-1.241161089780528
3.85,1.6897266358640968e+18,123.8530966796875,-4.789188976184428,-1.2463861960595846,1.321037415513694,1.6897266358615928e+18,123.85059277343753,-0.2552825927734375,0.7775848388671875,-0.174176025390625,1.6897266358640968e+18,123.8530966796875,2.261151384773254,9.00859688640952,-3.1412289938387277,1.6897266358640968e+18,123.8530966796875,-1.196297287940979,-0.9874037027359008,-0.5946403324604035,1.689726635856582e+18,123.84558227539064,-1.2112006902694703,-1.0005308866500855,-0.6889539122581482,,,,,,,,,,,,,1.6897266358640968e+18,123.8530966796875,-12.678661727905274,47.22237014770508,-35.203531646728514,1.6897266358644416e+18,123.853441796875,17.797930908203124,58.811517333984376,43.801318359375,1.6897266358640968e+18,123.8530966796875,-0.304439429740087,0.3606611050895868,-0.4261191583302794,-2.194431113432279,-0.4506756992933027,0.696492824442759,-1.1649985438998394
3.9,1.6897266359142006e+18,123.90320053710936,-4.531904243010878,-2.620155844686031,3.8010937092792982,1.6897266359116966e+18,123.90069653320312,-0.192144775390625,0.6325042724609375,0.0432373046875,1.6897266359142006e+18,123.90320053710936,2.577187991288304,8.823083199530839,-3.4170636460858583,1.6897266359142006e+18,123.90320053710936,-0.7234040141105652,-1.6903692960739136,0.1774729803204536,1.6897266359066862e+18,123.89568613281251,-0.808825147151947,-1.6237220764160156,0.0793442003428935,,,,,,,,,,,,,1.6897266359142006e+18,123.90320053710936,-10.092034912109376,45.542093658447264,-37.51042175292969,1.6897266359112525e+18,123.90025231933592,20.49696350097656,57.05238723754883,41.45784759521485,1.6897266359142006e+18,123.90320053710936,-0.2542310912088706,0.3309842469691275,-0.4232813994353661,-2.216883133164785,-0.4351856406800379,0.722302454222872,-1.119137378034841
3.95,1.6897266359643044e+18,123.95330434570312,-4.000339452008008,-2.7281968834012744,3.7356413446119423,1.6897266359618002e+18,123.95080034179686,-0.1384429931640625,0.6170379638671875,0.0373291015625,1.6897266359643044e+18,123.95330434570312,2.634566939615309,8.805068936316967,-3.420205158981979,1.6897266359643044e+18,123.95330434570312,-0.2847000297158956,-1.664574098587036,0.9059932589530943,1.6897266359567898e+18,123.94578974609377,-0.3691588670015335,-1.6760480642318725,0.7971016228199005,,,,,,,,,,,,,1.6897266359643044e+18,123.95330434570312,-7.86035270690918,44.10148315429687,-39.36267929077148,1.689726635958064e+18,123.94706420898436,22.35158081054687,55.85559997558594,39.90594482421875,1.6897266359643044e+18,123.95330434570312,-0.1705249705067514,0.2975393666505831,-0.4410229841147709,-2.227132015412552,-0.4136227629618356,0.7387149190424456,-1.1149245843862228
4.0,1.689726636014408e+18,124.00340786132811,-1.782882978184968,-2.9465033004307744,4.944485570167005,1.689726636011904e+18,124.00090400390624,0.086163330078125,0.623065185546875,0.1861907958984375,1.689726636014408e+18,124.00340786132811,2.3687138754174115,8.971481733788847,-3.1687660538706184,1.689726636014408e+18,124.00340786132811,0.6248858749866486,-1.1831728100776673,1.231238031387329,1.6897266360068936e+18,123.99589345703126,0.4710999809205532,-1.3034435987472537,1.2646101236343383,,,,,,,,,,,,,1.689726636014408e+18,124.00340786132811,-6.982529830932617,43.69702224731445,-39.85826034545899,1.689726636010077e+18,123.99907705078128,23.10785217285156,55.564761352539065,39.558493041992186,1.689726636014408e+18,124.00340786132811,-0.0716985916633835,0.2713852571106913,-0.4744324487056605,-2.2125652571852386,-0.3924209539147988,0.7396598216221655,-1.1554657753336888
4.05,1.6897266360645115e+18,124.0535115234375,6.135666654807329,1.9794388388556243,-0.234440273324251,1.6897266360620076e+18,124.05100751953124,0.877435302734375,1.1775543212890625,-0.3578582763671875,1.6897266360645115e+18,124.0535115234375,2.0749785910117624,9.201183989579675,-2.6802010896128414,1.6897266360645115e+18,124.0535115234375,0.7862898468971252,-0.5761327028274537,0.5203620135784149,1.6897266360569974e+18,124.04599731445312,0.9071575582027436,-0.5610283851623535,0.6212722778320312,,,,,,,,,,,,,1.6897266360645115e+18,124.0535115234375,-7.248928451538086,44.96496734619141,-38.603369140625,1.689726636062088e+18,124.05108803710937,22.80683288574219,56.92274169921875,40.89197387695312,1.6897266360645115e+18,124.0535115234375,-0.0486255380890744,0.2695590850704853,-0.5046557441446057,-2.230001369797648,-0.3734603080705069,0.730154919597466,-1.2178208981230123
4.1,1.6897266361146156e+18,124.10361538085938,7.101077036339044,4.11798149657011,-4.856797875911593,1.689726636112111e+18,124.10111123046876,0.9196533203125,1.348504638671875,-0.7351287841796875,1.6897266361146156e+18,124.10361538085938,2.004790254637599,9.251180251083372,-2.5610073732423784,1.6897266361146156e+18,124.10361538085938,-0.5226027488708496,0.5029530644416809,-0.1709860146045685,1.689726636107101e+18,124.0961009765625,-0.2924448527395725,0.0037766814231872,0.0369746899232268,,,,,,,,,,,,,1.6897266361146156e+18,124.10361538085938,-6.901779556274414,45.023974609375,-38.191769409179685,1.689726636114101e+18,124.10310112304688,23.199563598632817,56.79038696289062,41.17011413574219,1.6897266361146156e+18,124.10361538085938,-0.0339074753284804,0.2654461750989575,-0.5135971422352349,-2.235289870382408,-0.3660195115100859,0.7292129208318483,-1.232690563223328
4.15,1.689726636164719e+18,124.15371904296876,-1.6686352814623713,3.9780156258058543,0.5042214415252209,1.6897266361622152e+18,124.15121518554687,-0.057550048828125,1.307818603515625,-0.24053955078125,1.689726636164719e+18,124.15371904296876,1.8690002667054533,9.086484077497122,-3.1736963791057464,1.689726636164719e+18,124.15371904296876,-0.802784526348114,2.1901944994926454,-0.0746451139450073,1.6897266361572045e+18,124.14620454101563,-0.9456433475017548,2.509694766998291,-0.2625764913856983,,,,,,,,,,,,,1.689726636164719e+18,124.15371904296876,-9.016308975219726,43.536431884765626,-39.31809997558594,1.6897266361609108e+18,124.14991094970704,20.350719451904297,55.0874137878418,39.89221954345703,1.689726636164719e+18,124.15371904296876,-7.333967399208024e-05,0.2768108837414903,-0.4851082311265654,-2.104202457111668,-0.4112246932169826,0.7201557560909044,-1.1852941353183617
4.2,1.689726636214823e+18,124.20382275390624,-6.843237416535615,-2.3143426429259777,4.807217852445542,1.6897266362123187e+18,124.20131875,-0.51998291015625,0.70313720703125,0.1605499267578125,1.689726636214823e+18,124.20382275390624,1.6033171814730764,9.08906532616198,-3.312906930684149,1.689726636214823e+18,124.20382275390624,0.6046426653861999,0.2475621461868286,0.4835694551467895,1.6897266362073083e+18,124.19630834960938,0.3667982313781976,0.2844364672899246,0.4331277281045914,,,,,,,,,,,,,1.689726636214823e+18,124.20382275390624,-12.025873947143555,42.62420120239258,-39.61969375610352,1.68972663620772e+18,124.19671987304687,17.908346557617186,54.46632385253906,39.797732543945315,1.689726636214823e+18,124.20382275390624,0.0405011261785394,0.2826698914017252,-0.48225682514684,-2.021284048576655,-0.4308891960767417,0.7083960870042365,-1.1860247696262585
4.25,1.6897266362649265e+18,124.25392651367189,-2.503691465601176,1.51969623981297,3.2998841921472546,1.6897266362624225e+18,124.25142255859376,-0.1060455322265625,1.102960205078125,0.035211181640625,1.6897266362649265e+18,124.25392651367189,1.414389682175964,9.304340061958433,-2.7464044772301612,1.6897266362649265e+18,124.25392651367189,1.5338109254837036,-1.252321550995111,0.3585392296314239,1.689726636257412e+18,124.24641206054687,1.48998761177063,-0.8290546402335167,0.4086034327745437,,,,,,,,,,,,,1.6897266362649265e+18,124.25392651367189,-12.613952255249025,44.127752685546874,-37.69817962646484,1.6897266362597292e+18,124.24872924804689,17.518264770507812,56.15767517089843,41.890054321289064,1.6897266362649265e+18,124.25392651367189,0.0252498587644476,0.2951234915803507,-0.5052654747360433,-2.048612695976733,-0.4151976240531055,0.6964256659085459,-1.2500425383021736
4.3,1.68972663631503e+18,124.30402998046875,-4.051915091657639,0.3611940789115428,-3.2533137549868223,1.6897266363125263e+18,124.301526171875,-0.2747711181640625,1.0075164794921876,-0.55291748046875,1.68972663631503e+18,124.30402998046875,1.469230110388249,9.507915007610915,-1.8861392083895203,1.68972663631503e+18,124.30402998046875,1.1144729495048522,-3.1577773094177246,0.8850852251052856,1.6897266363075156e+18,124.29651567382813,1.273706078529358,-3.1024741172790526,0.6882796585559845,,,,,,,,,,,,,1.68972663631503e+18,124.30402998046875,-9.004586029052735,46.55192489624024,-35.32021255493164,1.6897266363117386e+18,124.30073847656249,21.416336059570312,58.55931091308594,44.22818603515625,1.68972663631503e+18,124.30402998046875,-0.0417014148535051,0.2833355092363326,-0.5454572236876964,-2.2363148821141836,-0.3564043679828379,0.7032365910443232,-1.32416835118931
4.35,1.6897266363651338e+18,124.3541337890625,-2.7579893795967103,-0.4070086708164214,-3.201876939285994,1.6897266363626296e+18,124.3516296875,-0.16231689453125,0.93782958984375,-0.4475738525390625,1.6897266363651338e+18,124.3541337890625,1.0229414078413694,9.636446811882257,-1.4920750670811531,1.6897266363651338e+18,124.3541337890625,-0.0183963596820831,-1.1190243303775786,1.5614140272140502,1.6897266363576197e+18,124.34661953125,0.0817349173128605,-1.4939509510993958,1.5427632808685303,,,,,,,,,,,,,1.6897266363651338e+18,124.3541337890625,-7.390687942504883,47.13461532592773,-34.48819580078125,1.6897266363637478e+18,124.35274765625,22.617315673828124,58.94710083007813,44.89400939941406,1.6897266363651338e+18,124.3541337890625,0.1524468995650217,0.2467663406093367,-0.5897761894476101,-2.166654362473035,-0.3160788722282169,0.7008362867121378,-1.38457047080475
4.4,1.6897266364152376e+18,124.4042375,-1.253360477438569,-1.1859521271717548,2.061242823447734,1.6897266364127334e+18,124.40173349609374,-0.1103240966796875,0.8606231689453125,0.0773468017578125,1.6897266364152376e+18,124.4042375,0.2914600169670233,9.679682142496706,-1.5309270095926522,1.6897266364152376e+18,124.4042375,-0.0285367891192436,1.5504332840442658,1.3469764709472656,1.6897266364077235e+18,124.39672333984376,-0.0937170624732971,1.0358314417302608,1.3921993970870972,,,,,,,,,,,,,1.6897266364152376e+18,124.4042375,-10.236399841308591,46.39801864624023,-34.754791259765625,1.6897266364105544e+18,124.39955450439452,19.561359405517575,58.19607162475586,44.63700485229492,1.6897266364152376e+18,124.4042375,0.5703669767945241,0.2323826358405562,-0.6155027870248331,-1.756826876079416,-0.325854346237352,0.6787893617377145,-1.40972578385168
4.45,1.6897266364653412e+18,124.45434125976564,-0.6764388774617761,-0.0065447746944427,4.192104892757833,1.6897266364628372e+18,124.4518373535156,-0.1082000732421875,1.0015289306640625,0.2766357421875,1.6897266364653412e+18,124.45434125976564,-0.5530135002578794,9.698003864224551,-1.3187635230714827,1.6897266364653412e+18,124.45434125976564,0.9576696991920473,0.1078352034091949,1.6871410608291626,1.6897266364578268e+18,124.44682666015623,0.8330234706401825,0.8232508540153504,1.6490845203399658,,,,,,,,,,,,,1.6897266364653412e+18,124.45434125976564,-15.851070404052734,46.2134895324707,-33.34116058349609,1.689726636457364e+18,124.44636391601564,13.758575439453123,58.05202026367188,46.223828125,1.6897266364653412e+18,124.45434125976564,1.0825299271062476,0.2516456019468963,-0.6341254390956352,-1.1698711462401834,-0.3549028326368235,0.6390464465685977,-1.4218384939084363
4.5,1.6897266365154452e+18,124.50444521484376,0.8594586870850623,-0.4194219283789396,-1.7737537545683235,1.689726636512941e+18,124.50194106445312,-0.04871826171875,0.93543701171875,-0.2748138427734375,1.6897266365154452e+18,124.50444521484376,-1.2402863740406187,9.687885439600944,-0.858461434289068,1.6897266365154452e+18,124.50444521484376,0.9158061861991882,-0.4434052102267742,1.2344497203826903,1.6897266365079306e+18,124.49693056640623,0.9721882224082948,-0.7146316856145859,1.308907723426819,,,,,,,,,,,,,1.6897266365154452e+18,124.50444521484376,-18.668584442138673,46.47242050170898,-31.59508361816406,1.689726636509373e+18,124.49837275390624,11.261843872070312,58.3470947265625,47.91311340332031,1.6897266365154452e+18,124.50444521484376,1.6875670755561774,0.2418611624829352,-0.6714270887720801,-0.6107270961847018,-0.3351696000761987,0.6149988920615549,-1.4151497141159557
4.55,1.6897266365655483e+18,124.55454848632812,0.6795416219435632,-0.5099436770164967,0.3729506626636162,1.6897266365630446e+18,124.55204453125002,-0.1085174560546875,0.9377044677734376,-0.007373046875,1.6897266365655483e+18,124.55454848632812,-1.7706090998670458,9.63469476597011,-0.4114972399801574,1.6897266365655483e+18,124.55454848632812,0.9492777824401856,0.3002460539340973,0.9883633494377136,1.6897266365580344e+18,124.54703432617188,0.9390481591224672,0.3026749730110168,1.0209110736846925,,,,,,,,,,,,,1.6897266365655483e+18,124.55454848632812,-21.01849365234375,46.87059860229492,-29.670229339599608,1.689726636561383e+18,124.55038251953128,8.848324584960938,58.74501342773438,49.889706420898435,1.6897266365655483e+18,124.55454848632812,2.065442212491477,0.2481087131730299,-0.6948434456555725,-0.2334275581895896,-0.3277665893847811,0.5900024734074993,-1.3835380591049014
4.6,1.689726636615652e+18,124.60465224609376,3.4605266479763386,0.9630538230812548,-5.26369741649121,1.6897266366131482e+18,124.60214838867186,0.146337890625,1.075274658203125,-0.5643402099609375,1.689726636615652e+18,124.60465224609376,-2.174989672589153,9.56170645283997,0.0072575868091568,1.689726636615652e+18,124.60465224609376,0.5603863358497619,0.2016565889120101,0.5465948015451432,1.689726636608138e+18,124.59713803710936,0.6550639033317566,0.2217540204524994,0.6720793664455413,,,,,,,,,,,,,1.689726636615652e+18,124.60465224609376,-23.231884765625,46.98056182861328,-27.4755485534668,1.6897266366133916e+18,124.60239150390626,6.709591674804687,58.83323669433594,52.05301818847656,1.689726636615652e+18,124.60465224609376,2.292303712423016,0.2577762782580414,-0.7119696352426512,0.0019303012670864,-0.3224603475426336,0.5680093464537347,-1.346970940682859
4.65,1.6897266366657562e+18,124.65475615234377,1.861355392588526,0.389918653614521,-6.610835254136323,1.6897266366632522e+18,124.65225209960938,-0.0638397216796875,1.00765380859375,-0.6466522216796875,1.6897266366657562e+18,124.65475615234377,-2.2619353455317017,9.541080078205464,0.1473586058841738,1.6897266366657562e+18,124.65475615234377,0.0861047964543103,-0.3528114065527916,-0.0027566762641072,1.6897266366582415e+18,124.64724150390626,0.1394638874451629,-0.2135998368263244,-0.0015681762248277,,,,,,,,,,,,,1.6897266366657562e+18,124.65475615234377,-23.7653938293457,46.96571502685547,-26.617411041259764,1.6897266366601994e+18,124.64919946289062,6.296642303466797,58.81831741333008,52.82441329956055,1.6897266366657562e+18,124.65475615234377,2.358938839658689,0.2599473044360407,-0.7171917262307347,0.0650587354787125,-0.3177330321542663,0.5631116149500068,-1.3375425039463036
4.7,1.6897266367158597e+18,124.70485966796876,0.4873626319567858,0.2899440169769525,-3.7906484784671663,1.6897266367133558e+18,124.70235571289064,-0.17647705078125,1.0093231201171875,-0.370843505859375,1.6897266367158597e+18,124.70485966796876,-2.261825630773008,9.54175590241432,-0.0067347182791004,1.6897266367158597e+18,124.70485966796876,-0.4875562816858291,-0.852761960029602,-0.1168794890865683,1.689726636708345e+18,124.69734526367188,-0.3770967304706573,-0.8141454339027405,-0.0528136804699897,,,,,,,,,,,,,1.6897266367158597e+18,124.70485966796876,-23.10625648498535,46.61704330444336,-27.227538299560543,1.6897266367070067e+18,124.69600668945311,7.0595703125,58.409722900390626,52.05259704589844,1.6897266367158597e+18,124.70485966796876,2.328615279481871,0.2440432732586712,-0.7209146894407192,-0.0032928149634419,-0.309190829686757,0.5701432899883895,-1.33784775699406
4.75,1.689726636760953e+18,124.74995300292969,1.6499477294033391,3.141240801180899,-0.2395355634230654,1.6897266367634596e+18,124.75245952148435,0.034088134765625,1.363922119140625,-0.049462890625,1.689726636760953e+18,124.74995300292969,-2.1087366955960167,9.568116992082446,-0.3986686750484397,1.689726636760953e+18,124.74995300292969,-0.764638751745224,-0.9174034744501114,-0.6206212416291237,1.6897266367584494e+18,124.74744931640625,-0.7643352150917053,-0.9133427023887636,-0.5961926102638244,,,,,,,,,,,,,1.689726636760953e+18,124.74995300292969,-21.301204681396484,45.72337341308594,-29.097084999084473,1.6897266367590129e+18,124.74801298828125,9.28125,57.413003540039064,49.847406005859376,1.689726636760953e+18,124.74995300292969,2.1867178240453846,0.2208525454809738,-0.717301621946518,-0.1880653330274314,-0.3049405769355279,0.5862172660408917,-1.3498438150811207
4.8,1.689726636806047e+18,124.795046875,6.102935533263683,4.351902948265076,0.4603899278093874,1.689726636813564e+18,124.80256381835936,0.5020477294921875,1.360601806640625,-0.0264068603515625,1.689726636806047e+18,124.795046875,-1.5419214279462397,9.650136431443096,-0.7593957730291038,1.689726636806047e+18,124.795046875,-0.620741891860962,-0.6955107867717742,-1.9677563905715945,1.6897266368085532e+18,124.79755327148436,-0.6276556253433228,-0.6456642776727677,-2.046610689163208,,,,,,,,,,,,,1.689726636806047e+18,124.795046875,-18.02778263092041,45.49850311279297,-31.12094955444336,1.6897266368110213e+18,124.80002138671875,13.515151977539062,57.44924621582031,47.739324951171874,1.689726636806047e+18,124.795046875,1.9424787427746024,0.204495846450675,-0.7008044180902847,-0.4731288264275345,-0.2956330337038618,0.6159554019540733,-1.3931420094836515
4.85,1.6897266368561505e+18,124.84515068359374,1.5906601198303698,1.6262412532037491,1.0285400607921182,1.6897266368636677e+18,124.85266728515626,-0.04793701171875,1.117205810546875,0.04178466796875,1.6897266368561505e+18,124.84515068359374,-0.3100316345891286,9.7211373701483,-1.184312718627751,1.6897266368561505e+18,124.84515068359374,-1.15873703956604,0.7386392071843147,-2.823880815505982,1.6897266368586573e+18,124.84765708007812,-1.189868938922882,0.8343555152416229,-2.821981954574585,,,,,,,,,,,,,1.6897266368561505e+18,124.84515068359374,-12.458617973327636,45.501251220703125,-32.88989410400391,1.6897266368630287e+18,124.85202890625,18.976290893554687,57.0952392578125,45.99649658203125,1.6897266368561505e+18,124.84515068359374,1.1137463158230492,0.2067570687875685,-0.6547918327485485,-1.3014816380744476,-0.2945359989529437,0.6642650627156885,-1.4389303154597102
4.9,1.6897266369062543e+18,124.89525434570312,-3.7618631719398494,2.419212182772159,4.922846043741107,1.689726636913771e+18,124.90277104492188,-0.2557586669921875,1.2329437255859377,0.268365478515625,1.6897266369062543e+18,124.89525434570312,0.8185215796364844,9.59605938881874,-1.8237017199508845,1.6897266369062543e+18,124.89525434570312,-1.1156748056411745,1.5488914370536804,-2.095336937904358,1.6897266369087606e+18,124.8977607421875,-1.086212158203125,1.5021548390388488,-2.0467719078063964,,,,,,,,,,,,,1.6897266369062543e+18,124.89525434570312,-8.948953628540039,44.18643493652344,-34.74375915527344,1.689726636915039e+18,124.90403916015626,21.645379638671876,55.63821716308594,44.195413208007814,1.6897266369062543e+18,124.89525434570312,0.358470335890432,0.224787522743699,-0.5945632244839265,-1.982710938727876,-0.3231731531738313,0.7008005180612658,-1.364826558988096
4.95,1.689726636956358e+18,124.94535805664064,-1.78860062517941,1.0500161841237543,0.9172743901680408,1.6897266369638748e+18,124.95287490234377,0.028564453125,1.0381622314453125,-0.195416259765625,1.689726636956358e+18,124.94535805664064,1.5721646489708123,9.394748062636255,-2.319408548013419,1.689726636956358e+18,124.94535805664064,-0.8778711676597595,0.5643176555633544,-1.5695796728134157,1.689726636958864e+18,124.94786425781248,-0.8803246736526489,0.5711917042732239,-1.5537121295928955,,,,,,,,,,,,,1.689726636956358e+18,124.94535805664064,-7.1346183776855465,42.9999267578125,-36.189859771728514,1.689726636961849e+18,124.9508493041992,23.33443832397461,54.557373046875,42.87123107910156,1.689726636956358e+18,124.94535805664064,0.1258737635735666,0.2357198493554274,-0.5500626849775487,-2.164092500414646,-0.3422545242488352,0.7242598719314579,-1.280808168172768
5.0,1.6897266370064617e+18,124.99546176757812,-1.885908614504039,0.6113639531916379,1.2834904765731094,1.6897266370139784e+18,125.00297827148438,-0.0029571533203125,0.9547210693359376,-0.1124786376953125,1.6897266370064617e+18,124.99546176757812,2.1267951121321316,9.146624014970062,-2.8184729574885963,1.6897266370064617e+18,124.99546176757812,-0.9798988103866576,0.7922317624092102,-1.1290651321411134,1.6897266370089682e+18,124.99796821289064,-0.9771296262741088,0.8133064866065979,-1.0962769865989686,,,,,,,,,,,,,1.6897266370064617e+18,124.99546176757812,-5.863861846923828,41.67536163330078,-37.482688903808594,1.689726637008658e+18,124.99765795898438,24.43394470214844,53.016458129882814,41.44081420898438,1.6897266370064617e+18,124.99546176757812,0.0381190000230318,0.2381193208212847,-0.5131448318588573,-2.217215372703668,-0.3579360063457876,0.7427786515064873,-1.2023890292571675
5.05,1.6897266370565652e+18,125.04556528320312,-2.971239916089177,-1.8860004428929087,2.7189712575119733,1.689726637064082e+18,125.05308208007813,-0.0640838623046875,0.64796142578125,-0.0995880126953125,1.6897266370565652e+18,125.04556528320312,2.3801712935598194,8.933064266397952,-3.270206320694387,1.6897266370565652e+18,125.04556528320312,-0.6197651922702789,0.2109433352947235,-0.4361611634492874,1.689726637059072e+18,125.04807197265625,-0.5950827538967133,0.1491815529763698,-0.4051437139511108,,,,,,,,,,,,,1.6897266370565652e+18,125.04556528320312,-5.546741104125976,40.08263320922852,-38.84598159790039,1.6897266370606674e+18,125.04966728515626,24.630984497070312,51.6,40.29098815917969,1.6897266370565652e+18,125.04556528320312,0.0239162041027669,0.2368528343111324,-0.4875615438195216,-2.2000467413754423,-0.3753717541324619,0.7518305475966075,-1.1456331375348596
5.1,1.689726637106669e+18,125.09566909179688,-2.5404855695739386,-3.0691799489331246,1.57875194763273,1.689726637114186e+18,125.1031859375,0.03233642578125,0.5984039306640625,-0.192572021484375,1.689726637106669e+18,125.09566909179688,2.512234691410362,8.844713315154314,-3.4101965075692533,1.689726637106669e+18,125.09566909179688,-0.2060666695237159,-0.6961448669433594,0.0800622302107512,1.6897266371091756e+18,125.09817563476562,-0.1886009112000465,-0.7150325894355773,0.1081985341385006,,,,,,,,,,,,,1.689726637106669e+18,125.09566909179688,-4.651980590820313,39.15973434448242,-39.532615661621094,1.6897266371126764e+18,125.10167646484376,25.731607055664064,50.84724731445313,39.75192565917969,1.689726637106669e+18,125.09566909179688,0.0365046991990154,0.2265623967382103,-0.4825370319874131,-2.2057056023410584,-0.3729066252465248,0.7594340827235839,-1.1241744451682265
5.15,1.6897266371567729e+18,125.14577294921874,-1.9313460144335033,-2.968733018608689,1.8863437910509109,1.6897266371642895e+18,125.1532896484375,0.0493682861328125,0.5971649169921875,-0.14222412109375,1.6897266371567729e+18,125.14577294921874,2.509216512632966,8.882322038058637,-3.3126594441160555,1.6897266371567729e+18,125.14577294921874,0.076593643426895,-1.2199203014373778,0.7031632006168366,1.689726637159279e+18,125.14827915039064,0.0871278721839189,-1.2282235145568847,0.738317745923996,,,,,,,,,,,,,1.6897266371567729e+18,125.14577294921874,-3.5804752349853515,38.85176162719726,-39.69753799438477,1.6897266371646907e+18,125.15369072265624,26.813442993164063,50.700439453125,39.74388427734375,1.6897266371567729e+18,125.14577294921874,0.0758899055899612,0.210062478778584,-0.4945308153621431,-2.2190827617457822,-0.356978636467994,0.7640514402748605,-1.1331869799783356
5.2,1.6897266372068767e+18,125.19587666015624,-0.6328332668432594,-2.2441423823052644,-0.2218699547299742,1.689726637214393e+18,125.20339331054689,0.29576416015625,0.781072998046875,-0.4225067138671875,1.6897266372068767e+18,125.19587666015624,2.268761275255084,9.007073856173752,-3.1440184492006895,1.6897266372068767e+18,125.19587666015624,-0.0519165381789207,-0.8096405863761902,1.0258413672447204,1.689726637209383e+18,125.19838291015624,-0.0776732236146926,-0.7735593974590301,1.0215723156929015,,,,,,,,,,,,,1.6897266372068767e+18,125.19587666015624,-3.1441471099853517,38.797760772705075,-39.60167541503906,1.689726637211503e+18,125.20050299072268,26.825172424316406,50.572998046875,39.76397705078125,1.6897266372068767e+18,125.19587666015624,0.1639489839172618,0.1888154840354276,-0.5189333885795631,-2.1955631396265813,-0.3390904788063209,0.7615691699127267,-1.1642596039428277
5.25,1.68972663725698e+18,125.24598002929687,7.134983923663794,1.6377961988234515,-2.915321454155743,1.6897266372644972e+18,125.25349697265624,1.01300048828125,1.14132080078125,-0.6371063232421875,1.68972663725698e+18,125.24598002929687,1.9944063401716945,9.058330229967236,-3.1839370857086777,1.68972663725698e+18,125.24598002929687,-0.4067472696304321,-1.1229544043540955,0.669804859161377,1.6897266372594867e+18,125.24848671875,-0.4014711081981659,-1.1333881616592407,0.6457926869392395,,,,,,,,,,,,,1.68972663725698e+18,125.24598002929687,-3.584701156616211,38.29478073120117,-40.08609619140625,1.6897266372583132e+18,125.2473130859375,26.7150634765625,49.873941040039064,39.08099365234375,1.68972663725698e+18,125.24598002929687,0.2804356451036259,0.1646657823344728,-0.5373986294473139,-2.1303948814576743,-0.3308847232274125,0.7579579372752253,-1.1776097086150965
5.3,1.689726637307084e+18,125.296083984375,5.994943302126229,1.785167377408147,-1.727550937837362,1.6897266373146004e+18,125.30360063476562,0.89560546875,1.2433013916015625,-0.555462646484375,1.689726637307084e+18,125.296083984375,1.9487184726125,9.031208180477025,-3.2870446427705886,1.689726637307084e+18,125.296083984375,-0.5573284089565277,-0.3154483057558536,-0.0512652575969696,1.6897266373095905e+18,125.29859033203124,-0.5960002303123474,-0.2525724817067384,-0.1324382156133652,,,,,,,,,,,,,1.689726637307084e+18,125.296083984375,-2.861099624633789,37.324903106689455,-40.80021209716797,1.6897266373103242e+18,125.29932407226563,27.348809814453126,48.82225036621094,38.333432006835935,1.689726637307084e+18,125.296083984375,0.3523584855718384,0.1422313403941161,-0.5448930163702572,-2.106021190274089,-0.3220722616416038,0.7609929715915525,-1.170506611818884
5.35,1.6897266373571876e+18,125.34618774414062,0.7207725977721804,9.578626257267594,-0.2706571327048541,1.6897266373647045e+18,125.353704296875,-0.2604736328125,1.61195068359375,-0.05831298828125,1.6897266373571876e+18,125.34618774414062,2.2217013302381337,8.81396009878099,-3.6754960879898073,1.6897266373571876e+18,125.34618774414062,-0.9050132155418396,0.1048640578985214,-0.9876955032348632,1.6897266373596943e+18,125.348694140625,-0.8595772981643677,0.1234595715999603,-0.944062739610672,,,,,,,,,,,,,1.6897266373571876e+18,125.34618774414062,-2.3632049560546875,35.49720458984375,-42.06563186645508,1.689726637362335e+18,125.35133486328124,27.95042724609375,46.76243591308594,36.93599853515625,1.6897266373571876e+18,125.34618774414062,0.3398459590598608,0.1319129490637068,-0.5253996232669185,-2.1141123118420855,-0.3325688776790289,0.7719106102716552,-1.117348742676845
5.4,1.6897266374072911e+18,125.39629125976562,-9.451287462173104,-5.110257322482466,10.305251848077774,1.689726637414808e+18,125.40380810546876,-0.6697235107421875,0.3487884521484375,0.6031951904296875,1.6897266374072911e+18,125.39629125976562,2.407905658955574,8.727807183651327,-3.7662679535439607,1.6897266374072911e+18,125.39629125976562,0.901226163096726,0.7446468949317933,-0.0792276876047253,1.6897266374097976e+18,125.39879770507812,0.9900149524211884,0.7391623198986054,-0.0666831571608781,,,,,,,,,,,,,1.6897266374072911e+18,125.39629125976562,-1.933363342285156,34.74988632202148,-42.55636978149414,1.689726637414348e+18,125.40334794921876,27.883306884765624,47.095925903320314,37.21883544921875,1.6897266374072911e+18,125.39629125976562,0.2905468414938414,0.1394865539978211,-0.5120175830815128,-2.139739176007024,-0.3392118284595797,0.7766810145048042,-1.0974456814790858
5.45,1.6897266374573952e+18,125.44639516601562,-7.250852762621342,1.9787395168668032,1.829666152087152,1.689726637464912e+18,125.45391181640623,-0.22198486328125,1.39686279296875,-0.53900146484375,1.6897266374573952e+18,125.44639516601562,2.3585414409711953,8.972070113523007,-3.1720648616072533,1.6897266374573952e+18,125.44639516601562,1.3771253108978272,-0.4113614857196808,0.2404073685407638,1.6897266374599014e+18,125.4489013671875,1.321132242679596,-0.4388537928462028,0.2553234895691275,,,,,,,,,,,,,1.6897266374573952e+18,125.44639516601562,-2.35656623840332,37.35666046142578,-40.44740753173828,1.6897266374611607e+18,125.45016064453124,27.78327178955078,49.74009704589844,39.366695404052734,1.6897266374573952e+18,125.44639516601562,0.1989533342608667,0.169301972904348,-0.5231912046553322,-2.2113521410230987,-0.3254666697380584,0.7691238938739772,-1.1556682337000617
5.5,1.6897266375074988e+18,125.49649868164065,-1.4081626535807548,3.675336630418301,-4.775629237387478,1.6897266375150154e+18,125.50401533203126,-0.022894287109375,1.1186553955078125,-0.4792449951171875,1.6897266375074988e+18,125.49649868164065,2.291652701438218,9.11014879691422,-2.814558531297743,1.6897266375074988e+18,125.49649868164065,0.0218091174960136,-0.4806027472019195,0.431971887499094,1.6897266375100052e+18,125.49900512695312,-0.0010708019137382,-0.4660602748394012,0.4698208109475672,,,,,,,,,,,,,1.6897266375074988e+18,125.49649868164065,-1.97369384765625,38.83443832397461,-39.26194229125976,1.6897266375079757e+18,125.496975390625,28.095993041992188,50.724432373046874,40.089456176757814,1.6897266375074988e+18,125.49649868164065,0.1817567763856789,0.1721143295607373,-0.5369933719573061,-2.2540922252643725,-0.3078670585050881,0.7662953845509147,-1.1916552870507775
5.55,1.6897266375576023e+18,125.54660234375,-2.4309187533700465,-0.1058771386796236,3.7001730824154615,1.689726637565119e+18,125.55411909179688,0.0236297607421875,0.9162017822265623,0.1440032958984375,1.6897266375576023e+18,125.54660234375,1.9924506468331813,9.195134772543309,-2.763321914344131,1.6897266375576023e+18,125.54660234375,0.2404374305158853,-0.2260121822357177,0.8768482327461242,1.6897266375601088e+18,125.54910888671876,0.2726173628121614,-0.2030135665088892,0.872004759311676,,,,,,,,,,,,,1.6897266375576023e+18,125.54660234375,-2.2362590789794923,38.87370834350586,-39.3770149230957,1.689726637559991e+18,125.548991015625,27.533187866210938,50.81676330566406,40.08548583984375,1.6897266375576023e+18,125.54660234375,0.2639152696717348,0.1620494632989709,-0.5531850275452593,-2.1949928023945775,-0.3039184091760897,0.7584942638466246,-1.2159267523193875
5.6,1.689726637607706e+18,125.59670615234374,-0.18552990736112,0.1532470264285802,2.245645889509916,1.6897266376152228e+18,125.60422285156253,0.1351226806640625,0.969036865234375,-0.1352874755859375,1.689726637607706e+18,125.59670615234374,1.6460822934533657,9.3207880403167,-2.5635359564849733,1.689726637607706e+18,125.59670615234374,0.5104160726070404,0.4845309108495712,0.5355380892753601,1.6897266376102126e+18,125.5992125488281,0.5061450600624084,0.5315881878137588,0.5143658638000488,,,,,,,,,,,,,1.689726637607706e+18,125.59670615234374,-3.7263057708740233,39.583685302734374,-38.69095916748047,1.6897266376120049e+18,125.601005078125,25.88853454589844,51.63807373046875,40.979150390625,1.689726637607706e+18,125.59670615234374,0.3176996213826059,0.1656858753224777,-0.570040050532641,-2.141168149437997,-0.3018518607552559,0.7459539740411711,-1.2548605475217751
5.65,1.68972663765781e+18,125.64680986328126,-1.3732540710936487,-0.4821588966077565,-0.060646250333786,1.6897266376653266e+18,125.65432651367186,-0.0336822509765625,0.9105438232421876,-0.2323455810546875,1.68972663765781e+18,125.64680986328126,1.3918088709250092,9.401995900259614,-2.414808570211828,1.68972663765781e+18,125.64680986328126,0.3826117277145385,0.7733064651489258,0.2239208817481994,1.6897266376603162e+18,125.64931606445312,0.3854704558849334,0.770129656791687,0.2217639833688735,,,,,,,,,,,,,1.68972663765781e+18,125.64680986328126,-5.526083374023438,40.27104568481445,-37.707464599609374,1.6897266376640192e+18,125.653019140625,24.008517456054687,52.332666015625,41.90881958007813,1.68972663765781e+18,125.64680986328126,0.3300375031539915,0.1813365115046151,-0.5767585735173077,-2.093440097193901,-0.3104496599775294,0.7335188317559725,-1.282587300755368
5.7,1.6897266377079132e+18,125.69691328125,-1.1849357605099675,0.1967154643726349,0.1995174285030365,1.68972663771543e+18,125.704430078125,0.054461669921875,1.0048828125,-0.2371551513671875,1.6897266377079132e+18,125.69691328125,1.187449759931415,9.4679583771801,-2.2608351876570283,1.6897266377079132e+18,125.69691328125,0.4881549417972565,0.9911876320838928,0.2144359931349753,1.68972663771042e+18,125.69941987304688,0.4909255683422088,1.022338569164276,0.2054395988583564,,,,,,,,,,,,,1.6897266377079132e+18,125.69691328125,-7.459980773925781,41.037086486816406,-36.773623657226565,1.6897266377108283e+18,125.69982855224607,22.244930267333984,52.99282455444336,42.85792922973633,1.6897266377079132e+18,125.69691328125,0.3295355776637433,0.1989212996719702,-0.5806789298990715,-2.054063076569285,-0.3197763131549863,0.7217488496263335,-1.3073252078741977
5.75,1.689726637758017e+18,125.7470172363281,-0.1987879451847076,0.3229013484919071,-1.180104862448275,1.6897266377655342e+18,125.75453403320314,0.04798583984375,0.99654541015625,-0.3522064208984375,1.689726637758017e+18,125.7470172363281,1.0112006280998886,9.525856790110469,-2.098245484830737,1.689726637758017e+18,125.7470172363281,0.4354638755321502,1.1916363954544067,-0.0066741097718477,1.6897266377605238e+18,125.74952387695312,0.4329890310764313,1.1925834655761718,-0.0175925763323903,,,,,,,,,,,,,1.689726637758017e+18,125.7470172363281,-9.814677429199218,41.867906188964845,-35.49426422119141,1.68972663775764e+18,125.74663974609376,20.081997680664063,53.774407958984376,43.9970947265625,1.689726637758017e+18,125.7470172363281,0.3065557205432348,0.2229045164666242,-0.5805667434292459,-2.0197407871018456,-0.333717968972384,0.7083844168291112,-1.330984035635709
5.8,1.689726637808121e+18,125.79712133789062,-1.434480737050846,0.0319924027794599,-1.3439506735894082,1.689726637815638e+18,125.80463798828126,-0.0654541015625,0.9754608154296877,-0.305670166015625,1.689726637808121e+18,125.79712133789062,0.9613866935866324,9.556636076160071,-1.9789318830206988,1.689726637808121e+18,125.79712133789062,0.2758117318153381,0.9799415230751036,-0.2619884550571442,1.6897266378106276e+18,125.7996275390625,0.2685410737991333,0.9727232575416564,-0.2757324039936065,,,,,,,,,,,,,1.689726637808121e+18,125.79712133789062,-11.28786392211914,42.390716552734375,-34.498619079589844,1.689726637809648e+18,125.79864824218753,18.41587829589844,54.38252868652344,45.18740234375,1.689726637808121e+18,125.79712133789062,0.2477873064436541,0.2459047925441921,-0.5751270199004151,-2.0230852190455493,-0.3466943228691044,0.698935546941803,-1.344515805871717
5.85,1.689726637858225e+18,125.84722504882814,-3.0377927308921513,0.1411629715943336,0.4754273379434645,1.6897266378657418e+18,125.854741796875,-0.251123046875,0.9853546142578123,-0.0941925048828125,1.689726637858225e+18,125.84722504882814,1.046594977503419,9.55801741828978,-1.928378426025659,1.689726637858225e+18,125.84722504882814,0.1467751413583755,1.1214489221572876,-0.4068201959133148,1.6897266378607314e+18,125.84973125000002,0.1456693738698959,1.1740456700325013,-0.4031732320785522,,,,,,,,,,,,,1.689726637858225e+18,125.84722504882814,-12.25219268798828,42.83994750976562,-33.51138076782227,1.689726637861658e+18,125.85065834960938,17.638827514648437,54.79853210449219,46.12284240722656,1.689726637858225e+18,125.84722504882814,0.1547924832912939,0.2656678342699599,-0.5646879430187306,-2.06799780814845,-0.3574037539139166,0.6947990796580199,-1.3451380889394582
5.9,1.6897266379083287e+18,125.89732856445312,-3.107793932583332,-0.0236794493687152,1.713921933196485,1.6897266379158454e+18,125.90484555664064,-0.1683074951171875,0.99005126953125,-0.044793701171875,1.6897266379083287e+18,125.89732856445312,1.0945098442362249,9.561310497711895,-1.8845685980719329,1.6897266379083287e+18,125.89732856445312,0.4554480254650116,1.2428059816360473,-0.3423158347606659,1.689726637910835e+18,125.89983496093753,0.4845788300037384,1.193951678276062,-0.3372014641761779,,,,,,,,,,,,,1.6897266379083287e+18,125.89732856445312,-13.362246704101562,43.367044067382814,-32.45115585327149,1.689726637913672e+18,125.90267182617188,16.443780517578126,55.46876220703125,47.40256958007812,1.6897266379083287e+18,125.89732856445312,0.0559162129742531,0.291956950586266,-0.5511794945708365,-2.097183567685233,-0.3746669759462633,0.6859274261986462,-1.346666639819801
5.95,1.6897266379584325e+18,125.94743232421874,-2.1453098722140487,0.6565334667390584,-0.6457941337381303,1.689726637965949e+18,125.95494897460938,-0.0977325439453125,1.0378265380859375,-0.2684417724609375,1.6897266379584325e+18,125.94743232421874,1.1673378522381186,9.599478374255895,-1.6280688193440436,1.6897266379584325e+18,125.94743232421874,0.647203242778778,0.663106107711792,-0.2771682411432266,1.6897266379609388e+18,125.94993876953126,0.6329614877700805,0.6926505446434021,-0.2698434621095656,,,,,,,,,,,,,1.6897266379584325e+18,125.94743232421874,-13.626072311401368,44.46399841308594,-30.5240837097168,1.689726637960486e+18,125.94948608398435,16.46416473388672,56.53043746948242,49.20514678955078,1.6897266379584325e+18,125.94743232421874,-0.0827571305435399,0.3161334765644201,-0.546127888635443,-2.1936864844716206,-0.3771280919001595,0.677891330917423,-1.3649495165491574
6.0,1.689726638008536e+18,125.99753608398436,-2.0900386805951596,-0.4007001598697901,0.3159703217327595,1.6897266380110423e+18,126.0000424194336,-0.0837898254394531,0.9197959899902344,-0.0539703369140625,1.689726638008536e+18,125.99753608398436,1.1695875016349553,9.62759387714982,-1.4526175891180335,1.689726638008536e+18,125.99753608398436,0.3797248125076294,1.211793065071106,0.0122845765203237,1.6897266380110423e+18,126.00004243164062,0.3822292387485504,1.2280520677566529,0.0309414595365524,,,,,,,,,,,,,1.689726638008536e+18,125.99753608398436,-14.371295166015624,45.24355850219727,-28.780435180664064,1.689726638007299e+18,125.99629931640624,15.59263916015625,57.120391845703125,50.7365234375,1.689726638008536e+18,125.99753608398436,-0.1854393086488888,0.3379801197451548,-0.5406282413391795,-2.248640510287366,-0.3847966549906111,0.6673434186600181,-1.379456519881333
6.05,1.68972663805864e+18,126.04763969726564,0.3357743909728526,-0.3386621629166603,1.9446356748913227,1.6897266380561357e+18,126.04513569335936,0.163104248046875,0.9557952880859376,0.0571868896484375,1.68972663805864e+18,126.04763969726564,1.0615714073913545,9.660725746901033,-1.3078677866259216,1.68972663805864e+18,126.04763969726564,0.5122257769107819,1.146677792072296,-0.0949440993368625,1.689726638061146e+18,126.05014604492187,0.5151489496231079,1.127549993991852,-0.1276507467031479,,,,,,,,,,,,,1.68972663805864e+18,126.04763969726564,-15.910717964172363,45.749785614013675,-27.144608306884766,1.689726638059313e+18,126.04831298828124,14.030502319335938,57.70784301757813,52.551263427734376,1.68972663805864e+18,126.04763969726564,-0.2496462170809569,0.3604279752079584,-0.535566999788433,-2.2530475483491283,-0.3987861180199092,0.6512687831395011,-1.3981443115073522
6.1,1.6897266381087432e+18,126.09774331054687,2.775272581283152,0.6298378844195603,-1.3412267139051854,1.6897266381062392e+18,126.09523920898437,0.4086090087890625,1.0519378662109375,-0.26561279296875,1.6897266381087432e+18,126.09774331054687,1.2228049463683366,9.661817984504102,-1.1467677962876857,1.6897266381087432e+18,126.09774331054687,0.2750475153326988,0.7657799482345581,-0.7484355568885803,1.6897266381112497e+18,126.10024970703124,0.25500800460577,0.7885464429855347,-0.766944694519043,,,,,,,,,,,,,1.6897266381087432e+18,126.09774331054687,-16.106168937683105,46.37670669555664,-25.76426239013672,1.6897266381113275e+18,126.10032788085935,14.23388671875,58.44940185546875,53.99015502929687,1.6897266381087432e+18,126.09774331054687,-0.4270103665768749,0.3826611630583986,-0.5251881092421469,-2.386846262439377,-0.4022581177885268,0.6448891376082688,-1.398798577193102
6.15,1.689726638158847e+18,126.14784702148438,1.5269412717312574,0.7521673269194364,-1.1686353447027504,1.689726638156343e+18,126.1453431640625,0.30823974609375,1.0537506103515626,-0.232232666015625,1.689726638158847e+18,126.14784702148438,1.5801635972224175,9.604280338484047,-1.190880391967222,1.689726638158847e+18,126.14784702148438,-0.0800127847120165,1.5344133377075195,-0.930696213245392,1.6897266381613537e+18,126.15035341796874,-0.0871132764965295,1.5837331056594848,-0.929258120059967,,,,,,,,,,,,,1.689726638158847e+18,126.14784702148438,-15.27456283569336,47.10348052978516,-24.486766815185547,1.6897266381633418e+18,126.15234165039062,15.001898193359375,59.035745239257814,55.201318359375,1.689726638158847e+18,126.14784702148438,-0.5901691952666729,0.4058200735976995,-0.5015010927851189,-2.4950921967943933,-0.4096739765704281,0.6448401405942201,-1.3676042037531224
6.2,1.6897266382089508e+18,126.19795063476565,-0.3673003160582483,-0.321200506697297,0.2310398464570939,1.6897266382064468e+18,126.1954466796875,0.147308349609375,0.9297210693359376,-0.11812744140625,1.6897266382089508e+18,126.19795063476565,1.8684648738805951,9.523164599190949,-1.4071015417683124,1.6897266382089508e+18,126.19795063476565,-0.0959727942943572,2.0343467473983763,-0.7269521951675415,1.6897266382114573e+18,126.20045727539062,-0.0898985153064131,2.0260839462280273,-0.7045168399810791,,,,,,,,,,,,,1.6897266382089508e+18,126.19795063476565,-14.915201950073245,47.32452163696289,-23.47885665893555,1.689726638210155e+18,126.1991551513672,15.06649398803711,59.2169303894043,56.08294296264648,1.6897266382089508e+18,126.19795063476565,-0.6835427984125195,0.4343955629185453,-0.4676980158909087,-2.496458839091022,-0.4310969612659648,0.6375620018718212,-1.3299390879024051
6.25,1.6897266382590546e+18,126.24805449218748,-1.6050462849010525,-1.1670568725657462,0.6272289586432278,1.6897266382565504e+18,126.24555048828124,0.0310150146484375,0.8493988037109375,-0.09580078125,1.6897266382590546e+18,126.24805449218748,1.9636079110302027,9.475715099560617,-1.5887401407793162,1.6897266382590546e+18,126.24805449218748,0.0198256606236099,1.3999539375305177,-0.1958562104031443,1.6897266382615608e+18,126.25056069335938,0.0246210838944534,1.3895103931427002,-0.1682051494717598,,,,,,,,,,,,,1.6897266382590546e+18,126.24805449218748,-15.68108615875244,47.58433456420899,-22.37129592895508,1.6897266382569692e+18,126.24596909179688,14.326687622070311,59.43265380859375,57.10014038085937,1.6897266382590546e+18,126.24805449218748,-0.7325952475247292,0.4574713866062405,-0.4415094922434136,-2.4614162466383105,-0.4526605186362321,0.6251407557371581,-1.3102758590668728
6.3,1.689726638309158e+18,126.29815805664062,-2.5332004686801133,-0.8398509879738093,1.251987114032656,1.6897266383066542e+18,126.29565419921876,-0.0820556640625,0.8812652587890625,-0.04442138671875,1.689726638309158e+18,126.29815805664062,1.810899579975158,9.489891041333674,-1.6806390522150694,1.689726638309158e+18,126.29815805664062,0.1344827786087989,1.1291483163833618,0.4637202039361,1.6897266383116644e+18,126.30066440429688,0.1463978499174117,1.116381728649139,0.5087221443653107,,,,,,,,,,,,,1.689726638309158e+18,126.29815805664062,-17.051051712036134,47.70658187866211,-21.59244766235351,1.689726638308987e+18,126.29798681640624,12.86412353515625,59.5420166015625,57.85917053222656,1.689726638309158e+18,126.29815805664062,-0.7227919045597392,0.4696061756544559,-0.4301096933531217,-2.392823436811724,-0.4718485123020536,0.6097272667550827,-1.3160138218320223
6.35,1.6897266383592617e+18,126.34826166992188,-3.5305136165595052,-0.9569219546496868,-0.1060104681226611,1.6897266383567578e+18,126.34575771484374,-0.231689453125,0.880059814453125,-0.190618896484375,1.6897266383592617e+18,126.34826166992188,1.3019609298957884,9.573952770950791,-1.6662674125133452,1.6897266383592617e+18,126.34826166992188,0.1926936835050582,0.9146041631698608,1.251817774772644,1.6897266383617684e+18,126.35076826171876,0.1865659922361373,0.9119776248931885,1.2772424221038818,,,,,,,,,,,,,1.6897266383592617e+18,126.34826166992188,-19.33459587097168,47.11941909790039,-20.660855865478517,1.6897266383610025e+18,126.35000239257812,9.740274047851562,58.71028442382813,59.05696411132813,1.6897266383592617e+18,126.34826166992188,-0.6022342962194815,0.4711539243559481,-0.4351004302199578,-2.2299237386040383,-0.4942112097285694,0.5868035137521922,-1.352905410022868
6.4,1.6897266384093655e+18,126.39836552734376,-2.4028228904116156,-1.2707461458122729,-0.4951970665225385,1.6897266384068613e+18,126.39586142578123,-0.18294677734375,0.8462005615234375,-0.215179443359375,1.6897266384093655e+18,126.39836552734376,0.5665896750797145,9.650930212169287,-1.6323201931782063,1.6897266384093655e+18,126.39836552734376,0.1398293837904929,0.1771959200501442,1.4987650871276856,1.6897266384118715e+18,126.40087192382812,0.1438010036945342,0.1083185315132141,1.5066696166992188,,,,,,,,,,,,,1.6897266384093655e+18,126.39836552734376,-22.898201751708985,46.03804244995117,-19.711768341064452,1.6897266384130176e+18,126.40201767578124,6.256201171875,57.49544982910156,59.7308349609375,1.6897266384093655e+18,126.39836552734376,-0.2940828015264644,0.4610851520690134,-0.4507423109551511,-1.8994513741356864,-0.5175709388104333,0.5623468729326067,-1.3925686648525135
6.45,1.6897266384594693e+18,126.44846918945314,-2.0396390989875792,-4.666001163289547,0.2626939571928977,1.6897266384569654e+18,126.44596533203124,-0.2366119384765625,0.4833709716796875,-0.119915771484375,1.6897266384594693e+18,126.44846918945314,-0.1791570999199384,9.675598672575353,-1.5716038294437529,1.6897266384594693e+18,126.44846918945314,0.0633358530700206,-0.5753641784191131,1.7624503374099731,1.6897266384619753e+18,126.45097543945312,0.0524437129497527,-0.5074238896369934,1.782693338394165,,,,,,,,,,,,,1.6897266384594693e+18,126.44846918945314,-25.810171127319336,44.56103591918945,-20.103685760498045,1.6897266384650312e+18,126.45403110351565,3.4488616943359376,55.85122985839844,59.11557312011719,1.6897266384594693e+18,126.44846918945314,0.1805627529746205,0.4349901127813142,-0.4810949853114596,-1.4588627492444508,-0.5268623069129174,0.5491410580911233,-1.4071497973225902
6.5,1.6897266385095729e+18,126.49857290039064,28.05222078596853,14.658736629480718,-2.636801829834431,1.689726638507069e+18,126.49606889648436,2.9767059326171874,2.70244140625,-0.4412841796875,1.6897266385095729e+18,126.49857290039064,-0.9314830505538731,9.63247486873746,-1.576274539281577,1.6897266385095729e+18,126.49857290039064,-0.567029207199812,3.063521111011505,-0.5645426988601685,1.6897266385120794e+18,126.50107929687502,-0.6204574044793845,3.1482269763946533,-0.9367932319641114,,,,,,,,,,,,,1.6897266385095729e+18,126.49857290039064,-29.259953689575195,42.459407043457034,-19.331000518798827,1.6897266385118426e+18,126.50084252929688,0.2019119262695312,54.05533981323242,60.56849670410156,1.6897266385095729e+18,126.49857290039064,0.5630636499008375,0.4249431425515871,-0.4902533682469371,-1.0405581272327893,-0.5538189153512892,0.5211845710978693,-1.3822199379222042
6.55,1.6897266385596764e+18,126.54867651367188,-10.024711736166475,3.4692842471885683,5.5491451741883155,1.6897266385571722e+18,126.54617241210936,-1.275213623046875,1.1017120361328123,0.395513916015625,1.6897266385596764e+18,126.54867651367188,0.2932100284689991,9.60973018677473,-1.873985712354779,1.6897266385596764e+18,126.54867651367188,-0.43508962392807,4.726895141601562,-4.11451780796051,1.689726638562183e+18,126.55118291015624,-0.3285946201533079,4.414334404468536,-3.9140053510665895,,,,,,,,,,,,,1.6897266385596764e+18,126.54867651367188,-26.22346420288086,45.55374755859375,-14.824248504638671,1.689726638558653e+18,126.54765288085936,4.335336303710937,57.774664306640624,64.97728881835937,1.6897266385596764e+18,126.54867651367188,-0.3416898252632793,0.5112299601644653,-0.3847532809829402,-1.7076439633568463,-0.579261472697496,0.5025250293710226,-1.3706568235825602
6.6,1.6897266386097802e+18,126.59878017578126,-15.202713625906703,-3.868902457040548,-1.2164362296670674,1.6897266386072763e+18,126.59627641601564,-1.412628173828125,0.6854156494140625,-0.3264251708984375,1.6897266386097802e+18,126.59878017578126,0.7656177016708254,9.64266916430235,-1.579572148748338,1.6897266386097802e+18,126.59878017578126,0.8875470161437988,-5.374331521987915,2.639384624361992,1.6897266386122862e+18,126.601286328125,0.8728974223136902,-5.284804177284241,2.9002302646636964,,,,,,,,,,,,,1.6897266386097802e+18,126.59878017578126,-22.83857879638672,47.53795394897461,-13.506842041015624,1.6897266386106652e+18,126.59966533203126,6.71986083984375,58.88170776367187,65.10233764648437,1.6897266386097802e+18,126.59878017578126,-0.6047761879278398,0.5220272051158519,-0.3925972372488256,-2.007952151195531,-0.5524728087966613,0.5154700945899025,-1.3897699943252322
6.65,1.6897266386598843e+18,126.64888408203124,9.745135135525093,3.90757571121037,-4.264917849321067,1.68972663865738e+18,126.646380078125,1.01815185546875,1.3234588623046877,-0.5429412841796875,1.6897266386598843e+18,126.64888408203124,-0.6164631650670058,9.715790514614582,-1.1500778122315556,1.6897266386598843e+18,126.64888408203124,0.235623413324356,3.1800547301769257,1.2158228993415832,1.6897266386623903e+18,126.65139033203124,0.1941229209303855,3.287482976913452,0.9420244514942168,,,,,,,,,,,,,1.6897266386598843e+18,126.64888408203124,-27.96200485229492,44.513484191894534,-14.457015991210938,1.6897266386626798e+18,126.65167978515623,0.597393798828125,55.85518798828125,66.0616241455078,1.6897266386598843e+18,126.64888408203124,0.3892841354479657,0.4775321173844398,-0.4581613508381618,-1.0850391573205735,-0.566710519533526,0.4899064105196078,-1.434657517320486
