seconds_elapsed_rounded,accelerometer_time,accelerometer_seconds_elapsed,accelerometer_z,accelerometer_y,accelerometer_x,accelerometeruncalibrated_time,accelerometeruncalibrated_seconds_elapsed,accelerometeruncalibrated_z,accelerometeruncalibrated_y,accelerometeruncalibrated_x,gravity_time,gravity_seconds_elapsed,gravity_z,gravity_y,gravity_x,gyroscope_time,gyroscope_seconds_elapsed,gyroscope_z,gyroscope_y,gyroscope_x,gyroscopeuncalibrated_time,gyroscopeuncalibrated_seconds_elapsed,gyroscopeuncalibrated_z,gyroscopeuncalibrated_y,gyroscopeuncalibrated_x,location_time,location_seconds_elapsed,location_altitude,location_speedAccuracy,location_bearingAccuracy,location_latitude,location_altitudeAboveMeanSeaLevel,location_bearing,location_horizontalAccuracy,location_verticalAccuracy,location_longitude,location_speed,magnetometer_time,magnetometer_seconds_elapsed,magnetometer_z,magnetometer_y,magnetometer_x,magnetometeruncalibrated_time,magnetometeruncalibrated_seconds_elapsed,magnetometeruncalibrated_z,magnetometeruncalibrated_y,magnetometeruncalibrated_x,orientation_time,orientation_seconds_elapsed,orientation_yaw,orientation_qx,orientation_qz,orientation_roll,orientation_qw,orientation_qy,orientation_pitch
0.0,1.6904261876848527e+18,0.022852783203125,-0.9048246876657008,-0.2031473678901791,-0.6508889434330165,1.6904261876810972e+18,0.019097412109375,-0.990570068359375,-0.4083938598632812,-0.0289306640625,1.6904261876848527e+18,0.022852783203125,-8.981731792742014,-3.9073976073905823,0.4807510975560173,1.6904261876848527e+18,0.022852783203125,-1.7360695600509644,-1.1079343557357788,1.1818809509277344,1.690426187681097e+18,0.019096923828125,-1.614631414413452,-1.127573847770691,1.2342212200164795,,,,,,,,,,,,,1.6904261876848527e+18,0.022852783203125,-37.16495513916016,-22.679126739501953,25.11756896972656,1.6904261876844198e+18,0.022419921875,9.502349853515623,9.845291137695312,143.55409240722656,1.6904261876848527e+18,0.022852783203125,-0.119143600526296,0.2046035623039699,-0.0528400414140824,0.0534744060069173,0.9773171086804152,0.0140181967521706,0.4098193893318583
0.05,1.6904261877149107e+18,0.052910693359375,1.3972656750261785,1.0841697981381415,-1.6408647341616451,1.6904261877161644e+18,0.05416435546875,-0.67349853515625,-0.2859283447265625,-0.1240264892578125,1.6904261877149107e+18,0.052910693359375,-8.917243480027318,-4.0536981172299384,0.4661496457668393,1.6904261877149107e+18,0.052910693359375,-2.4331973075866697,-0.8352213472127914,0.1299865901470183,1.6904261877111547e+18,0.049154736328125,-2.3723506689071656,-0.923349130153656,0.3029062420129776,,,,,,,,,,,,,1.6904261877149107e+18,0.052910693359375,-37.3361930847168,-22.17132987976074,24.959417724609377,1.6904261877156255e+18,0.0536255371093749,8.914431762695312,11.229583740234377,143.46593627929687,1.6904261877149107e+18,0.052910693359375,-0.1923712756513118,0.212856225749515,-0.0883224488849836,0.0522232401668972,0.9728922263381052,0.005089524230793,0.4261484075717089
0.1,1.6904261877650068e+18,0.103006787109375,3.2491417299991845,-0.6731396167206763,1.3648353776730595,1.6904261877662602e+18,0.1042603515624999,-0.6802490234375,-0.465228271484375,0.314935302734375,1.6904261877650068e+18,0.103006787109375,-9.071959526869058,-3.6024853292191024,0.9097160545168816,1.6904261877650068e+18,0.103006787109375,-1.6244969964027405,0.3089795686304569,-1.3351816415786744,1.6904261877612508e+18,0.099250830078125,-1.7610936641693116,0.4032193124294281,-1.35192608833313,,,,,,,,,,,,,1.6904261877650068e+18,0.103006787109375,-37.98403472900391,-17.91596336364746,26.3512451171875,1.6904261877624356e+18,0.1004356689453125,8.443016052246094,15.69741439819336,145.28662109375,1.6904261877650068e+18,0.103006787109375,-0.3087956672112256,0.1921756221375254,-0.1417399053692344,0.0998171345032395,0.970749101804414,0.0198120712539003,0.3762525277061425
0.15,1.6904261878151027e+18,0.153102685546875,-1.6692506076556444,-0.6204677062669396,2.291198425638601,1.6904261878163564e+18,0.15435625,-1.1326171875,-0.33614501953125,0.2542694091796875,1.6904261878151027e+18,0.153102685546875,-9.214730167468783,-3.2271639992079137,0.9173310741782932,1.6904261878151027e+18,0.153102685546875,0.3300684332847595,0.1433118864893913,-0.0688887685537338,1.6904261878113467e+18,0.1493466796874999,0.1534910380840301,-0.0665877163410186,-0.1495639696717262,,,,,,,,,,,,,1.6904261878151027e+18,0.153102685546875,-38.80698013305664,-14.54041633605957,26.58394775390625,1.6904261878092452e+18,0.1472453125,7.6195831298828125,18.213671875,144.9975128173828,1.6904261878151027e+18,0.153102685546875,-0.3386011390344898,0.1725227532000738,-0.1577644024705389,0.099227040757246,0.9720675200769512,0.0201179080457392,0.3353288426510047
0.2,1.6904261878651988e+18,0.20319873046875,0.1406273157346247,1.490690217820108,-1.7932341301989552,1.6904261878664525e+18,0.20445234375,-0.876312255859375,-0.2412841796875,-0.0534271240234375,1.6904261878651988e+18,0.20319873046875,-9.125527450927496,-3.3884241777700184,1.183401010610312,1.6904261878651988e+18,0.20319873046875,2.1827267169952393,0.7076948046684265,0.3320470482110977,1.6904261878614428e+18,0.1994427734375,2.1456973552703857,0.9929672718048096,0.323620244860649,,,,,,,,,,,,,1.6904261878651988e+18,0.20319873046875,-37.43801651000977,-16.215396881103516,27.238525390625,1.690426187861256e+18,0.19925595703125,9.206851196289062,16.17210693359375,145.7503875732422,1.6904261878651988e+18,0.20319873046875,-0.2609566816332183,0.1818715758237476,-0.1166062242837044,0.1289595155281938,0.975389714280774,0.0401820848582828,0.3528125015180668
0.25,1.6904261879152947e+18,0.253294775390625,0.8190913423484563,-1.2554828764200212,-0.5472666271689534,1.6904261879165484e+18,0.2545483398437499,-0.89835205078125,-0.4443145751953125,-0.044586181640625,1.6904261879152947e+18,0.253294775390625,-9.15591113256216,-3.4771356621152156,0.3201166670298157,1.6904261879152947e+18,0.253294775390625,0.7830529510974884,-2.5780179500579834,-0.4474090330302715,1.690426187911539e+18,0.2495388671875,0.8804307878017426,-2.52756724357605,-0.4029849499464035,,,,,,,,,,,,,1.6904261879152947e+18,0.253294775390625,-38.57370986938477,-18.483268356323244,23.95000915527344,1.690426187913267e+18,0.25126708984375,7.650628662109375,14.105230712890624,141.9989013671875,1.6904261879152947e+18,0.253294775390625,-0.1729669244352866,0.181088314685707,-0.081705923862227,0.035060346545451,0.9798679745892264,0.0015721014945939,0.3624633708547404
0.3,1.6904261879653906e+18,0.30339072265625,-0.6964966438150405,1.5930632646754384,-0.6341709013486653,1.6904261879666442e+18,0.3046442871093749,-0.9307861328125,-0.1925384521484375,-0.164239501953125,1.6904261879653906e+18,0.30339072265625,-9.14127797776699,-3.4250765059584376,-0.8776477807961403,1.6904261879653906e+18,0.30339072265625,1.1801099181175232,-2.0163793563842773,0.6330752678215503,1.6904261879616348e+18,0.29963466796875,1.1363718390464783,-2.015443134307861,0.5246634602546691,,,,,,,,,,,,,1.6904261879653906e+18,0.30339072265625,-40.87099151611328,-18.68450393676758,19.28782043457031,1.690426187965274e+18,0.303273876953125,5.3734375,13.5617431640625,136.42077026367187,1.6904261879653906e+18,0.30339072265625,-0.1261024820571578,0.1740545909247093,-0.0704886296654675,-0.0958176422625289,0.980339167138618,-0.0581545590141387,0.356794402778568
0.35,1.6904261880154867e+18,0.3534867675781249,3.6086626734536886,1.4633095173937083,0.7093758530019223,1.6904261880167404e+18,0.35474033203125,-0.47767333984375,-0.2223785400390625,-0.184698486328125,1.6904261880154867e+18,0.3534867675781249,-8.751856752280592,-3.772068105803131,-2.2496554758644103,1.6904261880154867e+18,0.3534867675781249,1.0500217437744142,-3.5234997272491455,1.0432257175445556,1.6904261880117307e+18,0.34973076171875,1.0649557709693909,-3.368568181991577,1.048731005191803,1.69042618800081e+18,0.33881005859375,75.86920175328851,1.1599999666231855,77.98981152830599,49.2800382724756,95.05063066259028,335.74218471830847,5.000642112122027,3.0814227183098395,-122.96822356153274,0.6499999761581386,1.6904261880154867e+18,0.3534867675781249,-41.866425323486325,-20.970467376708985,13.262533569335938,1.690426188012079e+18,0.3500791015625,4.365756988525391,11.17388153076172,130.41835021972656,1.6904261880154867e+18,0.3534867675781249,-0.0534778564282157,0.1913838493094905,-0.05080528068455,-0.2518627704994142,0.9713962588057744,-0.1281900971573066,0.3948454614670407
0.4,1.6904261880655826e+18,0.403582763671875,5.071035085353851,2.3302519843629,0.4172404926866292,1.6904261880668362e+18,0.404836328125,-0.242340087890625,-0.1667938232421875,-0.4325653076171875,1.6904261880655826e+18,0.403582763671875,-7.971670134770274,-3.90683377757579,-4.128402761984765,1.6904261880655826e+18,0.403582763671875,1.2479942560195922,-3.8535744667053224,0.0237376809120178,1.6904261880618266e+18,0.399826806640625,1.2576582431793213,-3.9066419124603273,0.2051119804382324,,,,,,,,,,,,,1.6904261880655826e+18,0.403582763671875,-42.28482818603515,-23.093870544433592,3.919744873046875,1.6904261880588918e+18,0.3968919921875,4.208865356445313,9.446237182617187,121.59998168945312,1.6904261880655826e+18,0.403582763671875,0.0190122860051961,0.2000589320228273,-0.0390198931509583,-0.4776618877878028,0.951247807524462,-0.2296672631956284,0.4097718538273411
0.45,1.6904261881156787e+18,0.4536787109375,2.356785478762388,2.8577961999997497,0.3392915760874748,1.690426188116932e+18,0.4549323242187499,-0.649273681640625,0.0144744873046875,-0.532244873046875,1.6904261881156787e+18,0.4536787109375,-7.257805825855732,-3.2369777710226173,-5.718942528758048,1.6904261881156787e+18,0.4536787109375,1.376164984703064,-3.676784372329712,-1.3848891258239746,1.6904261881119227e+18,0.44992265625,1.310527205467224,-3.611100053787231,-1.4394139170646667,,,,,,,,,,,,,1.6904261881156787e+18,0.4536787109375,-42.63934860229492,-21.433292388916016,-5.183026123046875,1.6904261881109038e+18,0.4489039550781249,3.807818603515625,11.471368408203125,112.57890014648436,1.6904261881156787e+18,0.4536787109375,0.0417675090022799,0.1650291385742991,-0.0349940422303775,-0.6668505782753303,0.932083126093476,-0.3192139827204567,0.3365291611227167
0.5,1.6904261881657748e+18,0.503774755859375,-2.0336263561171295,3.018067396750599,-0.4397895936250687,1.6904261881620188e+18,0.5000186767578125,-0.7923965454101562,0.0622711181640625,-0.8438262939453125,1.6904261881657748e+18,0.503774755859375,-6.022443361922502,-2.3384133420215547,-7.347411277979016,1.6904261881657748e+18,0.503774755859375,2.243751621246338,-4.255266761779785,-0.2284941114485263,1.6904261881620188e+18,0.50001875,2.2246753215789794,-4.25867338180542,-0.2725177571177482,,,,,,,,,,,,,1.6904261881657748e+18,0.503774755859375,-40.81900177001953,-18.491975021362304,-15.274874877929689,1.6904261881629146e+18,0.5009145019531249,5.9412384033203125,14.355776977539062,102.34939880371094,1.6904261881657748e+18,0.503774755859375,0.0855466799094343,0.1270371279785606,-0.0126723025310777,-0.8837466624538397,0.8981369657706632,-0.4193836438887232,0.2408600325634266
0.55,1.6904261882158707e+18,0.5538708007812501,-1.905210345632136,2.758976286355257,0.7281279289710522,1.6904261882071053e+18,0.545105224609375,-0.6310272216796875,0.1353607177734375,-0.8270416259765625,1.6904261882158707e+18,0.5538708007812501,-4.222359862672389,-1.375187567213401,-8.709109497444032,1.6904261882158707e+18,0.5538708007812501,2.8922532558441163,-4.821414566040039,0.7814362794160843,1.6904261882121147e+18,0.550114697265625,2.7960875034332275,-4.7577025413513185,0.6730900429189205,,,,,,,,,,,,,1.6904261882158707e+18,0.5538708007812501,-36.047437286376955,-16.341090393066406,-24.97924346923828,1.6904261882149256e+18,0.5529255859375,11.296978759765626,16.559628295898438,92.29072875976564,1.6904261882158707e+18,0.5538708007812501,0.1603344378326586,0.1024925682290169,0.030695240445144,-1.1190391841498724,0.8447959590295481,-0.5227057278484724,0.1407670953591773
0.6,1.6904261882659668e+18,0.603966845703125,-1.456108003130108,2.268590916350335,0.9115876059293748,1.6904261882572014e+18,0.5952013183593751,-0.381378173828125,0.233099365234375,-0.8701416015625,1.6904261882659668e+18,0.603966845703125,-2.250774513796121,0.0116466888419061,-9.52598480040431,1.6904261882659668e+18,0.603966845703125,3.610852098464966,-2.8151811838150023,1.0848298907279967,1.690426188262211e+18,0.6002109375,3.603713464736938,-3.0881903648376463,1.1385923743247983,,,,,,,,,,,,,1.6904261882659668e+18,0.603966845703125,-29.645764923095705,-13.842930221557618,-32.70559539794922,1.6904261882617344e+18,0.5997344360351562,18.173606872558594,19.508514404296875,84.37498474121094,1.6904261882659668e+18,0.603966845703125,0.2684566421059923,0.0830493620958817,0.1054205322498849,-1.3387656749180854,0.77645364227545,-0.6148149093011253,-0.0011892291081263
0.65,1.690426188316063e+18,0.65406298828125,-1.340497698204368,1.1924510315109045,1.0056479331827162,1.6904261883072975e+18,0.64529736328125,-0.3037139892578125,0.2949737548828125,-0.86529541015625,1.690426188316063e+18,0.65406298828125,-1.641390540827513,1.7165635775855923,-9.500334810841082,1.690426188316063e+18,0.65406298828125,3.8113698959350586,-0.264753471314907,0.0506026849150657,1.690426188312307e+18,0.65030693359375,3.7907479763031007,-0.3456446051597595,0.1199414290487766,,,,,,,,,,,,,1.690426188316063e+18,0.65406298828125,-25.386582946777345,-8.906883239746094,-36.71580200195312,1.690426188308545e+18,0.646545166015625,21.245285034179688,24.17855224609375,81.5976776123047,1.690426188316063e+18,0.65406298828125,0.3322542159381632,0.039731494472727,0.1818180424137523,-1.399725062224536,0.7417518659427875,-0.6437646926700447,-0.1762008844945774
0.7,1.6904261883661586e+18,0.7041587890625001,-3.260104438040256,0.8469082714611291,-1.910801239054799,1.6904261883573932e+18,0.6953932617187499,-0.4805572509765625,0.442059326171875,-1.1020965576171875,1.6904261883661586e+18,0.7041587890625001,-1.5108212686052918,3.5350796677529814,-9.005860622539519,1.6904261883661586e+18,0.7041587890625001,3.8477949142456054,-0.679154458642006,0.1426957424730062,1.6904261883624026e+18,0.7004026367187499,3.891118288040161,-0.5614597082138062,0.0605268344283104,,,,,,,,,,,,,1.6904261883661586e+18,0.7041587890625001,-24.808741760253906,-2.2240638732910156,-37.70800933837891,1.6904261883605535e+18,0.69855341796875,21.73226318359375,30.970819091796876,80.71470947265625,1.6904261883661586e+18,0.7041587890625001,0.3625845745542257,-0.0233118468591632,0.2518749032303318,-1.4046914155740329,0.7162939529868279,-0.6497322147449885,-0.3693488978072646
0.75,1.6904261884162545e+18,0.7542544921875,-5.167833196234106,-0.2318259407204389,-7.271625676893592,1.690426188407489e+18,0.7454889160156251,-0.6431915283203125,0.474029541015625,-1.60096435546875,1.6904261884162545e+18,0.7542544921875,-1.0989596194127949,4.889655195731223,-8.42293447761178,1.6904261884162545e+18,0.7542544921875,2.587754249572754,-2.1636674404144287,2.04431529045105,1.6904261884124984e+18,0.750498583984375,2.663622093200684,-2.123468279838562,1.923053216934204,,,,,,,,,,,,,1.6904261884162545e+18,0.7542544921875,-22.44143943786621,2.686511993408203,-38.740631103515625,1.6904261884125627e+18,0.750562548828125,24.29905090332031,35.59368896484375,79.61619873046875,1.6904261884162545e+18,0.7542544921875,0.449832492757405,-0.0467838185280919,0.3277484115063804,-1.4412756786010985,0.6692167395213968,-0.6646383811609988,-0.522281598432379
0.8,1.6904261884663506e+18,0.8043505859375,-0.9573844283688068,0.5914906765598058,-6.083748485330343,1.6904261884575852e+18,0.795585009765625,-0.2011322021484375,0.6411865234375,-1.4271514892578123,1.6904261884663506e+18,0.8043505859375,-0.9113198656778037,5.717409912363291,-7.911676678482889,1.6904261884663506e+18,0.8043505859375,1.9973193407058716,-1.7332035303115845,2.364140033721924,1.6904261884625946e+18,0.800594580078125,2.0496508359909056,-1.7562097787857056,2.382793140411377,,,,,,,,,,,,,1.6904261884663506e+18,0.8043505859375,-18.94924964904785,4.8102363586425785,-39.88309936523437,1.690426188464572e+18,0.8025719726562499,27.797000122070312,37.5843017578125,78.53197021484375,1.6904261884663506e+18,0.8043505859375,0.6058721850547715,-0.0292832441840389,0.406296392190455,-1.45608721830459,0.6170869944082481,-0.6727886790882325,-0.6226427132838619
0.85,1.6904261885164467e+18,0.8544465820312499,6.029189562860131,-0.8434129474651811,-5.044549580201506,1.690426188507681e+18,0.8456810058593749,0.5295989990234375,0.5580108642578125,-1.2853973388671875,1.6904261885164467e+18,0.8544465820312499,-0.5120809292471549,6.2662197357732055,-7.518993587043285,1.6904261885164467e+18,0.8544465820312499,1.3143530368804932,-3.346043348312378,0.9458073616027832,1.6904261885126907e+18,0.850690478515625,1.3381355285644532,-3.155616283416748,1.036595219373703,,,,,,,,,,,,,1.6904261885164467e+18,0.8544465820312499,-15.562060165405274,6.426725769042969,-40.82585754394531,1.6904261885113784e+18,0.8493786010742187,31.67737579345703,39.415771484375,77.37539291381836,1.6904261885164467e+18,0.8544465820312499,0.7234928309068074,-0.0046702390507007,0.4600067696931321,-1.503330221843762,0.5603390380857397,-0.6882492601625996,-0.6932916170957727
0.9,1.6904261885665426e+18,0.90454248046875,7.669586065762042,-1.1633686563462018,-3.3799476751345394,1.690426188557777e+18,0.895776904296875,0.85047607421875,0.5536834716796875,-1.0830902099609374,1.6904261885665426e+18,0.90454248046875,0.556262302146852,6.662610566463471,-7.169742693190574,1.6904261885665426e+18,0.90454248046875,0.8100641965866089,-1.6551702924072742,-0.2608500719070434,1.6904261885627866e+18,0.900786572265625,0.8760108709335327,-2.074816846847534,-0.1150317810475826,,,,,,,,,,,,,1.6904261885665426e+18,0.90454248046875,-8.919634246826172,8.679283905029298,-41.95787353515625,1.6904261885581855e+18,0.8961855468750001,38.09681701660156,41.495993041992186,76.47265625,1.6904261885665426e+18,0.90454248046875,0.7514245284413216,0.0203088537417182,0.4811790892471957,-1.6485486213908231,0.4898218988157566,-0.7265473354557009,-0.7469983130149759
0.95,1.6904261886166387e+18,0.95463857421875,2.404106968098879,0.0890971518880128,-0.7051001046049594,1.6904261886078733e+18,0.9458732421875,0.3382080078125,0.70211181640625,-0.7984283447265625,1.6904261886166387e+18,0.95463857421875,0.6342546268028393,6.789684222428798,-7.0472949434602254,1.6904261886166387e+18,0.95463857421875,0.1665301322937011,0.9239937424659728,-0.390623465180397,1.6904261886128827e+18,0.950882568359375,0.1821818426251411,1.1064084023237228,-0.5348752841353417,,,,,,,,,,,,,1.6904261886166387e+18,0.95463857421875,-7.829463195800781,10.479806518554687,-41.336972045898435,1.690426188610196e+18,0.94819580078125,38.492950439453125,43.22377014160156,77.21659851074219,1.6904261886166387e+18,0.95463857421875,0.6995201259318722,-0.0018234762236654,0.4732051823326935,-1.6605432607210588,0.4936684146314191,-0.7295854149355259,-0.7647488318076757
1.0,1.6904261886667346e+18,1.00473466796875,-0.5101996976041793,-1.420276431353092,0.4306301356136798,1.6904261886579692e+18,0.995969140625,0.0072021484375,0.5610595703125,-0.6642608642578125,1.6904261886667346e+18,1.00473466796875,0.5737055386201664,6.875494841539859,-6.968955332430005,1.6904261886667346e+18,1.00473466796875,0.2306921333074569,-1.0857001066207883,1.0590996265411377,1.6904261886629786e+18,1.0009786621093748,0.2436571359634399,-1.0392587184906006,1.021500551700592,,,,,,,,,,,,,1.6904261886667346e+18,1.00473466796875,-8.015442657470704,11.187076568603516,-40.67631378173828,1.6904261886622062e+18,1.0002062988281248,38.585260009765626,43.87754516601562,77.82830200195312,1.6904261886667346e+18,1.00473466796875,0.7327263346342221,0.0042743440872574,0.4846800769721892,-1.6529427010571278,0.485538872031462,-0.7274566232014001,-0.7769581806619792
1.05,1.6904261887168307e+18,1.054830810546875,-0.9413498531170188,-1.6573458841371531,-0.7698433857679368,1.6904261887080653e+18,1.046065185546875,-0.0544281005859375,0.5272430419921875,-0.787939453125,1.6904261887168307e+18,1.054830810546875,0.5108721754252165,6.894481982986926,-6.95504792001307,1.6904261887168307e+18,1.054830810546875,-0.3504305034875869,-0.7576092123985291,1.0305625081062315,1.6904261887130747e+18,1.051074755859375,-0.3083428606390953,-0.8037111520767212,1.0893145322799682,,,,,,,,,,,,,1.6904261887168307e+18,1.054830810546875,-6.728336334228516,11.24118194580078,-40.381282043457034,1.690426188714217e+18,1.052217138671875,39.83351135253906,43.853573608398435,78.09877014160156,1.6904261887168307e+18,1.054830810546875,0.8147481886763337,0.0309253220303125,0.5050758065667047,-1.6441351799791768,0.4677859429847862,-0.7245823117635539,-0.7796739903662513
1.1,1.6904261887669268e+18,1.1049267578125002,-1.0635565167939662,1.885852909567952,-0.1353815824878215,1.6904261887581612e+18,1.0961611816406251,-0.04505615234375,0.88134765625,-0.7343902587890625,1.6904261887669268e+18,1.1049267578125002,0.4553696154293417,6.779391493377685,-7.071165297678112,1.6904261887669268e+18,1.1049267578125002,-0.3089790791273116,-0.4192190289497375,0.681033843755722,1.6904261887631708e+18,1.101170849609375,-0.312835082411766,-0.3816649705171585,0.6048352956771851,,,,,,,,,,,,,1.6904261887669268e+18,1.1049267578125002,-6.238790893554688,10.782689666748048,-40.17857818603515,1.690426188761026e+18,1.0990260009765624,40.2816162109375,43.424373626708984,78.29261016845703,1.6904261887669268e+18,1.1049267578125002,0.8630741300262704,0.0517554017909205,0.5123020285724975,-1.6351145400421676,0.462949401211095,-0.7214659493388911,-0.7632995104970833
1.15,1.690426188812013e+18,1.1500130004882814,-2.97321150842309,-0.1166688156157731,-0.8078986833959818,1.690426188808257e+18,1.14625712890625,-0.2465972900390625,0.6437591552734375,-0.799725341796875,1.690426188812013e+18,1.1500130004882814,0.3148622782924677,6.6638007407091555,-7.187350859821587,1.690426188812013e+18,1.1500130004882814,-0.6411783546209335,-0.2812287714332342,0.9962819516658784,1.6904261888132667e+18,1.151266650390625,-0.6638285219669342,-0.235280267894268,0.9896795392036438,,,,,,,,,,,,,1.690426188812013e+18,1.1500130004882814,-5.890285491943359,10.378872871398926,-40.25678253173828,1.6904261888078356e+18,1.1458357421875,40.59077453613281,42.86872253417969,78.17879943847656,1.690426188812013e+18,1.1500130004882814,0.9269176885532604,0.0749595897702742,0.5236368164457874,-1.6146209676840124,0.4579794205352357,-0.7144183772918891,-0.7471267698912288
1.2,1.6904261888570995e+18,1.195099609375,-1.8894281961584092,-1.9165488427960873,2.3586104730063675,1.6904261888583532e+18,1.196353173828125,-0.173974609375,0.46044921875,-0.41988525390625,1.6904261888570995e+18,1.195099609375,0.0521777919524849,6.381735757318138,-7.444164380673766,1.6904261888570995e+18,1.195099609375,-0.926102876663208,0.40844447016716,0.4883004605770111,1.6904261888633628e+18,1.20136279296875,-0.8724105477333068,0.4258732259273529,0.4488412797451019,,,,,,,,,,,,,1.6904261888570995e+18,1.195099609375,-6.4881446838378904,9.384262084960938,-40.41889953613281,1.6904261888598472e+18,1.197847314453125,39.64836730957031,41.65072021484375,78.02874145507812,1.6904261888570995e+18,1.195099609375,0.969907212947908,0.0939813566564134,0.5259083709543818,-1.577944185826711,0.4698210056075622,-0.7027011607345665,-0.7086583639151388
1.25,1.6904261889071956e+18,1.245195556640625,-0.7096531867190077,-1.2658940296059846,5.210912693312764,1.6904261889084493e+18,1.2464490722656252,-0.112054443359375,0.4776458740234375,-0.2990966796875,1.6904261889071956e+18,1.245195556640625,-0.2178602587776258,6.153327983704209,-7.632438530628681,1.6904261889071956e+18,1.245195556640625,-0.2343386530876159,0.2235152199864387,0.5079128086566925,1.6904261889134587e+18,1.25145888671875,-0.1518137101083993,0.2149244487285614,0.5497759938240051,,,,,,,,,,,,,1.6904261889071956e+18,1.245195556640625,-7.539323425292968,8.300041961669923,-40.243063354492186,1.690426188911859e+18,1.249858935546875,38.69963073730469,40.80427856445313,78.37601318359376,1.6904261889071956e+18,1.245195556640625,0.9980052520418188,0.1050380898702425,0.5272312449534263,-1.5422828256989294,0.4828345258246587,-0.6912650627156015,-0.6782979243171676
1.3,1.6904261889572918e+18,1.295291650390625,-1.4293755813185125,-1.944411013903022,1.3255197047203775,1.6904261889585454e+18,1.2965453125,-0.2216644287109375,0.448583984375,-0.692578125,1.6904261889572918e+18,1.295291650390625,-0.4974477607522532,6.12965554859817,-7.638222024013996,1.6904261889572918e+18,1.295291650390625,0.067028731945902,0.2987840056419372,0.6247159481048584,1.6904261889635548e+18,1.3015548828125,0.1004440519958734,0.3350376486778258,0.5931478023529053,,,,,,,,,,,,,1.6904261889572918e+18,1.295291650390625,-8.562472534179687,8.00875015258789,-39.7296859741211,1.6904261889638712e+18,1.301871435546875,37.55006408691406,40.63922119140625,78.90792236328124,1.6904261889572918e+18,1.295291650390625,1.0367031819352293,0.1096684326196819,0.5378577352779085,-1.505761341859868,0.485859353543093,-0.68014529553497,-0.6751967812828505
1.35,1.690426189007388e+18,1.34538779296875,0.2325874412252753,1.312919750866294,0.8431350657588244,1.6904261890086415e+18,1.346641455078125,-0.0691864013671875,0.8050262451171875,-0.553515625,1.690426189007388e+18,1.34538779296875,-0.8833612192329763,6.255331495820879,-7.497309929214715,1.690426189007388e+18,1.34538779296875,0.932370150089264,2.1055081486701965,-0.563901287317276,1.690426189013651e+18,1.35165107421875,1.249152660369873,2.5223949551582336,-0.7754340827465057,1.6904261890007583e+18,1.338758544921875,76.0457153916359,1.3416408398118889,-1.0,49.28003780548423,95.22714430093764,-1.0,4.889924177184695,3.1485200609450494,-122.96822324406634,0.3899999856948852,1.690426189007388e+18,1.34538779296875,-10.376170349121091,8.687881469726562,-38.64784240722656,1.6904261890158848e+18,1.353884716796875,35.04341430664063,42.032162475585935,80.48304138183593,1.690426189007388e+18,1.34538779296875,1.0534979097020345,0.0951272196486341,0.5480609319322266,-1.453243297606967,0.4945800448676918,-0.6675847995502175,-0.691796874613536
1.4,1.6904261890574838e+18,1.395483837890625,-2.940915154260993,-0.5140356809574366,0.7653616226309538,1.6904261890587374e+18,1.3967373046875,-0.398492431640625,0.6289764404296875,-0.6916412353515625,1.6904261890574838e+18,1.395483837890625,-1.4868913808329405,7.067384843904375,-6.617987347074151,1.6904261890574838e+18,1.395483837890625,3.126418352127075,1.499848759174347,-0.6951121777296065,1.690426189063747e+18,1.40174697265625,3.2361618995666506,1.2176279902458191,-0.7187529861927032,,,,,,,,,,,,,1.6904261890574838e+18,1.395483837890625,-13.959994125366212,12.06832275390625,-36.029345703125,1.6904261890626964e+18,1.4006964111328124,31.680416107177734,46.728790283203125,83.73626708984375,1.6904261890574838e+18,1.395483837890625,1.02699201674731,0.0153345816835138,0.5658655000527537,-1.34884424908364,0.5054434796618842,-0.6507682512231167,-0.8058184332214966
1.45,1.6904261891075796e+18,1.4455796875,0.0458195603409409,1.9976949772274497,0.3037288551536202,1.6904261891088333e+18,1.446833251953125,-0.14906005859375,1.0973175048828123,-0.504913330078125,1.6904261891075796e+18,1.4455796875,-1.4419981123305856,8.171945571259856,-5.194843543591201,1.6904261891075796e+18,1.4455796875,4.013169384002685,0.2180181846022605,-0.5589765042066575,1.690426189113843e+18,1.45184296875,4.045439863204956,-0.0309945702552795,-0.3729907244443893,,,,,,,,,,,,,1.6904261891075796e+18,1.4455796875,-15.242417526245116,18.117201232910155,-32.07445068359375,1.6904261891095055e+18,1.44750576171875,31.212527465820312,52.67394409179688,87.69742736816406,1.6904261891075796e+18,1.4455796875,1.037402319790964,-0.0639737957477057,0.5959994471594457,-1.2985389319074865,0.4667985893682002,-0.649565450636605,-0.9875451254564668
1.5,1.690426189157676e+18,1.4956759765625,0.5671631385459006,-0.3262355782550574,0.4336308371865749,1.6904261891589294e+18,1.49692939453125,-0.136492919921875,0.970751953125,-0.23846435546875,1.690426189157676e+18,1.4956759765625,-1.2513662641075254,9.034067427752614,-3.5761104156082864,1.690426189157676e+18,1.4956759765625,3.2670459747314453,-0.8089891046285629,-0.23832463696599,1.6904261891639393e+18,1.5019392578125,3.024393367767334,-1.0078393310308456,-0.2615850493311881,,,,,,,,,,,,,1.690426189157676e+18,1.4956759765625,-14.731771469116213,24.18520050048828,-27.404344177246095,1.6904261891615158e+18,1.499515966796875,32.05253295898437,58.06444396972656,92.21810607910156,1.690426189157676e+18,1.4956759765625,1.1333013744272322,-0.1229019729625917,0.6342708906133552,-1.2324222470922774,0.4013694424521795,-0.648786061641439,-1.1736426373453206
1.55,1.690426189207772e+18,1.545772021484375,-0.5332636161969602,2.493108842918873,-1.6367885999900105,1.6904261892090253e+18,1.54702529296875,-0.0699737548828125,1.11575927734375,-0.5003387451171875,1.690426189207772e+18,1.545772021484375,-0.9732577632573246,9.392336325319407,-2.6426073304688926,1.690426189207772e+18,1.545772021484375,0.9824592053890228,-0.1342334270477294,-0.5009667038917541,1.6904261892140352e+18,1.552035107421875,0.7366580128669739,0.2272989422082901,-0.4849493235349655,,,,,,,,,,,,,1.690426189207772e+18,1.545772021484375,-13.44967575073242,27.41000289916992,-24.259625244140626,1.6904261892135276e+18,1.551527783203125,33.234194946289065,60.535467529296874,94.7317138671875,1.690426189207772e+18,1.545772021484375,1.1965502379881408,-0.1459507849537989,0.6528828119697949,-1.2185619269562082,0.3511875589558832,-0.6550114749379133,-1.279469214698372
1.6,1.6904261892578678e+18,1.595867919921875,1.5035289342530815,-0.0783788909012079,-3.4731223348206277,1.6904261892591214e+18,1.597121533203125,0.0298248291015625,1.0383514404296874,-0.610101318359375,1.6904261892578678e+18,1.595867919921875,-0.927514073857665,9.423397350919842,-2.549371997410655,1.6904261892578678e+18,1.595867919921875,-0.7179286256432533,1.1581780672073363,-0.0468444854021072,1.690426189264131e+18,1.602131201171875,-0.8866758584976197,1.1774327278137209,-0.0238515377044677,,,,,,,,,,,,,1.6904261892578678e+18,1.595867919921875,-13.83074722290039,28.12668304443359,-23.04054870605469,1.6904261892655396e+18,1.6035395019531251,32.26514587402344,60.59662780761719,95.48730163574218,1.6904261892578678e+18,1.595867919921875,1.1527888669278994,-0.1632426824693826,0.6458425051052247,-1.2218319803643165,0.3606699781376667,-0.6527273641687463,-1.290489731502318
1.65,1.690426189307964e+18,1.6459639648437498,0.645346667618528,1.4854274749863148,-0.898940247350037,1.6904261893092175e+18,1.647217626953125,-0.055096435546875,0.99547119140625,-0.4287200927734375,1.690426189307964e+18,1.6459639648437498,-1.1425922787817568,9.249484553081391,-3.044309770022928,1.690426189307964e+18,1.6459639648437498,-1.4157154083251953,0.4663193702697754,0.4974414974451065,1.690426189314227e+18,1.6522270996093753,-1.4524832248687745,0.2152537643909454,0.5183707684278488,,,,,,,,,,,,,1.690426189307964e+18,1.6459639648437498,-15.303067016601563,27.230721282958985,-23.25409851074219,1.6904261893123515e+18,1.650351806640625,30.753276824951172,59.42905044555664,94.93634414672852,1.690426189307964e+18,1.6459639648437498,1.1103075260565878,-0.1587379510901608,0.6333109964863509,-1.2121805087506867,0.3963278207908088,-0.6453750707884887,-1.2327316009027294
1.7,1.6904261893580603e+18,1.69606025390625,1.1454411361807584,-0.9637503393650056,0.4756541032105684,1.6904261893593137e+18,1.697313818359375,0.0027069091796875,0.8541259765625,-0.311053466796875,1.6904261893580603e+18,1.69606025390625,-1.2172671713723988,9.051303692331311,-3.571536414917111,1.6904261893580603e+18,1.69606025390625,-0.3311065912246704,-0.7510316669940948,-0.0677868291735649,1.6904261893643236e+18,1.702323486328125,-0.0845579773187637,-0.7243143558502197,-0.0645754786208271,,,,,,,,,,,,,1.6904261893580603e+18,1.69606025390625,-15.797785186767578,26.074647521972658,-24.360302734375,1.690426189359164e+18,1.697163720703125,30.83133544921875,58.68381042480469,93.93037109375,1.6904261893580603e+18,1.69606025390625,1.0973582536657216,-0.1322726496864951,0.6282902230515504,-1.2422033081203483,0.4090317018569748,-0.6483943601907675,-1.1757687843144644
1.75,1.690426189408157e+18,1.7461568359375002,1.3618554558533429,-0.2718177593690156,-1.650032229349017,1.6904261894094106e+18,1.7474104003906248,0.0123748779296875,0.869482421875,-0.5014434814453125,1.690426189408157e+18,1.7461568359375002,-1.1114220352662354,9.104356886413694,-3.4697585282498595,1.690426189408157e+18,1.7461568359375002,0.6018144965171814,-0.7165823459625245,0.1547288931906222,1.69042618941442e+18,1.7524200683593751,0.582331919670105,-0.6821938991546631,0.1550527520477771,,,,,,,,,,,,,1.690426189408157e+18,1.7461568359375002,-15.34358024597168,26.76599197387695,-24.10500640869141,1.6904261894111775e+18,1.749177587890625,31.233953857421874,59.76980285644531,94.68233032226564,1.690426189408157e+18,1.7461568359375002,1.1158425850410696,-0.1257130011872139,0.6344473803881405,-1.260795983152264,0.3925490544951822,-0.6538562646252027,-1.1901308082045756
1.8,1.6904261894582528e+18,1.79625283203125,0.0403930490867048,-0.7684937247246504,-0.9798429284143448,1.6904261894595064e+18,1.79750625,-0.095745849609375,0.9049957275390624,-0.4136871337890625,1.6904261894582528e+18,1.79625283203125,-1.162196193113774,9.14239347934127,-3.3516270050573347,1.6904261894582528e+18,1.79625283203125,0.0440520789939909,-0.1651508852839469,0.4311044156551361,1.690426189464516e+18,1.802515966796875,0.0527986608445644,-0.1272350275772623,0.4392377197742462,,,,,,,,,,,,,1.6904261894582528e+18,1.79625283203125,-15.40638313293457,27.728316497802737,-23.05120391845703,1.690426189463186e+18,1.80118603515625,30.918817138671876,60.568502807617186,95.64654541015624,1.6904261894582528e+18,1.79625283203125,1.1655777510186889,-0.1209551920178195,0.6434893931798668,-1.2370910298172528,0.3810140343639575,-0.6527694198467147,-1.2006292366701536
1.85,1.690426189508349e+18,1.846348681640625,0.571321368816942,-0.0110154319155215,-0.0605233838325739,1.6904261895096023e+18,1.84760234375,-0.095220947265625,0.935498046875,-0.3352203369140625,1.690426189508349e+18,1.846348681640625,-1.3021514840318262,9.165006293165682,-3.2359332304057475,1.690426189508349e+18,1.846348681640625,0.5457517385482789,-0.2655267685651779,0.2974261283874512,1.690426189514612e+18,1.85261201171875,0.5637552976608277,-0.2825144618749618,0.2707026571035385,,,,,,,,,,,,,1.690426189508349e+18,1.846348681640625,-16.306032562255858,28.547946166992187,-21.98109436035156,1.690426189515195e+18,1.8531949707031248,29.84110107421875,61.508059692382815,96.9340606689453,1.690426189508349e+18,1.846348681640625,1.2294922813584803,-0.1184906459749783,0.6529739834054548,-1.1879877199568996,0.3741557418828478,-0.6477398319350441,-1.207098903633669
1.9,1.690426189558445e+18,1.896445068359375,-0.0846855313777923,0.8934156387096642,-1.3416353239321708,1.6904261895596987e+18,1.8976986328125,-0.1420806884765625,1.0270904541015624,-0.4458465576171875,1.690426189558445e+18,1.896445068359375,-1.3389065711684525,9.223104144964813,-3.05142533034265,1.690426189558445e+18,1.896445068359375,0.2970170199871063,-0.4030620276927948,0.0395720360800624,1.6904261895647084e+18,1.90270830078125,0.3078449666500091,-0.4663459777832031,-0.0569046653807163,,,,,,,,,,,,,1.690426189558445e+18,1.896445068359375,-17.264930725097656,29.9154541015625,-20.525657653808594,1.6904261895620052e+18,1.9000052490234376,29.097309112548828,62.800167083740234,98.13984298706056,1.690426189558445e+18,1.896445068359375,1.2789363532282718,-0.1188424843155458,0.6610459274042336,-1.1573031749644198,0.3623179101125154,-0.6462278436309188,-1.2240949921855324
1.95,1.690426189608541e+18,1.946540966796875,-0.6735784173032642,2.423379940750003,-1.5567369243448972,1.6904261896097946e+18,1.947794482421875,-0.1590667724609375,1.2340728759765625,-0.505841064453125,1.690426189608541e+18,1.946540966796875,-1.2044035250808296,9.272324745920894,-2.9567821763131024,1.690426189608541e+18,1.946540966796875,0.1120134279131889,-0.6115134418010711,-0.0820071041584014,1.6904261896148042e+18,1.9528041015625,0.01533635109663,-0.5545503973960877,-0.1805974826216698,,,,,,,,,,,,,1.690426189608541e+18,1.946540966796875,-17.540777969360352,31.198667144775392,-19.85961456298828,1.6904261896088187e+18,1.9468185546875,28.83626708984375,64.33155822753906,98.79331970214844,1.690426189608541e+18,1.946540966796875,1.2800717450026995,-0.1151819546710494,0.6633766028751382,-1.1840248822872732,0.3483203917500319,-0.6521640892926729,-1.239178652862129
2.0,1.690426189658637e+18,1.9966370117187495,0.4729412348292022,-0.1055668744605779,-0.6819091401794553,1.6904261896598907e+18,1.997890625,-0.0368896484375,0.86044921875,-0.3541412353515625,1.690426189658637e+18,1.9966370117187495,-0.686953052630797,9.277124722774625,-3.0903949371105432,1.690426189658637e+18,1.9966370117187495,-0.4981122076511383,-0.4907121062278747,-1.894878888130188,1.6904261896649006e+18,2.00290048828125,-0.5056143403053284,-0.5779327511787414,-1.9669881105422973,,,,,,,,,,,,,1.690426189658637e+18,1.9966370117187495,-16.9410701751709,33.19989700317383,-19.613856506347656,1.690426189660831e+18,1.998831005859375,30.29857177734375,66.56352233886719,98.74264221191406,1.690426189658637e+18,1.9966370117187495,1.1305851012943002,-0.1107497896465666,0.6471475971446072,-1.3518085969907976,0.3407590437206197,-0.6727546606946956,-1.2406854652757968
2.05,1.6904261897087332e+18,2.046733251953125,-0.4015078376039117,-0.1058435871231556,-0.9713202485495808,1.6904261897099868e+18,2.047986767578125,-0.0002899169921875,0.9768890380859376,-0.41424560546875,1.6904261897087332e+18,2.046733251953125,0.2642306469745747,9.232839941559432,-3.2854804621937874,1.6904261897087332e+18,2.046733251953125,-0.1749826155602931,-1.9720705270767211,-1.255165159702301,1.6904261897149965e+18,2.05299638671875,-0.0799406379461288,-2.1160004138946533,-1.1324014902114867,,,,,,,,,,,,,1.6904261897087332e+18,2.046733251953125,-13.760065078735352,35.76957015991211,-20.38719482421875,1.6904261897128407e+18,2.0508405761718747,33.71150207519531,69.10146789550781,97.8202178955078,1.6904261897087332e+18,2.046733251953125,0.8735774071847116,-0.1000962218971137,0.6178678025652247,-1.650204898679989,0.3234820216666251,-0.7094397808476713,-1.2270407942877064
2.1,1.6904261897588293e+18,2.09682939453125,-2.004333728428706,-1.357273154951334,-1.481877790454626,1.6904261897600827e+18,2.0980827148437498,-0.1259765625,0.7457794189453125,-0.516070556640625,1.6904261897588293e+18,2.09682939453125,1.057217596096024,9.201276460942625,-3.218358936818242,1.6904261897588293e+18,2.09682939453125,-0.1183577328920364,-1.885904216766357,-0.6822876811027527,1.6904261897650926e+18,2.103092578125,-0.2314912915229797,-1.784507203102112,-0.5642734408378601,,,,,,,,,,,,,1.6904261897588293e+18,2.09682939453125,-10.510814666748049,38.120209503173825,-21.27023773193359,1.6904261897648492e+18,2.102849365234375,36.63246154785156,71.36040344238282,96.825390625,1.6904261897588293e+18,2.09682939453125,0.7337496047017962,-0.0750221998545667,0.6048892767702755,-1.8876020029663951,0.2830321767891629,-0.740391527569986,-1.2176218013806803
2.15,1.6904261898089254e+18,2.146925439453125,-1.3967636876273155,-0.6322510245889424,-0.6264318753683566,1.690426189810179e+18,2.1481791015625,0.041790771484375,0.9048675537109376,-0.3678985595703125,1.6904261898089254e+18,2.146925439453125,1.4919034222282468,9.114817840864658,-3.2944622840028996,1.6904261898089254e+18,2.146925439453125,-0.4984512269496918,-1.640107846260071,-0.1537183970212936,1.6904261898151887e+18,2.15318857421875,-0.482286536693573,-1.615579104423523,-0.1410790406167506,,,,,,,,,,,,,1.6904261898089254e+18,2.146925439453125,-8.581493377685547,39.80564041137696,-22.99322204589844,1.6904261898116557e+18,2.1496555786132814,38.19643020629883,72.67220306396484,95.1500473022461,1.6904261898089254e+18,2.146925439453125,0.7107218051676055,-0.0436640241444264,0.598522454470312,-1.9956207069022616,0.2562377854786969,-0.7576661142067074,-1.192995360784377
2.2,1.6904261898590213e+18,2.197021435546875,-0.9841633342836796,0.2010875712031125,0.2543914667239785,1.690426189860275e+18,2.19827490234375,0.119976806640625,0.891229248046875,-0.3365875244140625,1.6904261898590213e+18,2.197021435546875,1.9223912852139768,8.989086364062427,-3.4127624417605995,1.6904261898590213e+18,2.197021435546875,-0.5335247576236725,-1.3487770795822145,-0.5787151634693146,1.6904261898652844e+18,2.203284521484375,-0.5028431624174118,-1.389521312713623,-0.6414799690246581,,,,,,,,,,,,,1.6904261898590213e+18,2.197021435546875,-6.747866821289063,41.02081680297851,-24.88816528320313,1.690426189858462e+18,2.196461962890625,40.13041381835937,73.83992919921874,93.22163696289064,1.6904261898590213e+18,2.197021435546875,0.6969491481608783,-0.0135128139439693,0.5886599798066277,-2.0830649085562407,0.2354196444080624,-0.7731427317007797,-1.1597225739668515
2.25,1.6904261899091174e+18,2.247117529296875,-1.492885945072621,-4.768912671709656,0.983566683564782,1.690426189910371e+18,2.24837119140625,0.0668121337890625,0.3787933349609375,-0.1728851318359375,1.6904261899091174e+18,2.247117529296875,2.358868276385814,8.898162464364766,-3.3786061973977084,1.6904261899091174e+18,2.247117529296875,0.0233863495290279,-1.700137686729431,-0.2219123601913451,1.6904261899153807e+18,2.253380810546875,0.1141245505772531,-1.7925721645355224,-0.1975794419646263,,,,,,,,,,,,,1.6904261899091174e+18,2.247117529296875,-4.419132232666016,42.23932418823242,-26.567140197753908,1.690426189910469e+18,2.248469189453125,42.79075622558594,75.40820007324218,91.56637268066406,1.6904261899091174e+18,2.247117529296875,0.6709476392959779,0.0109246578849364,0.5789819831589693,-2.180203662262971,0.2107701660595234,-0.7874617941404953,-1.1369643845964783
2.3,1.6904261899592136e+18,2.2972136230468747,-2.150127940020263,2.7776802853989597,0.1432812204703688,1.6904261899604672e+18,2.2984673339843753,0.0744781494140625,1.3973907470703124,-0.4068389892578125,1.6904261899592136e+18,2.2972136230468747,2.6884053219521045,8.961390547885298,-2.9323166034549475,1.6904261899592136e+18,2.2972136230468747,0.7369704484939575,-1.9846093893051149,0.3408563941717147,1.6904261899654766e+18,2.303476708984375,0.6680486783385277,-1.8585538148880003,0.4783641874790191,,,,,,,,,,,,,1.6904261899592136e+18,2.2972136230468747,-1.831639862060547,44.53783493041992,-26.987350463867188,1.690426189962477e+18,2.3004770507812498,45.18966064453125,77.89886779785157,91.68386535644532,1.6904261899592136e+18,2.2972136230468747,0.6337589449177293,0.0310068561248874,0.5792166642326642,-2.3138400734668045,0.164944774705592,-0.7975527050517609,-1.152735771486447
2.35,1.6904261900093097e+18,2.3473097167968753,-1.4169918274983762,2.6537593066978453,-1.5353308559617402,1.690426190010563e+18,2.34856328125,0.099493408203125,1.0521575927734377,-0.331640625,1.6904261900093097e+18,2.3473097167968753,2.5014152789105473,9.099525579186675,-2.6633805370020864,1.6904261900093097e+18,2.3473097167968753,-0.4931018084287643,-1.2572375535964966,1.2822136163711548,1.690426190015573e+18,2.35357294921875,-0.547188526391983,-1.23605375289917,1.3013776779174804,1.6904261900006994e+18,2.338699462890625,76.03961187507957,1.5428868991436533,-1.0,49.28003822457941,95.22104078438132,-1.0,4.9276846681041055,3.11699919908921,-122.96822525572308,0.2399999946355819,1.6904261900093097e+18,2.3473097167968753,-1.2210426330566406,46.20296401977539,-27.09652099609375,1.6904261900144845e+18,2.352484375,45.05408935546875,79.01328735351562,90.80464782714844,1.6904261900093097e+18,2.3473097167968753,0.704931809374258,0.053445423063221,0.5959221364256115,-2.3242707537363945,0.1314152902998291,-0.7902932239625752,-1.1887897893189625
2.4,1.6904261900594058e+18,2.397405810546875,-1.0034015278823674,-3.801684894718528,1.712090100046396,1.6904261900606597e+18,2.39865947265625,0.09034423828125,0.4392364501953125,-0.113861083984375,1.6904261900594058e+18,2.397405810546875,2.2128028320243955,9.14889511632025,-2.751412865363658,1.6904261900594058e+18,2.397405810546875,-0.5984945118427276,-1.2766498565673827,0.5573411703109741,1.690426190065669e+18,2.403669091796875,-0.6713114380836487,-1.239940869808197,0.563642704486847,,,,,,,,,,,,,1.6904261900594058e+18,2.397405810546875,-1.3872169494628903,46.69134140014648,-29.374510192871092,1.6904261900612902e+18,2.399290161132813,45.22943115234375,79.37751007080078,88.71684265136719,1.6904261900594058e+18,2.397405810546875,0.8562992135624186,0.0864595694372985,0.611997521799905,-2.248153193003655,0.112277209270009,-0.777983407706974,-1.202468030458642
2.45,1.690426190109502e+18,2.447501904296875,-3.664242521856427,-7.919314976728557,3.5084582612612847,1.6904261901107556e+18,2.4487556640625003,-0.1713043212890625,0.134564208984375,0.0938690185546875,1.690426190109502e+18,2.447501904296875,1.9289850428427755,9.11671473130107,-3.04820274426043,1.690426190109502e+18,2.447501904296875,-1.0626172423362732,-1.5909899950027466,1.8413149118423464,1.690426190115765e+18,2.4537650878906248,-0.9113270618021488,-1.8542221069335936,1.946876883506775,,,,,,,,,,,,,1.690426190109502e+18,2.447501904296875,-1.7026290893554688,46.51512069702149,-32.37787780761719,1.690426190108097e+18,2.446097021484375,44.659332275390625,79.13271789550781,85.80794677734374,1.690426190109502e+18,2.447501904296875,1.045003616099578,0.1264136090743004,0.6257739156577209,-2.13489696291529,0.0998093053187579,-0.76295114074307,-1.1934559654447938
2.5,1.690426190159598e+18,2.497597998046875,2.5490627268788217,-2.4518328296786547,3.9465005436015126,1.6904261901608517e+18,2.4988515624999996,0.476287841796875,0.778668212890625,0.0576080322265625,1.690426190159598e+18,2.497597998046875,1.5817430922727287,9.248043589718938,-2.842504230582714,1.690426190159598e+18,2.497597998046875,1.1514163494110108,-3.191262865066528,0.785773167014122,1.690426190165861e+18,2.5038611328125,1.354987871646881,-3.258329725265503,0.6537239581346512,,,,,,,,,,,,,1.690426190159598e+18,2.497597998046875,-2.24296875,47.40408554077148,-33.897238159179686,1.6904261901601065e+18,2.49810654296875,44.936669921875,81.01506042480469,84.87270812988281,1.690426190159598e+18,2.497597998046875,1.236254737239577,0.1699151859381145,0.6454379516278623,-2.0812370471398323,0.0474553481535636,-0.7427776573493912,-1.2322182522757377
2.55,1.6904261902096942e+18,2.547693994140625,1.7307352377358078,5.116339389649033,-1.3030325631022452,1.6904261902109476e+18,2.54894765625,0.34110107421875,1.574859619140625,-0.380352783203125,1.6904261902096942e+18,2.547693994140625,1.5752678172309698,9.513339955269098,-1.7312888384175298,1.6904261902096942e+18,2.547693994140625,2.5744836807250975,-1.527798095345497,1.1695655941963197,1.6904261902159575e+18,2.553957470703125,2.6658676147460936,-1.0538976073265076,1.262794029712677,,,,,,,,,,,,,1.6904261902096942e+18,2.547693994140625,0.8814041137695312,52.02916030883789,-30.710116577148437,1.6904261902121157e+18,2.550115576171875,47.50440673828125,86.24435119628906,89.53731689453124,1.6904261902096942e+18,2.547693994140625,1.1359556302983378,0.1818622237047499,0.6462178471719018,-2.322451918334269,-0.039569007313328,-0.7397065831477956,-1.3287709465425848
2.6,1.69042619025979e+18,2.5977900390624997,2.7798429579386115,3.722710960533619,-5.33201341234833,1.6904261902610437e+18,2.599043701171875,0.412481689453125,1.3601806640625,-0.5738433837890625,1.69042619025979e+18,2.5977900390624997,0.9671126261788606,9.733180859163404,-0.6736318133778869,1.69042619025979e+18,2.5977900390624997,0.8325204774737358,-0.3966251164674759,1.2023986101150512,1.6904261902660534e+18,2.6040533203125,0.4536025732755661,-0.4687558114528656,1.0870649337768554,,,,,,,,,,,,,1.69042619025979e+18,2.5977900390624997,-0.7954460144042969,57.24059829711914,-24.402879333496095,1.690426190264126e+18,2.60212578125,45.05917053222656,90.82636108398438,94.87109985351564,1.69042619025979e+18,2.5977900390624997,0.945276673888937,0.1486181974949266,0.6653466093221734,-2.5344920770971795,-0.0889259045678638,-0.7260721261090889,-1.450197180632099
2.65,1.6904261903098865e+18,2.64788642578125,4.827836336034536,1.2713007401812075,-1.0059367016092686,1.6904261903111398e+18,2.64913984375,0.5177947998046875,1.144366455078125,-0.0409912109375,1.6904261903098865e+18,2.64788642578125,0.6326794499079883,9.752860775954128,-0.7985730019722134,1.6904261903098865e+18,2.64788642578125,-0.7176230549812317,0.2504814662039279,0.3023197650909424,1.6904261903161495e+18,2.6541496093749997,-0.6155041262507439,0.5122117400169373,0.2857287406921386,,,,,,,,,,,,,1.6904261903098865e+18,2.64788642578125,-1.662696075439453,59.2252311706543,-24.397267150878907,1.6904261903161352e+18,2.6541351562499997,44.9266357421875,92.16636352539062,93.50248413085936,1.6904261903098865e+18,2.64788642578125,1.247657794227374,0.1563805359199408,0.6777381810738548,-2.246930658176203,-0.0915901624577525,-0.7125920541777552,-1.4662193259006675
2.7,1.6904261903599823e+18,2.69798232421875,-1.7961789514791964,5.751123498299121,6.556975887463689,1.690426190361236e+18,2.699235888671875,-0.246148681640625,1.630328369140625,0.5610626220703125,1.6904261903599823e+18,2.69798232421875,0.3433774973475001,9.767344059336782,-0.7782706278211624,1.6904261903599823e+18,2.69798232421875,1.136844617128372,2.792207646369934,0.6290243983268737,1.6904261903662454e+18,2.704245361328125,1.2505343675613405,2.613923442363739,0.5296803146600724,,,,,,,,,,,,,1.6904261903599823e+18,2.69798232421875,-2.894753265380859,60.815792083740234,-24.333676147460935,1.690426190362945e+18,2.7009450073242185,42.96488571166992,93.87266540527344,94.7600326538086,1.6904261903599823e+18,2.69798232421875,1.4475293709254475,0.1260297249257863,0.6913164233403475,-1.968022228268729,-0.0668286219786952,-0.7079118317434983,-1.4836987303100797
2.75,1.690426190410078e+18,2.7480779296875,-3.0704275451479477,0.7867766341990231,-1.123175294550061,1.6904261904113316e+18,2.7493315429687497,-0.437994384765625,0.9156463623046877,-0.30396728515625,1.690426190410078e+18,2.7480779296875,0.2224350047342106,9.797301507609486,-0.3600623714678734,1.690426190410078e+18,2.7480779296875,-0.1368546977639198,-0.6634166270494462,-0.0856271892786026,1.6904261904163412e+18,2.754341162109375,-0.5029457569122315,-0.6362936168909072,0.0824238829314708,,,,,,,,,,,,,1.690426190410078e+18,2.7480779296875,-3.0033950805664062,62.51198196411133,-21.077761840820312,1.6904261904097562e+18,2.74775615234375,44.07247314453125,95.25677490234376,97.35574645996094,1.690426190410078e+18,2.7480779296875,1.2321592779863002,0.0918903628759827,0.6960540733854915,-2.130824093230403,-0.0642928137271114,-0.7091306677051702,-1.527279294400122
2.8,1.6904261904601743e+18,2.79817421875,-9.562885667300224,-2.346320549562573,-3.55292243224442,1.690426190461428e+18,2.799427880859375,-0.828863525390625,0.84097900390625,-0.39874267578125,1.6904261904601743e+18,2.79817421875,-0.1869018615212896,9.734736973338126,-1.087309696292542,1.6904261904601743e+18,2.79817421875,-2.430367040634155,1.7396413087844849,1.6321866512298584,1.6904261904664376e+18,2.804437451171875,-2.4581532955169676,2.1261928558349608,1.767751169204712,,,,,,,,,,,,,1.6904261904601743e+18,2.79817421875,-3.123185729980469,61.822112274169925,-24.34632110595703,1.690426190461769e+18,2.799768994140625,41.680426025390624,93.69403381347657,92.0551300048828,1.6904261904601743e+18,2.79817421875,1.8780210942265505,0.110949956712006,0.7126534623735861,-1.46919233101606,-0.0339330698801048,-0.6914066909254973,-1.455936837033578
2.85,1.6904261905102702e+18,2.84827021484375,5.99457498027049,0.8523961136746404,-0.1206292436793446,1.6904261905115238e+18,2.84952392578125,0.6541961669921875,1.0138641357421876,-0.1990020751953125,1.6904261905102702e+18,2.84827021484375,-1.183606104728356,9.515605211400388,-2.034930249096453,1.6904261905102702e+18,2.84827021484375,-1.723036289215088,2.7643675327301027,0.8203029870986939,1.6904261905165335e+18,2.854533349609375,-1.5967661619186402,2.532298707962036,0.4999121397733688,,,,,,,,,,,,,1.6904261905102702e+18,2.84827021484375,-10.923101806640624,58.659227752685545,-31.036880493164062,1.6904261905137823e+18,2.8517825683593747,33.852133178710936,90.56359558105468,86.12711181640626,1.6904261905102702e+18,2.84827021484375,2.1634480938945955,0.0970660348872355,0.7466769415453932,-1.04805903740459,0.0479710821322524,-0.6558488212124478,-1.328096650853468
2.9,1.6904261905603663e+18,2.898366357421875,2.226089189933538,-0.8177165468639134,-0.1780217529141902,1.69042619056162e+18,2.899619921875,-0.1323699951171875,0.8862762451171875,-0.3165191650390625,1.6904261905603663e+18,2.898366357421875,-1.3356856801997126,9.384828609263897,-2.5104571311177315,1.6904261905603663e+18,2.898366357421875,-0.8479662656784057,1.284616756439209,-0.4369118757545948,1.6904261905666296e+18,2.9046295898437497,-0.7718790888786315,1.1835098266601562,-0.3414472311735153,,,,,,,,,,,,,1.6904261905603663e+18,2.898366357421875,-13.535667419433594,57.020348358154294,-34.685586547851564,1.6904261905657943e+18,2.90379423828125,32.98793334960938,89.49622497558593,83.13229675292969,1.6904261905603663e+18,2.898366357421875,2.032456922372793,0.0824389090136071,0.74672975136921,-1.0813406445747038,0.1018715784905598,-0.6519903640725827,-1.2765209449826278
2.95,1.6904261906104625e+18,2.948462451171875,-0.7535187707544863,-0.9688865332096814,-0.5195232309100032,1.690426190611716e+18,2.949716015625,-0.13521728515625,0.8436492919921875,-0.3405853271484375,1.6904261906104625e+18,2.948462451171875,-1.4008438257738949,9.313217429705858,-2.7328499699041244,1.6904261906104625e+18,2.948462451171875,-0.5195312261581421,0.6461430549621582,0.0191835284233093,1.6904261906167258e+18,2.954725732421875,-0.5708509147167206,0.6874065160751343,-0.0028895832598209,,,,,,,,,,,,,1.6904261906104625e+18,2.948462451171875,-13.578829956054689,56.49294357299805,-36.66628723144531,1.6904261906126072e+18,2.950607238769531,32.87568664550781,89.05856704711914,81.50407791137695,1.6904261906104625e+18,2.948462451171875,1.9679522478875433,0.0749781376772476,0.7449250362790704,-1.0971332183713158,0.128374987268497,-0.6503480892525688,-1.2522796856043503
3.0,1.6904261906605583e+18,2.998558544921875,-0.7158127249555288,-0.2793642876780032,1.1100056656622883,1.6904261906618122e+18,2.9998122070312503,-0.303460693359375,0.9355804443359376,-0.13431396484375,1.6904261906605583e+18,2.998558544921875,-1.5444034247942269,9.20578593041718,-3.004327946698665,1.6904261906605583e+18,2.998558544921875,-0.6673941358923912,1.0342133283615111,0.2559898789972067,1.6904261906668216e+18,3.004821728515625,-0.5319376587867737,1.0546871662139892,0.3293415650725365,,,,,,,,,,,,,1.6904261906605583e+18,2.998558544921875,-13.873181915283205,55.64714736938477,-38.88386535644531,1.6904261906594176e+18,2.997417578125,32.44371643066406,88.15210571289063,79.36642456054688,1.6904261906605583e+18,2.998558544921875,1.9247191359141091,0.0712810882068869,0.7447037483005049,-1.096245055474194,0.1551984887190577,-0.6451084056962976,-1.219083805707188
3.05,1.6904261907106545e+18,3.048654638671875,-1.680980266868174,-0.2761646148538589,2.3560429606059192,1.690426190711908e+18,3.049908203125,-0.32347412109375,0.8801666259765625,-0.0605255126953125,1.6904261907106545e+18,3.048654638671875,-1.9876249510163069,9.158891843486428,-2.8783379358646273,1.6904261907106545e+18,3.048654638671875,0.7766046941280365,1.2224321126937867,0.9068416714668274,1.6904261907169183e+18,3.05491806640625,0.8413094282150269,1.2560256242752077,0.9539337038993836,,,,,,,,,,,,,1.6904261907106545e+18,3.048654638671875,-15.854955291748048,55.31429214477539,-39.31607208251953,1.6904261907114317e+18,3.049431787109375,29.5804931640625,88.15780639648438,79.73193664550782,1.6904261907106545e+18,3.048654638671875,2.004116180187874,0.0519157899192225,0.7563670300811939,-0.9661015215804152,0.1709312573318114,-0.629159376397334,-1.2053069637511753
3.1,1.6904261907607508e+18,3.09875087890625,1.2573289134520294,-0.6578922463238239,0.1153027002812922,1.6904261907620045e+18,3.1000043945312497,-0.1209014892578125,0.8696563720703125,-0.29344482421875,1.6904261907607508e+18,3.09875087890625,-2.6081372855295237,9.159432993851896,-2.3280836711870134,1.6904261907607508e+18,3.09875087890625,0.8222144722938538,1.3853704929351809,0.9214473128318786,1.6904261907620045e+18,3.100004455566406,0.8259775340557098,1.3875944316387177,0.9252589046955108,,,,,,,,,,,,,1.6904261907607508e+18,3.09875087890625,-20.136531829833984,56.20434036254883,-36.27919921875,1.690426190763445e+18,3.101445068359375,25.074911499023436,89.10089416503907,83.160791015625,1.6904261907607508e+18,3.09875087890625,2.188217596639528,0.0177607990618621,0.7764594222405004,-0.7290960551330403,0.1733770707320182,-0.6054424849626686,-1.2054623781815748
3.15,1.6904261908108467e+18,3.1488466796875003,3.014103432329595,-0.0126308166098594,-5.430971682324111,1.6904261908121004e+18,3.150100341796875,0.0136932373046875,0.959686279296875,-0.795513916015625,1.6904261908108467e+18,3.1488466796875003,-3.047801762244105,9.137232618672847,-1.8380339044250549,1.6904261908108467e+18,3.1488466796875003,0.3703935511410236,0.9853557705879212,0.3386004149913788,1.6904261908070907e+18,3.14509072265625,0.4325366765260696,1.102549469470978,0.3853329882025719,,,,,,,,,,,,,1.6904261908108467e+18,3.1488466796875003,-23.801166534423828,57.03276901245117,-33.23698272705078,1.690426190815458e+18,3.15345810546875,22.246981811523437,89.78512878417969,85.61242370605468,1.6904261908108467e+18,3.1488466796875003,2.315772865327597,-0.0154720621204917,0.789168764180053,-0.5427931539640556,0.180551856013673,-0.5867770863635196,-1.1991736750302369
3.2,1.6904261908609428e+18,3.19894306640625,3.663237962536812,1.3785851737624406,-4.546843745728433,1.6904261908621967e+18,3.2001966796874997,0.0837554931640625,1.0861053466796875,-0.5827484130859375,1.6904261908609428e+18,3.19894306640625,-3.1116139000368115,9.12612401396811,-1.7886327738833423,1.6904261908609428e+18,3.19894306640625,-0.3701056003570556,0.181239803880453,-0.2828539997339249,1.690426190857187e+18,3.195187060546875,-0.3315521538257598,0.1754371181130409,-0.217531744018197,,,,,,,,,,,,,1.6904261908609428e+18,3.19894306640625,-23.856325531005854,57.13041610717774,-33.523641967773436,1.6904261908622684e+18,3.200268493652344,22.916812896728516,89.74958038330078,84.63036346435547,1.6904261908609428e+18,3.19894306640625,2.315478213087346,-0.0231443957891668,0.7896057179991698,-0.521725037792381,0.1875086961874815,-0.5837928351100086,-1.196065648584003
3.25,1.6904261909110392e+18,3.2490392578124996,4.115304561671913,2.7915221144598723,-3.971264865597486,1.6904261909122924e+18,3.250292578125,0.11715087890625,1.2344329833984375,-0.7060577392578125,1.6904261909110392e+18,3.2490392578124996,-2.7112548086896537,9.207708072199225,-1.9954746123772855,1.6904261909110392e+18,3.2490392578124996,-0.6436544477939605,-0.378178533911705,-1.514518427848816,1.6904261909072832e+18,3.2452832519531247,-0.593956983089447,-0.2368829652667045,-1.430044949054718,,,,,,,,,,,,,1.6904261909110392e+18,3.2490392578124996,-19.78647117614746,56.75019760131836,-35.8765380859375,1.6904261909090808e+18,3.2470806640625,27.192233276367187,89.35103759765624,82.35381164550782,1.6904261909110392e+18,3.2490392578124996,2.187520097994308,-0.0222349803483704,0.7739515791107549,-0.6365127583019118,0.1979296042093961,-0.6009829187631501,-1.2197022540619762
3.3,1.690426190961135e+18,3.29913515625,2.3058736806228755,3.1041952651172875,-3.963143693818748,1.6904261909623887e+18,3.30038876953125,0.0676910400390625,1.2572479248046875,-0.5358734130859375,1.690426190961135e+18,3.29913515625,-1.56313248521395,9.313780207381248,-2.5930182176874577,1.690426190961135e+18,3.29913515625,-1.3570209980010983,-1.89853675365448,-2.8492193698883055,1.690426190957379e+18,3.2953791992187496,-1.3202428340911865,-1.860460901260376,-2.738235259056091,,,,,,,,,,,,,1.690426190961135e+18,3.29913515625,-11.294615173339844,55.34430465698242,-39.75010681152344,1.690426190961091e+18,3.299091064453125,38.465087890625,87.12093811035156,77.41890563964844,1.690426190961135e+18,3.29913515625,1.8402044154335573,0.0074360387686743,0.7355686987696677,-1.0305232808025628,0.1959519027876712,-0.6479039866673256,-1.2524498583825474
3.35,1.6904261910112315e+18,3.3492314453125,-2.2443746639977022,4.96631681977272,4.019402464396357,1.690426191012485e+18,3.3504850585937502,-0.26641845703125,1.5726287841796875,0.1147552490234375,1.6904261910112315e+18,3.3492314453125,0.155254216145575,9.202627641742826,-3.347469710021317,1.6904261910112315e+18,3.3492314453125,-1.3803532600402837,-0.9956137195229532,-3.151946783065796,1.6904261910074757e+18,3.345475537109375,-1.4095362663269042,-1.1415356397628784,-3.187613868713379,1.6904261910006587e+18,3.33865869140625,76.15423590037972,2.068362905843313,-1.0,49.28003445272297,95.33566480968148,-1.0,5.286757589710095,3.0165493580615337,-122.96822416607569,0.3899999856948852,1.6904261910112315e+18,3.3492314453125,2.169251251220703,50.46503372192383,-44.320611572265626,1.690426191013105e+18,3.35110478515625,52.08896179199219,81.26293029785157,73.20292053222656,1.6904261910112315e+18,3.3492314453125,1.3153633757513106,0.0459311774999417,0.67308966301447,-1.6092178203230365,0.1967108921759236,-0.7109755234193997,-1.2186068945775057
3.4,1.6904261910613274e+18,3.3993274414062498,-2.4992979652695357,6.042444648848176,3.178404702927172,1.6904261910625812e+18,3.40058115234375,-0.027484130859375,1.386077880859375,-0.0715240478515625,1.6904261910613274e+18,3.3993274414062498,1.4393851095140726,8.854757271689177,-3.94544705979973,1.6904261910613274e+18,3.3993274414062498,-1.2029162168502807,0.9469908475875854,-2.708154582977295,1.6904261910575713e+18,3.395571337890625,-1.2157813549041747,0.9094821691513062,-2.730138349533081,,,,,,,,,,,,,1.6904261910613274e+18,3.3993274414062498,10.57800064086914,43.65206527709961,-47.30881958007812,1.690426191065117e+18,3.403116845703125,58.01255493164062,74.35948791503907,70.4507843017578,1.6904261910613274e+18,3.3993274414062498,0.9754023347439188,0.0525102025930705,0.613408845312319,-1.9175860416344537,0.2234806696211493,-0.7553369343513145,-1.1274629476927829
3.45,1.6904261911114235e+18,3.449423681640625,-3.0781818198430537,1.0914876614838838,3.389666462142169,1.690426191112677e+18,3.4506771972656254,-0.1228729248046875,0.893304443359375,-0.197479248046875,1.6904261911114235e+18,3.449423681640625,2.392423164628595,8.445067398964763,-4.364196788005531,1.6904261911114235e+18,3.449423681640625,-0.5074796557426453,-0.5528914898633956,-1.9259605646133424,1.6904261911076677e+18,3.4456676757812503,-0.5675487041473388,-0.3857945162802935,-2.0093889236450195,,,,,,,,,,,,,1.6904261911114235e+18,3.449423681640625,13.866876983642578,37.53516616821289,-49.09581604003906,1.6904261911119283e+18,3.4499284057617188,61.07999801635742,69.29473495483398,69.25920867919922,1.6904261911114235e+18,3.449423681640625,0.7797396542180455,0.0495284836174845,0.5627663993613963,-2.070853087859851,0.2473286083500366,-0.7870524882339913,-1.03785651852532
3.5,1.6904261911615196e+18,3.4995197265625,-4.322613608512282,-3.274319308971166,-1.105756425333023,1.6904261911627735e+18,3.5007733886718753,-0.229510498046875,0.4010589599609375,-0.557000732421875,1.6904261911615196e+18,3.4995197265625,3.2714391942641137,8.1645366394037,-4.33117632812649,1.6904261911615196e+18,3.4995197265625,-0.3326879560947418,-1.517020320892334,-0.9193732529878617,1.6904261911577636e+18,3.495763623046875,-0.3508009493350982,-1.4522385120391843,-1.029790425300598,,,,,,,,,,,,,1.6904261911615196e+18,3.4995197265625,18.852195739746097,33.69670639038086,-48.1029052734375,1.69042619115874e+18,3.496739990234375,65.72569580078125,66.0697509765625,70.49397888183594,1.6904261911615196e+18,3.4995197265625,0.6817816976713992,0.0651104683516175,0.5297609026514232,-2.2170512918028895,0.2290377367676979,-0.8139307190228872,-0.9838143906961748
3.55,1.690426191211616e+18,3.549616015625,-5.355529838562012,-4.088081915964485,3.8311502340123056,1.6904261912128694e+18,3.5508693847656247,-0.0205169677734375,0.46356201171875,0.1022705078125,1.690426191211616e+18,3.549616015625,3.816476981015503,8.023699831023812,-4.14464066317588,1.690426191211616e+18,3.549616015625,-0.0162757664918899,-2.013471579551697,-0.4900408327579498,1.69042619120786e+18,3.545859912109375,-0.0266809862107038,-1.9589818954467773,-0.4254660397768021,,,,,,,,,,,,,1.690426191211616e+18,3.549616015625,22.35529479980469,31.57689971923828,-46.495706176757814,1.6904261912107512e+18,3.5487512695312504,69.70058898925781,63.992645263671875,72.4752197265625,1.690426191211616e+18,3.549616015625,0.6552867094765248,0.0860724886623358,0.5143937758221087,-2.3147099448451782,0.2016260154422087,-0.8289185398015174,-0.9582788281544532
3.6,1.690426191261712e+18,3.5997121093749995,-3.2081642320880293,-2.4621826080662013,1.9818118808233736,1.6904261912629658e+18,3.6009657226562504,0.1135223388671875,0.5685638427734375,-0.264324951171875,1.690426191261712e+18,3.5997121093749995,4.213608400940001,8.02373279805839,-3.745709792613983,1.690426191261712e+18,3.5997121093749995,-0.0700945284217595,-0.9572583496570588,0.59935138002038,1.6904261912579558e+18,3.5959560546874996,-0.0397938579320907,-1.1631408706307411,0.4980902776122093,,,,,,,,,,,,,1.690426191261712e+18,3.5997121093749995,26.529867553710936,30.693544769287108,-43.69593353271485,1.690426191262763e+18,3.600763037109375,73.64849243164062,63.27374267578125,75.41173706054687,1.690426191261712e+18,3.5997121093749995,0.6493041541961782,0.1092927727276335,0.5089820053828686,-2.414931828506032,0.1614230064121082,-0.8383706553577692,-0.9582854707189874
3.65,1.690426191311808e+18,3.649808203125,-3.311013313570321,-2.158871276898384,1.6593005253362656,1.6904261913130616e+18,3.65106171875,0.071563720703125,0.652203369140625,-0.210382080078125,1.690426191311808e+18,3.649808203125,3.743286423311531,8.220450483614206,-3.8109094684684273,1.690426191311808e+18,3.649808203125,-0.1052127808332442,0.8382115662097931,1.5072707414627076,1.690426191308052e+18,3.6460521972656257,-0.1151498116552829,0.7806684255599976,1.461643147468567,,,,,,,,,,,,,1.690426191311808e+18,3.649808203125,25.77813720703125,31.083080291748047,-42.9901123046875,1.690426191314778e+18,3.652778125,71.09082336425782,64.04308776855468,75.24640197753907,1.690426191311808e+18,3.649808203125,0.7258218256838747,0.1148683157573764,0.5318220530821345,-2.3464318291192896,0.1618745337698883,-0.8231720906048994,-0.9942194215832616
3.7,1.690426191361904e+18,3.699904150390625,2.6360008887150883,-1.2950207553690671,1.4782110261884331,1.6904261913631578e+18,3.701157763671875,0.7190185546875,0.7902679443359375,-0.293634033203125,1.690426191361904e+18,3.699904150390625,2.9008001183980703,8.498634855405687,-3.934183147628903,1.690426191361904e+18,3.699904150390625,0.2901955172419548,0.6947905004024506,1.4201464533805848,1.690426191358148e+18,3.69614814453125,0.2529658395797014,0.7441945850849152,1.4842015027999875,,,,,,,,,,,,,1.690426191361904e+18,3.699904150390625,21.222254943847656,32.498522186279295,-43.64105224609375,1.6904261913615864e+18,3.6995864257812503,66.88166427612305,65.44723510742188,74.78532028198242,1.690426191361904e+18,3.699904150390625,0.8395524845824575,0.1083719821464558,0.5670700183679938,-2.2052262128931246,0.1744897854706368,-0.7975631539621598,-1.048597500500371
3.75,1.690426191412e+18,3.7499999023437502,7.452622996939421,3.13163190428853,-2.192518168886602,1.6904261914132536e+18,3.751253662109375,0.986773681640625,1.2311676025390623,-0.677886962890625,1.690426191412e+18,3.7499999023437502,2.408165917326957,8.708653102752566,-3.810643218747676,1.690426191412e+18,3.7499999023437502,0.3132761672139167,0.0294884741306304,0.5934305548667907,1.690426191408244e+18,3.74624384765625,0.3615682673640549,0.1231033489108085,0.6411215662956238,,,,,,,,,,,,,1.690426191412e+18,3.7499999023437502,18.401290893554688,33.682036590576175,-42.912156677246095,1.6904261914083963e+18,3.746396337890625,64.75435791015624,66.374951171875,75.65513305664062,1.690426191412e+18,3.7499999023437502,0.8972481811584052,0.0984544574344104,0.5889794226545998,-2.1342126965322996,0.1740801667043326,-0.7829941320624392,-1.0931289433027165
3.8,1.690426191462096e+18,3.80009599609375,4.717501341163218,1.8298753524714704,-2.7819053849741815,1.6904261914633495e+18,3.801349560546875,0.612530517578125,1.098077392578125,-0.5764068603515625,1.690426191462096e+18,3.80009599609375,2.3676000105044244,8.735048825342655,-3.7765913115420937,1.690426191462096e+18,3.80009599609375,-0.3180591464042663,-0.8483270049095154,0.2161354884505271,1.69042619145834e+18,3.7963400390625,-0.3100215107202529,-0.8586352348327637,0.1985367931425571,,,,,,,,,,,,,1.690426191462096e+18,3.80009599609375,18.292559814453124,33.01437911987305,-41.80209503173828,1.690426191460409e+18,3.7984094726562505,64.83774108886719,65.54205322265625,76.74225463867188,1.690426191462096e+18,3.80009599609375,0.9316028712221242,0.1092178155447423,0.5937001054231441,-2.1307496175540264,0.163684768434478,-0.7802245783132492,-1.098950482735174
3.85,1.6904261915121925e+18,3.8501921875,0.424697355337739,8.48304320161581,2.80505134121418,1.690426191513446e+18,3.851445898437499,0.2463470458984375,1.8899322509765624,-0.048748779296875,1.6904261915121925e+18,3.8501921875,2.21835143528834,8.753861779266595,-3.8220183069819207,1.6904261915121925e+18,3.8501921875,0.2034261047840118,1.2578834258019924,0.1781639084219932,1.6904261915084362e+18,3.846436328125,0.1837132677435874,1.1214680135250092,0.2517062157392501,,,,,,,,,,,,,1.6904261915121925e+18,3.8501921875,17.82850036621094,32.11777114868164,-41.306321716308595,1.690426191512421e+18,3.850421044921875,63.41181335449219,64.69226379394532,77.05053405761718,1.6904261915121925e+18,3.8501921875,0.9682106354637046,0.1119707728685847,0.5997210144239234,-2.0964863510524525,0.1648565605737259,-0.7749222427939897,-1.1032024276705654
3.9,1.6904261915622884e+18,3.9002884277343752,-2.6190502799838784,0.0257186124330758,4.151281883982122,1.690426191563542e+18,3.901541943359375,-0.179888916015625,0.5874969482421875,0.0563812255859375,1.6904261915622884e+18,3.9002884277343752,2.038545955375582,8.759264748901725,-3.909766616157293,1.6904261915622884e+18,3.9002884277343752,0.1588191285729408,1.3220197439193726,-0.2260542929172516,1.6904261915585326e+18,3.89653251953125,0.1161625627428293,1.3466415643692016,-0.2875283367931843,,,,,,,,,,,,,1.6904261915622884e+18,3.9002884277343752,14.321624755859377,31.40851287841797,-41.98079833984375,1.6904261915644296e+18,3.902429443359375,59.92704772949219,63.804473876953125,76.36402282714843,1.6904261915622884e+18,3.9002884277343752,0.9376437292600102,0.0862852140846311,0.5995653809449648,-2.0513901586337795,0.1911333154421688,-0.7722972227811755,-1.104412084890868
3.95,1.6904261916123848e+18,3.9503846191406256,-8.303822243592737,-3.162248693252802,3.179699944982528,1.690426191613638e+18,3.951638037109375,-0.7350311279296875,0.7585723876953125,-0.2446044921875,1.6904261916123848e+18,3.9503846191406256,1.5372095385412872,8.91683244423449,-3.7712771892341967,1.6904261916123848e+18,3.9503846191406256,0.9123070716857912,1.6198922395706177,1.2470886945724486,1.6904261916086287e+18,3.94662861328125,0.904713487625122,1.60012948513031,1.119185346364975,,,,,,,,,,,,,1.6904261916123848e+18,3.9503846191406256,10.362135314941408,31.81693649291992,-41.86546020507812,1.6904261916112358e+18,3.9492357177734374,55.9479866027832,64.79479217529297,76.7451400756836,1.6904261916123848e+18,3.9503846191406256,0.961827091965806,0.0548293257687895,0.6146017646404817,-1.9557951565197689,0.209264176644685,-0.7584190492271782,-1.1419046862180522
4.0,1.6904261916624806e+18,4.0004806640625,-3.206351337447166,1.223104689193368,-3.968041694993377,1.6904261916637343e+18,4.00173447265625,-0.07220458984375,0.98243408203125,-0.6744140625,1.6904261916624806e+18,4.0004806640625,0.4300648591072112,9.130081460970043,-3.5395162473478914,1.6904261916624806e+18,4.0004806640625,0.3421445220708846,0.1256633311510086,2.283429479598999,1.6904261916587249e+18,3.9967247070312504,0.3902958989143371,0.2950971066951752,2.322463774681091,,,,,,,,,,,,,1.6904261916624806e+18,4.0004806640625,4.298312377929688,33.510834503173825,-41.05021209716797,1.6904261916580403e+18,3.996040234375001,50.33460388183594,66.24609680175782,77.482080078125,1.6904261916624806e+18,4.0004806640625,1.1878946375534778,0.0352507762250645,0.6560312653187881,-1.6898853831946332,0.2180139263202358,-0.7214950680320106,-1.1972653570586052
4.05,1.690426191712577e+18,4.050576904296875,2.5262797441192713,-1.2440063736379146,0.9937219330674408,1.6904261917138304e+18,4.05183037109375,0.111334228515625,0.777349853515625,-0.2697662353515625,1.690426191712577e+18,4.050576904296875,-0.3697623697500117,9.161571058019994,-3.472019926536679,1.690426191712577e+18,4.050576904296875,-0.0186505548655986,0.7624736279249191,1.351408839225769,1.6904261917088207e+18,4.04682080078125,0.0069658175110816,0.544477355480194,1.3775206327438354,,,,,,,,,,,,,1.690426191712577e+18,4.050576904296875,0.6999420166015625,33.6995231628418,-40.52708435058594,1.6904261917100508e+18,4.048050634765625,46.899252319335936,66.31808776855469,77.97347717285156,1.690426191712577e+18,4.050576904296875,1.4317426863084666,0.0431155151152424,0.6880826896393635,-1.465051786300553,0.2129155628747658,-0.6922600519764563,-1.2060750306021428
4.1,1.6904261917626732e+18,4.100672998046875,0.2094191854751855,-2.149639922694564,0.1803214958369731,1.6904261917639265e+18,4.101926611328125,-0.0669677734375,0.7676239013671875,-0.2891204833984375,1.6904261917626732e+18,4.100672998046875,-1.2186051127517967,9.107787913001776,-3.4183592973065373,1.6904261917626732e+18,4.100672998046875,0.0194717340171337,2.3477999687194826,0.7610508859157562,1.690426191758917e+18,4.09691708984375,-0.0124102786183357,2.4006520748138427,0.8312138378620147,,,,,,,,,,,,,1.6904261917626732e+18,4.100672998046875,-4.649658966064453,33.15882339477539,-40.600416564941405,1.6904261917620628e+18,4.10006298828125,40.92329406738281,65.70218505859376,77.956201171875,1.6904261917626732e+18,4.100672998046875,1.581339096370471,0.0167623948960982,0.708227775144565,-1.228885508252448,0.2457745222501046,-0.6613674990367676,-1.1910047225730729
4.15,1.6904261918127693e+18,4.150769140625,1.7786969246719777,0.2542962481081485,1.4432544544541837,1.690426191814023e+18,4.1520228515625,-0.02646484375,0.9250091552734376,-0.205950927734375,1.6904261918127693e+18,4.150769140625,-1.698940052641928,9.132739515811204,-3.1395761412912604,1.6904261918127693e+18,4.150769140625,0.6130099654197693,1.369980311393738,0.1676373660564422,1.690426191809013e+18,4.14701298828125,0.5867736399173736,1.3918541431427005,0.1871476277709007,,,,,,,,,,,,,1.6904261918127693e+18,4.150769140625,-8.884422302246094,33.042842864990234,-39.64861297607422,1.690426191814074e+18,4.15207421875,36.609841918945314,65.84833679199218,79.2861083984375,1.6904261918127693e+18,4.150769140625,1.652025862230575,-0.0176913461235511,0.7171583831277368,-1.0741655305919433,0.268877042398408,-0.6426251093598975,-1.1979742002675635
4.2,1.6904261918628654e+18,4.2008654296875,-1.0817812371142208,-1.2493279778259994,-1.4325304067006708,1.6904261918641188e+18,4.20211904296875,-0.33193359375,0.8233306884765625,-0.4162261962890625,1.6904261918628654e+18,4.2008654296875,-2.032536310471147,9.199005359592435,-2.7179676918795703,1.6904261918628654e+18,4.2008654296875,0.5373265683650971,1.5800329446792605,0.5052916228771209,1.6904261918591094e+18,4.197109423828126,0.5491450369358063,1.5992411613464357,0.4578752607107162,,,,,,,,,,,,,1.6904261918628654e+18,4.2008654296875,-12.33194580078125,33.45875015258789,-37.74449920654297,1.690426191866084e+18,4.204084277343751,33.04555053710938,66.0921875,81.27415161132812,1.6904261918628654e+18,4.2008654296875,1.7279561639847285,-0.0526206477941697,0.7240302361365558,-0.9285039777392488,0.2817459150615306,-0.6272731955707092,-1.216927352280774
4.25,1.6904261919129615e+18,4.2509616699218755,0.8872652117080986,-0.2163988882946967,-0.0496906734597683,1.690426191914215e+18,4.252215087890625,-0.1555694580078125,0.926934814453125,-0.22017822265625,1.6904261919129615e+18,4.2509616699218755,-2.5359425777690108,9.193248520405293,-2.2759170799069106,1.6904261919129615e+18,4.2509616699218755,0.8122952818870545,1.2279038429260254,0.8151695847511291,1.6904261919092055e+18,4.2472056640625,0.7801870465278625,1.234964275360107,0.8109674334526062,,,,,,,,,,,,,1.6904261919129615e+18,4.2509616699218755,-16.396100997924805,33.47196731567383,-35.743708801269534,1.690426191912894e+18,4.250893981933594,29.379554748535156,66.1381607055664,83.12101745605469,1.6904261919129615e+18,4.2509616699218755,1.8644043421122145,-0.0821625374623086,0.7372240121582468,-0.7315533703009581,0.2928750702692012,-0.6031859000619129,-1.215233840099571
4.3,1.6904261919630577e+18,4.301057568359375,1.8164080265852809,-0.4444727830052375,-1.4623021231429276,1.6904261919643113e+18,4.302311328125,-0.079901123046875,0.8869720458984375,-0.370294189453125,1.6904261919630577e+18,4.301057568359375,-3.018386925641596,9.17229551493883,-1.7011864287161824,1.6904261919630577e+18,4.301057568359375,0.8274186849594116,0.9918204188346864,0.6312792927026749,1.6904261919593016e+18,4.2973015625,0.8564336657524109,1.0307133078575137,0.6869997918605805,,,,,,,,,,,,,1.6904261919630577e+18,4.301057568359375,-20.18217239379883,33.666455841064455,-33.20797576904297,1.690426191959703e+18,4.29770322265625,26.02912292480469,66.31351013183594,85.46389770507812,1.6904261919630577e+18,4.301057568359375,2.035400395142845,-0.1111356725878791,0.7528764033482138,-0.5135847297917775,0.2950560164503973,-0.5776360317212725,-1.2091533429095536
4.35,1.6904261920131538e+18,4.351153857421875,2.441915714393854,1.1598068137592077,-4.861375149925351,1.6904261920144074e+18,4.3524075195312495,-0.1159912109375,1.0843902587890626,-0.6550872802734375,1.6904261920131538e+18,4.351153857421875,-3.1536519544646144,9.19466610289216,-1.294985201825127,1.6904261920131538e+18,4.351153857421875,0.3092464983463287,0.6018245935440063,-0.2077126488089561,1.6904261920093978e+18,4.347397802734375,0.3764104433357715,0.6351390540599823,-0.1788042068481445,1.6904261920223828e+18,4.3603828125,76.15002447366714,4.371512991973716,-1.0,49.28002171223015,95.3314533829689,-1.0,6.245332153239154,3.0000000000000004,-122.96821570035344,0.5,1.6904261920131538e+18,4.351153857421875,-22.264253997802733,33.45121841430664,-31.410556030273437,1.6904261920117146e+18,4.349714697265625,24.121270751953126,66.06012573242188,87.16689758300781,1.6904261920131538e+18,4.351153857421875,2.125302228059959,-0.1338563077219717,0.7573422584410263,-0.389408120069176,0.2953358789284097,-0.5668025017237219,-1.2156815658301965
4.4,1.69042619206325e+18,4.40125009765625,3.245164759966135,1.5315141033786537,-3.695494803019166,1.6904261920645036e+18,4.402503662109375,0.100311279296875,1.1311798095703125,-0.49149169921875,1.69042619206325e+18,4.40125009765625,-2.997484422866404,9.248827550477383,-1.277800769724995,1.69042619206325e+18,4.40125009765625,-0.4640611231327057,0.4576893851161003,-0.8156908392906189,1.690426192059494e+18,4.3974939453125,-0.4371508121490478,0.5081847071647644,-0.7203910827636719,,,,,,,,,,,,,1.69042619206325e+18,4.40125009765625,-22.93083724975586,32.41420364379883,-31.05022277832031,1.6904261920637268e+18,4.4017268066406245,23.547503662109374,64.59048156738281,87.37497253417969,1.69042619206325e+18,4.40125009765625,2.081868289462528,-0.1450498573232474,0.7485154186755352,-0.4034949833504463,0.3041642850297158,-0.571061046077556,-1.2319782470861975
4.45,1.690426192113346e+18,4.45134599609375,5.0338776133483645,3.4976315714639425,-5.183331794139146,1.6904261921146e+18,4.452599853515625,0.2915557861328125,1.325439453125,-0.6771148681640625,1.690426192113346e+18,4.45134599609375,-2.2235037034849823,9.40941956206739,-1.5897448754554986,1.690426192113346e+18,4.45134599609375,-0.8255565762519836,-1.0388025522232056,-2.5863086223602294,1.69042619210959e+18,4.447589990234375,-0.7828204393386841,-0.9333063513040544,-2.424621844291687,,,,,,,,,,,,,1.690426192113346e+18,4.45134599609375,-21.73441276550293,30.91483688354492,-31.845857238769533,1.6904261921157391e+18,4.453738964843749,25.714700317382817,63.2165771484375,86.10888366699218,1.690426192113346e+18,4.45134599609375,1.8565650565774048,-0.1440810589353992,0.720828638991256,-0.6303413023444947,0.3059806597291966,-0.6046405854748756,-1.286040194332519
4.5,1.6904261921634424e+18,4.50144248046875,-0.8654357595071943,3.525730006318688,0.2281790209724009,1.690426192164696e+18,4.50269609375,-0.2488250732421875,1.34012451171875,-0.1236083984375,1.6904261921634424e+18,4.50144248046875,-0.5874855124787334,9.513840189102291,-2.245593165635466,1.6904261921634424e+18,4.50144248046875,-1.534993314743042,-1.008216965198517,-3.253925323486328,1.6904261921596864e+18,4.49768642578125,-1.5031050443649292,-1.036421275138855,-3.3147489547729494,,,,,,,,,,,,,1.6904261921634424e+18,4.50144248046875,-17.271842193603515,29.79138641357422,-34.25386505126953,1.6904261921625513e+18,4.500551330566406,30.07085418701172,62.19619369506836,83.68563079833984,1.6904261921634424e+18,4.50144248046875,1.2178717334702875,-0.1287874757817933,0.6642478218465755,-1.3068049174641778,0.2973360095111251,-0.6731108982690192,-1.3260470294190152
4.55,1.6904261922135386e+18,4.55153857421875,-4.247568596661091,6.205966167244911,1.4058111512446403,1.690426192214792e+18,4.5527919921875,-0.3252655029296875,1.5873077392578123,-0.18941650390625,1.6904261922135386e+18,4.55153857421875,0.8227529555154964,9.307622386177778,-2.9533631908759475,1.6904261922135386e+18,4.55153857421875,-1.4158877849578857,-0.3625432338565587,-2.275665283203125,1.6904261922097823e+18,4.54778251953125,-1.421775460243225,-0.4564909517765045,-2.3497393846511843,,,,,,,,,,,,,1.6904261922135386e+18,4.55153857421875,-13.89058723449707,28.219338989257817,-36.743309020996094,1.690426192209364e+18,4.5473640625,32.75982666015625,60.74189147949219,81.5566192626953,1.6904261922135386e+18,4.55153857421875,0.7111478701972078,-0.1102840436428972,0.6070196916566525,-1.8354666699808155,0.2989438583253822,-0.727758062508024,-1.2515517289704767
4.6,1.6904261922636344e+18,4.601634619140625,-2.003189833703637,1.995017516259551,3.445278459248841,1.6904261922648883e+18,4.602888427734375,-0.008197021484375,1.04266357421875,0.0163848876953125,1.6904261922636344e+18,4.601634619140625,1.7169928650744262,8.961417318987845,-3.58159814091742,1.6904261922636344e+18,4.601634619140625,-1.2265774130821228,-0.1269736796617508,-1.7290861129760742,1.690426192259879e+18,4.597878662109375,-1.2632997512817383,-0.0478131189942359,-1.7577548027038574,,,,,,,,,,,,,1.6904261922636344e+18,4.601634619140625,-13.148532104492189,26.905419921875,-38.25452728271485,1.6904261922613775e+18,4.599377294921875,33.366650390625,59.473471069335936,80.10063781738282,1.6904261922636344e+18,4.601634619140625,0.5200437448745513,-0.0992251765944292,0.5603981906938736,-2.0156999465768948,0.3134581504585634,-0.7600129431503607,-1.1533624452358917
4.65,1.6904261923137306e+18,4.65173076171875,-3.0767402719587085,-1.0016846409618854,1.018063528832793,1.6904261923149847e+18,4.652984716796875,-0.070452880859375,0.6922607421875,-0.375146484375,1.6904261923137306e+18,4.65173076171875,2.514611795805245,8.617849263851046,-3.9389594513460993,1.6904261923137306e+18,4.65173076171875,-0.8862038612365722,-1.5511125922203064,-1.165587055683136,1.6904261923099748e+18,4.647974755859375,-0.8941279530525208,-1.4323071718215945,-1.2039377331733705,,,,,,,,,,,,,1.6904261923137306e+18,4.65173076171875,-11.830590057373048,26.37015914916992,-39.496978759765625,1.6904261923133896e+18,4.651389453125001,35.29869079589844,58.93680725097656,78.6143310546875,1.6904261923137306e+18,4.65173076171875,0.427315431831919,-0.0808935387571339,0.5256606886678054,-2.137690552418921,0.3088253217807162,-0.7883689118722417,-1.0736405801888131
4.7,1.6904261923638272e+18,4.701827294921875,-4.749523262298107,-3.2775173451340196,0.3097043055275083,1.690426192365081e+18,4.703081201171875,-0.1560455322265625,0.52579345703125,-0.3139923095703125,1.6904261923638272e+18,4.701827294921875,3.3400566280597443,8.318868655363918,-3.968972370746135,1.6904261923638272e+18,4.701827294921875,-0.7920459151268006,-2.510588216781616,-0.6750714957714081,1.6904261923600714e+18,4.698071337890625,-0.7986838698387146,-2.4751110076904297,-0.7262399733066559,,,,,,,,,,,,,1.6904261923638272e+18,4.701827294921875,-8.404116821289062,25.93152770996094,-41.30595092773437,1.6904261923654006e+18,4.70340078125,39.40285034179688,58.38422546386719,76.54514770507812,1.6904261923638272e+18,4.701827294921875,0.400193014803981,-0.0433485904248899,0.5041765033208694,-2.2694690704616662,0.2744807473080352,-0.817435701326519,-1.012928715734399
4.75,1.690426192413924e+18,4.75192412109375,-5.533583506371379,-2.768937123877406,3.3888754286688565,1.6904261924151777e+18,4.75317763671875,-0.1448272705078125,0.5469879150390625,-0.016925048828125,1.690426192413924e+18,4.75192412109375,3.886432502321005,8.156279916998743,-3.8122002681574223,1.690426192413924e+18,4.75192412109375,-0.5495385885238647,-2.155493712425232,0.4136948339641094,1.6904261924101678e+18,4.748167919921874,-0.5737016201019287,-2.2133220434188843,0.3292977899312973,,,,,,,,,,,,,1.690426192413924e+18,4.75192412109375,-3.9242958068847655,25.02775421142578,-43.35440216064453,1.6904261924122117e+18,4.750211791992188,43.176551818847656,57.46891403198242,74.8163948059082,1.690426192413924e+18,4.75192412109375,0.431018374353225,0.0003279474470183,0.4976851177773877,-2.3658009011196435,0.2324545900313905,-0.8354722545082118,-0.9821823900700172
4.8,1.6904261924640202e+18,4.802020263671875,-3.836418295995295,-2.5434422566485404,3.960980086044073,1.690426192465274e+18,4.803273876953125,0.0101348876953125,0.5985931396484375,0.0204925537109375,1.6904261924640202e+18,4.802020263671875,3.806880300630629,8.26238197970152,-3.659490183536709,1.6904261924640202e+18,4.802020263671875,-0.1384833052754402,-0.6202557265758515,1.297681212425232,1.6904261924602642e+18,4.7982642578125,-0.16911744447425,-0.7774411499500274,1.2404751420021056,,,,,,,,,,,,,1.6904261924640202e+18,4.802020263671875,-2.3416763305664063,24.162996673583983,-44.56030426025391,1.6904261924590244e+18,4.797024462890625,44.12992858886719,56.75252075195313,73.83854064941406,1.6904261924640202e+18,4.802020263671875,0.5096312007946197,0.0313005895441277,0.5137250749229009,-2.3756753380450384,0.2047469635757267,-0.8325116386815751,-1.0020721240495465
4.85,1.6904261925141164e+18,4.852116503906251,-1.0830932841739058,-2.017276577436328,2.279783546076714,1.6904261925153702e+18,4.8533703125,0.29268798828125,0.6923583984375,-0.178314208984375,1.6904261925141164e+18,4.852116503906251,3.061721566525102,8.558385618204474,-3.669078972876072,1.6904261925141164e+18,4.852116503906251,0.3363306641578674,1.047336220741272,1.8259315967559815,1.6904261925103603e+18,4.848360498046875,0.2987519219517707,0.9965751528739928,1.820291519165039,,,,,,,,,,,,,1.6904261925141164e+18,4.852116503906251,-5.860264587402344,23.892084503173827,-45.22780151367188,1.6904261925110413e+18,4.849041259765626,40.16719970703125,56.529598999023435,73.22349548339844,1.6904261925141164e+18,4.852116503906251,0.6192973733791284,0.0330057188189421,0.5478163681063148,-2.264521255744328,0.2089124137236795,-0.8092757141325659,-1.0611020497579888
4.9,1.6904261925642125e+18,4.902212646484375,6.448057832105159,2.9765202530318495,-0.9076459410184622,1.6904261925654664e+18,4.9034662109375,0.9835418701171876,1.36663818359375,-0.574053955078125,1.6904261925642125e+18,4.902212646484375,2.221077031633854,8.87367029576063,-3.529886950641572,1.6904261925642125e+18,4.902212646484375,0.6179876446723938,-0.0038588106632232,1.1660598635673525,1.6904261925604564e+18,4.898456591796875,0.6506622433662415,0.1443829089403152,1.2612410187721252,,,,,,,,,,,,,1.6904261925642125e+18,4.902212646484375,-11.101492309570313,24.301922607421876,-44.94209899902344,1.6904261925630548e+18,4.9010548828125,35.03779602050781,57.060595703125,73.49216003417969,1.6904261925642125e+18,4.902212646484375,0.726553596216409,0.0200815197904988,0.5835142872752687,-2.1317245130738134,0.2149352002939229,-0.7828235109919112,-1.1313681165879388
4.95,1.6904261926143089e+18,4.952308837890625,7.120306286752819,4.489374781030416,-4.307818015083969,1.6904261926155625e+18,4.953562499999999,0.8657806396484375,1.2330596923828123,-0.7117706298828125,1.6904261926143089e+18,4.952308837890625,2.11035891188994,8.948261952434182,-3.4115969051125647,1.6904261926143089e+18,4.952308837890625,-0.3723012462258339,-0.9375784635543823,-0.152677484229207,1.6904261926105528e+18,4.948552880859375,-0.3238378822803497,-0.9061399698257446,-0.0819015234708786,,,,,,,,,,,,,1.6904261926143089e+18,4.952308837890625,-12.10464096069336,25.033287048339844,-45.52958221435547,1.690426192615068e+18,4.953067822265625,34.617001342773435,57.81419677734375,72.47996215820312,1.6904261926143089e+18,4.952308837890625,0.7677927030790659,0.0292152577522284,0.5932537266840345,-2.124595867748354,0.2010869701549187,-0.77891231811208,-1.1493257443176448
5.0,1.6904261926644052e+18,5.002405224609374,1.3019063647773863,0.3207128985369206,0.1450101777678727,1.6904261926656586e+18,5.003658691406249,0.2617034912109375,1.0368408203125,-0.27010498046875,1.6904261926644052e+18,5.002405224609374,2.3296784222586453,8.862936018874048,-3.4914157072368264,1.6904261926644052e+18,5.002405224609374,-0.0732573822140693,0.2800823628902435,-0.0944554589688777,1.6904261926606492e+18,4.99864921875,-0.1388183347880839,0.0787232097238302,-0.1348557140678167,,,,,,,,,,,,,1.6904261926644052e+18,5.002405224609374,-11.028740692138673,25.50172576904297,-47.257582092285155,1.69042619266188e+18,4.999880187988281,35.54854965209961,58.26559829711914,70.9947624206543,1.6904261926644052e+18,5.002405224609374,0.7642255178171379,0.0437739173425947,0.5861582020359108,-2.1591997932770717,0.1939854568910058,-0.7854035952191856,-1.128498383153511
5.05,1.6904261927145014e+18,5.0525012207031255,0.0661569181270898,7.252577745169996,3.9623025083673,1.690426192715755e+18,5.053754931640625,0.176092529296875,1.5298187255859377,0.0556915283203125,1.6904261927145014e+18,5.0525012207031255,2.239249671053737,8.903435202522875,-3.4464416578093173,1.6904261927145014e+18,5.0525012207031255,0.6050636351108551,0.7591386437416077,-0.5335734084248542,1.690426192710745e+18,5.0487453125,0.5775597393512726,0.8497719243168831,-0.4836160572245717,,,,,,,,,,,,,1.6904261927145014e+18,5.0525012207031255,-13.091635131835938,27.342578887939453,-47.22189025878906,1.690426192708691e+18,5.046690869140624,33.22427673339844,60.20946350097656,71.30163879394532,1.6904261927145014e+18,5.0525012207031255,0.7262669802029912,0.0226388826300686,0.5855017339499946,-2.147022675097664,0.2073817478886329,-0.7833299549093533,-1.138251245700188
5.1,1.6904261927645975e+18,5.1025974609375,-8.920008853087424,-5.788894016862511,1.841079584957361,1.6904261927658511e+18,5.10385107421875,-0.769012451171875,0.2987396240234375,-0.1583831787109375,1.6904261927645975e+18,5.1025974609375,2.186226784431338,8.987637685011029,-3.253598592503667,1.6904261927645975e+18,5.1025974609375,0.6259663343429566,1.4350483179092408,0.5956684201955795,1.6904261927608417e+18,5.09884150390625,0.6473335504531861,1.3333237171173096,0.4784669160842895,,,,,,,,,,,,,1.6904261927645975e+18,5.1025974609375,-14.627982330322263,30.3979118347168,-46.2119857788086,1.690426192760703e+18,5.098702978515625,31.60133666992187,63.24776000976563,72.361474609375,1.6904261927645975e+18,5.1025974609375,0.665229129521532,-0.0026913156025575,0.5852967252046669,-2.1616444020857073,0.2142614588632424,-0.7818957590454418,-1.159380167022956
5.15,1.6904261928146936e+18,5.152693603515625,-7.712694555126428,1.676452034240961,-0.6065783555763959,1.6904261928159473e+18,5.153947265625,-0.5525543212890625,1.1650115966796877,-0.4423828125,1.6904261928146936e+18,5.152693603515625,1.4155851025056094,9.158836313906908,-3.1948450240486856,1.6904261928146936e+18,5.152693603515625,0.3197198688983917,1.2754777550697327,1.6579172611236572,1.6904261928109376e+18,5.1489376464843755,0.3311011791229247,1.356543695926666,1.5620408535003665,,,,,,,,,,,,,1.6904261928146936e+18,5.152693603515625,-20.10717658996582,31.468202209472658,-44.686404418945315,1.6904261928127153e+18,5.150715087890625,25.89810791015625,64.11756286621093,73.90007629394532,1.6904261928146936e+18,5.152693603515625,0.7693244418701873,-0.0285932225563488,0.6088883640661111,-1.985497161082557,0.2386721509297622,-0.7558128278838228,-1.205509438351167
5.2,1.69042619286479e+18,5.20278994140625,1.994405521841049,-0.2304244910377264,-0.4090174971947073,1.6904261928660434e+18,5.204043505859375,0.3296051025390625,0.909881591796875,-0.2780914306640625,1.69042619286479e+18,5.20278994140625,0.3777699077334487,9.289454978228807,-3.109830348394811,1.69042619286479e+18,5.20278994140625,0.2630829691886902,1.5429759740829467,1.349185597896576,1.690426192861034e+18,5.19903388671875,0.2786229461431503,1.4797036409378053,1.4875184416770937,,,,,,,,,,,,,1.69042619286479e+18,5.20278994140625,-25.414699935913085,30.649337768554688,-43.25188446044922,1.6904261928647255e+18,5.20272548828125,19.668267822265623,63.08287963867187,75.72125854492188,1.69042619286479e+18,5.20278994140625,1.0142373700916916,-0.0432595066968186,0.6429712058818533,-1.690263161542592,0.2592797762328699,-0.7192143317680733,-1.2446371320180272
5.25,1.690426192914886e+18,5.25288603515625,-1.442874747208012,-0.4965326405882835,2.8409440247547626,1.6904261929161395e+18,5.2541396484375,-0.3029052734375,0.9053558349609376,-0.0557464599609375,1.690426192914886e+18,5.25288603515625,-0.256828880534803,9.339606021128892,-2.973403173150718,1.690426192914886e+18,5.25288603515625,0.3921638190746307,2.287362575531006,0.6231208622455597,1.69042619291113e+18,5.24912998046875,0.3699376225471496,2.2667537689208985,0.5771565854549408,,,,,,,,,,,,,1.690426192914886e+18,5.25288603515625,-30.701401901245116,30.5699821472168,-40.768479919433595,1.690426192911537e+18,5.249536804199218,14.80571746826172,63.3074836730957,78.30659484863281,1.690426192914886e+18,5.25288603515625,1.1302293300112518,-0.0748818207452015,0.6551423802454801,-1.4837274873514397,0.28944531704529,-0.693617769758577,-1.2609667542702696
5.3,1.6904261929649823e+18,5.3029822265625,0.4945631086940318,-0.5867222638881205,-0.6939974035713077,1.6904261929662356e+18,5.30423583984375,0.0619720458984375,0.8796844482421875,-0.3814727783203125,1.6904261929649823e+18,5.3029822265625,-0.9177382082875072,9.381492041413187,-2.6996336367398497,1.6904261929649823e+18,5.3029822265625,0.4784799396991729,1.426399087905884,0.6771593451499939,1.6904261929612262e+18,5.299226318359375,0.49125697016716,1.51049907207489,0.7387167811393738,,,,,,,,,,,,,1.6904261929649823e+18,5.3029822265625,-36.2500732421875,30.596685028076173,-36.81591339111328,1.6904261929583483e+18,5.296348486328125,9.852420043945312,63.23093872070312,81.95184631347657,1.6904261929649823e+18,5.3029822265625,1.2804346371926685,-0.1089548485793448,0.6680900761632742,-1.2424580738660511,0.3168810849932131,-0.6642570846757729,-1.2752804446809909
5.35,1.6904261930150784e+18,5.35307841796875,-0.1559627151280641,-1.296744744230509,-1.7374081980806586,1.6904261930163318e+18,5.354331982421876,-0.201190185546875,0.8327972412109375,-0.3815277099609375,1.6904261930150784e+18,5.35307841796875,-1.3009987776392695,9.40204535081148,-2.4620812519705293,1.6904261930150784e+18,5.35307841796875,0.3329779237508773,1.0320757150650024,0.5855826675891876,1.6904261930113224e+18,5.3493224609375,0.3214954197406768,1.061478364467621,0.5485444843769074,,,,,,,,,,,,,1.6904261930150784e+18,5.35307841796875,-39.70616226196289,30.866590118408205,-34.08675079345703,1.6904261930103598e+18,5.34835986328125,6.5095062255859375,63.513082885742186,84.56919860839844,1.6904261930150784e+18,5.35307841796875,1.3835898792325054,-0.1308049088831228,0.6755897015696875,-1.0847005448327462,0.3314952541827438,-0.6453678390680049,-1.2825429215828534
5.4,1.6904261930651745e+18,5.403174609375,0.4938772160956263,-0.5253831213063,0.2239135017085075,1.6904261930664282e+18,5.404428271484375,-0.11856689453125,0.9178070068359376,-0.2018463134765625,1.6904261930651745e+18,5.403174609375,-1.7630436622749268,9.401705743593572,-2.1535203004853427,1.6904261930651745e+18,5.403174609375,0.7350810050964356,0.5913819670677185,0.9221235990524292,1.6904261930614185e+18,5.399418603515625,0.7056980133056641,0.6176514863967896,0.90145845413208,,,,,,,,,,,,,1.6904261930651745e+18,5.403174609375,-42.82652893066406,30.58190002441406,-31.791273498535155,1.6904261930623708e+18,5.40037080078125,3.43519287109375,63.210296630859375,86.85533447265625,1.6904261930651745e+18,5.403174609375,1.5496913817269204,-0.146416066507286,0.6895881585193193,-0.8848255359483135,0.3381284640326479,-0.6233883322737939,-1.2824213002736742
5.45,1.690426193115271e+18,5.453270947265625,1.4444944007387757,-0.1903087537485361,-0.5581092159616946,1.6904261931165243e+18,5.4545244140625,-0.0553985595703125,0.9351806640625,-0.2421142578125,1.690426193115271e+18,5.453270947265625,-2.3126020828689633,9.377279859771727,-1.6860058691713211,1.690426193115271e+18,5.453270947265625,0.956057345867157,0.4631549656391144,1.0751447916030883,1.690426193111515e+18,5.44951494140625,0.9615120887756348,0.4774742066860199,1.1021059036254883,,,,,,,,,,,,,1.690426193115271e+18,5.453270947265625,-45.683606719970705,30.315912628173827,-29.68243560791016,1.6904261931143808e+18,5.452380908203125,0.3479705810546875,62.908636474609374,89.19718322753906,1.690426193115271e+18,5.453270947265625,1.7873279762633634,-0.1600721581323342,0.711217766965302,-0.631084256236344,0.3347150711618291,-0.5969855405491293,-1.2738241834170254
5.5,1.6904261931653668e+18,5.503366748046875,2.6957102673640847,0.5888799679917096,-3.0956449665932353,1.6904261931666207e+18,5.504620556640625,-0.0385772705078125,1.030218505859375,-0.5012176513671875,1.6904261931653668e+18,5.503366748046875,-2.6689849328804014,9.351515771535636,-1.2596773616612702,1.6904261931653668e+18,5.503366748046875,0.5656132698059082,0.301367363333702,0.2512257538735866,1.6904261931616108e+18,5.49961083984375,0.613665771484375,0.322345232963562,0.3104891629889607,,,,,,,,,,,,,1.6904261931653668e+18,5.503366748046875,-47.79122314453125,30.386333465576172,-27.817546081542968,1.6904261931611896e+18,5.499189758300782,-1.633586883544922,63.13250350952149,90.95491409301758,1.6904261931653668e+18,5.503366748046875,1.9657343917467032,-0.1731963310628893,0.726556820790082,-0.4409427710913228,0.3289215321277585,-0.577844470000696,-1.2649405864282233
5.55,1.6904261932154632e+18,5.55346328125,1.3825555386981367,0.6701136638021469,-5.117085298032462,1.6904261932167168e+18,5.55471689453125,-0.0902923583984375,1.0339202880859375,-0.5997528076171875,1.6904261932154632e+18,5.55346328125,-2.697630597128272,9.358388463010192,-1.1458768826364725,1.6904261932154632e+18,5.55346328125,-0.2841823428869247,0.4829095661640167,-0.1484068185091018,1.6904261932117071e+18,5.5497071777343745,-0.2321082264184951,0.4785180658102035,-0.1166659481823444,,,,,,,,,,,,,1.6904261932154632e+18,5.55346328125,-48.965509033203126,31.331283569335938,-27.03436126708984,1.6904261932080013e+18,5.54600126953125,-2.5627471923828127,64.05160522460938,91.45300598144532,1.6904261932154632e+18,5.55346328125,1.9891286180052803,-0.1813208644053195,0.7265081072120448,-0.4016722174042941,0.3312234699704874,-0.5740896214124133,-1.2672757034947626
5.6,1.6904261932655596e+18,5.60355947265625,3.8379528997644785,2.5029116257220503,-4.455211054787337,1.690426193266813e+18,5.604812792968749,0.1773834228515625,1.2331207275390623,-0.651153564453125,1.6904261932655596e+18,5.60355947265625,-2.4607781773218513,9.395701885455846,-1.3427073224648087,1.6904261932655596e+18,5.60355947265625,-0.5951546370983124,-0.676903747022152,-1.0234652876853942,1.6904261932618035e+18,5.599803515625,-0.5649933516979218,-0.520881125330925,-0.9209932088851928,,,,,,,,,,,,,1.6904261932655596e+18,5.60355947265625,-48.65091552734375,32.7240592956543,-27.784239196777342,1.6904261932600148e+18,5.59801474609375,-2.0192626953125,65.53070373535157,90.51869201660156,1.6904261932655596e+18,5.60355947265625,1.8804411462791395,-0.1808138266004797,0.7148646445122978,-0.50110609252515,0.3382446320559003,-0.584612620696636,-1.2803885950635852
5.65,1.6904261933156557e+18,5.653655615234375,4.128797606521248,2.03738565019846,-3.8420781630009406,1.6904261933169093e+18,5.654909228515625,0.202545166015625,1.1729888916015625,-0.5108245849609375,1.6904261933156557e+18,5.653655615234375,-1.4139524159633368,9.496980473524928,-1.9308207922895253,1.6904261933156557e+18,5.653655615234375,-1.3364579677581787,-2.303112769126892,-2.745654058456421,1.6904261933118996e+18,5.649899658203125,-1.2614010453224185,-2.2666239738464355,-2.658599781990051,,,,,,,,,,,,,1.6904261933156557e+18,5.653655615234375,-42.93833923339844,36.54594039916992,-33.546897888183594,1.6904261933120274e+18,5.65002744140625,4.2297821044921875,69.56197509765624,84.28511352539063,1.6904261933156557e+18,5.653655615234375,1.505730068919935,-0.1539436688166039,0.6845689014772065,-0.944642331534216,0.3212948857670853,-0.6353399214033214,-1.3189679459090649
5.7,1.6904261933657518e+18,5.7037518554687505,-3.608497253758907,4.632932538806796,2.4467297197729345,1.6904261933619958e+18,5.699995666503907,-0.4017181396484375,1.4739761352539062,0.0239791870117187,1.6904261933657518e+18,5.7037518554687505,0.1354982585368957,9.395413482355476,-2.770126275209784,1.6904261933657518e+18,5.7037518554687505,-1.6088960409164428,-1.1311624646186829,-2.5995125770568848,1.6904261933619958e+18,5.6999958984375,-1.6421101570129395,-1.2550575196743012,-2.657520532608032,,,,,,,,,,,,,1.6904261933657518e+18,5.7037518554687505,-32.989739990234376,39.97668685913086,-41.7413818359375,1.690426193364036e+18,5.702035986328125,14.244430541992188,72.79320678710937,76.15935363769532,1.6904261933657518e+18,5.7037518554687505,0.917455179811424,-0.117270729516227,0.6314267839027355,-1.6082897371130425,0.3068382933594043,-0.7020373190730569,-1.2811621200571384
5.75,1.6904261934158474e+18,5.753847509765625,-1.6932804486711324,5.499979459837675,2.291817448932826,1.690426193407082e+18,5.7450822265625,-0.057049560546875,1.5040740966796875,-0.115557861328125,1.6904261934158474e+18,5.753847509765625,1.2442480149871111,9.100161772811411,-3.4213119511801,1.6904261934158474e+18,5.753847509765625,-1.23108332157135,-0.1191572315990924,-2.0121851205825805,1.6904261934120914e+18,5.7500916015625005,-1.2591238260269164,-0.0744701907038688,-2.0371878147125244,,,,,,,,,,,,,1.6904261934158474e+18,5.753847509765625,-26.597603607177735,40.73139114379883,-46.000830078125,1.690426193416049e+18,5.75404873046875,21.359423828125,73.3305419921875,71.67004089355468,1.6904261934158474e+18,5.753847509765625,0.6137264190117795,-0.1030313140551533,0.5805930360927932,-1.9161042145843177,0.3150872852872937,-0.7434595295490436,-1.1897635691457549
5.8,1.690426193465944e+18,5.8039440917968745,-2.6054439547923205,0.8660922798806429,2.375047579257488,1.6904261934571784e+18,5.79517841796875,-0.0358978271484375,0.98948974609375,-0.1336700439453125,1.690426193465944e+18,5.8039440917968745,2.201391854146123,8.770359675794243,-3.784125155726074,1.690426193465944e+18,5.8039440917968745,-0.7420405864715576,-1.316283655166626,-1.6158921003341675,1.690426193462188e+18,5.800188037109375,-0.7624698400497436,-1.2401399612426758,-1.652071762084961,,,,,,,,,,,,,1.690426193465944e+18,5.8039440917968745,-19.72513008117676,40.45324935913086,-49.113034057617185,1.6904261934628616e+18,5.800861633300781,28.29419708251953,73.04056549072266,68.76045989990234,1.690426193465944e+18,5.8039440917968745,0.4569916124236582,-0.0891723363058432,0.5397778591864141,-2.09568984583397,0.3102806281905841,-0.777281443820112,-1.1073463526834324
5.85,1.6904261935160402e+18,5.854040185546875,-4.681316572034359,-1.988315505176783,0.923379516723156,1.6904261935072745e+18,5.845274462890624,-0.16016845703125,0.665875244140625,-0.3048065185546875,1.6904261935160402e+18,5.854040185546875,3.100515349108577,8.460232001062035,-3.862501474730968,1.6904261935160402e+18,5.854040185546875,-0.6628708720207215,-1.8467314004898072,-1.1094515919685364,1.6904261935122842e+18,5.85028427734375,-0.660142982006073,-1.818366861343384,-1.144655168056488,,,,,,,,,,,,,1.6904261935160402e+18,5.854040185546875,-11.274095153808592,39.4544792175293,-52.071641540527345,1.6904261935096722e+18,5.84767216796875,35.88836669921875,71.98240966796875,66.18175659179687,1.6904261935160402e+18,5.854040185546875,0.3773028090977601,-0.0649464120565199,0.5106045593694082,-2.2460956769958016,0.2847386962622629,-0.8085367011964211,-1.0408414882214243
5.9,1.6904261935661363e+18,5.904136376953125,-5.0713759785199155,-2.486165190486908,3.1061959081891173,1.690426193557371e+18,5.895370751953125,-0.131829833984375,0.584979248046875,-0.0761566162109375,1.6904261935661363e+18,5.904136376953125,3.786467919459939,8.20836701330185,-3.799137665227651,1.6904261935661363e+18,5.904136376953125,-0.5652501702308654,-1.8000168323516843,-0.3162183284759521,1.6904261935623803e+18,5.900380371093751,-0.5846146702766418,-1.8280043125152587,-0.3975406527519226,,,,,,,,,,,,,1.6904261935661363e+18,5.904136376953125,-2.762461853027344,37.68211898803711,-54.31318054199219,1.6904261935616804e+18,5.899680419921875,44.34520568847656,70.16191101074219,64.01831970214843,1.6904261935661363e+18,5.904136376953125,0.3624306117360047,-0.0331917428307116,0.4929905840815484,-2.354212243920954,0.2526261041728782,-0.8317760275000048,-0.9918794819784746
5.95,1.6904261936162327e+18,5.9542326171875,-5.222805375680327,-3.259804929023981,4.789426350523829,1.690426193607467e+18,5.945467041015625,-0.13575439453125,0.5048797607421875,0.107476806640625,1.6904261936162327e+18,5.9542326171875,3.91548142822057,8.196319198824764,-3.694797234596014,1.6904261936162327e+18,5.9542326171875,-0.1564621068537235,-0.5058418460190296,0.8649872303009033,1.690426193612477e+18,5.95047666015625,-0.1918853349983691,-0.6669901907444,0.7897077798843384,,,,,,,,,,,,,1.6904261936162327e+18,5.9542326171875,2.2616790771484374,36.31430435180664,-55.69031600952148,1.6904261936136863e+18,5.95168642578125,48.939111328125,68.91944885253906,62.68761291503906,1.6904261936162327e+18,5.9542326171875,0.4047575960321986,-0.0074350246045207,0.4975981735637539,-2.3850803082994627,0.2296259229895976,-0.8363932914670208,-0.989618535515644
6.0,1.690426193666329e+18,6.004328955078125,-2.5286809746551517,-2.546810622490048,4.610424471305013,1.6904261936575631e+18,5.995563134765625,0.0691741943359375,0.5961212158203125,0.0961639404296875,1.690426193666329e+18,6.004328955078125,3.265196792743206,8.454083649113176,-3.734565648978352,1.690426193666329e+18,6.004328955078125,0.5167869418859482,1.6467350959777831,1.6117446899414063,1.690426193662573e+18,6.00057294921875,0.4595368087291717,1.528493010997772,1.5711293458938598,,,,,,,,,,,,,1.690426193666329e+18,6.004328955078125,0.08115234375,36.7651252746582,-56.39141311645508,1.6904261936656955e+18,6.003695849609374,45.42730712890625,69.70358276367188,62.062808227539065,1.690426193666329e+18,6.004328955078125,0.482146542231992,-0.0114363891104522,0.5247611349324313,-2.2876546286528248,0.2407983994497,-0.8162266144009329,-1.0397158986126491
6.05,1.6904261937164252e+18,6.054425244140625,3.5239527090609073,1.883361443465352,-0.3821366214361787,1.6904261937076595e+18,6.045659423828125,0.567681884765625,1.0733367919921877,-0.3960723876953125,1.6904261937164252e+18,6.054425244140625,2.2254832453165947,8.814530358336567,-3.6678351102948183,1.6904261937164252e+18,6.054425244140625,0.7186259448528289,1.2175647020339966,1.429852294921875,1.6904261937126692e+18,6.050669287109375,0.755276894569397,1.399662446975708,1.4855514287948608,,,,,,,,,,,,,1.6904261937164252e+18,6.054425244140625,-6.855706787109375,38.7359260559082,-55.90455093383789,1.690426193712505e+18,6.050505126953125,38.211212158203125,71.7922477722168,62.78426742553711,1.6904261937164252e+18,6.054425244140625,0.5761841150932354,-0.0400885150271815,0.5609148006830957,-2.1145099664952745,0.2679641047642135,-0.7821459545289919,-1.1174796121026884
6.1,1.690426193766521e+18,6.1045213867187496,7.554859850194454,3.57541705574274,-4.770559737490415,1.6904261937577556e+18,6.095755517578125,0.9579071044921876,1.2891845703125,-0.8511016845703125,1.690426193766521e+18,6.1045213867187496,1.7432018913729486,8.96523132431805,-3.5710780328512195,1.690426193766521e+18,6.1045213867187496,-0.1299301214516162,0.3468283835798502,0.2601905234158039,1.6904261937627653e+18,6.100765429687501,-0.0593757092952728,0.2964760363101959,0.3594010844826698,,,,,,,,,,,,,1.690426193766521e+18,6.1045213867187496,-10.037561798095703,40.12038345336914,-55.759942626953126,1.6904261937593152e+18,6.097315185546875,36.413082885742185,72.78900146484375,62.65504150390625,1.690426193766521e+18,6.1045213867187496,0.6495460822445445,-0.0469459269752762,0.5800306378913465,-2.024920351190875,0.2732677666306838,-0.7659449390475361,-1.153534436029077
6.15,1.6904261938166175e+18,6.154617578125,1.8092266491007805,3.883869724547863,0.7131770280766487,1.690426193807852e+18,6.14585205078125,0.357672119140625,1.2856689453125,-0.3296173095703125,1.6904261938166175e+18,6.154617578125,1.6303132372699678,8.91026487318635,-3.757075236237049,1.6904261938166175e+18,6.154617578125,-0.0156845422461628,1.252684736251831,-0.1607991002500057,1.6904261938128617e+18,6.150861669921875,-0.1003790736198425,1.1954177021980286,-0.1775323405861854,,,,,,,,,,,,,1.6904261938166175e+18,6.154617578125,-9.716023254394532,39.37597579956055,-56.64640350341797,1.6904261938113236e+18,6.149323681640626,36.7706298828125,71.96377868652344,61.7771484375,1.6904261938166175e+18,6.154617578125,0.6538422190988066,-0.054278439384908,0.5755501575839991,-1.9802423125606048,0.2925209234669472,-0.7616701484790888,-1.139914126735056
6.2,1.690426193866714e+18,6.2047140625,1.767562864038944,6.767003487160801,5.368769025554657,1.6904261938579482e+18,6.195948193359375,0.346392822265625,1.630133056640625,0.1789093017578125,1.690426193866714e+18,6.2047140625,1.5544516775649786,8.967839344085455,-3.649822016124725,1.690426193866714e+18,6.2047140625,0.6112456381320953,0.6545105598866939,-0.6505390420556069,1.690426193862958e+18,6.200958056640625,0.6172849953174591,0.7122267290949822,-0.6139482859522104,,,,,,,,,,,,,1.690426193866714e+18,6.2047140625,-9.936915588378906,40.08495559692383,-55.80634536743164,1.6904261938633318e+18,6.201331738281249,36.63907470703125,72.83671569824219,62.776431274414065,1.690426193866714e+18,6.2047140625,0.5985063909413911,-0.0813688735648625,0.5712138733584753,-1.9735774358425957,0.3073239759233384,-0.7566922766130411,-1.154200220615872
6.25,1.6904261939168102e+18,6.254810205078125,-11.480999859716892,-6.4090914986598495,0.3338290436717867,1.6904261939080443e+18,6.246044384765625,-1.006805419921875,0.268975830078125,-0.3237213134765625,1.6904261939168102e+18,6.254810205078125,1.444745686699152,9.021914399335383,-3.55612520303458,1.6904261939168102e+18,6.254810205078125,0.1403081089258194,2.484166312217712,0.4415028035640717,1.6904261939130542e+18,6.25105419921875,0.1953902631998061,2.353737735748291,0.3433123558759689,,,,,,,,,,,,,1.6904261939168102e+18,6.254810205078125,-10.137126159667968,41.07789535522461,-54.48676376342773,1.690426193915342e+18,6.253341992187499,36.023675537109376,73.74934692382813,64.08597106933594,1.6904261939168102e+18,6.254810205078125,0.5462835957983071,-0.1099837207680402,0.5660057580719501,-1.9562091078186452,0.3252368100533349,-0.7492642677508379,-1.1680496687176714
6.3,1.6904261939669066e+18,6.304906494140625,-4.2104000187396995,2.002794813810587,3.363141034144759,1.690426193958141e+18,6.296140625,-0.3818023681640625,1.1181304931640623,-0.0315399169921875,1.6904261939669066e+18,6.304906494140625,0.6217606211945228,9.071345545076133,-3.6644811236917976,1.6904261939669066e+18,6.304906494140625,0.163958079367876,2.41520619392395,1.1535671830177308,1.6904261939631506e+18,6.30115048828125,0.1476527303457259,2.1791865825653076,1.1335487604141234,,,,,,,,,,,,,1.6904261939669066e+18,6.304906494140625,-15.597319793701171,40.64526901245117,-53.55784301757812,1.6904261939621484e+18,6.300148193359375,29.649429321289062,73.14791107177734,65.15166091918945,1.6904261939669066e+18,6.304906494140625,0.652729128232264,-0.1373823003027683,0.5746702383333914,-1.7379181936226171,0.3713830201004752,-0.7160213297377986,-1.181128089818592
6.35,1.6904261940119928e+18,6.349992797851563,2.320316631995142,1.3688662406243384,-0.5345082971088588,1.6904261940082368e+18,6.3462369140625,0.2496368408203125,1.0388397216796874,-0.4813323974609375,1.6904261940119928e+18,6.349992797851563,-0.4226874375474871,9.134308810954542,-3.536532423844561,1.6904261940119928e+18,6.349992797851563,0.3743862751871347,3.056158632040024,0.8967668227851391,1.6904261940132465e+18,6.351246435546875,0.3089056942611933,3.0593390226364137,0.8201310992240906,,,,,,,,,,,,,1.6904261940119928e+18,6.349992797851563,-24.132465362548828,40.316402435302734,-50.60388374328613,1.6904261940089536e+18,6.34695380859375,20.7322021484375,72.91956787109375,68.5857666015625,1.6904261940119928e+18,6.349992797851563,0.7996221423854424,-0.1754190242538271,0.5851144514553073,-1.451295417719083,0.4231736575300865,-0.6689441511692034,-1.198367659731935
6.4,1.6904261940570793e+18,6.395079394531249,-0.1798434592225401,-1.655699987400174,-2.432781916893423,1.6904261940583332e+18,6.396333251953125,-0.295428466796875,0.7564788818359375,-0.5135040283203125,1.6904261940570793e+18,6.395079394531249,-0.8478675449473411,9.132581928709744,-3.469284188736379,1.6904261940570793e+18,6.395079394531249,-0.190045154094696,1.8868451833724975,0.1344477894250303,1.6904261940633426e+18,6.401342529296874,-0.1916743621230125,1.9890007734298707,0.2231266152113676,,,,,,,,,,,,,1.6904261940570793e+18,6.395079394531249,-29.331428146362303,39.98082046508789,-47.9193603515625,1.6904261940609633e+18,6.3989633789062506,16.19967041015625,72.4578643798828,71.12904357910156,1.6904261940570793e+18,6.395079394531249,0.8351694127882464,-0.1984145943821222,0.5816667496232276,-1.331336354526929,0.4525333566995757,-0.6460009396971527,-1.1978805308714942
6.45,1.6904261941071757e+18,6.445175732421875,-1.3124330487148463,0.1188835690557956,2.591077400431037,1.6904261941084296e+18,6.446429443359375,-0.1616912841796875,0.944561767578125,-0.0411224365234375,1.6904261941071757e+18,6.445175732421875,-1.4432331340182571,9.086133130554556,-3.3893340445435043,1.6904261941071757e+18,6.445175732421875,0.0796496357768773,1.950425672531128,0.7220622181892395,1.690426194113439e+18,6.451439013671875,0.0872731205075978,1.981898641586304,0.616889831237495,,,,,,,,,,,,,1.6904261941071757e+18,6.445175732421875,-33.9556282043457,39.10917587280274,-45.32065887451172,1.6904261941129713e+18,6.450971044921874,11.043484497070311,71.5344451904297,74.05718383789062,1.6904261941071757e+18,6.445175732421875,0.9014439884774086,-0.2200493482339412,0.5787167798508162,-1.1686311805256249,0.4884525237202616,-0.6147017408879332,-1.1850864737245188
6.5,1.6904261941572718e+18,6.495271923828125,0.9309953108760716,-0.1985274822306632,0.9141815387192368,1.6904261941585257e+18,6.496525537109375,-0.1241729736328125,0.917193603515625,-0.2898162841796875,1.6904261941572718e+18,6.495271923828125,-1.9245589554157856,9.072814565489292,-3.1833758862423895,1.6904261941572718e+18,6.495271923828125,-0.0097737586125731,2.4153220891952514,-0.0295269347727298,1.6904261941635354e+18,6.501535205078125,0.0123765084892511,2.31639711856842,-0.0224057592451572,,,,,,,,,,,,,1.6904261941572718e+18,6.495271923828125,-38.66465301513672,38.82066268920899,-41.528985595703126,1.6904261941649802e+18,6.5029802246093755,6.625347900390625,71.52615051269531,78.16338500976562,1.6904261941572718e+18,6.495271923828125,0.9338624850144824,-0.2495072057170111,0.5698684680188362,-1.027027115801015,0.5227244543330685,-0.5826047290149222,-1.1814822157531748
6.55,1.6904261942073684e+18,6.54536826171875,0.0037988077610731,-0.4530661900186538,-0.2061653128588199,1.690426194208622e+18,6.5466220703125,-0.2946441650390625,0.8612030029296875,-0.30908203125,1.6904261942073684e+18,6.54536826171875,-2.2284012078160047,9.083385059342383,-2.9471477358141542,1.6904261942073684e+18,6.54536826171875,0.2332449406385421,1.3118158102035522,0.1948358636349439,1.6904261942136315e+18,6.551631396484375,0.2689620643854141,1.2779982805252077,0.2735649701207876,,,,,,,,,,,,,1.6904261942073684e+18,6.54536826171875,-41.74849243164063,39.21069259643555,-38.0459487915039,1.690426194211786e+18,6.549786010742187,4.207614898681641,71.8948974609375,81.21473693847656,1.6904261942073684e+18,6.54536826171875,0.94735168739523,-0.2761276865927869,0.560085669521806,-0.9233056832242476,0.5476299902213257,-0.5568369391181962,-1.1843341375542866
6.6,1.6904261942574646e+18,6.5954644531249995,1.2488108513101934,-0.2590438518005609,-0.173170367360264,1.6904261942587182e+18,6.5967181640625,-0.08114013671875,0.9129791259765624,-0.2651123046875,1.6904261942574646e+18,6.5954644531249995,-2.609555189503431,9.080359690945745,-2.6228679093497993,1.6904261942574646e+18,6.5954644531249995,0.6581989765167237,0.8774966835975647,0.6535086274147034,1.6904261942637276e+18,6.6017275390625,0.7253763198852539,0.7915244400501251,0.6443149209022522,,,,,,,,,,,,,1.6904261942574646e+18,6.5954644531249995,-43.99520721435547,39.09599685668945,-35.281280517578125,1.6904261942585915e+18,6.596591503906249,1.7790496826171875,71.721240234375,84.06757507324218,1.6904261942574646e+18,6.5954644531249995,1.032262066023993,-0.2908631102110125,0.5644342638983526,-0.7879460489961249,0.560756944287127,-0.531299168981388,-1.183514992708624
6.65,1.6904261943075607e+18,6.645560693359376,1.0585057800495623,0.2211831999617814,-1.1379971914634108,1.6904261943088143e+18,6.646814501953125,-0.225177001953125,0.9540496826171876,-0.368634033203125,1.6904261943075607e+18,6.645560693359376,-2.9535462631317975,9.095463619670868,-2.166958750990182,1.6904261943075607e+18,6.645560693359376,0.8152818560600281,0.505083030462265,0.5461143851280212,1.690426194313824e+18,6.651823974609374,0.7596427857875824,0.5556923627853394,0.525037145614624,,,,,,,,,,,,,1.6904261943075607e+18,6.645560693359376,-46.1897216796875,39.26281509399414,-32.24857788085937,1.6904261943106002e+18,6.648600390625001,-0.372833251953125,71.97389221191406,87.00507202148438,1.6904261943075607e+18,6.645560693359376,1.167690321818742,-0.301582562015467,0.5794212475783829,-0.6328846171393868,0.5611070813271934,-0.5083457760037432,-1.187614319687686
6.7,1.690426194357657e+18,6.695657080078125,2.2195903586596253,0.5646511849510669,-2.1352364850020407,1.6904261943589105e+18,6.696910546875,-0.1000885009765625,0.985693359375,-0.42528076171875,1.690426194357657e+18,6.695657080078125,-3.162456666141152,9.102806032935977,-1.8175303962917624,1.690426194357657e+18,6.695657080078125,0.1986822620034217,0.8594702243804931,-0.0166155233979225,1.69042619436392e+18,6.701920166015626,0.0978586569428443,0.927781331539154,-0.0810540005564689,,,,,,,,,,,,,1.690426194357657e+18,6.695657080078125,-48.34761428833008,39.54783554077149,-29.452607727050783,1.6904261943626102e+18,6.70061025390625,-2.3833404541015626,72.28424377441407,89.76909484863282,1.690426194357657e+18,6.695657080078125,1.251093375730445,-0.3138559311692203,0.5856713617440019,-0.5215251464667333,0.5641134971619803,-0.4901239292092821,-1.1896279852460168
