seconds_elapsed_rounded,accelerometer_time,accelerometer_seconds_elapsed,accelerometer_z,accelerometer_y,accelerometer_x,accelerometeruncalibrated_time,accelerometeruncalibrated_seconds_elapsed,accelerometeruncalibrated_z,accelerometeruncalibrated_y,accelerometeruncalibrated_x,gravity_time,gravity_seconds_elapsed,gravity_z,gravity_y,gravity_x,gyroscope_time,gyroscope_seconds_elapsed,gyroscope_z,gyroscope_y,gyroscope_x,gyroscopeuncalibrated_time,gyroscopeuncalibrated_seconds_elapsed,gyroscopeuncalibrated_z,gyroscopeuncalibrated_y,gyroscopeuncalibrated_x,location_time,location_seconds_elapsed,location_altitude,location_speedAccuracy,location_bearingAccuracy,location_latitude,location_altitudeAboveMeanSeaLevel,location_bearing,location_horizontalAccuracy,location_verticalAccuracy,location_longitude,location_speed,magnetometer_time,magnetometer_seconds_elapsed,magnetometer_z,magnetometer_y,magnetometer_x,magnetometeruncalibrated_time,magnetometeruncalibrated_seconds_elapsed,magnetometeruncalibrated_z,magnetometeruncalibrated_y,magnetometeruncalibrated_x,orientation_time,orientation_seconds_elapsed,orientation_yaw,orientation_qx,orientation_qz,orientation_roll,orientation_qw,orientation_qy,orientation_pitch
0.0,1.6897266770091666e+18,164.9981666015625,-0.7433602479292452,-0.2919014638811349,0.0057960313798487,1.6897266770066624e+18,164.9956625488281,-0.16656494140625,0.9630859375,-0.068487548828125,1.6897266770091666e+18,164.9981666015625,-0.9097462012333422,9.74061749735713,-0.6804522778216004,1.6897266770091666e+18,164.9981666015625,0.0162626148434355,0.1686922669410705,0.044037559442222,1.689726677011673e+18,165.000673046875,0.0082090336829423,0.1706882253289222,0.0512391649885102,,,,,,,,,,,,,1.6897266770091666e+18,164.9981666015625,-17.789243698120117,41.405755615234376,-19.139676666259767,1.6897266770118784e+18,165.00087841796875,12.219032287597656,53.28540802001953,60.238739013671875,1.6897266770091666e+18,164.9981666015625,1.5281910636036244,0.292406534363879,-0.6418967984119155,-0.6422152324669991,-0.3665404996030384,0.6067232836553884,-1.4546850908560325
0.05,1.68972667705927e+18,165.0482700683594,-0.2735054348080605,-0.3418663950115442,0.6490667548941075,1.689726677056766e+18,165.0457658203125,-0.123272705078125,0.9685455322265624,-0.0035247802734375,1.68972667705927e+18,165.0482700683594,-0.9668405020131172,9.733511815457344,-0.7023975238088518,1.68972667705927e+18,165.0482700683594,-0.1069402761757373,0.523920214176178,0.1706040337681769,1.6897266770617764e+18,165.05077641601562,-0.0934685416519642,0.5304006457328796,0.1790176317095756,,,,,,,,,,,,,1.68972667705927e+18,165.0482700683594,-18.33730545043945,41.29811172485351,-19.02678680419922,1.6897266770586862e+18,165.0476861816406,11.67322998046875,53.1262451171875,60.37748413085937,1.68972667705927e+18,165.0482700683594,1.524926467477013,0.2958017761905117,-0.6400801935641102,-0.628487972172737,-0.3736025639102415,0.6026592588608051,-1.448624917490327
0.1,1.6897266771093734e+18,165.09837333984373,1.1365597936844825,0.3688016313058138,-0.8809383906132728,1.6897266771068695e+18,165.09586943359375,0.0122711181640625,1.01900634765625,-0.165625,1.6897266771093734e+18,165.09837333984373,-1.0345968035478144,9.72715771180332,-0.6942666635797917,1.6897266771093734e+18,165.09837333984373,-0.0013611759990453,0.1249390989542007,-0.1108108788728714,1.6897266771118797e+18,165.10087978515625,-0.0071262463927269,0.161198372207582,-0.1422165282070636,,,,,,,,,,,,,1.6897266771093734e+18,165.09837333984373,-18.73519973754883,41.18472137451172,-18.82786636352539,1.689726677110697e+18,165.09969702148436,11.352569580078123,53.067019653320315,60.550927734375,1.6897266771093734e+18,165.09837333984373,1.5486824942318749,0.2989139844402165,-0.639728997448767,-0.5911540991331306,-0.3788080078645832,0.5982472753771022,-1.4433933928411853
0.15,1.689726677159477e+18,165.14847705078125,-0.9011035774768142,0.2152677215337753,0.4193939151673763,1.689726677156973e+18,165.14597294921876,-0.1948516845703125,1.018206787109375,-0.02347412109375,1.689726677159477e+18,165.14847705078125,-0.9461725824853032,9.738026662533285,-0.6673734544093907,1.689726677159477e+18,165.14847705078125,0.0971523014828562,0.4663688778877258,-0.071819856762886,1.6897266771619835e+18,165.1509833984375,0.1053681792691349,0.4434854477643967,-0.0400612380355596,,,,,,,,,,,,,1.689726677159477e+18,165.14847705078125,-18.665309524536134,41.43752593994141,-18.66767578125,1.689726677162707e+18,165.15170693359374,11.367919921875,53.32121276855469,60.87156372070312,1.689726677159477e+18,165.14847705078125,1.5038207236928196,0.3079449573907609,-0.6334097409116206,-0.6141728884937807,-0.3834450907769426,0.5974272691140868,-1.4524382728248797
0.2,1.6897266772095803e+18,165.19858041992188,0.4195756868620217,-0.3796526956659555,-0.8869137240827829,1.6897266772070764e+18,165.19607631835936,-0.0486907958984375,0.9474761962890624,-0.1558441162109375,1.6897266772095803e+18,165.19858041992188,-0.9887374080400914,9.738107911075948,-0.6014117665934562,1.6897266772095803e+18,165.19858041992188,0.0751038312911987,0.1306497514247894,-0.023875755816698,1.6897266772120868e+18,165.20108681640625,0.072273077815771,0.1190720625221729,-0.0527518428862094,,,,,,,,,,,,,1.6897266772095803e+18,165.19858041992188,-19.088975524902345,41.51098403930664,-18.17985153198242,1.6897266772147172e+18,165.20371713867186,10.954006958007811,53.36837158203125,61.330169677734375,1.6897266772095803e+18,165.19858041992188,1.5585967265367215,0.3131012658570684,-0.6334417974548707,-0.5465011257025093,-0.3862158378930745,0.5929201404032762,-1.452502285446969
0.25,1.6897266772596838e+18,165.24868374023438,-0.6543757626354694,-0.4490618643611669,-1.115148698413074,1.6897266772571796e+18,165.24617978515624,-0.1714935302734375,0.953179931640625,-0.174517822265625,1.6897266772596838e+18,165.24868374023438,-0.8854249176036566,9.74897955060661,-0.5856920586705952,1.6897266772596838e+18,165.24868374023438,0.008381522889249,-0.259033316373825,-0.1453983218409121,1.68972667726219e+18,165.25119013671875,0.0054085073061287,-0.254598194360733,-0.1112313419580459,,,,,,,,,,,,,1.6897266772596838e+18,165.24868374023438,-18.766830444335938,41.705125427246095,-18.072345733642575,1.689726677261526e+18,165.25052612304688,11.372528076171877,53.60331344604492,61.24009323120117,1.6897266772596838e+18,165.24868374023438,1.5246921672262554,0.3142598241024948,-0.6314734986724018,-0.5847256621145059,-0.3825998759454595,0.5967358648543606,-1.462316920979773
0.3,1.6897266773097874e+18,165.29878735351562,-0.953168535013348,-0.3251979349964856,-0.6999905795715003,1.6897266773072837e+18,165.2962833984375,-0.185552978515625,0.958233642578125,-0.1269134521484375,1.6897266773097874e+18,165.29878735351562,-0.95049117633678,9.741442491552233,-0.6075728465064615,1.6897266773097874e+18,165.29878735351562,-0.0305151063948869,-0.2832155704498291,0.3332096636295318,1.6897266773122936e+18,165.30129375,-0.0264041237533092,-0.2939926326274871,0.3366153538227081,,,,,,,,,,,,,1.6897266773097874e+18,165.29878735351562,-18.77081718444824,41.577310180664064,-18.297830963134764,1.6897266773083333e+18,165.29733325195312,11.282278442382813,53.40547180175781,61.056539916992186,1.6897266773097874e+18,165.29878735351562,1.5520244654944588,0.3087908102201929,-0.6352953167193739,-0.5693153829664214,-0.3806015250170345,0.59680895096659,-1.4554938937366206
0.35,1.689726677359891e+18,165.3488908203125,0.2359186314745992,-0.1873525927436351,0.3081442458300292,1.6897266773573868e+18,165.34638671875,-0.086639404296875,0.9728302001953124,-0.0312835693359375,1.689726677359891e+18,165.3488908203125,-1.0797548750792445,9.72767770247638,-0.6133151164855063,1.689726677359891e+18,165.3488908203125,0.1353728748857974,-0.6962568402290344,0.2241829484701156,1.6897266773623972e+18,165.35139707031252,0.1469286203384399,-0.7011396408081054,0.2199905276298522,,,,,,,,,,,,,1.689726677359891e+18,165.3488908203125,-18.981493377685545,41.53223114013672,-18.77088928222656,1.6897266773603402e+18,165.34934018554688,11.10240478515625,53.350341796875,60.55787963867188,1.689726677359891e+18,165.3488908203125,1.6301307982498563,0.2985972116995551,-0.6438915331939146,-0.5167664391190618,-0.3747505680025416,0.5964702008936246,-1.4438139949625777
0.4,1.6897266774099942e+18,165.398994140625,-0.4860604779300838,-0.4882565120565891,-0.7378948075171561,1.6897266774074903e+18,165.39649018554687,-0.1741485595703125,0.941326904296875,-0.13709716796875,1.6897266774099942e+18,165.398994140625,-1.1660584507259726,9.720866736513376,-0.5605105780149996,1.6897266774099942e+18,165.398994140625,0.20514657497406,-0.6886338114738464,0.2682324558496475,1.6897266774125007e+18,165.40150078125,0.2034449458122253,-0.672118628025055,0.2780850410461425,,,,,,,,,,,,,1.6897266774099942e+18,165.398994140625,-18.693312454223634,41.516230773925784,-18.935294342041015,1.6897266774123482e+18,165.40134814453126,11.518093872070311,53.37651062011719,60.42378845214843,1.6897266774099942e+18,165.398994140625,1.73584730086704,0.2875913007558274,-0.6543254284208654,-0.4484384716042463,-0.3623397987555981,0.5981885627809638,-1.4384494337874103
0.45,1.6897266774600978e+18,165.44909770507812,-1.0358738523593545,-0.3624851708614826,-0.7682984651874005,1.689726677457594e+18,165.44659379882813,-0.2408477783203125,0.955902099609375,-0.1288787841796875,1.6897266774600978e+18,165.44909770507812,-1.33510405169338,9.701936527498365,-0.5052971298522875,1.6897266774600978e+18,165.44909770507812,0.2238891571760177,-0.9487080454826357,0.5484522342681885,1.689726677462604e+18,165.45160390625,0.2304199963808059,-0.9873245120048524,0.5699876248836517,,,,,,,,,,,,,1.6897266774600978e+18,165.44909770507812,-18.659988403320312,41.452301025390625,-19.07810287475586,1.6897266774643576e+18,165.4533578125,11.411044311523437,53.2138916015625,60.28909606933594,1.6897266774600978e+18,165.44909770507812,1.8577660264395328,0.2755831493398626,-0.6668688997130853,-0.3628683530180726,-0.3511688768079046,0.5966225197177402,-1.4246595997049294
0.5,1.6897266775102008e+18,165.49920107421875,0.8035824276320636,0.3362798855030536,-0.9948542980982364,1.6897266775076972e+18,165.49669697265625,-0.07293701171875,1.0206756591796875,-0.1516693115234375,1.6897266775102008e+18,165.49920107421875,-1.6391587485744057,9.65619032465458,-0.4828468277262523,1.6897266775102008e+18,165.49920107421875,0.2668408274650574,-1.598336100578308,0.7176788806915283,1.6897266775127076e+18,165.50170756835936,0.2679070770740508,-1.5659072160720826,0.697712516784668,,,,,,,,,,,,,1.6897266775102008e+18,165.49920107421875,-18.67210273742676,41.1674186706543,-19.533711242675786,1.689726677511168e+18,165.50016815185546,11.366065979003906,52.96935272216797,59.662498474121094,1.6897266775102008e+18,165.49920107421875,2.0031524556960036,0.2504316167600983,-0.6883348992678016,-0.2872377647097113,-0.3311735795280177,0.5946736455725173,-1.3956263710109869
0.55,1.689726677560305e+18,165.5493047363281,1.5027750033067169,0.6701647510153055,0.1481479278043284,1.6897266775578007e+18,165.5468007324219,-0.0387176513671875,1.0475860595703126,-0.0271148681640625,1.689726677560305e+18,165.5493047363281,-1.8128239721664785,9.625770402662754,-0.4778592631850763,1.689726677560305e+18,165.5493047363281,0.1816015616059302,-0.681533670425415,0.1891680650413036,1.689726677562811e+18,165.55181098632812,0.1912131041288375,-0.6629717230796814,0.1930587224662303,1.6897266775684152e+18,165.5574152832031,338.0709705352783,-1.0,-1.0,49.27801463929011,357.2523994445801,-1.0,35.0,20.900251388549805,-122.90987324483405,-1.0,1.689726677560305e+18,165.5493047363281,-18.602577209472656,41.04189224243164,-20.15039291381836,1.6897266775579756e+18,165.5469753417969,11.476504516601562,52.878115844726565,59.2182861328125,1.689726677560305e+18,165.5493047363281,2.089630874779962,0.2308503614563801,-0.7029210172384481,-0.2577670248103708,-0.3135540212748883,0.5952070359795483,-1.378439351336898
0.6,1.689726677610408e+18,165.59940791015623,1.0395114782093464,0.6165646782529354,-0.5027430395357311,1.689726677607904e+18,165.59690405273437,-0.08404541015625,1.0464080810546874,-0.088323974609375,1.689726677610408e+18,165.59940791015623,-1.8761353208301963,9.614637248038653,-0.4573018475205078,1.689726677610408e+18,165.59940791015623,0.1246860869228839,-0.7211149454116821,0.032991648465395,1.6897266776129142e+18,165.60191435546875,0.1330811411142349,-0.7458314180374146,0.0077467083930969,,,,,,,,,,,,,1.689726677610408e+18,165.59940791015623,-18.34134635925293,41.10194854736328,-20.48686294555664,1.6897266776099848e+18,165.598984765625,11.767010498046876,52.9584716796875,58.86516418457031,1.689726677610408e+18,165.59940791015623,2.1445002646128146,0.2197920263718722,-0.7107159958237494,-0.2391005900736732,-0.3008762375127997,0.5966780657738577,-1.3725853534005632
0.65,1.6897266776605115e+18,165.64951162109375,0.6598864304287732,0.4869250880962609,0.2893558272124081,1.6897266776580076e+18,165.64700751953126,-0.1186187744140625,1.0291534423828126,-0.03416748046875,1.6897266776605115e+18,165.64951162109375,-1.78103100825578,9.632557169419528,-0.4577877971000223,1.6897266776605115e+18,165.64951162109375,0.2022577345371246,-0.972901487350464,-0.3023715019226073,1.689726677663018e+18,165.65201806640624,0.1908924013376235,-0.9519289374351502,-0.3123322784900665,,,,,,,,,,,,,1.6897266776605115e+18,165.64951162109375,-17.656610107421876,41.405078125,-20.817286682128906,1.6897266776619945e+18,165.6509943359375,12.810055541992188,53.35080261230469,58.5078857421875,1.6897266776605115e+18,165.64951162109375,2.177522916024435,0.207422135141455,-0.7144275965642456,-0.2517185248472696,-0.2834972342768039,0.6051020307699598,-1.3821568276726084
0.7,1.689726677710615e+18,165.6996150390625,0.6609311464022098,0.4083771534645556,-0.8708635786291584,1.6897266777081108e+18,165.6971108886719,-0.0857025146484375,1.0288787841796876,-0.13526611328125,1.689726677710615e+18,165.6996150390625,-1.5883252179159224,9.663939798963664,-0.5010736377122625,1.689726677710615e+18,165.6996150390625,-0.0338930652476847,-1.0228439927101136,-0.41752210855484,1.6897266777131215e+18,165.70212143554687,-0.0413539911620318,-1.0228411197662357,-0.4314132869243622,,,,,,,,,,,,,1.689726677710615e+18,165.6996150390625,-16.01190319061279,41.78297424316406,-21.27064971923828,1.6897266777140055e+18,165.70300541992188,14.534750366210938,53.696231079101565,57.92860107421875,1.689726677710615e+18,165.6996150390625,2.1692150992878942,0.1943316623878696,-0.7142091037821203,-0.3064430408791362,-0.266204503110368,0.6174277942885101,-1.4000688209741017
0.75,1.6897266777607183e+18,165.74971835937498,1.4944957475829124,0.523775686109662,-0.3571651229629292,1.6897266777582144e+18,165.74721440429687,0.0252655029296875,1.042645263671875,-0.0992767333984375,1.6897266777607183e+18,165.74971835937498,-1.246875192459449,9.705420161056518,-0.6325381125150621,1.6897266777607183e+18,165.74971835937498,-0.2189706712961197,-0.8547438859939576,-0.9193833351135254,1.6897266777632248e+18,165.75222475585937,-0.2287341654300689,-0.8264209628105164,-0.9463373064994812,,,,,,,,,,,,,1.6897266777607183e+18,165.74971835937498,-13.840345573425292,42.021969604492185,-22.01134490966797,1.6897266777608138e+18,165.74981378173828,16.741355895996094,53.90518569946289,57.21463394165039,1.6897266777607183e+18,165.74971835937498,2.0472257709801127,0.1794992657259435,-0.7076377727712369,-0.474672346319863,-0.2505890372228136,0.635730854581384,-1.4273431474688432
0.8,1.689726677810822e+18,165.79982221679688,1.2359421927434204,0.426396209757924,0.5345952593529969,1.6897266778083182e+18,165.79731826171874,0.0643951416015625,1.0389984130859375,-0.0278167724609375,1.689726677810822e+18,165.79982221679688,-0.6508589647665992,9.748601715657111,-0.8171109821861983,1.689726677810822e+18,165.79982221679688,-0.40399090051651,-0.3512895628809929,-1.420420527458191,1.6897266778133286e+18,165.80232866210935,-0.4123193383216857,-0.3107915380038321,-1.4417560815811157,,,,,,,,,,,,,1.689726677810822e+18,165.79982221679688,-10.904793167114258,42.19674911499023,-22.851683044433592,1.6897266778076232e+18,165.7966232421875,19.422991943359374,54.05857543945312,56.45748596191406,1.689726677810822e+18,165.79982221679688,1.636070932545175,0.1715585801465248,-0.6889741354790341,-0.9114334229300772,-0.2417608806288639,0.6613004296034652,-1.4622213891892006
0.85,1.689726677860926e+18,165.84992587890625,1.415444773412943,1.1686153248280289,0.1969505883027612,1.689726677858422e+18,165.8474220703125,0.1640472412109375,1.1137237548828125,-0.0934417724609375,1.689726677860926e+18,165.84992587890625,0.1517696569422097,9.741910927394628,-1.0811292175593228,1.689726677860926e+18,165.84992587890625,-0.6672251343727111,0.3656038641929626,-1.8778169393539428,1.6897266778634324e+18,165.85243232421877,-0.6786576032638549,0.394034332036972,-1.894783878326416,,,,,,,,,,,,,1.689726677860926e+18,165.84992587890625,-7.502875518798828,42.23958206176758,-23.888480377197265,1.6897266778596365e+18,165.84863637695312,22.83954772949219,54.062557983398435,55.40221252441406,1.689726677860926e+18,165.84992587890625,0.8528653770302045,0.1738869746300831,-0.6573026355542982,-1.686090545855874,-0.2451241073156777,0.6909548357136427,-1.456565971150222
0.9,1.6897266779110292e+18,165.9000294433594,-0.8026724293411522,0.8128700420677661,0.5455051704543828,1.6897266779085256e+18,165.89752543945312,0.0074249267578125,1.064556884765625,-0.0910736083984375,1.6897266779110292e+18,165.9000294433594,1.029463298503831,9.639377020115257,-1.4601499719972906,1.6897266779110292e+18,165.9000294433594,-0.7693104147911072,0.4970592439174652,-1.6441729545593262,1.6897266779135355e+18,165.9025355957031,-0.7637404203414917,0.4918686985969543,-1.5996260166168212,,,,,,,,,,,,,1.6897266779110292e+18,165.9000294433594,-4.237212371826172,41.800819396972656,-25.204979705810548,1.6897266779116488e+18,165.90064868164063,26.259420776367183,53.538763427734374,53.96501770019531,1.6897266779110292e+18,165.9000294433594,0.3299017996980421,0.1811239614062331,-0.6170035777905378,-2.17705384271744,-0.2582425591396675,0.7208515853828321,-1.3871673569958078
0.95,1.6897266779611328e+18,165.9501327636719,-2.1454560026864704,0.4408104026532172,0.9630255614478884,1.6897266779586289e+18,165.94762875976562,-0.052996826171875,1.008209228515625,-0.089276123046875,1.6897266779611328e+18,165.9501327636719,1.5926352485217152,9.49773018130064,-1.844001960597038,1.6897266779611328e+18,165.9501327636719,-0.7292620658874511,0.3910633027553558,-0.9340548396110536,1.6897266779636393e+18,165.9526394042969,-0.7256610512733459,0.3984614133834838,-0.9098518848419188,,,,,,,,,,,,,1.6897266779611328e+18,165.9501327636719,-2.435653305053711,41.05872268676758,-26.507878875732423,1.6897266779636613e+18,165.95266132812498,28.081011962890624,52.612152099609375,52.503997802734375,1.6897266779611328e+18,165.9501327636719,0.1976353101396871,0.1831485898579123,-0.5870113447671865,-2.282729159630997,-0.2723007356012134,0.7400288635276935,-1.3196646811035426
1.0,1.6897266780112364e+18,166.000236328125,-3.165312873902917,-0.1068755020672082,1.655568411522805,1.6897266780087324e+18,165.99773251953124,-0.1377166748046875,0.944915771484375,-0.0572906494140625,1.6897266780112364e+18,166.000236328125,1.866967328799218,9.373693233456612,-2.193006799960285,1.6897266780112364e+18,166.000236328125,-0.6167834639549256,0.2571023494005203,-0.2737772569060325,1.6897266780137426e+18,166.00274248046875,-0.6108365774154663,0.2628850996494293,-0.2294810771942138,,,,,,,,,,,,,1.6897266780112364e+18,166.000236328125,-1.5202812194824218,40.03233032226562,-27.85142364501953,1.689726678010472e+18,165.99947198486328,28.556880950927734,51.69508743286133,51.29299545288086,1.6897266780112364e+18,166.000236328125,0.1836456666228297,0.1810970548657364,-0.5681705622464877,-2.2764077096806403,-0.2863020169513627,0.7499261639436016,-1.2726789823531846
1.05,1.6897266780613396e+18,166.0503396484375,-2.543251351799369,-0.3811832077819108,0.7992171597076952,1.6897266780588357e+18,166.04783559570313,-0.072113037109375,0.9063079833984377,-0.175836181640625,1.6897266780613396e+18,166.0503396484375,1.7770768638025225,9.311794586521984,-2.507839116026014,1.6897266780613396e+18,166.0503396484375,-0.6437146902084351,0.2989531576633453,0.4342434823513031,1.689726678063846e+18,166.0528462890625,-0.6426147937774658,0.3074505507946014,0.4561368465423584,,,,,,,,,,,,,1.6897266780613396e+18,166.0503396484375,-1.817138671875,39.21395034790039,-29.01033248901367,1.6897266780572805e+18,166.04628046875,28.1753173828125,50.98298034667969,50.2786376953125,1.6897266780613396e+18,166.0503396484375,0.2584782562985112,0.1738946062509391,-0.5641304789979367,-2.187698664203999,-0.3018702930266453,0.7485690332263603,-1.2517852133461465
1.1,1.6897266781114437e+18,166.10044340820315,-1.1116858446080982,-0.8847211094093324,2.091143310062289,1.6897266781089395e+18,166.09793935546875,0.0435211181640625,0.8554595947265625,-0.064031982421875,1.6897266781114437e+18,166.10044340820315,1.4704566711215672,9.282233560994865,-2.799108682518303,1.6897266781114437e+18,166.10044340820315,-0.3847708761692047,0.4971453189849854,0.5762978434562683,1.6897266781139497e+18,166.102949609375,-0.3589996516704559,0.5102420032024384,0.5722404003143311,,,,,,,,,,,,,1.6897266781114437e+18,166.10044340820315,-3.664571762084961,38.349908447265626,-30.149897003173827,1.689726678109292e+18,166.09829194335938,26.238214111328126,50.14537658691406,49.15092468261719,1.6897266781114437e+18,166.10044340820315,0.3750107221136642,0.1659582648433471,-0.5678216090458867,-2.054614934357405,-0.3202756399053172,0.7398779973296337,-1.242289137021247
1.15,1.6897266781615465e+18,166.15054658203127,0.1032955831407755,-0.8369459141820668,3.0698779849737883,1.6897266781590426e+18,166.1480426269531,0.1345428466796875,0.8649169921875,0.01817626953125,1.6897266781615465e+18,166.15054658203127,1.1851442448549716,9.300000220736266,-2.87603731615901,1.6897266781615465e+18,166.15054658203127,0.1708375453948974,0.0989039197564125,0.4177502930164337,1.689726678164053e+18,166.15305297851563,0.1994107879698276,0.0702685184776782,0.41289803981781,,,,,,,,,,,,,1.6897266781615465e+18,166.15054658203127,-5.359280395507812,38.15327529907226,-30.577426147460937,1.6897266781613043e+18,166.15030444335935,24.62518615722656,49.99986572265625,48.827825927734374,1.6897266781615465e+18,166.15054658203127,0.4496168899063387,0.1666200343469803,-0.5739162294124357,-1.9614749102559297,-0.3319465559554812,0.7298342022041501,-1.2479814987124789
1.2,1.68972667821165e+18,166.20065019531248,1.2790519242168217,0.2853414916175604,1.5128884887203573,1.6897266782091464e+18,166.19814619140624,0.2438690185546875,0.99478759765625,-0.13370361328125,1.68972667821165e+18,166.20065019531248,1.052870579867661,9.368797278108596,-2.6986166855561735,1.68972667821165e+18,166.20065019531248,0.4477855801582336,-0.2136635724455117,0.2066209390759467,1.6897266782141568e+18,166.20315659179687,0.4431529343128204,-0.1874245442450046,0.1949409946799278,,,,,,,,,,,,,1.68972667821165e+18,166.20065019531248,-5.6557872772216795,38.49755172729492,-30.170086669921876,1.689726678213316e+18,166.20231591796875,24.382965087890625,50.52677917480469,49.45126037597656,1.68972667821165e+18,166.20065019531248,0.4741590178457293,0.1694000236511373,-0.5830073144447738,-1.9428376073466889,-0.3262031659609282,0.7245570363270163,-1.2709291770277469
1.25,1.6897266782617536e+18,166.2507536621094,2.287425877523422,1.3375740658426285,-2.2856478203871844,1.6897266782592497e+18,166.24824956054687,0.3365386962890625,1.0945465087890625,-0.51146240234375,1.6897266782617536e+18,166.2507536621094,0.9965808588559926,9.410236256051656,-2.5737733897653223,1.6897266782617536e+18,166.2507536621094,0.060988974943757,0.5661836206912995,-0.0485595174133777,1.68972667826426e+18,166.25326005859375,0.0409723056181974,0.5885070979595184,-0.0603134606033563,,,,,,,,,,,,,1.6897266782617536e+18,166.2507536621094,-5.953568649291992,38.9923583984375,-29.53933334350586,1.6897266782601262e+18,166.24912622070312,24.00524139404297,50.86286926269531,49.874061584472656,1.6897266782617536e+18,166.2507536621094,0.4651048312857263,0.1774818051058894,-0.5854195018819786,-1.940218354662456,-0.3262841306692715,0.720624409134432,-1.2854969316249398
1.3,1.689726678311857e+18,166.30085693359374,2.0409678341472146,0.6332919411700964,-1.860695964218676,1.689726678309353e+18,166.29835307617188,0.3121917724609375,1.018048095703125,-0.4465118408203125,1.689726678311857e+18,166.30085693359374,1.0223236558822542,9.394043596854806,-2.62211744169563,1.689726678311857e+18,166.30085693359374,-0.1004734739661216,0.2066391013562679,-0.328658452630043,1.6897266783143634e+18,166.30336333007813,-0.1005633071064948,0.1796834267675876,-0.3391624003648757,,,,,,,,,,,,,1.689726678311857e+18,166.30085693359374,-6.308826065063476,39.00295639038086,-29.501705932617188,1.6897266783069366e+18,166.29593666992187,23.78301696777344,50.83780212402344,49.89058837890625,1.689726678311857e+18,166.30085693359374,0.4354375382897612,0.185930421081213,-0.5790660716901825,-1.9424519429162577,-0.3354867546344341,0.719410081096185,-1.2797014334965704
1.35,1.6897266783619604e+18,166.350960546875,1.388604697282314,-0.2125299379068613,-0.8417098844873905,1.6897266783594565e+18,166.34845668945314,0.2627532958984375,0.928717041015625,-0.35584716796875,1.6897266783619604e+18,166.350960546875,1.226282398607507,9.355507354615929,-2.671242297966182,1.6897266783619604e+18,166.350960546875,-0.1423514157533645,-0.3843320071697235,-0.4389931559562683,1.6897266783644667e+18,166.35346674804686,-0.1425100088119506,-0.4066820621490478,-0.4389190375804901,,,,,,,,,,,,,1.6897266783619604e+18,166.350960546875,-5.456630706787109,38.68317489624023,-29.568907928466796,1.6897266783589486e+18,166.34794858398436,24.725640869140623,50.50849609375,49.78861694335937,1.6897266783619604e+18,166.350960546875,0.3773913470388353,0.1865589630869552,-0.5708338551331977,-2.000874304228619,-0.3340923231857317,0.7264363601196787,-1.2663254006903533
1.4,1.689726678412064e+18,166.4010640625,0.4906646837899088,-1.0136296964907647,-0.3300395298087596,1.68972667840956e+18,166.39856000976562,0.20079345703125,0.8404541015625,-0.301068115234375,1.689726678412064e+18,166.4010640625,1.5256122735367712,9.31058579525411,-2.6732767848554255,1.689726678412064e+18,166.4010640625,-0.0368440018966794,-0.9891369938850404,-0.4259054601192473,1.6897266784145705e+18,166.40357045898438,-0.0244366334751248,-0.9984600305557252,-0.4204599797725677,,,,,,,,,,,,,1.689726678412064e+18,166.4010640625,-3.755524063110351,38.4593505859375,-29.67535095214844,1.689726678410962e+18,166.3999619628906,26.476861572265623,50.2843505859375,49.71540222167969,1.689726678412064e+18,166.4010640625,0.3194225701158293,0.1790069580833872,-0.564710649125527,-2.0890752610692056,-0.3213804109405719,0.7387257686707165,-1.251387771248176
1.45,1.6897266784621676e+18,166.45116738281249,-0.8433423664470017,-1.7714002502447364,0.9729280344593524,1.6897266784596634e+18,166.44866337890625,0.094891357421875,0.763958740234375,-0.1547821044921875,1.6897266784621676e+18,166.45116738281249,1.8167650817815957,9.295268399134876,-2.541758307536542,1.6897266784621676e+18,166.45116738281249,0.2388849273324012,-0.9860019445419312,-0.1847951582632959,1.6897266784646735e+18,166.4536735839844,0.2539560586214066,-0.9706951975822448,-0.1606536969542503,,,,,,,,,,,,,1.6897266784621676e+18,166.45116738281249,-1.7507759094238282,38.431288146972655,-29.4385009765625,1.689726678462972e+18,166.45197192382813,28.783935546875,50.34439697265625,50.067202758789065,1.6897266784621676e+18,166.45116738281249,0.2633190269394091,0.1698555073709233,-0.5632959240964978,-2.191461704749854,-0.3000454838236727,0.7508444703382107,-1.2464355170498207
1.5,1.6897266785122708e+18,166.5012706542969,-2.3368739159467813,-2.57317840493381,1.326922937194854,1.689726678509767e+18,166.49876689453123,-0.054583740234375,0.68936767578125,-0.094512939453125,1.6897266785122708e+18,166.5012706542969,1.8674008102326096,9.346823697422742,-2.304804648538828,1.6897266785122708e+18,166.5012706542969,0.4600631952285766,-0.5326151251792908,0.4241065829992294,1.689726678514777e+18,166.5037772949219,0.4753341019153595,-0.4978672564029693,0.4581821173429489,,,,,,,,,,,,,1.6897266785122708e+18,166.5012706542969,-0.4611019134521484,38.957418823242186,-28.86327133178711,1.6897266785149837e+18,166.5039837402344,29.617535400390626,50.97901611328125,50.78695068359375,1.6897266785122708e+18,166.5012706542969,0.239133931528851,0.1654148661069466,-0.5706847080201657,-2.2518802808195337,-0.2812081859557392,0.7535561280412879,-1.2634791532803262
1.55,1.6897266785623744e+18,166.5513744140625,-1.8801859698474408,-1.6070606350111958,2.3738941422125697,1.6897266785598705e+18,166.54887041015624,-0.02469482421875,0.8134674072265625,0.0436065673828125,1.6897266785623744e+18,166.5513744140625,1.563912105897367,9.47710076715231,-1.9689447420135135,1.6897266785623744e+18,166.5513744140625,0.8912235021591186,-0.0726871882565319,0.9315478801727296,1.6897266785648806e+18,166.5538806152344,0.9161351919174194,-0.0556432355195283,0.94990713596344,,,,,,,,,,,,,1.6897266785623744e+18,166.5513744140625,-1.0977897644042969,39.755036163330075,-27.688768768310545,1.6897266785617956e+18,166.5507955932617,28.73471450805664,51.81199645996094,51.94316482543945,1.6897266785623744e+18,166.5513744140625,0.2615345615167919,0.1699703476443753,-0.5892321845102616,-2.241444481920695,-0.2702173769959872,0.7421682933282896,-1.3114417792909252
1.6,1.6897266786124774e+18,166.60147758789063,0.4256439446989447,5.03500854630053,1.9948039027349649,1.6897266786099738e+18,166.5989735839844,0.169891357421875,1.548492431640625,0.049603271484375,1.6897266786124774e+18,166.60147758789063,1.0736949466792494,9.637706690363288,-1.443598796299398,1.6897266786124774e+18,166.60147758789063,1.1348681449890137,0.0733557099942118,1.005497944355011,1.6897266786149842e+18,166.6039841796875,1.1178624987602237,0.1234077993780374,0.9863325476646424,,,,,,,,,,,,,1.6897266786124774e+18,166.60147758789063,-2.8766578674316405,41.21306457519531,-25.660689544677737,1.689726678608608e+18,166.59760810546874,27.030462646484377,53.178131103515625,53.89581298828125,1.6897266786124774e+18,166.60147758789063,0.2939188352630838,0.1835213441797811,-0.6151604218218711,-2.20921913606749,-0.2583898877263265,0.7218080236968898,-1.38623863548531
1.65,1.6897266786625815e+18,166.65158134765625,4.3178318687415125,1.8234432735973596,-2.8106883826400333,1.6897266786600776e+18,166.64907749023436,0.500396728515625,1.1268768310546875,-0.426165771484375,1.6897266786625815e+18,166.65158134765625,0.683834745253697,9.722085815366508,-1.0836301383034883,1.6897266786625815e+18,166.65158134765625,0.3767398044466972,0.5543465077877044,0.6019792556762695,1.6897266786650875e+18,166.6540875,0.3426149293780327,0.5222857162356377,0.6161150097846985,,,,,,,,,,,,,1.6897266786625815e+18,166.65158134765625,-4.9867431640625,42.14598770141602,-24.068473052978515,1.689726678660619e+18,166.64961899414064,24.93682861328125,54.02530517578125,55.39491577148438,1.6897266786625815e+18,166.65158134765625,0.3492675277351893,0.1999422869730869,-0.6313152153308074,-2.1313247773446755,-0.2580003055520511,0.7034622978012476,-1.4396583136450116
1.7,1.6897266787126843e+18,166.70168452148437,0.2432137057731673,-0.660536506448388,-3.065995079125836,1.6897266787101806e+18,166.69918066406248,0.0456634521484375,0.918994140625,-0.395855712890625,1.6897266787126843e+18,166.70168452148437,0.2930872359463386,9.744197343218326,-1.0586157870692017,1.6897266787126843e+18,166.70168452148437,-0.2001538204029202,0.6724310114979744,0.7287737369537354,1.6897266787151908e+18,166.70419091796876,-0.2221797525882721,0.7397718250751495,0.6938278675079346,,,,,,,,,,,,,1.6897266787126843e+18,166.70168452148437,-7.211906433105469,42.07257766723633,-24.023748016357423,1.6897266787126313e+18,166.70163129882812,22.656805419921874,53.88643188476563,55.33629455566406,1.6897266787126843e+18,166.70168452148437,0.6219546694825365,0.2026290109351831,-0.6429313403288874,-1.8404519190141475,-0.2676943744436155,0.6883772957636957,-1.4578927808191369
1.75,1.689726678762788e+18,166.7517880859375,0.3531207813022006,-1.1806194170677662,0.6415252388603239,1.689726678760284e+18,166.74928393554688,0.028338623046875,0.882373046875,-0.0340484619140625,1.689726678762788e+18,166.7517880859375,0.0002333068890334,9.729296360493302,-1.225770196688622,1.689726678762788e+18,166.7517880859375,-0.2979997634887695,0.2203511059284209,0.5574697136878968,1.6897266787652943e+18,166.75429448242187,-0.2754662524908781,0.2235358786769211,0.5833993136882782,,,,,,,,,,,,,1.689726678762788e+18,166.7517880859375,-8.853060913085937,41.80622482299805,-24.661998748779297,1.689726678764641e+18,166.75364116210935,20.854351806640626,53.514566040039064,54.527609252929686,1.689726678762788e+18,166.7517880859375,0.8605112390346787,0.2030060300489984,-0.6466402309256691,-1.573382714058427,-0.2860674238515764,0.6773354745696369,-1.4451998276149898
1.8,1.6897266788128911e+18,166.80189116210937,-0.3245421014362573,0.5853203465878963,2.9591247354643047,1.6897266788103872e+18,166.7993872558594,-0.0617645263671875,1.048077392578125,0.167449951171875,1.6897266788128911e+18,166.80189116210937,-0.3604990020129456,9.71639081859529,-1.273307491506785,1.6897266788128911e+18,166.80189116210937,0.0132854834198952,1.1911798655986785,0.5806883573532104,1.6897266788153976e+18,166.80439765625002,0.0279949910938739,1.1157590687274932,0.563370805978775,,,,,,,,,,,,,1.6897266788128911e+18,166.80189116210937,-10.74876289367676,41.47992477416992,-24.942203521728516,1.6897266788114504e+18,166.80045037841796,18.844696044921875,53.34624481201172,54.45150375366211,1.6897266788128911e+18,166.80189116210937,1.099147436009692,0.2095096784278556,-0.6522662394192669,-1.2962578398461946,-0.3047593702252916,0.66156844015545,-1.43503806158586
1.85,1.6897266788629944e+18,166.85199443359377,0.2369410917770862,-0.6231002175015211,1.054845503976345,1.6897266788604902e+18,166.84949033203125,-0.0407318115234375,0.9291473388671876,-0.03646240234375,1.6897266788629944e+18,166.85199443359377,-0.5153866060293093,9.719839380840062,-1.195115676836371,1.6897266788629944e+18,166.85199443359377,0.2349213063716888,-0.63788001537323,0.002948622778058,1.6897266788655007e+18,166.85450083007814,0.2295977175235747,-0.6435640156269073,-0.0057558894157409,,,,,,,,,,,,,1.6897266788629944e+18,166.85199443359377,-11.725882720947263,41.292117309570315,-24.54522399902344,1.689726678858258e+18,166.8472578125,18.373388671875,53.111968994140625,54.87147827148438,1.6897266788629944e+18,166.85199443359377,1.224597660867683,0.2124635766988665,-0.657515632509936,-1.1637851728142827,-0.3064751655495471,0.6546558880832446,-1.437681818538738
1.9,1.6897266789130977e+18,166.90209775390628,-1.725667608308792,-0.0396686949479579,-1.023260059949532,1.6897266789105938e+18,166.8995937988281,-0.232855224609375,0.98800048828125,-0.219439697265625,1.6897266789130977e+18,166.90209775390628,-0.5526547426415607,9.726578684419394,-1.1207773665628582,1.6897266789130977e+18,166.90209775390628,0.1195671766996383,-0.0565465778112411,0.3254932790994644,1.689726678915604e+18,166.90460400390626,0.1171881958842276,-0.0460684787482023,0.3396667599678039,,,,,,,,,,,,,1.6897266789130977e+18,166.90209775390628,-11.04953384399414,41.352454376220706,-24.42220458984375,1.689726678910268e+18,166.89926796875,19.044244384765623,53.20072021484375,54.97898559570312,1.6897266789130977e+18,166.90209775390628,1.2964410709014773,0.2076774594960933,-0.6630371051022264,-1.112892105395252,-0.2975830107285701,0.6547437581983632,-1.4429224624554882
1.95,1.6897266789632013e+18,166.95220131835936,-1.3879827659916877,0.0238940858066082,-1.41114067570433,1.689726678960697e+18,166.94969741210937,-0.2147857666015625,0.99588623046875,-0.2561248779296875,1.6897266789632013e+18,166.95220131835936,-0.7253491119074822,9.71868109226346,-1.0905306676330415,1.6897266789632013e+18,166.95220131835936,0.0194955468177795,-0.6023111820220948,0.4126548051834106,1.6897266789657078e+18,166.95470771484375,0.0092237513512372,-0.6075899720191955,0.4152392745018005,,,,,,,,,,,,,1.6897266789632013e+18,166.95220131835936,-11.26689796447754,41.26717834472656,-24.39524230957031,1.689726678962282e+18,166.95128212890626,18.800961303710935,53.116241455078125,54.97280578613281,1.6897266789632013e+18,166.95220131835936,1.4422952255616015,0.2007526659654198,-0.6716944388342032,-0.984459581328791,-0.2929041292179377,0.6501531322986012,-1.436785320939263
2.0,1.6897266790133048e+18,167.00230483398437,-0.9071820352207124,0.4371512956237792,-0.7374753984482586,1.689726679010801e+18,166.99980073242187,-0.1823760986328125,1.0326202392578123,-0.1884307861328125,1.6897266790133048e+18,167.00230483398437,-0.9236040900331732,9.693643681640626,-1.1595403302296998,1.6897266790133048e+18,167.00230483398437,-0.225516140460968,0.0139122869819402,0.4981725335121155,1.689726679015811e+18,167.00481103515625,-0.2324141204357147,0.0720724865794182,0.4993144094944,,,,,,,,,,,,,1.6897266790133048e+18,167.00230483398437,-11.448750305175782,41.28260269165039,-24.76016616821289,1.689726679014297e+18,167.00329721679685,18.445758056640624,53.025299072265625,54.54069519042969,1.6897266790133048e+18,167.00230483398437,1.5516163465604964,0.187921147967247,-0.6806716362423418,-0.8992996150328991,-0.2894301689918521,0.6462084304080236,-1.419000235939447
2.05,1.689726679063408e+18,167.05240805664062,0.5744286141172796,0.3238790198045969,-0.2432700025376676,1.689726679060904e+18,167.04990390625,-0.0523834228515625,1.016375732421875,-0.1532806396484375,1.689726679063408e+18,167.05240805664062,-1.1529574593210965,9.655123338397145,-1.271271981704235,1.689726679063408e+18,167.05240805664062,-0.2831386148929595,0.4629115521907806,0.2871644303202628,1.6897266790659144e+18,167.05491440429688,-0.2796162486076355,0.4619321048259735,0.2693187728524208,,,,,,,,,,,,,1.689726679063408e+18,167.05240805664062,-12.55297393798828,40.77874755859375,-25.17854843139649,1.6897266790611103e+18,167.0501102294922,17.277645111083984,52.55076217651367,54.11927032470703,1.689726679063408e+18,167.05240805664062,1.602208872855904,0.185559649090827,-0.6843432389917237,-0.8344693169153657,-0.300741578535656,0.6377923333254703,-1.3948726749188236
2.1,1.6897266791135117e+18,167.10251166992188,0.9525532672722636,-0.1546004284119606,0.0448320690605044,1.6897266791110075e+18,167.10000786132812,-0.0332489013671875,0.962078857421875,-0.13680419921875,1.6897266791135117e+18,167.10251166992188,-1.231567499403581,9.63279565435052,-1.364725458331704,1.6897266791135117e+18,167.10251166992188,-0.2115474790334701,0.5218698441982269,-0.0427801810204982,1.6897266791110075e+18,167.1000075683594,-0.2137785255908965,0.5399312004446983,-0.0374305958393961,,,,,,,,,,,,,1.6897266791135117e+18,167.10251166992188,-13.336331176757811,40.34729843139648,-25.56421356201172,1.6897266791079214e+18,167.09692158203126,16.691378784179687,52.16789855957031,53.78056640625,1.6897266791135117e+18,167.10251166992188,1.5793994895353738,0.1877997903114459,-0.6822924378674998,-0.8365926716598266,-0.3118626243742494,0.6339842715558119,-1.3822265416302026
2.15,1.689726679163615e+18,167.1526150390625,-0.5160293097665906,-0.4677721762412786,-0.1843388271065056,1.689726679161111e+18,167.1501109375,-0.1848663330078125,0.933758544921875,-0.1622589111328125,1.689726679163615e+18,167.1526150390625,-1.233593233077526,9.6255931756258,-1.4129826503092051,1.689726679163615e+18,167.1526150390625,-0.1057736434042453,0.3823526591062546,-0.0421773690730333,1.6897266791561006e+18,167.14510083007812,-0.1249096065759658,0.4281923532485961,-0.0603512777015566,,,,,,,,,,,,,1.689726679163615e+18,167.1526150390625,-13.739874649047852,40.32398452758789,-25.755110931396484,1.689726679159935e+18,167.14893505859374,16.322354125976563,52.16515502929688,53.63865356445312,1.689726679163615e+18,167.1526150390625,1.541091415813143,0.1929962316992869,-0.6781649527049486,-0.8530693797951775,-0.3209109770092723,0.6323409473454336,-1.3783411057140125
2.2,1.6897266792137185e+18,167.20271845703127,-1.0621737718117237,-0.5936253505009412,0.1949212744322419,1.6897266792112143e+18,167.2002142578125,-0.2377685546875,0.9213226318359377,-0.1229156494140625,1.6897266792137185e+18,167.20271845703127,-1.2776195971652864,9.619047582600713,-1.418208626716137,1.6897266792137185e+18,167.20271845703127,0.0305732301436364,0.0343248583376407,0.1795118883252143,1.689726679206204e+18,167.19520405273437,0.0102077363058924,0.0963825684040784,0.1412314794957637,,,,,,,,,,,,,1.6897266792137185e+18,167.20271845703127,-13.99680004119873,40.345427703857425,-25.788899230957032,1.6897266792119483e+18,167.20094853515624,16.056671142578125,52.197164916992186,53.591339111328125,1.6897266792137185e+18,167.20271845703127,1.5494109649848289,0.1944438708498912,-0.6783197258990026,-0.8375830303289078,-0.3240705232263088,0.6301190865524274,-1.3748857258184153
2.25,1.689726679263822e+18,167.25282197265625,-0.456532024885267,-0.3322195626485347,0.3395409623517095,1.689726679261318e+18,167.25031796875,-0.18797607421875,0.9459228515625,-0.1047821044921875,1.689726679263822e+18,167.25282197265625,-1.40600725833863,9.605920039288998,-1.3847894352300465,1.689726679263822e+18,167.25282197265625,0.1033016562461852,-0.0059329935349523,0.3235236585140228,1.6897266792563077e+18,167.24530756835938,0.0991180077195167,-0.0385501619428396,0.3206628084182739,,,,,,,,,,,,,1.689726679263822e+18,167.25282197265625,-14.414122772216796,40.42614059448242,-25.752487182617188,1.6897266792639606e+18,167.2529607421875,15.577691650390625,52.25058288574219,53.68785400390625,1.689726679263822e+18,167.25282197265625,1.6161304867308512,0.1915065117339048,-0.6840365681355308,-0.7780270854800747,-0.3221442282182548,0.625808069894535,-1.3681322070874031
2.3,1.6897266793139254e+18,167.30292539062503,-0.3235171715287864,-0.1014497360783815,0.4150083497203886,1.6897266793114214e+18,167.30042138671874,-0.1936126708984375,0.97115478515625,-0.094256591796875,1.6897266793139254e+18,167.30292539062503,-1.5647896193842588,9.590838088586926,-1.3172332593773306,1.6897266793139254e+18,167.30292539062503,0.1505077332258224,0.1223019152879714,0.3141001403331757,1.689726679306411e+18,167.29541098632814,0.144849120080471,0.136527645587921,0.3109964370727539,,,,,,,,,,,,,1.6897266793139254e+18,167.30292539062503,-15.085009574890137,40.46950988769531,-25.598644256591797,1.6897266793107704e+18,167.29977044677733,14.804943084716797,52.349979400634766,53.76027297973633,1.6897266793139254e+18,167.30292539062503,1.6943516619213803,0.1915230225191424,-0.6900650433356615,-0.6999205515554207,-0.3218531615250355,0.6193005047586801,-1.3606249702978688
2.35,1.689726679364029e+18,167.35302880859376,0.0258497791451215,0.1183702419322729,0.086813644060716,1.6897266793615247e+18,167.35052465820314,-0.170843505859375,0.9859527587890624,-0.116790771484375,1.689726679364029e+18,167.35302880859376,-1.733993012035787,9.572580079745054,-1.235401846095547,1.689726679364029e+18,167.35302880859376,0.1314385890960692,0.1927019663155078,0.3514268040657043,1.6897266793565146e+18,167.345514453125,0.1396975502371787,0.1600387230515479,0.3505959391593933,,,,,,,,,,,,,1.689726679364029e+18,167.35302880859376,-15.863092613220214,40.43782501220703,-25.141699981689452,1.6897266793575798e+18,167.34657978515625,14.156204223632812,52.27217712402344,54.3035888671875,1.689726679364029e+18,167.35302880859376,1.7740581380176654,0.1921610052495748,-0.6964299262361934,-0.6193401371715703,-0.3215452379411901,0.6120945849106516,-1.3518910685070409
2.4,1.6897266794141322e+18,167.4031322265625,0.7714784103977681,0.3908831147325038,0.0456984912445396,1.6897266794116283e+18,167.40062822265625,-0.114556884765625,1.017083740234375,-0.11051025390625,1.6897266794141322e+18,167.4031322265625,-1.9230295246653255,9.546520340337157,-1.1543932642778754,1.6897266794141322e+18,167.4031322265625,0.0577284194529056,0.5754292249679566,0.3365347921848297,1.689726679406618e+18,167.39561801757813,0.0701502189040183,0.5035804271697998,0.3476552248001098,,,,,,,,,,,,,1.6897266794141322e+18,167.4031322265625,-16.691407012939454,40.33671569824219,-24.55686798095703,1.6897266794095908e+18,167.39859082031248,13.29583740234375,52.1661865234375,54.87049865722656,1.6897266794141322e+18,167.4031322265625,1.8392256465789327,0.1961474991954737,-0.7013422614441636,-0.5409822895294382,-0.3258226305318038,0.6028818522233518,-1.3399844918579524
2.45,1.6897266794642358e+18,167.4532357421875,1.6467415172405542,0.4618660501635074,0.4585146792959421,1.6897266794617318e+18,167.45073178710936,-0.0433135986328125,1.01485595703125,-0.062188720703125,1.6897266794642358e+18,167.4532357421875,-2.0934695026005805,9.5234213212049,-1.0435975638661534,1.6897266794642358e+18,167.4532357421875,0.0442591592669486,1.1989030480384826,0.1361884277313947,1.6897266794567214e+18,167.4457212890625,0.038604650273919,1.1353667497634887,0.1779705330729484,,,,,,,,,,,,,1.6897266794642358e+18,167.4532357421875,-18.18359794616699,40.28313827514648,-23.818192291259766,1.6897266794616028e+18,167.4506029296875,11.76783447265625,52.12623291015625,55.63725280761719,1.6897266794642358e+18,167.4532357421875,1.8776023323023625,0.209246371550501,-0.7015823142619981,-0.4625847490934537,-0.3383743251941555,0.5911307758520105,-1.3298803520935742
2.5,1.6897266795143388e+18,167.50333901367188,1.541372503439635,0.1172614039075374,-0.952492330865264,1.6897266795118351e+18,167.5008349609375,-0.0664703369140625,0.9837982177734376,-0.1936309814453125,1.6897266795143388e+18,167.50333901367188,-2.166289122713357,9.524756953722834,-0.8679987126369028,1.6897266795143388e+18,167.50333901367188,0.1145808890461921,1.3017256259918213,-0.0659171625971793,1.6897266795068247e+18,167.4958248046875,0.1036390438675879,1.3183801174163818,-0.0459459193050861,,,,,,,,,,,,,1.6897266795143388e+18,167.50333901367188,-19.643195724487303,40.320343780517575,-22.598078155517577,1.689726679513615e+18,167.502615234375,10.323446655273438,52.169247436523435,56.90882873535156,1.6897266795143388e+18,167.50333901367188,1.8993416643574057,0.231559810255105,-0.6962251712104077,-0.3809528461412966,-0.3545403447385539,0.579548091777337,-1.330451938164476
2.55,1.6897266795644426e+18,167.553442578125,0.9513530100239812,-0.3029040363150835,-2.2966348445388673,1.6897266795619384e+18,167.55093852539062,-0.128790283203125,0.93768310546875,-0.304345703125,1.6897266795644426e+18,167.553442578125,-2.165542483677566,9.541110590248106,-0.6669676866200939,1.6897266795644426e+18,167.553442578125,0.1788934081792831,1.022660219669342,-0.0995834916830062,1.6897266795569285e+18,167.54592827148437,0.1709257274866103,1.103666877746582,-0.1080910503864287,,,,,,,,,,,,,1.6897266795644426e+18,167.553442578125,-20.422884368896483,40.45561828613281,-21.421986389160157,1.689726679560425e+18,167.54942486572267,9.56863021850586,52.33720779418945,58.15569686889648,1.6897266795644426e+18,167.553442578125,1.9261128641305751,0.2543075833263199,-0.689552607126543,-0.2985603122641626,-0.367313484614086,0.5699803584804658,-1.337565880743749
2.6,1.689726679614546e+18,167.60354589843752,0.0454406440259516,0.3556175062751769,-3.2347043900370593,1.689726679612042e+18,167.60104204101563,-0.2191925048828125,1.02120361328125,-0.3891815185546875,1.689726679614546e+18,167.60354589843752,-2.168349182435274,9.550122281125784,-0.5130591348493844,1.689726679614546e+18,167.60354589843752,0.0684801284223794,0.3348883613944053,0.0259822390973567,1.6897266796070318e+18,167.59603168945313,0.1219753339886665,0.4430479496717453,0.0081445324700325,,,,,,,,,,,,,1.689726679614546e+18,167.60354589843752,-20.991609954833983,40.692911529541014,-20.441148376464845,1.6897266796072333e+18,167.59623330078125,9.046603393554689,52.5520751953125,59.011294555664065,1.689726679614546e+18,167.60354589843752,1.9636416081693604,0.2674825598193661,-0.6869808401725273,-0.2323359545231049,-0.3723066112761676,0.5638214837937935,-1.3415657446209477
2.65,1.6897266796646497e+18,167.65364936523437,-0.583339431129843,1.0301166040068863,-2.6227081595173476,1.6897266796621453e+18,167.65114536132813,-0.28731689453125,1.0792755126953124,-0.3109832763671875,1.6897266796646497e+18,167.65364936523437,-2.2017454022111,9.539356089344022,-0.5669070887321234,1.6897266796646497e+18,167.65364936523437,-0.3356460332870483,0.0743247911334037,0.080135317146778,1.6897266796571348e+18,167.64613491210935,-0.2903753191232681,0.0883460007607936,0.0764697425067424,,,,,,,,,,,,,1.6897266796646497e+18,167.65364936523437,-21.00272216796875,40.63197250366211,-20.43253860473633,1.6897266796592435e+18,167.64824340820314,9.07440185546875,52.456173706054685,58.914389038085936,1.6897266796646497e+18,167.65364936523437,1.9413895234777752,0.2658594711857351,-0.6864990555265706,-0.2518474649230594,-0.3754654003421661,0.5630792738377691,-1.3367932554155622
2.7,1.689726679714753e+18,167.70375302734377,0.9683024497114122,1.7883126896965504,1.0009293948412687,1.6897266797122488e+18,167.70124887695312,-0.1052032470703125,1.14852294921875,0.0432830810546875,1.689726679714753e+18,167.70375302734377,-2.2246597124262153,9.5232422236979,-0.7264342329565435,1.689726679714753e+18,167.70375302734377,-0.2892443507909774,0.162476098537445,-0.1378119297325611,1.689726679707239e+18,167.69623862304687,-0.3269272029399871,0.1548490747809409,-0.0335411824285984,,,,,,,,,,,,,1.689726679714753e+18,167.70375302734377,-21.12151184082031,40.42087478637696,-20.910823822021484,1.689726679711256e+18,167.70025595703126,8.958938598632812,52.243795776367186,58.453057861328126,1.689726679714753e+18,167.70375302734377,1.8757324135953908,0.2606984287275206,-0.6840018368096118,-0.3156314912430245,-0.3815284249721762,0.5644547604242887,-1.329803742750757
2.75,1.6897266797648563e+18,167.7538562988281,3.422033134287596,0.548863833232522,1.5913912836491315,1.6897266797623526e+18,167.75135244140623,0.1518768310546875,1.030926513671875,0.0740234375,1.6897266797648563e+18,167.7538562988281,-1.8927365900540352,9.585702011646628,-0.8179443642704187,1.6897266797648563e+18,167.7538562988281,-0.310195705294609,0.5503413945436477,-1.325354480743408,1.689726679757342e+18,167.74634204101562,-0.268934628367424,0.4354353070259094,-1.1579695224761963,,,,,,,,,,,,,1.6897266797648563e+18,167.7538562988281,-20.15896224975586,40.68213348388672,-21.158718872070313,1.689726679763267e+18,167.7522671875,10.056869506835938,52.56859130859375,58.21578063964843,1.6897266797648563e+18,167.7538562988281,1.76886132444085,0.267100092896676,-0.6705810210663288,-0.4113785420721273,-0.3831077930741496,0.5762817051628575,-1.358697721982581
2.8,1.6897266798149596e+18,167.8039596191406,1.8515835017672184,0.0055798459589481,1.315640758714974,1.6897266798124557e+18,167.80145561523435,0.0789825439453125,0.98924560546875,0.034027099609375,1.6897266798149596e+18,167.8039596191406,-1.0928012136874348,9.691804425062536,-0.9820985399344562,1.6897266798149596e+18,167.8039596191406,-0.6019631862640381,0.8463449120521546,-2.072636294364929,1.6897266798074452e+18,167.79644516601562,-0.564419174194336,0.8746056437492371,-1.977233386039734,,,,,,,,,,,,,1.6897266798149596e+18,167.8039596191406,-17.752134704589842,41.637969207763675,-21.547071075439455,1.6897266798100772e+18,167.79907720947267,12.362537384033203,53.51176071166992,57.81305694580078,1.6897266798149596e+18,167.8039596191406,1.3905998191064497,0.2886261254433825,-0.6359550138197192,-0.7487787967454679,-0.3887564094666886,0.6007183195514447,-1.4184101966455267
2.85,1.689726679865063e+18,167.85406298828124,0.5870045916141009,0.7958930713993311,1.5467759114661812,1.689726679862559e+18,167.85155893554688,0.0460968017578125,1.078082275390625,0.023992919921875,1.689726679865063e+18,167.85406298828124,-0.0084459182696699,9.714292969533204,-1.2984672279480844,1.689726679865063e+18,167.85406298828124,-0.767161512374878,1.3351329445838929,-2.4889739513397218,1.6897266798575488e+18,167.84654877929688,-0.7533089876174927,1.2199757814407348,-2.494215726852417,,,,,,,,,,,,,1.689726679865063e+18,167.85406298828124,-14.659296798706055,42.326123046875,-22.13458709716797,1.689726679856887e+18,167.84588696289063,15.706082153320311,54.2215087890625,57.17593078613281,1.689726679865063e+18,167.85406298828124,0.5385147347379016,0.3151111401754819,-0.5858067652079577,-1.5461722200753028,-0.3962085546877393,0.6325499280514699,-1.4338657262436278
2.9,1.6897266799151665e+18,167.90416655273438,-3.324539091645479,1.4795045146781205,1.1260471674984691,1.6897266799126625e+18,167.9016625,-0.242547607421875,1.1289794921875,-0.06578369140625,1.6897266799151665e+18,167.90416655273438,0.9110041215660422,9.606546646754742,-1.731899868374914,1.6897266799151665e+18,167.90416655273438,-0.8667385578155518,1.4296021223068238,-1.6435397624969483,1.689726679907652e+18,167.8966521484375,-0.855755352973938,1.4783000707626344,-1.780976176261902,,,,,,,,,,,,,1.6897266799151665e+18,167.90416655273438,-11.553014373779297,42.53392105102539,-23.09412612915039,1.689726679908896e+18,167.89789599609375,18.718218994140624,54.36125793457031,56.2090087890625,1.6897266799151665e+18,167.90416655273438,-0.0420693906613508,0.342772833062986,-0.5317647723243348,-2.049439370203147,-0.41300174181765,0.6549083966525007,-1.3695721018085891
2.95,1.6897266799652695e+18,167.95426967773437,-2.217974594026059,1.5572866087299584,2.3720163656419517,1.6897266799627658e+18,167.9517657714844,-0.0824981689453125,1.1226104736328124,0.0259490966796875,1.6897266799652695e+18,167.95426967773437,1.3952074273221196,9.455622510315774,-2.18915909694314,1.6897266799652695e+18,167.95426967773437,-0.6586989164352417,1.3200031995773316,-0.9630905389785768,1.6897266799577554e+18,167.94675546875,-0.7059792876243591,1.347510862350464,-1.0694891571998597,,,,,,,,,,,,,1.6897266799652695e+18,167.95426967773437,-10.22009735107422,42.196791076660155,-24.11529541015625,1.6897266799609065e+18,167.94990654296876,19.922360229492188,54.01419372558594,55.206234741210935,1.6897266799652695e+18,167.95426967773437,-0.19819116673345,0.3592423264425232,-0.4910546302251205,-2.137934675324927,-0.4331269611531029,0.6648773549568985,-1.302852659446157
3.0,1.6897266800153738e+18,168.00437368164063,-2.015008983217478,0.2027598883295059,2.9050443902912733,1.6897266800128694e+18,168.00186948242188,-0.0442169189453125,0.961151123046875,0.0351165771484375,1.6897266800153738e+18,168.00437368164063,1.5661863052135705,9.348668214697836,-2.5128144202205536,1.6897266800153738e+18,168.00437368164063,-0.3544607907533645,0.9294662237167358,-0.4175244212150574,1.689726680007859e+18,167.99685893554687,-0.3998127579689026,0.9903013944625856,-0.4636915981769561,,,,,,,,,,,,,1.6897266800153738e+18,168.00437368164063,-9.984525299072263,41.94417724609375,-24.765827941894532,1.6897266800129208e+18,168.00192075195315,20.083526611328125,53.76063842773438,54.594415283203126,1.6897266800153738e+18,168.00437368164063,-0.2435195618579961,0.3702291178230801,-0.4651784696958608,-2.128298442867276,-0.4513420760214163,0.6654156063814567,-1.2640634097948644
3.05,1.6897266800654769e+18,168.0544767578125,-1.9455610899470743,-1.1072322262001038,2.391030395095944,1.689726680062973e+18,168.05197260742187,-0.0373260498046875,0.8364532470703125,-0.0287353515625,1.6897266800654769e+18,168.0544767578125,1.5865505217805504,9.304170199897287,-2.661754806270302,1.6897266800654769e+18,168.0544767578125,-0.021015290915966,0.6866690278053283,-0.0624251693487167,1.6897266800579625e+18,168.04696259765623,-0.0625448709353804,0.7216224431991577,-0.1326875813305378,,,,,,,,,,,,,1.6897266800654769e+18,168.0544767578125,-10.481166076660156,41.707733154296875,-24.83669204711914,1.6897266800649334e+18,168.05393349609375,19.527328491210938,53.5406982421875,54.56944274902344,1.6897266800654769e+18,168.0544767578125,-0.260782866837601,0.3781197113683036,-0.4520664881208368,-2.108322787577947,-0.4633916227441349,0.6617474172977318,-1.249294374936523
3.1,1.6897266801155802e+18,168.10458012695312,-1.6866280927228927,-1.0065664508801695,2.3189356405785677,1.6897266801130762e+18,168.10207622070314,-0.023883056640625,0.8461578369140625,-0.0352752685546875,1.6897266801155802e+18,168.10458012695312,1.4217397234517335,9.330218248867393,-2.6627130130040646,1.6897266801155802e+18,168.10458012695312,0.2243268743157386,0.6822659134864807,0.3572339296340941,1.6897266801080655e+18,168.09706572265625,0.190360514819622,0.6689216732978821,0.3129542857408523,,,,,,,,,,,,,1.6897266801155802e+18,168.10458012695312,-11.6233943939209,41.75624160766601,-24.53852310180664,1.6897266801117445e+18,168.10074438476562,18.245529174804688,53.618919372558594,54.929203033447266,1.6897266801155802e+18,168.10458012695312,-0.2426555420612438,0.3843551688331729,-0.4504031751366621,-2.0609154316471847,-0.4739591213733146,0.6517217127531725,-1.2578505145326069
3.15,1.6897266801656837e+18,168.15468378906252,-0.9723329911756516,-1.8637123894304035,2.1112826026061176,1.6897266801631798e+18,168.15217963867187,0.01165771484375,0.7686004638671875,-0.0436309814453125,1.6897266801656837e+18,168.15468378906252,1.10108125851579,9.407991341282129,-2.536073656802773,1.6897266801656837e+18,168.15468378906252,0.546661251783371,0.8268128514289856,0.5881331861019135,1.689726680158169e+18,168.14716938476562,0.4871801018714904,0.8156685352325439,0.5447107255458832,,,,,,,,,,,,,1.6897266801656837e+18,168.15468378906252,-13.203213691711426,41.86891555786133,-23.68405990600586,1.689726680158554e+18,168.14755419921875,16.704241943359374,53.71684265136719,55.799169921875,1.6897266801656837e+18,168.15468378906252,-0.1933890475996914,0.3920329344898862,-0.456009910485503,-1.9794431466659472,-0.4856935207919441,0.6343542122363414,-1.284867383558487
3.2,1.689726680215787e+18,168.20478720703125,-1.4226058533748238,-1.11745960570395,0.5580781193971633,1.689726680213283e+18,168.20228305664062,-0.0829010009765625,0.865081787109375,-0.1902496337890625,1.689726680215787e+18,168.20478720703125,0.6345843775203824,9.523891276804209,-2.2424586377759277,1.689726680215787e+18,168.20478720703125,0.7340486288070679,0.5392905592918396,1.0307879328727725,1.689726680208273e+18,168.19727280273435,0.7535203337669373,0.6264272511005402,0.9531423449516296,,,,,,,,,,,,,1.689726680215787e+18,168.20478720703125,-15.482231521606446,42.11801986694336,-21.980967712402343,1.689726680210563e+18,168.19956313476564,14.411376953125,53.98623962402344,57.55697326660156,1.689726680215787e+18,168.20478720703125,-0.0873259963100283,0.400343742644505,-0.4704446766568037,-1.8435001639392188,-0.4962727812293884,0.6099398336492979,-1.3304824688678978
3.25,1.6897266802658906e+18,168.25489052734375,0.7500086912340856,0.1830588118463754,-4.139186255614459,1.6897266802633866e+18,168.2523865234375,0.0924774169921875,0.9934173583984376,-0.645379638671875,1.6897266802658906e+18,168.25489052734375,-0.0153480328294378,9.600696751682758,-1.987875067932904,1.6897266802658906e+18,168.25489052734375,0.2294870689511299,1.1158196032047272,1.284160590171814,1.6897266802583762e+18,168.24737612304688,0.3534041948616505,0.8864400863647461,1.309805488586426,,,,,,,,,,,,,1.6897266802658906e+18,168.25489052734375,-18.727503967285156,42.00333786010742,-20.537813568115233,1.6897266802625718e+18,168.251571875,11.036715698242189,53.796304321289064,58.95372314453125,1.6897266802658906e+18,168.25489052734375,0.1743429903598916,0.3993306458355734,-0.490461255245657,-1.5613928788496638,-0.5100640416859954,0.5828134507252707,-1.3655322976856994
3.3,1.6897266803109832e+18,168.2999832763672,5.642112299377471,-0.2147491044871508,-5.452577277254313,1.68972668031349e+18,168.30248979492188,0.57904052734375,1.0860992431640626,-0.6958465576171875,1.6897266803109832e+18,168.2999832763672,-0.5549574300933628,9.58415773404017,-2.0002358062036336,1.6897266803109832e+18,168.2999832763672,-0.2902920767664909,1.209440618753433,0.3666691705584526,1.6897266803084795e+18,168.29747944335938,-0.2814013719558715,1.2398535998538136,0.4514466434717178,,,,,,,,,,,,,1.6897266803109832e+18,168.2999832763672,-21.977585792541504,41.158310890197754,-19.64376926422119,1.6897266803145825e+18,168.30358251953126,7.76949462890625,52.92106628417969,59.77826843261719,1.6897266803109832e+18,168.2999832763672,0.3765426209492487,0.4025980701794557,-0.4893548163396113,-1.300688559358444,-0.5373946815005142,0.5564179967602111,-1.35741169576005
3.35,1.6897266803560768e+18,168.34507680664063,4.156575372667312,5.5201105106228585,-0.378428473020196,1.6897266803635937e+18,168.35259345703125,0.1602142333984375,1.41727294921875,-0.119305419921875,1.6897266803560768e+18,168.34507680664063,-0.5210997156725823,9.557075052099227,-2.1342860524094105,1.6897266803560768e+18,168.34507680664063,-0.2524692922830581,-0.71671741604805,-0.2969020545482635,1.6897266803585833e+18,168.34758325195313,-0.2294588599354028,-0.7444282054901123,-0.3052676051855086,,,,,,,,,,,,,1.6897266803560768e+18,168.34507680664063,-22.266726684570312,40.91581115722656,-20.0966423034668,1.689726680361393e+18,168.35039282226563,8.053794860839844,52.76276779174805,58.99893951416016,1.6897266803560768e+18,168.34507680664063,0.3500965836731802,0.3983541531359476,-0.4858445786315004,-1.3309536399584077,-0.538992990190543,0.5609938219706777,-1.344722004338656
3.4,1.6897266804061804e+18,168.3951801269531,-1.3889844027018543,-2.095474500360489,2.7662572955958544,1.6897266804136968e+18,168.40269677734375,-0.184490966796875,0.707733154296875,0.0651031494140625,1.6897266804061804e+18,168.3951801269531,-0.2757040006450004,9.565413490664364,-2.142717400728911,1.6897266804061804e+18,168.3951801269531,0.2865135565400123,-0.7662792921066284,-0.3084246635437012,1.6897266804086866e+18,168.3976865234375,0.310331392288208,-0.7176640599966049,-0.3050203561782836,,,,,,,,,,,,,1.6897266804061804e+18,168.3951801269531,-20.99827995300293,41.110877227783206,-20.853282165527343,1.6897266804081997e+18,168.3971996582031,9.470703125,53.08216552734375,58.40068054199219,1.6897266804061804e+18,168.3951801269531,0.2826327110444657,0.3913053166434239,-0.4909940621863303,-1.4434196054813104,-0.5224414756390037,0.5768962266504991,-1.3485807560470655
3.45,1.6897266804562836e+18,168.44528349609374,-2.068428088002801,-0.8796129726153612,1.5700218501754102,1.6897266804638003e+18,168.45280034179686,-0.2288665771484375,0.9506988525390624,-0.0929168701171875,1.6897266804562836e+18,168.44528349609374,-0.1284614771548565,9.6146184264338,-1.9250218967524169,1.6897266804562836e+18,168.44528349609374,0.5848189234733582,0.2803773239254951,-0.1708964049816131,1.6897266804587896e+18,168.4477896484375,0.5899402499198914,0.304105032980442,-0.1572941750288009,,,,,,,,,,,,,1.6897266804562836e+18,168.44528349609374,-19.730214309692386,41.68881759643555,-20.458300018310545,1.68972668046021e+18,168.44920991210938,10.526983642578124,53.71690673828125,59.33216857910156,1.6897266804562836e+18,168.44528349609374,0.2355445724977276,0.3974332081069087,-0.4963777671553432,-1.5043793724278527,-0.5100544155490783,0.5792048845804582,-1.3727596512749725
3.5,1.6897266805063872e+18,168.49538715820313,-1.2112495331311224,0.0264954420244693,-0.697938337829858,1.689726680513904e+18,168.5029037109375,-0.105108642578125,0.9913848876953124,-0.2587677001953125,1.6897266805063872e+18,168.49538715820313,-0.1679004312539659,9.663377722714545,-1.6599909918184577,1.6897266805063872e+18,168.49538715820313,0.4036632031202316,0.4612636089324951,0.2737811874598265,1.6897266805088932e+18,168.49789326171876,0.3817217916250229,0.4992282271385193,0.3091650336980819,,,,,,,,,,,,,1.6897266805063872e+18,168.49538715820313,-19.801599502563477,42.297430419921874,-19.177157592773437,1.6897266805122204e+18,168.5012203613281,10.01051025390625,54.18217163085937,60.53498229980469,1.6897266805063872e+18,168.49538715820313,0.2590960004543672,0.4078384160711942,-0.5014032395310553,-1.4690719009849968,-0.5071011644875263,0.570168549058298,-1.3997399517172808
3.55,1.6897266805564905e+18,168.54549057617186,0.6983827717421576,0.2320841824913024,-0.4545037339280545,1.6897266805640072e+18,168.55300708007812,0.0669708251953125,1.0033599853515625,-0.169439697265625,1.6897266805564905e+18,168.54549057617186,-0.4858674395760148,9.66982534987092,-1.5551590659558774,1.6897266805564905e+18,168.54549057617186,0.032623915746808,0.8722511768341065,0.5269361183047294,1.6897266805589967e+18,168.54799677734374,0.0236413076519965,0.8472008526325225,0.4896257735788822,,,,,,,,,,,,,1.6897266805564905e+18,168.54549057617186,-21.298550033569335,42.14252548217773,-18.117498779296874,1.689726680564231e+18,168.55323076171877,8.419436645507812,53.88331909179688,61.52864990234375,1.6897266805564905e+18,168.54549057617186,0.4290018348008595,0.4117954533153669,-0.5048315797973639,-1.2686789477827962,-0.5195134703901988,0.5528322867605994,-1.4035658984129291
3.6,1.6897266806065935e+18,168.59559370117185,0.7101339121341332,-0.1641589979696273,1.065386830187142,1.6897266806141107e+18,168.60311059570313,-0.043145751953125,0.9783905029296877,-0.0082305908203125,1.6897266806065935e+18,168.59559370117185,-0.5702825930472091,9.667134094186425,-1.5462321892043949,1.6897266806065935e+18,168.59559370117185,0.0619424980133771,-0.1866934657096862,-0.146427135169506,1.6897266806091003e+18,168.59810009765624,0.0814915567636489,-0.2045274667441844,-0.1456773042678832,,,,,,,,,,,,,1.6897266806065935e+18,168.59559370117185,-21.70398025512695,42.01000900268555,-17.74011993408203,1.6897266806110392e+18,168.60003912353517,8.431961059570312,53.89921188354492,61.58679962158203,1.6897266806065935e+18,168.59559370117185,0.4699416249577849,0.4127945336914894,-0.5046585520151805,-1.2175750993732124,-0.5238237416936983,0.5481981809179445,-1.4019222879689803
3.65,1.689726680656697e+18,168.64569736328127,-0.7749531373036279,0.0707267979389429,1.5589646541708706,1.689726680664214e+18,168.65321396484376,-0.14603271484375,0.9837249755859376,-0.00440673828125,1.689726680656697e+18,168.64569736328127,-0.5243801255827397,9.682951022712588,-1.461191297743767,1.689726680656697e+18,168.64569736328127,0.2076554864645004,0.1003309063613414,-0.0045555680990219,1.6897266806592036e+18,168.6482037109375,0.2049241691827774,0.1441421523690223,-0.0098803811706602,,,,,,,,,,,,,1.689726680656697e+18,168.64569736328127,-21.20603141784668,42.12324829101563,-17.510635375976562,1.689726680657848e+18,168.64684814453125,8.87081298828125,53.996255493164064,61.986392211914065,1.689726680656697e+18,168.64569736328127,0.4736470201645671,0.4130535169938584,-0.5088637214695925,-1.2261055891409631,-0.5174865055860487,0.5501362473866055,-1.4118164448721895
3.7,1.689726680706801e+18,168.69580083007813,-1.5375530328297615,0.312371654266715,0.3711322077582776,1.6897266807143173e+18,168.70331748046874,-0.198291015625,1.025946044921875,-0.156976318359375,1.689726680706801e+18,168.69580083007813,-0.5062870907377078,9.699640876228807,-1.3526947995720804,1.689726680706801e+18,168.69580083007813,0.2060862034559249,0.4776317477226257,-0.1339391395449637,1.6897266807093071e+18,168.6983072265625,0.2036176770925521,0.4551087751984596,-0.1244970820844172,,,,,,,,,,,,,1.689726680706801e+18,168.69580083007813,-21.19901351928711,42.31005172729492,-16.784603881835938,1.6897266807098588e+18,168.69885893554687,8.895022583007812,54.237039184570314,62.87145385742187,1.689726680706801e+18,168.69580083007813,0.4728038106506455,0.4205711954229252,-0.5074963730141324,-1.212604891460473,-0.5179380782426947,0.5452481284692181,-1.42297577843503
3.75,1.6897266807569042e+18,168.74590415039063,-0.32322119156342,0.4464641321790218,-1.6628326742112634,1.6897266807644206e+18,168.75342075195312,-0.0618927001953125,1.0317291259765624,-0.319873046875,1.6897266807569042e+18,168.74590415039063,-0.5177421707925574,9.707674194367527,-1.289547175489664,1.6897266807569042e+18,168.74590415039063,-0.0125852651894092,-0.1206098794937133,0.1377991778776049,1.6897266807594104e+18,168.748410546875,-0.028746798262,-0.1183277621865272,0.1448915190994739,,,,,,,,,,,,,1.6897266807569042e+18,168.74590415039063,-21.010318756103516,42.47820510864258,-16.149375915527344,1.6897266807618708e+18,168.75087080078126,9.052944946289063,54.288031005859374,63.24697265625,1.6897266807569042e+18,168.74590415039063,0.4954180166963926,0.4223547744010795,-0.5092026150912775,-1.1890883684138094,-0.5168248563563907,0.5433382246030322,-1.4286062623573872
3.8,1.6897266808070075e+18,168.79600776367187,0.0056389045893773,0.1994620158278942,-0.5325467000992596,1.689726680814525e+18,168.80352485351565,-0.0730987548828125,1.0136474609375,-0.12362060546875,1.6897266808070075e+18,168.79600776367187,-0.5708800401771813,9.692930097317696,-1.3748838642525674,1.6897266808070075e+18,168.79600776367187,-0.2794882774353027,0.6328121011145413,-0.0473211731761693,1.689726680809514e+18,168.79851391601562,-0.2775127828121185,0.6994594916701317,-0.0617567362263798,,,,,,,,,,,,,1.6897266808070075e+18,168.79600776367187,-21.182673263549805,42.27866744995117,-16.296116638183594,1.6897266808138788e+18,168.8028787109375,8.850381469726562,54.07821960449219,63.13919677734375,1.6897266808070075e+18,168.79600776367187,0.5067179852806691,0.4187568803634498,-0.5081950614903759,-1.177124039581611,-0.5204098461667594,0.5436291046512165,-1.4183998092075345
3.85,1.6897266808571118e+18,168.84611171875,-0.3820556578479334,-0.2615208217602968,1.308632604292482,1.6897266808646282e+18,168.8536283691406,-0.0998199462890625,0.9310638427734376,-0.0189788818359375,1.6897266808571118e+18,168.84611171875,-0.5711956235454231,9.683931265921592,-1.4372011457645892,1.6897266808571118e+18,168.84611171875,-0.0370570488274097,0.9002395391464233,-0.1594114959239959,1.689726680859618e+18,168.8486181152344,-0.019414871931076,0.8858039736747741,-0.1559441685676574,,,,,,,,,,,,,1.6897266808571118e+18,168.84611171875,-21.577284622192384,42.27351684570313,-15.864100646972656,1.6897266808606858e+18,168.8496859741211,8.424457550048828,54.14052963256836,63.633941650390625,1.6897266808571118e+18,168.84611171875,0.4497185117216225,0.4281941671701861,-0.4956055539749416,-1.1925002442328818,-0.5324297060503776,0.5362005515245974,-1.412430891150996
3.9,1.6897266809072154e+18,168.89621528320313,-0.8382680880834906,-0.6672628336417674,0.3199639798657596,1.6897266809147318e+18,168.90373173828124,-0.171728515625,0.9486572265625,-0.1289764404296875,1.6897266809072154e+18,168.89621528320313,-0.5489624786079302,9.695108493496178,-1.3685345244519411,1.6897266809072154e+18,168.89621528320313,0.1834594517946243,0.6416229724884033,-0.1320184484124183,1.6897266809097216e+18,168.89872148437502,0.1856294631958007,0.6536098599433899,-0.1241169400513171,,,,,,,,,,,,,1.6897266809072154e+18,168.89621528320313,-21.407881927490234,42.581356811523435,-14.905857849121094,1.689726680907492e+18,168.89649213867187,8.691583251953125,54.49592590332031,64.58765563964843,1.6897266809072154e+18,168.89621528320313,0.4215256651156739,0.4390748895228935,-0.48847285742869,-1.189248130958505,-0.5379411478654118,0.5284031460558005,-1.4198615838037292
3.95,1.6897266809573184e+18,168.94631840820313,-1.6731648000377417,-0.468942739777565,0.1287936408518254,1.6897266809648353e+18,168.95383520507812,-0.2246337890625,0.91597900390625,-0.0901763916015625,1.6897266809573184e+18,168.94631840820313,-0.5958800487056002,9.708436060198546,-1.2484718578402698,1.6897266809573184e+18,168.94631840820313,0.2270103335380554,0.984191119670868,0.1329669980332254,1.689726680959825e+18,168.94882485351565,0.2337214678525924,1.0032511711120606,0.1474274300038814,,,,,,,,,,,,,1.6897266809573184e+18,168.94631840820313,-21.6897762298584,42.75298919677734,-13.961697387695311,1.689726680959504e+18,168.94850380859376,8.154861450195312,54.55604248046875,65.8440948486328,1.6897266809573184e+18,168.94631840820313,0.4508258531965107,0.4502966490586692,-0.4834266055759455,-1.1249857514489885,-0.5446740216151014,0.5165456145095064,-1.4291637687312266
4.0,1.6897266810074222e+18,168.99642211914062,-1.076633469736129,-0.4419437905973195,0.24621290950872,1.689726681014939e+18,169.00393881835936,-0.1814422607421875,0.9818023681640624,-0.1131103515625,1.6897266810074222e+18,168.99642211914062,-0.7760296878004819,9.718308284202218,-1.0549442735626546,1.6897266810074222e+18,168.99642211914062,0.445777040719986,1.1210793495178222,0.3514432072639465,1.6897266810099284e+18,168.99892836914063,0.4596852540969848,1.124076819419861,0.3653168797492981,,,,,,,,,,,,,1.6897266810074222e+18,168.99642211914062,-22.643404006958008,42.69984512329101,-12.308816528320312,1.6897266810115156e+18,169.0005155761719,7.090945434570313,54.4990234375,67.65852661132813,1.6897266810074222e+18,168.99642211914062,0.5936843865064763,0.4625045338952869,-0.4802535094217182,-0.9354171650743736,-0.5557990214499041,0.49645169811638,-1.4364854076195848
4.05,1.6897266810575252e+18,169.04652548828125,-0.3819584591642022,0.0424980147027969,-1.4496692168673126,1.6897266810650422e+18,169.05404213867186,-0.140545654296875,0.9643402099609376,-0.2465789794921875,1.6897266810575252e+18,169.04652548828125,-1.0313088240791857,9.723958974214195,-0.7320470167239754,1.6897266810575252e+18,169.04652548828125,0.6687299847602844,0.6792865872383118,0.4471665561199188,1.689726681060032e+18,169.0490318847656,0.6727723836898803,0.6579363942146301,0.4409712731838226,,,,,,,,,,,,,1.6897266810575252e+18,169.04652548828125,-24.061584091186525,42.505758666992186,-10.1068359375,1.6897266810635236e+18,169.05252353515624,5.6470794677734375,54.28364562988281,69.8914306640625,1.6897266810575252e+18,169.04652548828125,0.872649101369824,0.4734187160229519,-0.4841239277383147,-0.617061213974106,-0.5640909685905081,0.4724935100065645,-1.4408428081032167
4.1,1.6897266811076288e+18,169.09662885742188,-0.8790407549114523,-0.1973998226010799,-2.433315380796045,1.6897266811151457e+18,169.1041453613281,-0.248577880859375,1.012359619140625,-0.2980926513671875,1.6897266811076288e+18,169.09662885742188,-1.2352490228474884,9.719888013061285,-0.3989651564239896,1.6897266811076288e+18,169.09662885742188,0.5320591449737548,0.1829927422106265,0.4102869093418121,1.6897266811101353e+18,169.09913525390624,0.5169969141483307,0.1564636998809873,0.4277353048324585,,,,,,,,,,,,,1.6897266811076288e+18,169.09662885742188,-24.940781021118163,42.286852264404295,-8.148858642578125,1.689726681110333e+18,169.09933306884767,5.074153900146484,54.113182067871094,71.50025177001953,1.6897266811076288e+18,169.09662885742188,1.16295117929652,0.4790576393026809,-0.4942991718401103,-0.3138976456302703,-0.5644799063925094,0.4555331053063572,-1.4377123790322637
4.15,1.6897266811577324e+18,169.14673237304686,-0.5496626408469677,0.8365266950827837,-2.460873542068154,1.6897266811652493e+18,169.15424921875,-0.1438232421875,1.0712005615234377,-0.2491790771484375,1.6897266811577324e+18,169.14673237304686,-1.537512525462806,9.68197943042755,-0.2281141280828602,1.6897266811577324e+18,169.14673237304686,0.2399632543325423,-0.3072597473859786,0.8097090005874634,1.6897266811602386e+18,169.14923857421874,0.2326446413993835,-0.2977537095546722,0.8147364974021911,,,,,,,,,,,,,1.6897266811577324e+18,169.14673237304686,-26.081819152832033,41.70348205566406,-7.487153625488281,1.6897266811571425e+18,169.14614262695312,3.8486114501953126,53.49407043457031,71.89620666503906,1.6897266811577324e+18,169.14673237304686,1.341619154478375,0.471497516144287,-0.5097318660386772,-0.1491516726108043,-0.5643912968637756,0.4464046519057246,-1.411558511302942
4.2,1.689726681207836e+18,169.19683579101562,3.681331749953776,0.4392989459508657,-1.7002426596730946,1.6897266812153523e+18,169.20435234375,0.218658447265625,1.0083343505859377,-0.1837371826171875,1.689726681207836e+18,169.19683579101562,-1.7990104047389326,9.639152096092104,-0.1369181133526097,1.689726681207836e+18,169.19683579101562,0.1836716443300246,0.2426657028496265,-0.0224725529551505,1.689726681210342e+18,169.1993421875,0.186128807067871,0.2712044413667172,-0.0910940647125244,,,,,,,,,,,,,1.689726681207836e+18,169.19683579101562,-27.200986862182617,41.13586196899414,-7.389714050292969,1.6897266812091515e+18,169.1981513671875,2.83140869140625,52.98909301757813,72.14813537597657,1.689726681207836e+18,169.19683579101562,1.4255626053098642,0.4638076480068987,-0.5211150601109702,-0.0758942125811025,-0.5658285528682849,0.4394923483437211,-1.3857329189448984
4.25,1.6897266812579397e+18,169.24693930664063,0.0336372766031325,0.0794853908383846,-2.178487539255321,1.6897266812654556e+18,169.25445571289063,-0.2641357421875,0.985662841796875,-0.209796142578125,1.6897266812579397e+18,169.24693930664063,-1.6023779424746334,9.674551910775303,-0.04982587793943,1.6897266812579397e+18,169.24693930664063,0.052475332468748,-0.0890481114387512,-0.3860167071223259,1.6897266812604454e+18,169.24944550781248,0.0400886703282594,-0.1116459944285452,-0.3507618650794029,,,,,,,,,,,,,1.6897266812579397e+18,169.24693930664063,-26.441878890991212,41.48571624755859,-6.75872802734375,1.689726681261164e+18,169.2501640625,3.9355133056640623,53.4492919921875,72.67449340820312,1.6897266812579397e+18,169.24693930664063,1.467943921503717,0.4722281578997315,-0.5182565379373315,-0.030988881975668,-0.5595558741617188,0.4419226193212845,-1.406578497457155
4.3,1.6897266813080425e+18,169.297042578125,0.2245057977393269,-0.1483181040459871,-0.4216800990089494,1.6897266813155594e+18,169.304559375,-0.040753173828125,0.9830322265625,-0.0224578857421875,1.6897266813080425e+18,169.297042578125,-1.529076325611621,9.686279290352465,-0.0871774203454469,1.6897266813080425e+18,169.297042578125,-0.1179964244365691,-0.0406470123678445,-0.141643656976521,1.689726681310549e+18,169.2995490234375,-0.121047382056713,-0.0173483096063137,-0.1663138767704367,,,,,,,,,,,,,1.6897266813080425e+18,169.297042578125,-25.9968505859375,41.74432907104492,-7.019236755371094,1.689726681313173e+18,169.30217319335935,4.104754638671875,53.653070068359376,72.22878723144531,1.6897266813080425e+18,169.297042578125,1.455070900530366,0.4704677125312805,-0.5192799880609333,-0.0570852379972076,-0.555255867556367,0.4479917453739174,-1.4139667897677468
4.35,1.689726681358146e+18,169.3471461425781,1.377705892096832,0.0540604422026872,-0.2093648925247881,1.6897266813656627e+18,169.35466279296875,-0.0121734619140625,0.9924224853515624,-0.0521240234375,1.689726681358146e+18,169.3471461425781,-1.3320662183674423,9.714162153534293,-0.1524589137380849,1.689726681358146e+18,169.3471461425781,-0.1818500369787215,0.1386469215154647,-0.6154988646507263,1.6897266813606523e+18,169.34965239257812,-0.1860362321138381,0.1423807382583617,-0.6268940448760987,,,,,,,,,,,,,1.689726681358146e+18,169.3471461425781,-25.184384536743163,42.21705703735351,-7.309407043457031,1.689726681365185e+18,169.35418505859374,5.397579956054687,54.1738525390625,72.07816162109376,1.689726681358146e+18,169.3471461425781,1.3982407159017378,0.4740895470080201,-0.513410519869462,-0.1153994908767963,-0.5516490851433358,0.4553147515608632,-1.4336035044536442
4.4,1.689726681408249e+18,169.3972494628906,0.8702843685821444,-0.2055992618608474,-0.3279295811435579,1.689726681415766e+18,169.40476616210938,0.0040802001953125,0.97685546875,-0.0526580810546875,1.689726681408249e+18,169.3972494628906,-0.9676985947602242,9.753825003263351,-0.2794493429194762,1.689726681408249e+18,169.3972494628906,-0.367541766166687,-0.1300537090748548,-0.9126303672790528,1.6897266814107558e+18,169.399755859375,-0.3793860971927643,-0.1296907279640435,-0.9323740243911744,,,,,,,,,,,,,1.689726681408249e+18,169.3972494628906,-23.447991561889648,42.88360748291016,-7.770640563964844,1.6897266814119951e+18,169.40099499511717,6.889942169189453,54.94418716430664,71.40911865234375,1.689726681408249e+18,169.3972494628906,1.2276189366011832,0.480059604899875,-0.5026624457506639,-0.2902709997537519,-0.544655989200306,0.4692250024665703,-1.467511848481379
4.45,1.689726681458353e+18,169.44735297851562,1.079638935162425,0.7360602417272328,0.7854901161328702,1.6897266814658696e+18,169.45486962890624,0.0866668701171875,1.1290618896484377,0.0744537353515625,1.689726681458353e+18,169.44735297851562,-0.410130593096083,9.781577401159405,-0.5301485017706826,1.689726681458353e+18,169.44735297851562,-0.6202564597129822,0.1903318218886852,-1.341709017753601,1.6897266814608594e+18,169.44985937500002,-0.6240907430648803,0.2220901126973331,-1.3557982206344603,,,,,,,,,,,,,1.689726681458353e+18,169.44735297851562,-21.40686454772949,43.745384216308594,-8.869058227539062,1.689726681458804e+18,169.44780400390624,9.115771484375,55.769900512695315,70.31052856445312,1.689726681458353e+18,169.44735297851562,0.593042699438619,0.4877237949529867,-0.4838096724548983,-0.9293701709035488,-0.5355172184202592,0.4910839943684575,-1.4994318557561974
4.5,1.6897266815084564e+18,169.49745634765625,1.3786994770179688,2.6698536493128535,2.3756501336474716,1.6897266815109627e+18,169.49996282958983,0.1928329467773437,1.2842254638671875,0.152099609375,1.6897266815084564e+18,169.49745634765625,0.3027182213729293,9.763504335043429,-0.8350712209644169,1.6897266815084564e+18,169.49745634765625,-0.5902411937713623,0.6143674373626709,-1.6330289363861084,1.6897266815109627e+18,169.49996274414062,-0.5861027836799622,0.6410201072692872,-1.6470142364501954,,,,,,,,,,,,,1.6897266815084564e+18,169.49745634765625,-18.727123260498047,44.64511566162109,-9.8217529296875,1.689726681510815e+18,169.49981499023437,12.338803100585938,56.737545776367185,69.378564453125,1.6897266815084564e+18,169.49745634765625,-0.3812349357987051,0.503410639911436,-0.4528799515084374,-1.8846752892151104,-0.5285469091715521,0.511811849877642,-1.4782277172647145
4.55,1.68972668155856e+18,169.54755986328126,0.7420177472791075,2.046674404451847,1.6082181052571536,1.6897266815560556e+18,169.54505576171874,0.1847442626953125,1.18360595703125,0.0421478271484375,1.68972668155856e+18,169.54755986328126,1.1004401549071818,9.673451256057024,-1.1502371967378258,1.68972668155856e+18,169.54755986328126,-0.6016287088394165,1.0299102783203125,-1.7409181356430057,1.6897266815610662e+18,169.55006625976563,-0.6046107530593872,1.0528761506080628,-1.7293655157089234,,,,,,,,,,,,,1.68972668155856e+18,169.54755986328126,-15.369542694091797,45.58775939941406,-10.513238525390625,1.6897266815628288e+18,169.5518287597656,15.581292724609376,57.65712280273438,68.664306640625,1.68972668155856e+18,169.54755986328126,-0.8620090515595441,0.5261452662247874,-0.4133321382788567,-2.3255726015230556,-0.5223956459693897,0.5284083712464936,-1.407414699965717
4.6,1.6897266816086636e+18,169.59766342773435,-1.2465906325905023,-0.127437579293847,1.5305923415847122,1.689726681606159e+18,169.59515927734373,0.0439178466796875,0.9462493896484376,-0.0044097900390625,1.6897266816086636e+18,169.59766342773435,1.7634988294704257,9.520698735147118,-1.5428028577297923,1.6897266816086636e+18,169.59766342773435,-0.6724948287010193,1.2516989707946775,-1.2302362203598023,1.6897266816111698e+18,169.60016982421877,-0.677238929271698,1.2603464365005492,-1.1894272089004516,,,,,,,,,,,,,1.6897266816086636e+18,169.59766342773435,-12.37947120666504,46.173526000976565,-11.312913513183592,1.6897266816148396e+18,169.60383964843749,18.29640502929687,58.03587341308594,67.81419372558594,1.6897266816086636e+18,169.59766342773435,-1.0156363277696885,0.5478619515012262,-0.3699532620007881,-2.422818195658365,-0.5225701966258693,0.5382687604422701,-1.3294822909729036
4.65,1.6897266816587668e+18,169.64776674804688,-1.4325671146753431,-0.6270871244066953,1.8828773132102192,1.689726681656263e+18,169.64526284179686,0.076824951171875,0.8955841064453125,0.00081787109375,1.6897266816587668e+18,169.64776674804688,2.102644333537667,9.370651381542682,-1.9798424512204529,1.6897266816587668e+18,169.64776674804688,-0.6557613849639893,0.904500138759613,-0.7579118371009826,1.689726681661273e+18,169.6502731933594,-0.6435096740722657,0.886647391319275,-0.7573707342147827,,,,,,,,,,,,,1.6897266816587668e+18,169.64776674804688,-10.833749771118164,46.13439865112305,-12.427320861816408,1.689726681661649e+18,169.6506488647461,19.44198226928711,57.981727600097656,66.70845031738281,1.6897266816587668e+18,169.64776674804688,-1.03259958174444,0.5594980365159166,-0.3337688294009941,-2.3867849031392394,-0.5303923787118519,0.5423659144372897,-1.271812857707895
4.7,1.68972668170887e+18,169.69787021484376,-1.653273520131707,-0.353066068226695,3.3371297223754226,1.6897266817063662e+18,169.69536616210937,0.06317138671875,0.90406494140625,0.0968048095703125,1.68972668170887e+18,169.69787021484376,2.3554333335010704,9.23869708470285,-2.293766449495702,1.68972668170887e+18,169.69787021484376,-0.3066099643707275,0.6736811399459839,-0.5307743221521377,1.6897266817113764e+18,169.70037641601562,-0.2872097760438918,0.676266872882843,-0.4941757500171661,,,,,,,,,,,,,1.68972668170887e+18,169.69787021484376,-9.684176635742189,46.10083236694336,-13.28148193359375,1.6897266817084575e+18,169.6974578125,20.450161743164063,57.946832275390626,66.055810546875,1.68972668170887e+18,169.69787021484376,-1.0490506821811412,0.5669637353349384,-0.3082073860585246,-2.369525623901998,-0.533742788810091,0.5464809829597174,-1.2289007063003987
4.75,1.6897266817589737e+18,169.74797368164064,-1.8219987738774717,-0.5149821388012171,1.3341614809201656,1.6897266817564695e+18,169.74546953125,0.064434814453125,0.8879058837890625,-0.1162078857421875,1.6897266817589737e+18,169.74797368164064,2.362400191452056,9.2017450136894,-2.43226207235083,1.6897266817589737e+18,169.74797368164064,-0.0208144910633564,0.4846787631511688,0.1148498803377151,1.6897266817614802e+18,169.75048032226564,-0.0065795525908469,0.4825074255466461,0.133142022229731,,,,,,,,,,,,,1.6897266817589737e+18,169.74797368164064,-9.490127182006836,46.00342712402344,-13.512161254882812,1.6897266817604677e+18,169.7494678222656,20.425540161132812,57.829901123046874,65.87488403320313,1.6897266817589737e+18,169.74797368164064,-1.0465459068147671,0.5704783938633454,-0.2966732627002434,-2.3415964476926363,-0.5399348902811166,0.5431395222410893,-1.2177317059639154
4.8,1.689726681809077e+18,169.79807700195312,-0.8519502988293766,-0.3288074745696782,1.5365792485876382,1.689726681806573e+18,169.79557290039062,0.130596923828125,0.9074493408203124,-0.089556884765625,1.689726681809077e+18,169.79807700195312,2.174148165650666,9.246699773894548,-2.4359910005199907,1.689726681809077e+18,169.79807700195312,0.2782855033874511,0.6920873999595643,0.4593751311302185,1.6897266818115832e+18,169.800583203125,0.2945179104804992,0.7250956773757935,0.4831907331943512,,,,,,,,,,,,,1.689726681809077e+18,169.79807700195312,-10.289241409301756,45.99390640258789,-13.3048828125,1.6897266818124772e+18,169.80147705078124,19.37309875488281,57.78681945800781,66.30890197753907,1.689726681809077e+18,169.79807700195312,-1.0247525199545566,0.5710806210419379,-0.2956868507418576,-2.299121534020329,-0.5492767106205638,0.5335712519163285,-1.231311714576837
4.85,1.6897266818591798e+18,169.84817978515625,-0.817471281479001,-0.9768249249935148,1.5397399630278348,1.6897266818566758e+18,169.84567592773436,0.095989990234375,0.854388427734375,-0.0846343994140625,1.6897266818591798e+18,169.84817978515625,1.7415134414424005,9.36257527640164,-2.335093754531741,1.6897266818591798e+18,169.84817978515625,0.5253184795379638,1.1660929679870606,0.8543805480003357,1.6897266818616863e+18,169.85068637695312,0.5328203797340393,1.174705147743225,0.8676156282424927,,,,,,,,,,,,,1.6897266818591798e+18,169.84817978515625,-12.334440994262696,45.838707733154294,-11.97152099609375,1.689726681864487e+18,169.85348686523437,17.071188354492186,57.63176574707031,67.92471923828126,1.6897266818591798e+18,169.84817978515625,-0.9775844091078074,0.5730181839128765,-0.2978112029156456,-2.2101351795588293,-0.5678669679225274,0.5102659884545546,-1.2689932625579952
4.9,1.6897266819092836e+18,169.89828359375002,0.1228828678250312,-0.7276231358671188,-0.0410356578391789,1.6897266819067796e+18,169.89577963867185,0.1327178955078125,0.8957305908203125,-0.2337921142578125,1.6897266819092836e+18,169.89828359375002,1.1759118238987027,9.492136657529471,-2.157499813188612,1.6897266819092836e+18,169.89828359375002,0.5051214396953583,0.804968798160553,1.063973331451416,1.6897266819117898e+18,169.90078979492188,0.4985156893730164,0.7971356749534607,1.0791725993156434,,,,,,,,,,,,,1.6897266819092836e+18,169.89828359375002,-14.960807609558106,45.57091522216797,-10.316395568847655,1.6897266819112965e+18,169.90029626464843,14.581146240234377,57.36957931518555,69.31957244873047,1.6897266819092836e+18,169.89828359375002,-0.877369459388602,0.5723244210851469,-0.3041947479992287,-2.0672506428149653,-0.5894653542751757,0.4820229672719504,-1.3172029657544264
4.95,1.689726681959387e+18,169.94838696289062,0.4277519425223395,-1.2611313452488182,-2.3132068584421277,1.689726681956883e+18,169.94588286132813,0.0972686767578125,0.8441680908203125,-0.453070068359375,1.689726681959387e+18,169.94838696289062,0.5317245225690119,9.58098188048303,-2.014163004686534,1.689726681959387e+18,169.94838696289062,0.207088179141283,1.0808871507644653,1.1311131358146669,1.6897266819618934e+18,169.95089331054686,0.1886525753885507,1.1013750314712525,1.1138214111328124,,,,,,,,,,,,,1.689726681959387e+18,169.94838696289062,-17.71627082824707,45.11695175170898,-9.113453674316409,1.6897266819581038e+18,169.94710390625,12.127474975585937,56.917300415039065,70.3586669921875,1.689726681959387e+18,169.94838696289062,-0.6692757119224473,0.5648213020029176,-0.3126376386122798,-1.8262152039254531,-0.6124468844725754,0.4560951874574933,-1.3559674704925306
5.0,1.6897266820094902e+18,169.998490234375,1.950056677026749,-1.4149806630325317,-3.4240146050414437,1.6897266820069862e+18,169.9959862792969,0.20723876953125,0.8366668701171875,-0.5469757080078125,1.6897266820094902e+18,169.998490234375,0.0031032651857595,9.599708675880432,-2.0008870512670276,1.6897266820094902e+18,169.998490234375,-0.0541908148676156,0.9928821325302124,0.6305734872817993,1.6897266820119967e+18,170.00099658203126,-0.0598095379769801,0.9895407915115356,0.6157512784004211,,,,,,,,,,,,,1.6897266820094902e+18,169.998490234375,-20.10818405151367,44.45599899291992,-8.419337463378906,1.689726682010113e+18,169.99911303710937,9.652255249023437,56.17852783203125,71.04414672851563,1.6897266820094902e+18,169.998490234375,-0.4592640008918499,0.5589475417446945,-0.3099477288094943,-1.572517683954229,-0.635406922809068,0.4332520303402315,-1.3649979759234971
5.05,1.6897266820595937e+18,170.04859375,3.487894021303654,0.0086647186839579,-1.2137936354298886,1.6897266820570898e+18,170.04608989257812,0.3204833984375,1.0014068603515625,-0.318499755859375,1.6897266820595937e+18,170.04859375,-0.3216222246276586,9.585708909004923,-2.0437870124472677,1.6897266820595937e+18,170.04859375,-0.0867473229765892,0.4295526295900345,0.3615591704845428,1.6897266820621e+18,170.0511,-0.071863855421543,0.3836348488926887,0.3426635026931762,,,,,,,,,,,,,1.6897266820595937e+18,170.04859375,-21.62653350830078,44.16301345825195,-8.192117309570312,1.6897266820621233e+18,170.0511232421875,8.11141357421875,55.96414794921875,71.20720825195312,1.6897266820595937e+18,170.04859375,-0.3322367017559701,0.5543802193876267,-0.3048322980694923,-1.4150136739353711,-0.6507439789147376,0.4198317033710723,-1.3581353593672505
5.1,1.6897266821096973e+18,170.09869736328125,1.737171466715336,5.064086289129257,0.9464892033798992,1.689726682107193e+18,170.09619321289065,0.128436279296875,1.490911865234375,-0.1004974365234375,1.6897266821096973e+18,170.09869736328125,-0.4282913466286658,9.59399474059999,-1.984794491443783,1.6897266821096973e+18,170.09869736328125,0.3808877229690551,-0.4706893414258957,0.1598670482635497,1.6897266821122038e+18,170.1012037597656,0.4043370932340622,-0.4914432883262634,0.1551604494452476,,,,,,,,,,,,,1.6897266821096973e+18,170.09869736328125,-22.36032371520996,43.96480178833008,-8.091099548339844,1.6897266821141363e+18,170.10313627929688,7.591464233398438,55.7831298828125,71.39934692382812,1.6897266821096973e+18,170.09869736328125,-0.2634362989238217,0.549840198490531,-0.3126047613785467,-1.358048830791916,-0.6512200538121122,0.419329255378265,-1.3622239113004553
5.15,1.6897266821598008e+18,170.14880068359375,0.8692829583742097,-0.3193428961318731,-0.2926583905021845,1.6897266821572966e+18,170.14629663085938,0.0370574951171875,0.924200439453125,-0.2202392578125,1.6897266821598008e+18,170.14880068359375,-0.4067233145364001,9.638922378989458,-1.75821443010062,1.6897266821598008e+18,170.14880068359375,0.4750555098056793,-0.3803894698619842,-0.0939695067703724,1.6897266821623068e+18,170.1513068847656,0.4604332745075226,-0.3391755074262618,-0.1162613078951835,,,,,,,,,,,,,1.6897266821598008e+18,170.14880068359375,-22.562837219238283,43.80841598510742,-7.41319580078125,1.6897266821609457e+18,170.14994549560546,7.580162048339844,55.612266540527344,72.13602828979492,1.6897266821598008e+18,170.14880068359375,-0.2143491696767822,0.5482935074966828,-0.3308401519870895,-1.3435927231056355,-0.6412932335162489,0.4226539393784845,-1.3857119637857889
5.2,1.689726682209904e+18,170.19890395507812,-1.2699483976437524,-1.7459913175088169,-0.5486000385037064,1.6897266822074002e+18,170.19640014648436,-0.1659271240234375,0.8188201904296875,-0.21019287109375,1.689726682209904e+18,170.19890395507812,-0.285474470347464,9.668913729531765,-1.612346466459632,1.689726682209904e+18,170.19890395507812,0.1683015376329421,0.2415294155478477,-0.21019903793931,1.6897266822124106e+18,170.20141059570312,0.1640184432268142,0.2781968355178832,-0.1845292001962661,,,,,,,,,,,,,1.689726682209904e+18,170.19890395507812,-21.909003448486327,43.97611923217774,-6.79456787109375,1.689726682207758e+18,170.19675805664062,8.218148803710937,55.85106201171875,72.64224243164062,1.689726682209904e+18,170.19890395507812,-0.2579699779870766,0.553507003781213,-0.3360063929584255,-1.395787236091185,-0.6337616026081994,0.4231683042762493,-1.4030214478108562
5.25,1.6897266822600077e+18,170.24900766601564,-1.2733082221591472,0.1709848107886314,0.8406967034699022,1.6897266822575035e+18,170.24650361328128,-0.158856201171875,1.0097381591796877,-0.0677581787109375,1.6897266822600077e+18,170.24900766601564,-0.342598347934857,9.681453828344344,-1.5229244080792366,1.6897266822600077e+18,170.24900766601564,0.2186936050653457,0.5944273352622986,0.2312181890010833,1.689726682262514e+18,170.2515138671875,0.2272426337003707,0.5886971414089203,0.2451728492975235,,,,,,,,,,,,,1.6897266822600077e+18,170.24900766601564,-21.93446273803711,43.88421249389648,-5.912663269042969,1.6897266822597711e+18,170.24877128906252,8.081381225585938,55.70103454589844,73.54354553222656,1.6897266822600077e+18,170.24900766601564,-0.2290073968902503,0.5574107266129247,-0.3343258718809164,-1.3490445426616111,-0.6369379605120047,0.4145009613236275,-1.4108522871568625
5.3,1.6897266823101107e+18,170.2991108886719,0.0576335368360579,0.013435469443202,0.3540124091660976,1.689726682307607e+18,170.2966068359375,-0.04521484375,0.9884033203125,-0.1093658447265625,1.6897266823101107e+18,170.2991108886719,-0.5478461952356248,9.69181962263167,-1.3901331635716556,1.6897266823101107e+18,170.2991108886719,0.2488097488880157,-0.0789510801434516,0.5188573181629181,1.6897266823126172e+18,170.30161728515623,0.2417753398418426,-0.1146596267819404,0.5266776978969574,,,,,,,,,,,,,1.6897266823101107e+18,170.2991108886719,-22.486845779418942,43.76625061035156,-5.42320556640625,1.689726682311786e+18,170.3007861328125,7.428958129882813,55.5087890625,74.04294128417969,1.6897266823101107e+18,170.2991108886719,-0.0839616522097261,0.5556420707105418,-0.3396260705020263,-1.195184899251298,-0.6423178994869276,0.4041309923793614,-1.4176165542246228
5.35,1.6897266823602145e+18,170.349214453125,0.6878245747683197,0.2587160519248246,0.3851764567495882,1.6897266823577103e+18,170.34671054687502,-0.0075103759765625,1.0130035400390625,-0.091741943359375,1.6897266823602145e+18,170.349214453125,-0.7360678551248461,9.688772860733868,-1.3249903032448889,1.6897266823602145e+18,170.349214453125,0.0767347030341625,-0.2880202509462833,0.2296916060149669,1.6897266823627208e+18,170.3517208007813,0.0722516134381293,-0.2472545340657234,0.207399632781744,,,,,,,,,,,,,1.6897266823602145e+18,170.349214453125,-23.29183883666992,43.444853973388675,-5.572064208984375,1.6897266823638e+18,170.3528001953125,6.672906494140625,55.1977783203125,73.73771667480469,1.6897266823602145e+18,170.349214453125,0.0718716242766484,0.54613861973304,-0.3530591434312152,-1.06378336768756,-0.6425493043079573,0.4052137666542815,-1.4155925944891383
5.4,1.6897266824103178e+18,170.3993177734375,0.1626536202949285,0.1088453408354521,0.6743261377045512,1.689726682407814e+18,170.39681391601562,-0.0655670166015625,1.0018798828125,-0.06502685546875,1.6897266824103178e+18,170.3993177734375,-0.7931666567231714,9.686013332892657,-1.312261053148806,1.6897266824103178e+18,170.3993177734375,-0.0339891975745558,0.4334829390048981,0.0791913177818059,1.689726682412824e+18,170.4018241699219,-0.0351102627813815,0.4356769025325775,0.085341528058052,,,,,,,,,,,,,1.6897266824103178e+18,170.3993177734375,-23.40610122680664,43.24001007080078,-5.51202392578125,1.6897266824106104e+18,170.3996103515625,6.660785675048828,55.0944709777832,73.93344116210938,1.6897266824103178e+18,170.3993177734375,0.1093063276628867,0.5444256142933661,-0.3548011272252623,-1.0272017735439476,-0.6438576778888623,0.4039272046585574,-1.413784997040475
5.45,1.6897266824604214e+18,170.4494212890625,0.2004478850600868,0.2836957117849588,0.8992271599195897,1.6897266824579172e+18,170.44691723632812,-0.06796875,1.0109283447265625,-0.03951416015625,1.6897266824604214e+18,170.4494212890625,-0.8503838970693944,9.678906365044714,-1.3288366034094987,1.6897266824604214e+18,170.4494212890625,-0.029355670697987,-0.519636732339859,0.1337238729000091,1.6897266824629276e+18,170.45192768554688,-0.0250119298696517,-0.55119748711586,0.1350381404161453,,,,,,,,,,,,,1.6897266824604214e+18,170.4494212890625,-23.443928146362303,43.081336212158206,-5.401750183105468,1.6897266824574208e+18,170.44642084960938,6.62581787109375,54.90245056152344,73.96665649414062,1.6897266824604214e+18,170.4494212890625,0.1402184048080259,0.5411798678451112,-0.3570231290907072,-1.0015181178530257,-0.6448882902376518,0.4046624633545354,-1.409219058047864
5.5,1.689726682510525e+18,170.499524609375,-0.5886557307817787,-1.3583891241431236,1.994425804750621,1.6897266825080207e+18,170.497020703125,-0.1536865234375,0.8463714599609375,0.072021484375,1.689726682510525e+18,170.499524609375,-0.8740816858123986,9.677970662403704,-1.320039081352204,1.689726682510525e+18,170.499524609375,0.1697945028543472,0.2927953811362386,-0.0167527932673692,1.689726682513031e+18,170.50203100585935,0.1892927467823028,0.3702390938997268,-0.0323211334645748,,,,,,,,,,,,,1.689726682510525e+18,170.499524609375,-23.30208969116211,43.037078094482425,-5.502394104003907,1.689726682509431e+18,170.4984310546875,6.790682983398438,54.894866943359375,73.92208557128906,1.689726682510525e+18,170.499524609375,0.1784582847647213,0.5360419087515483,-0.3649847599826861,-0.9857772830342468,-0.6413665181807204,0.4099843741602527,-1.4086349925120722
5.55,1.6897266825606282e+18,170.54962817382813,-1.469960558167696,-0.3317511268061399,0.8511138333921879,1.6897266825581243e+18,170.54712431640627,-0.237200927734375,0.959869384765625,-0.0462371826171875,1.6897266825606282e+18,170.54962817382813,-0.8084515826514362,9.70681658385098,-1.1349462356210498,1.6897266825606282e+18,170.54962817382813,0.407891058921814,0.2413125494495034,-0.3591815084218978,1.6897266825631347e+18,170.5521345703125,0.3980557113885879,0.1890998765826225,-0.3639638304710388,,,,,,,,,,,,,1.6897266825606282e+18,170.54962817382813,-22.922543716430663,43.35145492553711,-4.208784484863282,1.689726682561442e+18,170.55044204101563,7.309213256835937,55.281982421875,75.48212280273438,1.6897266825606282e+18,170.54962817382813,0.1908493504911192,0.5464926650681121,-0.3627412245433197,-0.951967346440286,-0.6400263633833708,0.4001389319506543,-1.4282138358791756
5.6,1.6897266826107315e+18,170.59973164062498,-3.622352176110148,0.8767593367499111,-1.7061181568038464,1.6897266826082278e+18,170.5972276855469,-0.446697998046875,1.0909637451171874,-0.28511962890625,1.6897266826107315e+18,170.59973164062498,-0.7112127422663569,9.726471366200446,-1.0291375006155667,1.6897266826107315e+18,170.59973164062498,-0.0396903870627284,0.5250087410211564,0.1487865895032882,1.6897266826132378e+18,170.60223789062502,-0.063133267685771,0.5808193981647491,0.2076145514845848,,,,,,,,,,,,,1.6897266826107315e+18,170.59973164062498,-22.16257972717285,43.63788986206055,-3.2272323608398437,1.6897266826134513e+18,170.60245107421875,7.996282958984375,55.460549926757814,76.30498352050782,1.6897266826107315e+18,170.59973164062498,0.1721701500758852,0.5526729210264709,-0.3629078260080839,-0.9664275032692258,-0.6360418551458298,0.3978459312324475,-1.4428532985705655
5.65,1.6897266826608348e+18,170.64983491210938,-0.5409409458918125,1.1102701033651827,-1.6882987585749476,1.689726682658331e+18,170.6473307617187,-0.144134521484375,1.093414306640625,-0.276947021484375,1.6897266826608348e+18,170.64983491210938,-1.0805919834905118,9.680127197463513,-1.1260852490995823,1.6897266826608348e+18,170.64983491210938,-0.3822707533836364,0.2916861534118652,1.1468084335327149,1.6897266826633413e+18,170.65234125976562,-0.3844194173812866,0.2928197264671325,1.1696576714515683,,,,,,,,,,,,,1.6897266826608348e+18,170.64983491210938,-23.11611518859863,43.19797439575195,-3.117445373535156,1.6897266826602609e+18,170.64926098632813,6.551639556884766,54.90791702270508,76.17594528198242,1.6897266826608348e+18,170.64983491210938,0.3052290077577533,0.5431189368732575,-0.3594473330277518,-0.811111153225313,-0.6525770130239772,0.3871498103018178,-1.4107226823756327
5.7,1.6897266827109386e+18,170.69993857421875,3.065073361171037,0.164963416994214,0.1821726182094216,1.6897266827084347e+18,170.69743471679686,0.1591064453125,0.9884368896484376,-0.1030609130859375,1.6897266827109386e+18,170.69993857421875,-1.6044905214883385,9.592605799685716,-1.2526501372121277,1.6897266827109386e+18,170.69993857421875,-0.2981596052646637,1.1435070991516114,0.4545996844768524,1.6897266827134449e+18,170.70244477539063,-0.2901411741971969,1.1924420237541198,0.3619099542498588,,,,,,,,,,,,,1.6897266827109386e+18,170.69993857421875,-25.344824600219727,42.0363265991211,-3.4295303344726564,1.6897266827070715e+18,170.6960716308594,4.585366821289062,53.79835815429688,75.97580261230469,1.6897266827109386e+18,170.69993857421875,0.4277338058754215,0.5277707560110193,-0.3563691645041909,-0.6637675509787564,-0.6743573447181153,0.3736564384920299,-1.3616462000258298
5.75,1.689726682761042e+18,170.75004184570312,2.3824753327184913,-0.6259274329775572,1.1193853130695224,1.6897266827585377e+18,170.747537890625,0.075640869140625,0.9191741943359376,-0.0098907470703125,1.689726682761042e+18,170.75004184570312,-1.4997929479821024,9.610108956959248,-1.246247971245721,1.689726682761042e+18,170.75004184570312,-0.059914644435048,0.9906586170196532,-0.943756377696991,1.6897266827635482e+18,170.75254819335936,-0.0432926118373871,0.9696968913078308,-0.9659265398979188,,,,,,,,,,,,,1.689726682761042e+18,170.75004184570312,-24.807326126098634,42.14579772949219,-2.225413513183594,1.6897266827590835e+18,170.74808349609376,5.426507568359375,54.04902648925781,77.27782897949218,1.689726682761042e+18,170.75004184570312,0.3376583092380756,0.5422906233858222,-0.3348980165187704,-0.6949503195272487,-0.6813745036458422,0.3597280844590219,-1.370498549984006
5.8,1.6897266828111452e+18,170.80014526367188,-1.469172418077737,-0.4354975662934779,1.0697780654964597,1.689726682808641e+18,170.79764121093748,-0.278875732421875,0.9417236328125,-0.0121826171875,1.6897266828111452e+18,170.80014526367188,-1.1023498463729768,9.677505266075134,-1.1362767681854962,1.6897266828111452e+18,170.80014526367188,0.2272689908742904,1.3152258753776551,-0.755670040845871,1.6897266828136517e+18,170.80265166015624,0.238849326968193,1.3481329917907714,-0.720145869255066,,,,,,,,,,,,,1.6897266828111452e+18,170.80014526367188,-22.738296127319337,43.1500862121582,-0.8693923950195312,1.689726682811096e+18,170.80009599609377,7.489248657226563,55.06092834472656,78.64811401367187,1.6897266828111452e+18,170.80014526367188,0.179738411088598,0.567093643989516,-0.3145871857660579,-0.8013986213610679,-0.6761681210058766,0.3494558758428167,-1.4086240253485969
5.85,1.6897266828612485e+18,170.8502486328125,-3.4116821868562694,-0.0736089584726095,-0.981063687767908,1.6897266828587446e+18,170.84774467773437,-0.44874267578125,0.98282470703125,-0.2064971923828125,1.6897266828612485e+18,170.8502486328125,-0.9613569560354946,9.713383336568471,-0.9457298656060548,1.6897266828612485e+18,170.8502486328125,0.2633416563272476,0.3522920787334442,-0.0328452289104461,1.689726682863755e+18,170.85275502929687,0.2562648117542266,0.2758244484663009,0.0114582512527704,,,,,,,,,,,,,1.6897266828612485e+18,170.8502486328125,-21.681778717041016,43.53842544555664,0.6103118896484375,1.689726682863107e+18,170.85210727539064,8.435006713867187,55.40906372070312,80.30137329101562,1.6897266828612485e+18,170.8502486328125,0.154028181149148,0.5840082614662003,-0.3016287729893934,-0.7767670648731185,-0.6767822689215526,0.3315263187265598,-1.4328139888024232
5.9,1.6897266829113523e+18,170.90035219726562,-1.3619880838701128,-0.0593311929863691,-2.0045251739606256,1.6897266829088484e+18,170.89784829101563,-0.2371612548828125,0.989031982421875,-0.291131591796875,1.6897266829113523e+18,170.90035219726562,-1.1464171123799682,9.699943775472043,-0.8703419878274202,1.6897266829113523e+18,170.90035219726562,0.0595336734317243,-0.1020240131765603,0.7030975699424744,1.6897266829138586e+18,170.90285859374998,0.0500659916549921,-0.0751451358199119,0.7186618328094483,,,,,,,,,,,,,1.6897266829113523e+18,170.90035219726562,-22.28292465209961,43.35499877929688,1.0334487915039063,1.6897266829151206e+18,170.90412045898438,7.425949096679688,55.0683837890625,80.38173828125,1.6897266829113523e+18,170.90035219726562,0.2879778215112165,0.5775828848715514,-0.3099549578032772,-0.6516302722330884,-0.6799746522093489,0.3285301675539586,-1.4233370009888848
5.95,1.6897266829614556e+18,170.95045571289063,1.2211963421279193,0.7534608738613129,-1.1088271526283024,1.6897266829589517e+18,170.94795161132814,-0.0256256103515625,1.0599761962890626,-0.1956787109375,1.6897266829614556e+18,170.95045571289063,-1.519154592603892,9.64796890737176,-0.8760556454599648,1.6897266829614556e+18,170.95045571289063,-0.0930982187390327,0.3847616761922836,0.7423228621482849,1.689726682963962e+18,170.9529618652344,-0.0954623401165008,0.4160445600748062,0.7357447981834412,,,,,,,,,,,,,1.6897266829614556e+18,170.95045571289063,-23.828706359863283,42.689972686767575,1.0405929565429688,1.6897266829619305e+18,170.95093048095703,5.9323577880859375,54.36488342285156,80.49287033081055,1.6897266829614556e+18,170.95045571289063,0.4136491990645899,0.5647584716789802,-0.3149692457774626,-0.5246261388577891,-0.691544811966579,0.3218289801197951,-1.390924974268775
6.0,1.689726683011559e+18,171.000558984375,2.381078822245746,0.3677796532338857,-0.1673621779251098,1.6897266830090552e+18,170.998055078125,0.0605743408203125,1.0126983642578125,-0.1056427001953125,1.689726683011559e+18,171.000558984375,-1.8300532809346912,9.594074469385742,-0.8782454398152977,1.689726683011559e+18,171.000558984375,-0.0969481386244296,0.6722899436950683,0.3706157922744751,1.6897266830140654e+18,171.00306538085937,-0.0935976475477218,0.6823865056037903,0.3398968517780303,,,,,,,,,,,,,1.689726683011559e+18,171.000558984375,-25.080101776123048,41.89933547973633,1.500238037109375,1.6897266830087365e+18,170.99773623046875,4.931478881835938,53.701812744140625,80.93916320800781,1.689726683011559e+18,171.000558984375,0.4664576008831139,0.5574649532761222,-0.3111093674089401,-0.4478111403448048,-0.704630666531307,0.3096981093074655,-1.3622739027886857
6.05,1.6897266830616625e+18,171.05066254882814,2.69030080953598,-0.0035538930892944,-0.4788446574932337,1.6897266830591585e+18,171.04815874023438,0.078204345703125,0.9779449462890624,-0.1360809326171875,1.6897266830616625e+18,171.05066254882814,-1.868610887448639,9.59050631396234,-0.835841284714937,1.6897266830616625e+18,171.05066254882814,0.0013939881697297,0.7001118540763855,-0.3409053392708301,1.689726683064169e+18,171.05316879882812,0.0066189139615744,0.7072084426879883,-0.3678365617990493,,,,,,,,,,,,,1.6897266830616625e+18,171.05066254882814,-25.19894676208496,41.83012466430664,2.111810302734375,1.6897266830607437e+18,171.0497435546875,4.906527709960938,53.68822326660156,81.5543212890625,1.6897266830616625e+18,171.05066254882814,0.4622379688220445,0.5615937384808324,-0.3019741647722537,-0.4206097784632957,-0.7099818188701962,0.2988702789174044,-1.3605083115706549
6.1,1.6897266831117658e+18,171.10076586914062,0.5271316893132031,0.1091017121362685,-0.8675546513573081,1.6897266831092618e+18,171.0982619140625,-0.1243072509765625,0.99522705078125,-0.170892333984375,1.6897266831117658e+18,171.10076586914062,-1.652645831300467,9.636137132185102,-0.7604126073084025,1.6897266831117658e+18,171.10076586914062,0.0385940906591713,0.6025189936161042,-0.5669701337814331,1.6897266831142725e+18,171.10327231445314,0.0361951289698481,0.5919276535511017,-0.5647213339805603,,,,,,,,,,,,,1.6897266831117658e+18,171.10076586914062,-24.195715713500977,42.20063018798828,2.933270263671875,1.6897266831127524e+18,171.10175229492188,6.15509033203125,54.16566162109375,82.47633361816406,1.6897266831117658e+18,171.10076586914062,0.4192181691505053,0.5754165534800121,-0.2901317305713309,-0.4314889795850913,-0.7071585152237754,0.2908841924643813,-1.3842002427961335
6.15,1.6897266831618693e+18,171.15086923828125,-0.8615503694412112,0.1331820266169309,-1.8810655291609464,1.689726683159365e+18,171.14836518554688,-0.2349761962890625,0.9978851318359376,-0.26754150390625,1.6897266831618693e+18,171.15086923828125,-1.444185510146171,9.670625326529144,-0.7496532544327528,1.6897266831618693e+18,171.15086923828125,-0.1893860317766666,0.3698991239070892,-0.2979255080223083,1.6897266831643756e+18,171.1533756347656,-0.2054383218288421,0.3791715502738952,-0.2780175030231475,,,,,,,,,,,,,1.6897266831618693e+18,171.15086923828125,-23.15338020324707,42.689537811279294,3.3032257080078127,1.689726683164761e+18,171.15376127929687,7.156170654296875,54.62074279785156,82.6841827392578,1.6897266831618693e+18,171.15086923828125,0.3516740598167228,0.5859813106523865,-0.2806227785215186,-0.4790840023280995,-0.7034748048913327,0.2880801861223633,-1.4040663906215187
6.2,1.6897266832119729e+18,171.20097275390626,0.5943775424946844,-0.1531044030874967,-0.77094015341565,1.689726683209469e+18,171.1984689453125,-0.0669464111328125,0.9705780029296877,-0.164190673828125,1.6897266832119729e+18,171.20097275390626,-1.3630059410627189,9.669636900013684,-0.8976688245616853,1.6897266832119729e+18,171.20097275390626,-0.5481640875339509,0.4765098810195923,-0.2214563518762588,1.6897266832144788e+18,171.20347900390624,-0.5655817568302155,0.4857571721076965,-0.2363761037588119,,,,,,,,,,,,,1.6897266832119729e+18,171.20097275390626,-22.493117141723634,43.004737854003906,3.0496337890625,1.6897266832115697e+18,171.20056970214844,7.634761810302734,54.921531677246094,82.31473541259766,1.6897266832119729e+18,171.20097275390626,0.2292913728015455,0.5893364666585036,-0.2676541035354812,-0.5819477160858286,-0.7055717070281102,0.2884227019296516,-1.4034497643304822
6.25,1.6897266832620764e+18,171.25107622070314,1.9945831872694193,0.0047381344377994,0.5217605761210621,1.6897266832595722e+18,171.248572265625,0.0891143798828125,0.9888946533203123,-0.06497802734375,1.6897266832620764e+18,171.25107622070314,-1.1687032515332847,9.662449735762475,-1.1931843872867525,1.6897266832620764e+18,171.25107622070314,-0.7889740228652954,0.9187930703163149,-0.8168927431106567,1.689726683264583e+18,171.25358256835938,-0.7905584573745728,0.9572177410125732,-0.855393135547638,,,,,,,,,,,,,1.6897266832620764e+18,171.25107622070314,-21.482891464233397,43.54185562133789,2.1039703369140623,1.6897266832583764e+18,171.2473764160156,8.7071533203125,55.44895629882812,81.41486206054688,1.6897266832620764e+18,171.25107622070314,-0.0161476525927434,0.5961428143980949,-0.2438609726936684,-0.7957672581305462,-0.7071305617762423,0.2915660607979328,-1.399096450049808
6.3,1.6897266833121797e+18,171.3011796875,1.686764987749457,1.4233851525712011,1.56845167824924,1.6897266833096758e+18,171.29867563476563,0.1025970458984375,1.14019775390625,0.0130340576171875,1.6897266833121797e+18,171.3011796875,-0.672700903816372,9.663444358209968,-1.5156294872176646,1.6897266833121797e+18,171.3011796875,-0.6999660849571228,1.1461723685264589,-1.472257089614868,1.689726683314686e+18,171.30368588867185,-0.686590039730072,1.1368768930435182,-1.495643973350525,,,,,,,,,,,,,1.6897266833121797e+18,171.3011796875,-19.099492645263673,44.62897262573242,1.2856613159179688,1.689726683310386e+18,171.29938603515626,11.223004150390626,56.56815490722656,80.62259826660156,1.6897266833121797e+18,171.3011796875,-0.4305011210882489,0.6169730585538842,-0.2062042897667035,-1.1526042078304422,-0.7011719553903026,0.2915327503953066,-1.3996924070846235
6.35,1.689726683362283e+18,171.35128286132812,2.2603212467855216,2.0495288586479425,2.2618853689101335,1.6897266833597788e+18,171.34877880859375,0.2439544677734375,1.1879241943359375,0.0426849365234375,1.689726683362283e+18,171.35128286132812,0.1171509274437557,9.638754036685228,-1.7800222403785586,1.689726683362283e+18,171.35128286132812,-0.4751308083534241,0.8341273307800293,-2.156260538101196,1.6897266833647895e+18,171.353789453125,-0.4614745259284973,0.8376300930976868,-2.1809844970703125,,,,,,,,,,,,,1.689726683362283e+18,171.35128286132812,-15.457066535949709,45.82391891479492,0.9599014282226562,1.6897266833623967e+18,171.35139643554686,15.152969360351562,57.8324462890625,80.31414489746093,1.689726683362283e+18,171.35128286132812,-0.9594504100041408,0.6477885583496146,-0.1692446328921243,-1.6293735722756804,-0.6820657268951014,0.2936526435425213,-1.3856991698857233
6.4,1.6897266834123866e+18,171.4013865722656,-1.4460884211580454,1.0186597411602736,1.7052955591484902,1.6897266834098826e+18,171.39888271484375,-0.04530029296875,1.0719268798828123,-0.0299041748046875,1.6897266834123866e+18,171.4013865722656,1.1047950621810556,9.539021859727502,-1.9709620731852948,1.6897266834123866e+18,171.4013865722656,-0.2258155196905135,0.5870679020881653,-2.06501841545105,1.6897266834148928e+18,171.4038927246094,-0.2121810227632522,0.5813654482364654,-2.0407325983047486,,,,,,,,,,,,,1.6897266834123866e+18,171.4013865722656,-11.292834854125976,46.653202056884766,0.881982421875,1.6897266834144072e+18,171.40340727539063,20.112057495117188,58.61119384765625,80.32785339355469,1.6897266834123866e+18,171.4013865722656,-1.4497801282750105,0.6844080190854435,-0.1356057066925048,-2.0749999243871033,-0.6520303720739049,0.2963491376921702,-1.3372377866556109
6.45,1.68972668346249e+18,171.45148994140624,-2.988045504939556,0.5549248576110601,0.6709561352017521,1.689726683459986e+18,171.44898579101562,-0.1119171142578125,1.00904541015625,-0.142547607421875,1.68972668346249e+18,171.45148994140624,1.9025444289715587,9.397112687488796,-2.0521410869729517,1.68972668346249e+18,171.45148994140624,-0.0188775695860385,-0.0100195303559303,-1.340778601169586,1.6897266834649964e+18,171.45399638671876,-0.0082620840519666,-0.0602673888206481,-1.287825870513916,,,,,,,,,,,,,1.68972668346249e+18,171.45148994140624,-7.047970199584961,47.00475540161133,1.1609466552734375,1.6897266834612165e+18,171.4502162475586,23.72330093383789,58.91596984863281,80.58779907226562,1.68972668346249e+18,171.45148994140624,-1.7192410592824892,0.713005563916279,-0.1139453992903657,-2.316311842049502,-0.6244663463738477,0.2976390167519822,-1.2810667103481237
6.5,1.6897266835125932e+18,171.50159326171874,-4.305479693716466,-0.8443839552283287,1.4296316457453369,1.6897266835100892e+18,171.49908920898437,-0.212359619140625,0.8578887939453125,-0.0526580810546875,1.6897266835125932e+18,171.50159326171874,2.312247102725357,9.323149859464168,-1.9746117401862144,1.6897266835125932e+18,171.50159326171874,0.185026454925537,-0.3928897678852081,-0.2577585339546203,1.6897266835150996e+18,171.50409965820313,0.1940652400255202,-0.3762550741434097,-0.2048928014934063,,,,,,,,,,,,,1.6897266835125932e+18,171.50159326171874,-4.678416061401367,47.17023620605469,1.436737060546875,1.6897266835080264e+18,171.4970264160156,25.48165283203125,59.01927795410156,80.8573974609375,1.6897266835125932e+18,171.50159326171874,-1.8252781812402097,0.7250581804804244,-0.1154269935818875,-2.4347201772877387,-0.6072678184774214,0.3036113524384992,-1.2554796458982007
6.55,1.6897266835626967e+18,171.55169682617185,-3.775798407598734,-1.7597875538623335,1.0945689393992724,1.6897266835601928e+18,171.54919291992186,-0.144677734375,0.77537841796875,-0.0726654052734375,1.6897266835626967e+18,171.55169682617185,2.253205598787516,9.37047579116702,-1.810644640752971,1.6897266835626967e+18,171.55169682617185,0.3315366864204406,-0.4447803139686584,0.611078417301178,1.6897266835652032e+18,171.55420322265624,0.3422825098037719,-0.4408124923706055,0.6484236896038056,,,,,,,,,,,,,1.6897266835626967e+18,171.55169682617185,-4.8624427795410154,46.9613540649414,2.044972229003906,1.6897266835600397e+18,171.54903964843749,25.118194580078125,58.78202514648437,81.49491882324219,1.6897266835626967e+18,171.55169682617185,-1.836806991390025,0.7227830248271975,-0.1277644079132161,-2.464685687454022,-0.6072601164926408,0.3040731535319111,-1.2715813952802324
6.6,1.6897266836128005e+18,171.60180029296876,-1.95172683142215,-1.3486891002881527,1.038618065727055,1.6897266836102963e+18,171.5992962402344,-0.00662841796875,0.835540771484375,-0.052008056640625,1.6897266836128005e+18,171.60180029296876,1.8344407314647733,9.503489124766588,-1.5664497200031575,1.6897266836128005e+18,171.60180029296876,0.5025686800479889,-0.4022620439529419,1.2798657178878785,1.6897266836153065e+18,171.604306640625,0.5079358160495758,-0.4049031257629394,1.3109111070632935,,,,,,,,,,,,,1.6897266836128005e+18,171.60180029296876,-7.183806228637695,46.65751419067383,2.9012191772460936,1.689726683612053e+18,171.60105288085938,22.671673583984376,58.46662902832031,82.35524291992188,1.6897266836128005e+18,171.60180029296876,-1.7830395664514067,0.7098467577634529,-0.1489296363091987,-2.4333754828592022,-0.6198515324525902,0.2993632684315921,-1.3221715911374292
6.65,1.6897266836629038e+18,171.65190366210936,-0.3556895924372226,-1.2538162876081465,2.10178131619364,1.6897266836603996e+18,171.64939956054687,0.086187744140625,0.856536865234375,0.0961273193359375,1.6897266836629038e+18,171.65190366210936,1.135839852686003,9.65536848687768,-1.262434142249599,1.6897266836629038e+18,171.65190366210936,0.6091960191726684,-0.7318179488182068,1.7014805793762209,1.6897266836654098e+18,171.65440991210937,0.6201646089553833,-0.7217759251594543,1.6974811553955078,,,,,,,,,,,,,1.6897266836629038e+18,171.65190366210936,-10.102140426635742,46.262640380859374,3.708424377441406,1.6897266836640658e+18,171.65306567382814,18.992523193359375,57.92384033203125,83.3078857421875,1.6897266836629038e+18,171.65190366210936,-1.6124892361785772,0.6871629093068092,-0.1791054232209565,-2.295474281130982,-0.6402112100228914,0.2926749045464298,-1.396378648030701
