seconds_elapsed_rounded,accelerometer_time,accelerometer_seconds_elapsed,accelerometer_z,accelerometer_y,accelerometer_x,accelerometeruncalibrated_time,accelerometeruncalibrated_seconds_elapsed,accelerometeruncalibrated_z,accelerometeruncalibrated_y,accelerometeruncalibrated_x,gravity_time,gravity_seconds_elapsed,gravity_z,gravity_y,gravity_x,gyroscope_time,gyroscope_seconds_elapsed,gyroscope_z,gyroscope_y,gyroscope_x,gyroscopeuncalibrated_time,gyroscopeuncalibrated_seconds_elapsed,gyroscopeuncalibrated_z,gyroscopeuncalibrated_y,gyroscopeuncalibrated_x,location_time,location_seconds_elapsed,location_altitude,location_speedAccuracy,location_bearingAccuracy,location_latitude,location_altitudeAboveMeanSeaLevel,location_bearing,location_horizontalAccuracy,location_verticalAccuracy,location_longitude,location_speed,magnetometer_time,magnetometer_seconds_elapsed,magnetometer_z,magnetometer_y,magnetometer_x,magnetometeruncalibrated_time,magnetometeruncalibrated_seconds_elapsed,magnetometeruncalibrated_z,magnetometeruncalibrated_y,magnetometeruncalibrated_x,orientation_time,orientation_seconds_elapsed,orientation_yaw,orientation_qx,orientation_qz,orientation_roll,orientation_qw,orientation_qy,orientation_pitch
0.0,1.689893315987099e+18,29.99809887695313,-6.114000766444206,-3.619987434353232,6.305979499231577,1.6898933159921103e+18,30.00311025390625,-0.3691497802734375,0.4943756103515625,0.244525146484375,1.689893315987099e+18,29.99809887695313,2.5452337285621462,8.512090081688761,-4.150509672113657,1.689893315987099e+18,29.99809887695313,-0.7317750453948975,-2.83959059715271,0.6328442364931106,1.6898933159921103e+18,30.00311025390625,-0.6388872742652894,-2.764997959136963,0.7246147632598877,1.6898933160002345e+18,30.011234375,72.08361823577434,0.8100000023850746,78.23180513060075,49.18958979089428,91.49361808318643,355.7812497097431,4.156788275183824,4.1359647286948835,-122.84784248275258,0.3799999952316277,1.689893315987099e+18,29.99809887695313,1.184280776977539,52.323568725585936,-12.150801086425782,1.689893315985305e+18,29.99630546875,28.936614990234375,68.88941955566406,67.37341918945313,1.689893315987099e+18,29.99809887695313,-1.63529944964452,0.7180978266438197,0.00895399882452,-2.1207522504828096,-0.6082377241298039,0.3373477445609032,-1.0511633819461146
0.05,1.6898933160372127e+18,30.04821279296875,-5.92551583789587,-3.5838321835798026,8.977824380813837,1.689893316042224e+18,30.05322421875,-0.338616943359375,0.516705322265625,0.5067626953125,1.6898933160372127e+18,30.04821279296875,2.5233253220669924,8.595404324713348,-3.9870509898200632,1.6898933160372127e+18,30.04821279296875,0.2407291042618453,-0.9435946822166444,1.488445806503296,1.689893316042224e+18,30.05322421875,0.352473096549511,-0.6487844482064247,1.5753833055496216,,,,,,,,,,,,,1.6898933160372127e+18,30.04821279296875,-0.3308246612548827,52.084390258789064,-12.928543090820312,1.6898933160373071e+18,30.048307080078125,27.192230224609375,68.7107421875,66.77872314453126,1.6898933160372127e+18,30.04821279296875,-1.5242931983041084,0.698279008189532,-0.0360594405139382,-2.134614098867743,-0.6082080411482399,0.375507451951984,-1.068701221949731
0.1,1.6898933160873267e+18,30.098326806640625,0.8812930054306983,0.1541192499923706,4.7921493457469335,1.6898933160923384e+18,30.103338330078124,0.343438720703125,0.974755859375,0.066650390625,1.6898933160873267e+18,30.098326806640625,1.7026790345875915,8.945283579597472,-3.624317455607653,1.6898933160873267e+18,30.098326806640625,1.4311634302139282,0.6262611985206604,1.7549482345581056,1.6898933160923384e+18,30.103338330078124,1.4941778659820557,0.4563617393374443,1.6421931028366088,,,,,,,,,,,,,1.6898933160873267e+18,30.098326806640625,-5.123721694946289,52.57851104736328,-11.21801300048828,1.689893316089309e+18,30.100308935546877,22.21637878417969,69.24923400878906,68.73565673828125,1.6898933160873267e+18,30.098326806640625,-1.3882098569168222,0.6776638599071262,-0.0640678243634078,-2.0070554173715167,-0.6394647222174233,0.3569907016947584,-1.149522905321105
0.15,1.6898933161374408e+18,30.148440869140625,11.923611291216613,8.316109595140217,-13.279087742783426,1.6898933161424522e+18,30.153452246093742,1.3081024169921875,1.759832763671875,-1.7293853759765625,1.6898933161374408e+18,30.148440869140625,1.1693198929008095,9.199838887807129,-3.1859865363582967,1.6898933161374408e+18,30.148440869140625,0.0129055619239807,0.8707017660140991,0.4512086004018784,1.6898933161424522e+18,30.153452246093742,-0.2431085735559463,1.089007604122162,0.3565084755420685,,,,,,,,,,,,,1.6898933161374408e+18,30.148440869140625,-7.892972946166992,52.94609680175781,-8.8823974609375,1.6898933161413112e+18,30.152311132812496,19.454183959960936,69.5215576171875,70.87752075195313,1.6898933161374408e+18,30.148440869140625,-1.3073008769826084,0.6688638623803592,-0.0865923987357591,-1.922624210034535,-0.6578980602851544,0.3349890817450492,-1.217194758988579
0.2,1.6898933161875548e+18,30.1985548828125,1.7162117100210488,-1.0350324330991507,-4.128496928461193,1.6898933161925663e+18,30.203566259765623,0.205718994140625,0.826861572265625,-0.709619140625,1.6898933161875548e+18,30.1985548828125,0.9644560910946128,9.074552232162953,-3.58729687862873,1.6898933161875548e+18,30.1985548828125,-1.0406842589378358,0.0766962595283985,0.0933335810899734,1.6898933161925663e+18,30.203566259765623,-0.9547162413597108,0.0174014717340469,0.1983382269740104,,,,,,,,,,,,,1.6898933161875548e+18,30.1985548828125,-8.682271575927734,52.449354553222655,-10.036376953125,1.689893316188112e+18,30.199111877441403,19.086483001708984,68.93072509765625,69.21467208862305,1.6898933161875548e+18,30.1985548828125,-1.2517376375733793,0.660721958420796,-0.0626276412913187,-1.8338001536813375,-0.6684934940700653,0.3355166959875143,-1.1822354379870226
0.25,1.6898933162376689e+18,30.24866884765625,1.2186514361115546,5.992685586327314,4.275018270670474,1.6898933162426803e+18,30.253680224609376,0.238336181640625,1.5502899169921875,0.042596435546875,1.6898933162376689e+18,30.24866884765625,0.7548290788615495,9.021352790703771,-3.769273097483217,1.6898933162376689e+18,30.24866884765625,0.1013050504028797,-0.4154387928545475,0.1251126408576965,1.6898933162426803e+18,30.253680224609376,0.1017183721065521,-0.6126485526561737,-0.0535512655973434,,,,,,,,,,,,,1.6898933162376689e+18,30.24866884765625,-9.938970565795898,51.69599151611328,-11.298051452636718,1.6898933162349133e+18,30.245913232421877,17.717916870117186,68.26953735351563,68.40084533691406,1.6898933162376689e+18,30.24866884765625,-1.1737814333740118,0.6483458730871107,-0.0621746178506564,-1.768324847745247,-0.6764794716625449,0.3436857498111084,-1.1679006940852594
0.3,1.689893316287783e+18,30.298782910156252,-5.658289264161587,-0.2521420511358975,5.235971614341139,1.6898933162927944e+18,30.303794384765627,-0.50167236328125,0.832171630859375,0.1852752685546875,1.689893316287783e+18,30.298782910156252,0.989206983700171,9.027250382761954,-3.700480248668492,1.689893316287783e+18,30.298782910156252,0.2736850827932358,-0.0341973662376403,0.3107149213552475,1.6898933162927944e+18,30.303794384765627,0.3780605912208557,0.3600749909877777,0.4426676481962204,,,,,,,,,,,,,1.689893316287783e+18,30.298782910156252,-8.942259216308594,51.45688171386719,-11.519731140136718,1.6898933162869146e+18,30.297914599609378,18.86376953125,68.05802612304687,68.18008422851562,1.689893316287783e+18,30.298782910156252,-1.1918176004362206,0.6494582276187936,-0.0772770750989324,-1.8318020654997744,-0.6660134934770419,0.3586451159142166,-1.1694578885939175
0.35,1.689893316337897e+18,30.348896875,-3.888353708868027,-2.894002596438527,6.461755985685587,1.6898933163429084e+18,30.353908496093748,-0.351837158203125,0.6865936279296875,0.3046722412109375,1.689893316337897e+18,30.348896875,0.483170510375928,9.175848940410614,-3.418845385710001,1.689893316337897e+18,30.348896875,1.1638890027999875,2.8157958984375,0.3086019307374953,1.6898933163429084e+18,30.353908496093748,1.2654106855392455,2.7916744709014893,0.2853003442287444,,,,,,,,,,,,,1.689893316337897e+18,30.348896875,-10.265232849121094,51.67173614501953,-9.247891235351563,1.6898933163389158e+18,30.349915820312503,17.347625732421875,68.32765197753906,70.7547821044922,1.689893316337897e+18,30.348896875,-1.147979933514082,0.6505097513580308,-0.0671959294566543,-1.7091439348100963,-0.6861084320619724,0.3179534775453805,-1.2105307441822686
0.4,1.689893316388011e+18,30.399011083984373,-3.6144011586534974,3.14993082966268,1.5043027389436958,1.6898933163930222e+18,30.404022216796875,-0.3561614990234375,1.2753448486328125,-0.1484039306640625,1.689893316388011e+18,30.399011083984373,0.1765069388642347,9.4333645012784,-2.656721663634777,1.689893316388011e+18,30.399011083984373,2.0674171924591063,-0.5741339087486267,-0.1882184125483036,1.6898933163930222e+18,30.404022216796875,2.0670368909835815,-1.0653868287801742,-0.1533250540494918,,,,,,,,,,,,,1.689893316388011e+18,30.399011083984373,-10.62395477294922,52.15732879638672,-4.458071899414063,1.689893316390919e+18,30.401918945312502,17.276531982421876,68.84796142578125,76.08703308105468,1.689893316388011e+18,30.399011083984373,-1.1557537050038147,0.662926168904702,-0.0725938383777858,-1.6404122980167355,-0.6968037349208596,0.2635250017865547,-1.295556754618152
0.45,1.689893316438125e+18,30.449125,-3.058256528069563,-1.3238249419534207,-2.568791129760295,1.6898933164431365e+18,30.4541365234375,-0.278082275390625,0.83466796875,-0.445465087890625,1.689893316438125e+18,30.449125,0.0979160468968725,9.637929627012014,-1.788057312082946,1.689893316438125e+18,30.449125,1.2782668709754943,-2.055096137523651,1.778226101398468,1.6898933164431365e+18,30.4541365234375,1.1811764359474182,-1.7670269548892974,1.9550497770309447,,,,,,,,,,,,,1.689893316438125e+18,30.449125,-10.992518615722656,52.23829193115235,-0.7478744506835937,1.6898933164429215e+18,30.453921777343748,15.776171875,68.62151489257812,79.72195434570312,1.689893316438125e+18,30.449125,-1.0232292893275217,0.6580114144327076,-0.1424182892665993,-1.6150731170308297,-0.6886994893623808,0.2681809274584423,-1.3859858493390242
0.5,1.689893316488239e+18,30.4992390625,1.8513842382550236,-1.3662255753093957,-3.77118465941906,1.6898933164932503e+18,30.504250390624996,0.1123260498046875,0.8490875244140625,-0.5279632568359375,1.689893316488239e+18,30.4992390625,-0.7829718204755335,9.676648473889232,-1.36880720391348,1.689893316488239e+18,30.4992390625,0.4784707143902779,-0.3551727898418903,1.5729881286621097,1.6898933164932503e+18,30.504250390624996,0.3972546361386775,-0.3917838037014007,1.4604050636291503,,,,,,,,,,,,,1.689893316488239e+18,30.4992390625,-15.574293518066408,51.070367431640626,1.436199951171875,1.689893316489723e+18,30.50072277832031,11.345745086669922,67.4815559387207,81.41835403442383,1.689893316488239e+18,30.4992390625,-0.4080182389552788,0.625667351449051,-0.185983782682117,-1.054656248626739,-0.7108106459368569,0.2618383755862681,-1.40785086828026
0.55,1.6898933165383532e+18,30.54935302734375,1.403847391504049,-1.6572273430979252,-2.216950950066745,1.6898933165433646e+18,30.554364501953124,-0.0031829833984375,0.8174560546875,-0.3471832275390625,1.6898933165383532e+18,30.54935302734375,-1.3484217838149517,9.621299277824162,-1.3278741296659409,1.6898933165383532e+18,30.54935302734375,-0.1908448291011154,0.6619885683059692,0.8824614822864533,1.6898933165433646e+18,30.554364501953124,-0.2164313226938247,0.9804329961538316,0.7997795164585113,,,,,,,,,,,,,1.6898933165383532e+18,30.54935302734375,-18.80933036804199,50.014051818847655,1.6026626586914063,1.689893316536525e+18,30.54752509765625,8.7282470703125,66.55360107421875,81.2935577392578,1.6898933165383532e+18,30.54935302734375,-0.1184941885137345,0.6037383186564101,-0.1990166939474965,-0.7803208599996634,-0.727396843556229,0.2582920322268907,-1.3763866262218856
0.6,1.689893316588467e+18,30.59946704101562,-1.1477128512789307,0.390673855895996,0.6193807293608785,1.6898933165934784e+18,30.604478466796877,-0.3113189697265625,1.018292236328125,-0.039080810546875,1.689893316588467e+18,30.59946704101562,-1.83582154752478,9.550649870583417,-1.2398679732719808,1.689893316588467e+18,30.59946704101562,0.1052176186814904,2.8303820133209228,1.0672509670257568,1.6898933165934784e+18,30.604478466796877,0.2252724260091781,2.8316838264465334,1.21107879281044,,,,,,,,,,,,,1.689893316588467e+18,30.59946704101562,-20.37420654296875,49.150254821777345,2.8878936767578125,1.689893316588529e+18,30.599528857421877,7.253079223632812,65.68451232910157,82.7861083984375,1.689893316588467e+18,30.59946704101562,-0.0334670876804499,0.5979019897875708,-0.1709879718234491,-0.598327934036704,-0.7511191967018289,0.2205019494265703,-1.342137173494325
0.65,1.689893316638581e+18,30.649581005859375,2.3626593392318487,0.4371343444889783,3.1740737172116336,1.6898933166435927e+18,30.65459248046875,-0.010101318359375,1.0079132080078126,0.24189453125,1.689893316638581e+18,30.649581005859375,-2.6387706749154622,9.417070369081497,-0.6715044459603726,1.689893316638581e+18,30.649581005859375,1.2181105375289918,0.7107566505670547,1.3645394086837768,1.6898933166435927e+18,30.65459248046875,1.253606367111206,0.3220235824584961,1.2956428527832031,,,,,,,,,,,,,1.689893316638581e+18,30.649581005859375,-23.307039260864254,47.3311279296875,6.535276794433594,1.689893316640531e+18,30.65153110351563,4.1741790771484375,63.78031311035157,86.53577575683593,1.689893316638581e+18,30.649581005859375,0.2132860665898835,0.5818793065758362,-0.1603373520473784,-0.2535186092327887,-0.7802364258883927,0.1634905518962642,-1.2883366964362384
0.7,1.689893316688695e+18,30.699695166015623,3.8946270315968983,2.3154693673205378,-3.840684092907085,1.6898933166937062e+18,30.704706396484376,0.0726165771484375,1.184234619140625,-0.452386474609375,1.689893316688695e+18,30.699695166015623,-3.1874996297219393,9.268516235096453,-0.2809937520433589,1.689893316688695e+18,30.699695166015623,0.8122062861919404,-1.744178581237793,1.1390849947929382,1.6898933166937062e+18,30.704706396484376,0.7235772967338562,-1.6845219612121582,1.1032593250274658,,,,,,,,,,,,,1.689893316688695e+18,30.699695166015623,-25.923141098022462,45.64730682373047,7.92457275390625,1.6898933166925338e+18,30.70353364257812,1.0594085693359374,61.84059448242188,87.477978515625,1.689893316688695e+18,30.699695166015623,0.4339352323570623,0.5584292407325039,-0.2002947954443546,-0.0884692370928883,-0.7888077608897215,0.1598065467467469,-1.2383422987536394
0.75,1.689893316738809e+18,30.749808984375,4.55175653530687,1.1697378406649823,-6.580392652695179,1.6898933167438203e+18,30.754820507812497,0.100433349609375,1.053985595703125,-0.69356689453125,1.689893316738809e+18,30.749808984375,-3.4436901963701843,9.17961758684218,-0.2022310658960137,1.689893316738809e+18,30.749808984375,0.1491569396108389,0.4690854489803314,-0.2304873034358024,1.6898933167438203e+18,30.754820507812497,0.0795387700200081,0.6561839163303376,-0.3655993938446045,,,,,,,,,,,,,1.689893316738809e+18,30.749808984375,-27.700817108154297,44.46301879882813,7.591510009765625,1.6898933167393367e+18,30.75033679199219,0.0663642883300781,60.997314453125,87.40610122680664,1.689893316738809e+18,30.749808984375,0.5109907415988122,0.5445001891147276,-0.2237731265654977,-0.0584939807102353,-0.7908842867814513,0.1670854052360819,-1.2112980053961464
0.8,1.689893316788924e+18,30.799923828124996,3.3192991451653837,3.341611573190689,-5.145699807263613,1.6898933167939356e+18,30.804935595703125,0.04698486328125,1.291839599609375,-0.5391815185546875,1.689893316788924e+18,30.799923828124996,-3.153111563977599,9.281517521679998,-0.2380216499021462,1.689893316788924e+18,30.799923828124996,-0.6928547739982605,-0.128156965970993,-0.9157682061195374,1.6898933167939356e+18,30.804935595703125,-0.7704186737537384,-0.2800174298696219,-1.0404132962226869,,,,,,,,,,,,,1.689893316788924e+18,30.799923828124996,-26.32784233093262,45.03081588745117,7.968128967285156,1.6898933167861425e+18,30.797142431640623,1.5543212890625,61.72654418945312,87.60473327636718,1.689893316788924e+18,30.799923828124996,0.4649564797164933,0.5587967306024098,-0.2090050988384149,-0.0765338036523755,-0.7855301495904167,0.1641280152328506,-1.24225406324467
0.85,1.6898933168390382e+18,30.850038134765622,8.224278400565385,2.5449290465271472,-2.3691900707878917,1.689893316839038e+18,30.8500380859375,0.6914596557617188,1.1963615417480469,-0.3470382690429687,1.6898933168390382e+18,30.850038134765622,-2.2195009560365975,9.50433972102046,-0.8165646514954791,1.6898933168390382e+18,30.850038134765622,-1.4342674016952517,-0.6534374177455902,-3.0447213649749756,1.689893316839038e+18,30.8500380859375,-1.4398633539676666,-0.6045543476939201,-3.162794709205627,,,,,,,,,,,,,1.6898933168390382e+18,30.850038134765622,-22.197238159179687,47.24537963867188,4.999359130859375,1.689893316838147e+18,30.8491470703125,6.06597900390625,64.11729431152344,84.39632873535156,1.6898933168390382e+18,30.850038134765622,0.1864054408874917,0.5885183778222292,-0.1877868534917877,-0.3739024979703923,-0.7600352294850867,0.2002278775943515,-1.3242126073030775
0.9,1.689893316889152e+18,30.900152148437503,-4.715953702555895,6.830203864343761,3.126814830169528,1.6898933168841408e+18,30.8951408203125,-0.3777740478515625,1.636383056640625,0.0874237060546875,1.689893316889152e+18,30.900152148437503,-0.5866643327456178,9.638701195906402,-1.6327431824436782,1.689893316889152e+18,30.900152148437503,-1.4390404224395752,-0.5163326494395732,-3.186931276321411,1.6898933168841408e+18,30.8951408203125,-1.493816065788269,-0.7681028842926025,-3.235721206665039,,,,,,,,,,,,,1.689893316889152e+18,30.900152148437503,-14.629269981384278,50.236846923828125,0.6887542724609375,1.68989331689015e+18,30.90115009765625,13.731954956054688,67.023486328125,80.07635498046875,1.689893316889152e+18,30.900152148437503,-0.6318164213558837,0.6362062442090158,-0.1539793330941403,-1.221006453571854,-0.7112632767288296,0.2548753786993831,-1.3855405388801243
0.95,1.689893316939266e+18,30.950266162109376,-2.5385203485286234,2.494343119341135,2.0649448928360643,1.6898933169342546e+18,30.9452546875,-0.377691650390625,1.3149444580078125,0.0404205322265625,1.689893316939266e+18,30.950266162109376,0.5636930951216816,9.504408460794687,-2.327588727276921,1.689893316939266e+18,30.950266162109376,-1.4906922340393067,2.7597864627838136,-2.329029989242554,1.6898933169342546e+18,30.9452546875,-1.4417947769165038,2.643837571144104,-2.3488800525665283,,,,,,,,,,,,,1.689893316939266e+18,30.950266162109376,-8.301775360107422,51.390061950683595,-1.6136062622070313,1.689893316942154e+18,30.953154003906253,20.351507568359377,68.10344543457032,77.6989532470703,1.689893316939266e+18,30.950266162109376,-1.2929352181965887,0.6777476454097393,-0.0894383557841762,-1.801021414072403,-0.6801577928933144,0.2632008812279017,-1.3234420358803385
1.0,1.68989331698938e+18,31.000380322265624,-2.9502206404534723,1.357019238642454,1.8903201765620707,1.689893316984369e+18,30.995368994140627,-0.0883453369140625,1.1204864501953125,-0.0968994140625,1.68989331698938e+18,31.000380322265624,1.2869385127481816,9.20745555874288,-3.1094175590363142,1.68989331698938e+18,31.000380322265624,-1.367906141281128,0.4657211113721132,-1.4735379815101624,1.689893316984369e+18,30.995368994140627,-1.4021242618560792,0.8298118352890015,-1.6257845640182496,1.6898933170002373e+18,31.0112373046875,73.32537849619985,1.0399999618541165,78.54005156784146,49.18959445525533,92.73537834361196,355.07812457239265,4.156788386913086,4.135964693169188,-122.84783210302476,0.4799999892711625,1.68989331698938e+18,31.000380322265624,-3.832437515258789,51.74091796875,-3.8663406372070312,1.6898933169889564e+18,30.999956359863283,24.650596618652344,68.38222885131836,75.38002395629883,1.68989331698938e+18,31.000380322265624,-1.5657702403453655,0.7065077220132329,-0.0159060552276269,-1.9613105106735425,-0.658763902776162,0.2576905573955382,-1.2202696806571578
1.05,1.6898933170394944e+18,31.050494384765624,-3.6289053679198022,-2.9506361039996145,-2.0860510722637176,1.689893317034483e+18,31.04548286132813,-0.184600830078125,0.6262481689453125,-0.5747955322265625,1.6898933170394944e+18,31.050494384765624,1.8288845586423577,8.907439411275982,-3.664581661456823,1.6898933170394944e+18,31.050494384765624,-1.3820744752883911,-0.9269101440906524,-0.7960470795631409,1.689893317034483e+18,31.04548286132813,-1.3671945810317994,-0.7846946060657501,-0.8509236335754394,,,,,,,,,,,,,1.6898933170394944e+18,31.050494384765624,-1.0687305450439453,51.581365966796874,-6.4531707763671875,1.689893317035758e+18,31.046758056640623,26.88649597167969,68.18028564453125,73.01283264160156,1.6898933170394944e+18,31.050494384765624,-1.6172124408170965,0.7139287267845136,0.0037737395212678,-2.032968574632605,-0.6377214012520689,0.2888505929659232,-1.139784741207921
1.1,1.6898933170896082e+18,31.100608349609377,-5.29071933738172,-2.999381137946248,3.6223009135404225,1.689893317084597e+18,31.09559692382812,-0.27391357421875,0.5979522705078125,-0.1289703369140625,1.6898933170896082e+18,31.100608349609377,2.384637449962347,8.606153331551551,-4.048020130045712,1.6898933170896082e+18,31.100608349609377,-1.0953486204147338,-2.488280916213989,-0.0838820584118366,1.689893317084597e+18,31.09559692382812,-1.157965886592865,-2.445043420791626,-0.1528056845068931,,,,,,,,,,,,,1.6898933170896082e+18,31.100608349609377,0.7877761840820312,51.19964447021484,-9.375984191894531,1.689893317087759e+18,31.09875908203125,28.65252685546875,67.78314819335938,70.1261993408203,1.6898933170896082e+18,31.100608349609377,-1.5913445319896202,0.710458906236035,-0.0049254419553956,-2.1025431331620323,-0.6150535131570549,0.3414037363841524,-1.070980708461363
1.15,1.6898933171397222e+18,31.150722314453127,-5.803844800852537,-3.5417045219463104,6.7370813440102335,1.689893317134711e+18,31.145710986328123,-0.3247772216796875,0.5030426025390625,0.2366973876953125,1.6898933171397222e+18,31.150722314453127,2.7214898454302547,8.49874918788731,-4.066109913487732,1.6898933171397222e+18,31.150722314453127,-0.4180692017078399,-2.0086830377578737,0.860069090127945,1.689893317134711e+18,31.145710986328123,-0.4935960710048676,-2.123764705657959,0.7505596518516541,,,,,,,,,,,,,1.6898933171397222e+18,31.150722314453127,1.0533271789550782,50.851295471191406,-11.02340087890625,1.6898933171397606e+18,31.150760742187497,28.72911682128906,67.45417175292968,68.60132446289063,1.6898933171397222e+18,31.150722314453127,-1.5217510784531585,0.6972570620689029,-0.0385493986643052,-2.1606310761490746,-0.5996997030973513,0.3904476545845889,-1.0484172358127917
1.2,1.6898933171898363e+18,31.200836376953124,-3.742128748482912,-3.148588884308338,7.705446016076803,1.6898933171848248e+18,31.19582490234375,-0.1985504150390625,0.5393035888671875,0.4078826904296875,1.6898933171898363e+18,31.200836376953124,2.3355649960792064,8.692182678753733,-3.8845394112768767,1.6898933171898363e+18,31.200836376953124,0.6921207487583161,0.2216713726520538,1.7690949201583863,1.6898933171848248e+18,31.19582490234375,0.5649165056645871,-0.0119535475969315,1.719939613342285,,,,,,,,,,,,,1.6898933171898363e+18,31.200836376953124,-2.0752803802490236,51.045457458496095,-10.849713134765626,1.6898933171917604e+18,31.202760253906252,25.32191467285156,67.68642883300781,68.9582275390625,1.6898933171898363e+18,31.200836376953124,-1.407758592387813,0.6765280101729767,-0.0711445107220612,-2.1106227095950203,-0.6129659406572607,0.401651540770559,-1.0898658800513743
1.25,1.6898933172399503e+18,31.250950244140626,9.200188198088409,3.496121166900992,-3.4444545756453273,1.689893317234939e+18,31.245938964843752,0.8445953369140625,1.1061737060546877,-0.3908966064453125,1.6898933172399503e+18,31.250950244140626,1.5497774898219108,9.062364483145476,-3.4036804913517833,1.6898933172399503e+18,31.250950244140626,1.1683325707912444,-0.2381574273109436,1.131646490097046,1.689893317234939e+18,31.245938964843752,1.2871322631835938,-0.1334378004074096,1.293299126625061,,,,,,,,,,,,,1.6898933172399503e+18,31.250950244140626,-5.896389770507812,51.24520416259766,-8.327656555175782,1.6898933172385595e+18,31.24955987548828,21.351383209228516,67.91418075561523,71.87535858154297,1.6898933172399503e+18,31.250950244140626,-1.300048051582082,0.6626485100781675,-0.0999035788277952,-1.9973862334633683,-0.6409873476186349,0.3740086249278483,-1.1793715127207565
1.3,1.6898933172900644e+18,31.301064355468743,7.005943760704994,4.778697918856144,-9.997061921862066,1.689893317285053e+18,31.29605302734375,1.0228546142578123,1.56663818359375,-1.531768798828125,1.6898933172900644e+18,31.301064355468743,1.2767372029206157,9.152084618463515,-3.2816593841487167,1.6898933172900644e+18,31.301064355468743,-0.5262770265340805,0.6190521985292434,0.1631434649229049,1.689893317285053e+18,31.29605302734375,-0.4292720593512058,0.6272250890731812,0.1793342269957065,,,,,,,,,,,,,1.6898933172900644e+18,31.301064355468743,-7.840547180175781,51.442115783691406,-6.753363037109375,1.6898933172853612e+18,31.2963611328125,19.81776428222656,68.07975463867187,72.95243530273437,1.6898933172900644e+18,31.301064355468743,-1.2499421201467735,0.6571987491710525,-0.1067458471273487,-1.942163723008484,-0.65074703898237,0.364938798502696,-1.203422899219289
1.35,1.6898933173401782e+18,31.3511783203125,-3.2015772549131514,2.5575860497176643,2.965157556661665,1.689893317335167e+18,31.34616694335937,-0.0809356689453125,1.0813385009765626,-0.1934417724609375,1.6898933173401782e+18,31.3511783203125,1.0368596923654527,9.072277857490182,-3.573404488424361,1.6898933173401782e+18,31.3511783203125,-0.1622425124049186,0.7727875143289566,0.6444119036197662,1.689893317335167e+18,31.34616694335937,-0.3008049473166466,0.7378017157316208,0.5885894387960434,,,,,,,,,,,,,1.6898933173401782e+18,31.3511783203125,-8.982534408569336,51.37095489501953,-7.766281127929688,1.6898933173373617e+18,31.348361572265627,18.613494873046875,67.95580749511718,71.90353088378906,1.6898933173401782e+18,31.3511783203125,-1.1848664054607307,0.6482929593262087,-0.0909363694544438,-1.8531276697211896,-0.6624377092618932,0.3640785478383335,-1.1813504148217482
1.4,1.6898933173902925e+18,31.401292431640627,0.6392083548331261,5.546565737541317,3.676743808415531,1.689893317385281e+18,31.396280859375004,0.2175567626953125,1.6331817626953125,0.0372650146484375,1.6898933173902925e+18,31.401292431640627,1.048823481820896,9.100441641892196,-3.496789567681849,1.6898933173902925e+18,31.401292431640627,0.1762920476496219,-0.8272825598716735,-0.5893191233277321,1.689893317385281e+18,31.396280859375004,0.1896904594264924,-0.7958532035350799,-0.5174654133617878,,,,,,,,,,,,,1.6898933173902925e+18,31.401292431640627,-9.344717025756836,51.5464599609375,-7.391937255859375,1.6898933173893604e+18,31.4003603515625,18.515228271484375,68.20433654785157,72.33044738769532,1.6898933173902925e+18,31.401292431640627,-1.1918049674306033,0.649772347660355,-0.0943483172431261,-1.8619879110028097,-0.6614921739504536,0.3622633377161115,-1.188978601343333
1.45,1.6898933174404065e+18,31.45140625,-5.153512059223652,-6.859938726680875,5.5864519915366175,1.6898933174353948e+18,31.446394921874997,-0.4593017578125,0.2723663330078125,0.217486572265625,1.6898933174404065e+18,31.45140625,1.0356646958141773,9.17151061894536,-3.309745894756913,1.6898933174404065e+18,31.45140625,0.9036988019943236,1.9606730103492735,0.2574040363542735,1.6898933174353948e+18,31.446394921874997,0.8148329496383667,1.7317654609680175,0.2029299464076757,,,,,,,,,,,,,1.6898933174404065e+18,31.45140625,-8.601346969604492,51.840031433105466,-6.126246643066406,1.689893317441359e+18,31.452358935546876,19.12546997070313,68.48626403808593,73.79043273925781,1.6898933174404065e+18,31.45140625,-1.232250328268748,0.6578515354992349,-0.0919027321283965,-1.8730587249811592,-0.662340435374038,0.3461610027973546,-1.209155894832049
1.5,1.6898933174905206e+18,31.50152036132813,-3.9054963330399985,3.3008218821626896,2.7750447638766467,1.689893317485509e+18,31.496509082031253,-0.342779541015625,1.1306427001953123,0.0781158447265625,1.6898933174905206e+18,31.50152036132813,0.5788730847577005,9.390871045846342,-2.7541253099666534,1.6898933174905206e+18,31.50152036132813,1.7527312517166138,1.3197463035583497,-0.0566376700997352,1.689893317485509e+18,31.496509082031253,1.712329125404358,1.6523774862289429,0.0472844839096069,,,,,,,,,,,,,1.6898933174905206e+18,31.50152036132813,-9.181689834594728,52.223208618164065,-1.8698104858398437,1.689893317488158e+18,31.499157958984377,18.52576446533203,68.85652923583984,77.90543365478516,1.6898933174905206e+18,31.50152036132813,-1.2467747314250464,0.6689008485162647,-0.0812549491379187,-1.7780904854337904,-0.6810808250350902,0.2860310255885696,-1.2795950181906248
1.55,1.6898933175406346e+18,31.551634521484377,-4.916235451881885,-0.1397571964496374,-2.607154411972016,1.689893317535623e+18,31.546622900390624,-0.4698577880859375,1.0704803466796875,-0.43653564453125,1.6898933175406346e+18,31.551634521484377,0.5433756914515421,9.584702829928398,-1.9904608466424043,1.6898933175406346e+18,31.551634521484377,1.1983782768249511,-2.332699489593506,1.175696423649788,1.689893317535623e+18,31.546622900390624,1.2843358516693115,-2.1595812797546388,0.8935174614191055,,,,,,,,,,,,,1.6898933175406346e+18,31.551634521484377,-8.807161331176758,52.403611755371095,1.8670059204101563,1.68989331753496e+18,31.545960205078124,18.8843017578125,69.02137145996093,81.83186645507813,1.6898933175406346e+18,31.551634521484377,-1.2734455996017808,0.6745180000892966,-0.1200304906364345,-1.8349690656747009,-0.6763847777483983,0.2695703740795478,-1.3586369803105751
1.6,1.6898933175907487e+18,31.601748583984374,0.6597565204387903,-1.9017418511909243,-2.0024296045339107,1.6898933175857372e+18,31.596737109375,-0.02237548828125,0.7828338623046875,-0.3852874755859375,1.6898933175907487e+18,31.601748583984374,-0.3174156233436148,9.67092658911109,-1.5606811026999354,1.6898933175907487e+18,31.601748583984374,0.53175248503685,-0.6601137280464172,2.3307066440582274,1.6898933175857372e+18,31.596737109375,0.5820768892765045,-0.8211848199367523,2.408161497116089,,,,,,,,,,,,,1.6898933175907487e+18,31.601748583984374,-13.695362854003909,51.434228515625,3.434527587890625,1.689893317586962e+18,31.597961914062505,13.557614135742188,67.94101257324219,83.21702575683594,1.6898933175907487e+18,31.601748583984374,-0.7171668780016193,0.6385688292779605,-0.1759877134913453,-1.3694088975953158,-0.6964470518981403,0.2755103502428495,-1.40425836857748
1.65,1.6898933176408625e+18,31.6518625,0.8185110582424701,-2.213883320737481,-0.8129298386570811,1.689893317635851e+18,31.646851171875,0.0364593505859375,0.7624267578125,-0.26668701171875,1.6898933176408625e+18,31.6518625,-1.087768947834745,9.642851301323176,-1.4076921426856517,1.6898933176408625e+18,31.6518625,0.1548423126339912,0.7318077385425568,0.9733765482902528,1.689893317635851e+18,31.646851171875,0.1782796159386634,0.359708309173584,1.068441653251648,,,,,,,,,,,,,1.6898933176408625e+18,31.6518625,-18.314746856689453,50.16309661865235,4.150071716308593,1.6898933176389614e+18,31.64996127929688,9.188272094726562,66.69810791015625,83.9226287841797,1.6898933176408625e+18,31.6518625,-0.2490288329675833,0.6115021586798266,-0.1950307232449367,-0.9155016719854492,-0.7192979490473088,0.2656209603119834,-1.3878869488450911
1.7,1.6898933176909765e+18,31.70197646484375,-1.6977535901102423,0.3603934008270502,0.6491204724557698,1.6898933176859653e+18,31.696965136718752,-0.3644012451171875,0.974237060546875,-0.0623504638671875,1.6898933176909765e+18,31.70197646484375,-1.7278403346249462,9.584851298488378,-1.1120991161971538,1.6898933176909765e+18,31.70197646484375,0.4000846683979034,3.244787311553955,1.3264567494392394,1.6898933176859653e+18,31.696965136718752,0.3557063341140747,3.448685359954834,1.2247205138206485,,,,,,,,,,,,,1.6898933176909765e+18,31.70197646484375,-20.10598678588867,49.37577209472656,7.003717041015625,1.6898933176909624e+18,31.701962353515626,7.491720581054688,65.9066650390625,87.028955078125,1.6898933176909765e+18,31.70197646484375,-0.0442742985334701,0.6066371495543758,-0.1633362714869904,-0.5793567111550161,-0.7491110207288489,0.2083160301030929,-1.3581323664408038
1.75,1.6898933177410906e+18,31.752090576171877,3.7124529228566585,1.7885898699766396,-0.1054814465864002,1.689893317736079e+18,31.747079150390626,0.0550628662109375,1.1351043701171877,-0.0439697265625,1.6898933177410906e+18,31.752090576171877,-2.6114793771120905,9.421750285139083,-0.7147719983439892,1.6898933177410906e+18,31.752090576171877,0.9235240340232848,-1.3034814596176147,1.9033264875411988,1.689893317736079e+18,31.747079150390626,0.8864155173301697,-0.955924504995346,1.907690954208374,,,,,,,,,,,,,1.6898933177410906e+18,31.752090576171877,-23.93467597961426,47.28080825805664,9.469454956054689,1.6898933177429652e+18,31.753965429687497,3.421661376953125,63.69838256835938,89.23959350585938,1.6898933177410906e+18,31.752090576171877,0.2182651192396627,0.5807084210604667,-0.1675278195089744,-0.2712573725999104,-0.7777377529003733,0.1717429666606327,-1.290625884979365
1.8,1.689893317791204e+18,31.80220415039063,6.114762515370845,1.2826742502063513,-3.48063031391099,1.6898933177861926e+18,31.7971927734375,0.2714263916015625,1.066033935546875,-0.3682769775390625,1.689893317791204e+18,31.80220415039063,-3.2958295976072547,9.221467132960557,-0.4998494223730265,1.689893317791204e+18,31.80220415039063,0.6487849533557892,-0.2375489741563797,0.8323423027992248,1.6898933177861926e+18,31.7971927734375,0.7198358058929444,-0.5947964787483215,1.049199377372861,,,,,,,,,,,,,1.689893317791204e+18,31.80220415039063,-27.750112533569336,45.1765869140625,9.548095703125,1.6898933177897677e+18,31.800767700195312,-0.4489555358886719,61.51014709472656,89.34235000610352,1.689893317791204e+18,31.80220415039063,0.4134301202207942,0.5479319067797074,-0.2101455046377077,-0.1513856199509488,-0.7898328402313459,0.1780194787592744,-1.2237940008532064
1.85,1.689893317841318e+18,31.852318017578124,1.8571627047520871,1.2861472454661131,-4.298119920151233,1.6898933178363067e+18,31.847306640625003,-0.0449554443359375,1.0906707763671877,-0.440936279296875,1.689893317841318e+18,31.852318017578124,-3.2286510228952765,9.257348126063349,-0.1769722347281034,1.689893317841318e+18,31.852318017578124,0.2607911825180053,0.9046603851020336,-0.6905670046806336,1.6898933178363067e+18,31.847306640625003,0.2717673301696777,1.0739549666643142,-0.6970746397972107,,,,,,,,,,,,,1.689893317841318e+18,31.852318017578124,-27.651744842529297,45.13459396362305,11.487164306640626,1.6898933178365711e+18,31.84757114257813,0.230426025390625,61.82536926269531,91.38360595703124,1.689893317841318e+18,31.852318017578124,0.4666307226216197,0.5578563815638615,-0.2036084018618527,-0.0540579215990894,-0.7893925220708666,0.1552760612044298,-1.2346691116785902
1.9,1.689893317891432e+18,31.902431982421877,1.4743445892447231,2.196296343024969,-5.089046250601709,1.6898933178864205e+18,31.89742060546875,-0.2578521728515625,1.1243896484375,-0.5557342529296875,1.689893317891432e+18,31.902431982421877,-3.0448807310047745,9.320651028385758,-0.1413567232477711,1.689893317891432e+18,31.902431982421877,-0.2830848723649978,-0.5024230062961579,-0.2182993225753307,1.6898933178864205e+18,31.89742060546875,-0.1884453222155571,-0.5014975249767304,-0.1845246762037276,,,,,,,,,,,,,1.689893317891432e+18,31.902431982421877,-26.741121673583983,45.95910415649414,12.130751037597657,1.6898933178885734e+18,31.8995734375,1.0254486083984375,62.6300537109375,91.77148742675782,1.689893317891432e+18,31.902431982421877,0.4707549318728207,0.5662724399123599,-0.2020304981688628,-0.0464989988937868,-0.7838546429452504,0.1551488525428253,-1.2546588020993383
1.95,1.689893317941546e+18,31.95254604492188,10.142187776511909,2.665787598143816,-3.1972461230671403,1.6898933179365348e+18,31.94753466796875,0.765966796875,1.261907958984375,-0.3973602294921875,1.689893317941546e+18,31.95254604492188,-2.4039185474677383,9.48316950721979,-0.5198716863280162,1.689893317941546e+18,31.95254604492188,-1.0199508666992188,-0.4378487229347229,-2.838266515731811,1.6898933179365348e+18,31.94753466796875,-0.9591313242912292,-0.3555031403899192,-2.5531399965286257,,,,,,,,,,,,,1.689893317941546e+18,31.95254604492188,-24.041547775268555,48.17511749267578,10.083154296875,1.689893317940575e+18,31.951575097656253,4.139608764648438,65.08935241699218,89.57909545898437,1.689893317941546e+18,31.95254604492188,0.2977517873372374,0.5878702523208734,-0.1864747017149363,-0.2274256333622454,-0.7665509035761116,0.1775906865098488,-1.31589418937682
2.0,1.68989331799166e+18,32.00266000976562,-1.6370723269152638,5.19511902875781,-0.2413222733099013,1.6898933179866486e+18,31.997648632812503,-0.03800048828125,1.45030517578125,-0.2095245361328125,1.68989331799166e+18,32.00266000976562,-0.7624862242848984,9.686160866217612,-1.2171654791766404,1.68989331799166e+18,32.00266000976562,-1.5630578994750977,-0.9904624819755554,-3.3460232257843017,1.6898933179866486e+18,31.997648632812503,-1.5489383697509769,-1.0546501278877258,-3.3968117237091064,1.68989331800024e+18,32.011240234375,74.37866218574345,1.1900000572214038,59.05349454503955,49.18960262006552,93.78866203315556,5.976563018934426,4.223375595076054,4.106946624492515,-122.84781978832294,0.4799999892711626,1.68989331799166e+18,32.00266000976562,-16.282019424438477,52.248347473144534,6.087376403808594,1.6898933179925755e+18,32.00357543945312,12.15369873046875,69.15888977050781,85.41380310058594,1.68989331799166e+18,32.00266000976562,-0.4731606807739692,0.6398523638256316,-0.1565183345998606,-1.0233018989004836,-0.7169866835476746,0.226417154725268,-1.414159537162932
2.05,1.689893318041774e+18,32.05277407226563,-5.907279675559624,4.447200825263261,2.4214849792358275,1.6898933180367626e+18,32.04776259765625,-0.6918853759765625,1.517724609375,0.0738311767578125,1.689893318041774e+18,32.05277407226563,0.5639303854360617,9.579169862625005,-1.994718533312976,1.689893318041774e+18,32.05277407226563,-1.5646531105041503,2.384753370285034,-2.2918789863586424,1.6898933180367626e+18,32.04776259765625,-1.527913212776184,2.058466100692749,-2.3817348957061766,,,,,,,,,,,,,1.689893318041774e+18,32.05277407226563,-8.879373168945312,54.369198608398435,2.062567138671875,1.6898933180393738e+18,32.05037396240235,19.01622009277344,71.02739715576172,81.67750930786133,1.689893318041774e+18,32.05277407226563,-1.3254244729810896,0.6818755062777504,-0.1022841499927927,-1.835462592729352,-0.6783642950366243,0.2523703268070738,-1.35702174598562
2.1,1.689893318091888e+18,32.10288798828125,-0.977364584828168,1.8771526519531012,2.3007897430351374,1.6898933180868767e+18,32.09787670898437,0.131781005859375,1.147509765625,-0.079644775390625,1.689893318091888e+18,32.10288798828125,1.262843088376671,9.275816796594262,-2.904098458517194,1.689893318091888e+18,32.10288798828125,-1.641313409805298,1.4196778416633606,-1.7026923298835754,1.6898933180868767e+18,32.09787670898437,-1.6696885347366333,1.8130973875522616,-1.8690000891685483,,,,,,,,,,,,,1.689893318091888e+18,32.10288798828125,-3.9458992004394537,54.93965148925781,-1.1407501220703125,1.689893318086175e+18,32.09717490234375,24.227255249023436,71.5760711669922,78.24271545410156,1.689893318091888e+18,32.10288798828125,-1.6055867657239058,0.7110868388810629,-0.0166251805450542,-1.978921069987924,-0.6594986444925512,0.2422766709533117,-1.2417290208593617
2.15,1.689893318142002e+18,32.153002099609374,-3.9920642587113377,-2.630353998095393,-1.298315003834963,1.6898933181369907e+18,32.14799067382812,-0.290252685546875,0.7089935302734375,-0.361517333984375,1.689893318142002e+18,32.153002099609374,1.7278676317971944,8.964693213466406,-3.5738552132534975,1.689893318142002e+18,32.153002099609374,-1.4323358535766602,-0.5700791358947754,-0.6200568556785584,1.6898933181369907e+18,32.14799067382812,-1.4038477659225463,-0.5558592438697815,-0.6322816193103791,,,,,,,,,,,,,1.689893318142002e+18,32.153002099609374,-0.8134666442871094,54.6523193359375,-4.911897277832031,1.6898933181381778e+18,32.149177685546874,27.088131713867188,71.23966979980469,74.51006164550782,1.689893318142002e+18,32.153002099609374,-1.6543291015188586,0.7187774418091747,0.0150975805029761,-2.02076480439723,-0.6415824593000667,0.2671558061483433,-1.1539289823813763
2.2,1.6898933181921162e+18,32.203116015625,-4.186601151548922,-1.7815746720653771,1.3604931691372395,1.6898933181871048e+18,32.19810463867187,-0.19078369140625,0.69705810546875,-0.4246795654296875,1.6898933181921162e+18,32.203116015625,2.1410250345017015,8.63871763054788,-4.113405976122022,1.6898933181921162e+18,32.203116015625,-1.4550451993942262,-2.2414613246917723,-0.0183917809277773,1.6898933181871048e+18,32.19810463867187,-1.5156562805175782,-2.0627021312713625,-0.0762125372886657,,,,,,,,,,,,,1.6898933181921162e+18,32.203116015625,0.4305267333984375,53.96685638427734,-8.831837463378907,1.6898933181901814e+18,32.2011814453125,28.250033569335937,70.51214904785157,70.55646362304688,1.6898933181921162e+18,32.203116015625,-1.615150052496857,0.7140988424638275,0.0186261066329616,-2.0501757666001565,-0.6248460483878231,0.314487658407863,-1.0780947804081662
2.25,1.6898933182422303e+18,32.253230273437495,-5.498727530854344,-3.028321751939654,6.989049675240517,1.6898933182372186e+18,32.2482185546875,-0.30640869140625,0.56563720703125,0.2294891357421875,1.6898933182422303e+18,32.253230273437495,2.542846278129816,8.445053253535033,-4.287133071356118,1.6898933182422303e+18,32.253230273437495,-0.7048620045185089,-2.3813664436340334,0.6429345428943634,1.6898933182372186e+18,32.2482185546875,-0.7782413780689239,-2.433012008666992,0.5598312377929687,,,,,,,,,,,,,1.6898933182422303e+18,32.253230273437495,0.7488044738769531,53.122335815429686,-11.852838134765625,1.6898933182421832e+18,32.253183203125005,28.488571166992188,69.6852813720703,67.67076416015625,1.6898933182422303e+18,32.253230273437495,-1.5373441261305103,0.7008614591716607,-0.0108549862878856,-2.1060599665198696,-0.608367291517083,0.3717896720463212,-1.0375559762233428
2.3,1.689893318292344e+18,32.3033439453125,-4.649419212514162,-3.4866844117051357,8.29355254470408,1.6898933182873329e+18,32.298332666015625,-0.2489898681640625,0.5150238037109375,0.418963623046875,1.689893318292344e+18,32.3033439453125,2.4482201336872578,8.526000182906389,-4.17806929469049,1.689893318292344e+18,32.3033439453125,0.2180244073271751,-0.8531817480921745,1.5531572341918944,1.6898933182873329e+18,32.298332666015625,0.1055062398314476,-1.063834112882614,1.4782371759414672,,,,,,,,,,,,,1.689893318292344e+18,32.3033439453125,-1.2594097137451172,52.6800048828125,-12.837596130371091,1.6898933182889848e+18,32.299984924316405,26.69641876220703,69.27751922607422,66.8015365600586,1.689893318292344e+18,32.3033439453125,-1.4285043937548718,0.6802647836764848,-0.048199891826407,-2.100353473871202,-0.610519280638358,0.4025094330987032,-1.054179404091773
2.35,1.689893318342458e+18,32.353458203125,2.570655579231828,-0.1142158110535145,3.3523469022166728,1.689893318337447e+18,32.34844677734375,0.254937744140625,0.7725555419921875,0.10760498046875,1.689893318342458e+18,32.353458203125,1.737231643243879,8.86155245556116,-3.8136796930602186,1.689893318342458e+18,32.353458203125,1.2984681606292725,0.1522658288478851,1.5290559768676757,1.689893318337447e+18,32.34844677734375,1.234791624546051,0.2321779519319534,1.5985270261764526,,,,,,,,,,,,,1.689893318342458e+18,32.353458203125,-5.171310043334961,52.95290679931641,-11.65264434814453,1.6898933183357865e+18,32.346786474609374,22.3985107421875,69.59725341796874,68.16520385742187,1.689893318342458e+18,32.353458203125,-1.3069112025375005,0.6620255392033745,-0.078856058359537,-1.996641742248957,-0.6364515814390523,0.3875824177397784,-1.1288869493230482
2.4,1.6898933183925724e+18,32.40357231445312,10.712175412507056,6.99256171656251,-12.77041586849451,1.6898933183875607e+18,32.398560595703124,1.2794342041015625,1.67042236328125,-1.5302825927734376,1.6898933183925724e+18,32.40357231445312,1.2900475846794248,9.092014355999826,-3.4397961699932815,1.6898933183925724e+18,32.40357231445312,0.0262263864278794,0.7333864510059357,0.3720390886068344,1.6898933183875607e+18,32.398560595703124,0.2346373274922371,0.5967345654964447,0.4753535449504852,,,,,,,,,,,,,1.6898933183925724e+18,32.40357231445312,-7.884000015258789,53.266500854492186,-9.23818817138672,1.6898933183877896e+18,32.39878969726563,19.717135620117187,69.88460083007813,70.58506469726562,1.6898933183925724e+18,32.40357231445312,-1.2430762527170909,0.6557017839620973,-0.0986660126433762,-1.9295754975135193,-0.6515055712068331,0.3685261956913182,-1.1866823219792255
2.45,1.689893318442686e+18,32.45368618164063,0.6813953454384208,-0.5782565164554118,-2.0337312777963277,1.6898933184376748e+18,32.44867485351563,0.382952880859375,0.8549774169921875,-0.80577392578125,1.689893318442686e+18,32.45368618164063,1.0562859997212886,9.011532238435148,-3.719205933474302,1.689893318442686e+18,32.45368618164063,-0.6545164927840232,0.3031048856675625,0.4039183042943478,1.6898933184376748e+18,32.44867485351563,-0.7248553931713104,0.3131112597882747,0.3171252250671386,,,,,,,,,,,,,1.689893318442686e+18,32.45368618164063,-9.140452575683591,52.668887329101565,-10.036769104003906,1.689893318439791e+18,32.450791162109375,18.50769958496094,69.21217346191406,69.5451873779297,1.689893318442686e+18,32.45368618164063,-1.1873313542587005,0.647562050267866,-0.0825349013169429,-1.8479326846250292,-0.6628083469496222,0.3667399748658774,-1.1654267712109574
2.5,1.6898933184928005e+18,32.50380024414063,2.186590035559684,8.111373789014817,5.712134602308869,1.6898933184877888e+18,32.49878881835937,0.2167205810546875,1.669317626953125,0.2149505615234375,1.6898933184928005e+18,32.50380024414063,0.8422544981450587,9.033624126351476,-3.718362936004996,1.6898933184928005e+18,32.50380024414063,0.4516400210559368,-0.616877555847168,-0.3189045310020447,1.6898933184877888e+18,32.49878881835937,0.4486694678664207,-0.3563269436359405,-0.1762934416532516,,,,,,,,,,,,,1.6898933184928005e+18,32.50380024414063,-10.573994827270509,51.84990234375,-10.076171875,1.6898933184917937e+18,32.50279360351563,17.182025146484374,68.44225463867187,69.69023132324219,1.6898933184928005e+18,32.50380024414063,-1.1357469733703731,0.6409749565824939,-0.084439360862066,-1.7937725204212391,-0.6707229616871981,0.3634052198396535,-1.171133661937278
2.55,1.689893318542914e+18,32.55391420898438,-6.457468400720357,-2.483511344203353,5.936751050041914,1.6898933185379028e+18,32.54890283203125,-0.47012939453125,0.873272705078125,0.196990966796875,1.689893318542914e+18,32.55391420898438,1.1099592400112002,9.087378045275212,-3.5142378968021277,1.689893318542914e+18,32.55391420898438,0.5916204631328583,1.0169916868209838,-0.0053668290376663,1.6898933185379028e+18,32.54890283203125,0.500120347738266,0.5370981335639954,-0.0106312870979309,,,,,,,,,,,,,1.689893318542914e+18,32.55391420898438,-9.111392211914062,51.88198699951172,-9.229393005371094,1.6898933185385958e+18,32.549595703125,18.691734313964844,68.49209976196289,70.31388092041016,1.689893318542914e+18,32.55391420898438,-1.192523526434997,0.6488948700193413,-0.0974506473204313,-1.876527317039805,-0.6587051015086829,0.3680333673913026,-1.1855001297319423
2.6,1.6898933185930284e+18,32.604028271484374,-5.288332266888618,-1.5512515371233224,4.547494961565732,1.689893318588017e+18,32.599016796875,-0.47947998046875,0.64217529296875,0.199591064453125,1.6898933185930284e+18,32.604028271484374,0.7086136949099601,9.260401668415067,-3.139375241117775,1.6898933185930284e+18,32.604028271484374,1.525307059288025,2.6651807188987733,0.0797422219067811,1.689893318588017e+18,32.599016796875,1.4395100831985477,2.939617872238159,0.0555269062519073,,,,,,,,,,,,,1.6898933185930284e+18,32.604028271484374,-9.573186874389648,52.102919006347655,-5.576849365234375,1.689893318585399e+18,32.596399169921874,18.275881958007812,68.690673828125,73.714453125,1.6898933185930284e+18,32.604028271484374,-1.2366741571647708,0.6638485845151834,-0.0730544519631263,-1.7907412207352813,-0.6770944453046461,0.3081820269328862,-1.2361413527720546
2.65,1.689893318643142e+18,32.6541421875,-5.95875058349967,2.924044215863347,-1.7419964318798482,1.6898933186381307e+18,32.64913090820313,-0.539508056640625,1.3173553466796877,-0.35777587890625,1.689893318643142e+18,32.6541421875,0.6145335669776052,9.4987504058069,-2.3464620038598776,1.689893318643142e+18,32.6541421875,1.490530776977539,-3.106707501411438,0.6246191665530205,1.6898933186381307e+18,32.64913090820313,1.580635142326355,-2.6647957649081944,0.4337004810571671,,,,,,,,,,,,,1.689893318643142e+18,32.6541421875,-9.838031768798828,52.25130767822266,-1.7341445922851562,1.6898933186374026e+18,32.64840268554688,17.89884033203125,68.87213439941407,78.26273498535156,1.689893318643142e+18,32.6541421875,-1.2675219683539254,0.6716964756498138,-0.1065974748450279,-1.830316394834187,-0.67577478859438,0.2829623209783675,-1.3205835100541348
2.7,1.6898933186932564e+18,32.70425629882813,-0.9257988528245686,-2.6714115170532464,-1.4968666268196702,1.6898933186882447e+18,32.6992447265625,-0.174407958984375,0.7399993896484375,-0.379541015625,1.6898933186932564e+18,32.70425629882813,0.0722060840177908,9.629829556473492,-1.8176958744387328,1.6898933186932564e+18,32.70425629882813,0.4546463012695312,-0.945146632194519,2.6341187000274657,1.6898933186882447e+18,32.6992447265625,0.5241443932056427,-1.4641885831952095,2.553070831298828,,,,,,,,,,,,,1.6898933186932564e+18,32.70425629882813,-13.407454109191894,51.400733947753906,-0.2086929321289062,1.6898933186894054e+18,32.70040541992187,13.853042602539062,67.89436645507813,79.55821838378907,1.6898933186932564e+18,32.70425629882813,-0.8896182082891542,0.6389882383983212,-0.1834941176147632,-1.6036867758678457,-0.6799875299013146,0.3085173099366509,-1.380785802253157
2.75,1.6898933187433702e+18,32.754370214843746,2.85157484126687,-0.7110132449454069,-1.132309471989721,1.6898933187383588e+18,32.74935888671875,0.2008056640625,0.8998291015625,-0.278607177734375,1.6898933187433702e+18,32.754370214843746,-1.017796051616073,9.615527825589776,-1.6260501437719164,1.6898933187433702e+18,32.754370214843746,0.2302590936422347,0.9735866665840148,1.2013244032859802,1.6898933187383588e+18,32.74935888671875,0.25545424669981,1.0125486612319947,1.393561744689941,,,,,,,,,,,,,1.6898933187433702e+18,32.754370214843746,-18.971751403808593,49.59208526611328,1.2136703491210938,1.6898933187414054e+18,32.75240541992188,8.4784423828125,66.091845703125,81.05044555664062,1.6898933187433702e+18,32.754370214843746,-0.3182096343726793,0.6067334495248483,-0.1970062833416759,-1.0138862705582947,-0.7162692222283245,0.2826911291882075,-1.3731126652879568
2.8,1.6898933187934843e+18,32.80448447265625,0.5244023520275951,-1.0787109482103583,-0.8283649574849008,1.689893318788473e+18,32.79947299804688,-0.0655181884765625,0.84542236328125,-0.2347137451171875,1.6898933187934843e+18,32.80448447265625,-1.5010569181163609,9.577318681800364,-1.473689837049991,1.6898933187934843e+18,32.80448447265625,0.0993462048470973,2.202747917175293,0.6225789070129395,1.689893318788473e+18,32.79947299804688,0.0906716331839561,2.0545807838439942,0.6327697396278381,,,,,,,,,,,,,1.6898933187934843e+18,32.80448447265625,-20.93902130126953,48.77302856445313,2.9224761962890624,1.6898933187882063e+18,32.799206420898436,6.788440704345703,65.43314743041992,82.53730773925781,1.6898933187934843e+18,32.80448447265625,-0.1491595706910147,0.6001128390468132,-0.183198658185229,-0.7776326561025152,-0.7367906474391317,0.2513084037821286,-1.354163524024649
2.85,1.6898933188435983e+18,32.8545984375,-0.0612027443988621,0.5855609357976913,0.2985751402653009,1.689893318838587e+18,32.849587109375,-0.2322998046875,1.0250518798828123,-0.1336883544921875,1.6898933188435983e+18,32.8545984375,-2.069247616918236,9.51063747676432,-1.174254382854402,1.6898933188435983e+18,32.8545984375,0.4749202996492386,1.4878982782363892,1.349848735332489,1.689893318838587e+18,32.849587109375,0.413165470957756,1.6912714123725892,1.252781546115875,,,,,,,,,,,,,1.6898933188435983e+18,32.8545984375,-22.445521545410156,47.50380325317383,5.575935363769531,1.6898933188350093e+18,32.846009326171874,5.652566528320312,64.32813720703125,84.98155517578125,1.6898933188435983e+18,32.8545984375,0.0049949304706018,0.5938829538909085,-0.1606275837095429,-0.5207279701316478,-0.7613409054022064,0.2040583295051813,-1.3248602731230987
2.9,1.6898933188937126e+18,32.9047125,3.2713568351298568,0.9251337838184832,-0.0978529683084786,1.6898933188887012e+18,32.899701074218754,0.0225311279296875,1.0352813720703125,-0.033416748046875,1.6898933188937126e+18,32.9047125,-2.801225353185236,9.364217432198524,-0.7683689877533912,1.6898933188937126e+18,32.9047125,0.950494396686554,-0.446001324057579,1.3901618480682374,1.6898933188887012e+18,32.899701074218754,0.944532036781311,-0.302274690195918,1.4216955184936524,,,,,,,,,,,,,1.6898933188937126e+18,32.9047125,-25.123094940185545,45.60035095214844,7.410968017578125,1.6898933188870118e+18,32.89801181640625,2.4550048828125,62.1328857421875,87.15375671386718,1.6898933188937126e+18,32.9047125,0.2410500228972515,0.570465276200218,-0.1755251580808227,-0.2702390160454696,-0.7822496149535468,0.1780163396308726,-1.269625616831182
2.95,1.6898933189438264e+18,32.954826513671875,4.703914012933074,1.730112078949213,-4.426050777467787,1.689893318938815e+18,32.94981508789063,0.1358673095703125,1.1286224365234374,-0.4697113037109375,1.6898933189438264e+18,32.954826513671875,-3.305251213686168,9.218602274274826,-0.5042688681700452,1.6898933189438264e+18,32.954826513671875,0.4784090876579284,-0.3285399481654167,0.5662985801696777,1.689893318938815e+18,32.94981508789063,0.5388788759708405,-0.4544465035200119,0.7386578127741814,,,,,,,,,,,,,1.6898933189438264e+18,32.954826513671875,-28.08023109436035,43.43549118041992,8.266471862792969,1.689893318939014e+18,32.9500138671875,-0.5181610107421875,59.900787353515625,88.02025756835937,1.6898933189438264e+18,32.954826513671875,0.3994452632927244,0.548702158346275,-0.204674900073517,-0.1517312038122075,-0.7915809113188492,0.1743314849345512,-1.2228202545649274
3.0,1.6898933189939405e+18,33.004940429687494,1.5108244834756852,0.753186382381916,-5.008590494974255,1.689893318988929e+18,32.99992915039063,-0.1055908203125,1.0136810302734376,-0.54964599609375,1.6898933189939405e+18,33.004940429687494,-3.229262725052833,9.2529901646626,-0.3433480484040453,1.6898933189939405e+18,33.004940429687494,0.0132279928773641,0.5820277988910675,-0.4982519626617431,1.689893318988929e+18,32.99992915039063,0.0668121054768562,0.6237462997436524,-0.515439373254776,1.6898933190002432e+18,33.0112431640625,75.91790785454214,0.9599999785475436,51.560165723604754,49.18961812953834,95.32790770195425,2.4609379502939515,4.223561369627631,4.106864795252864,-122.84781023982354,1.009999990463244,1.6898933189939405e+18,33.004940429687494,-28.388848876953126,43.05420455932617,9.17001495361328,1.689893318991016e+18,33.00201586914062,-0.560626220703125,59.70930786132813,88.96375427246093,1.6898933189939405e+18,33.004940429687494,0.433940594848847,0.5546455429936353,-0.2052158298117027,-0.1057605602852777,-0.7890010663913741,0.1664290321080449,-1.2332535275565817
3.05,1.689893319039043e+18,33.05004315185547,2.8102552080806342,3.556736203765869,-3.180997057507932,1.689893319039043e+18,33.050043066406246,-0.037115478515625,1.26995849609375,-0.3846435546875,1.689893319039043e+18,33.05004315185547,-3.0956886449914425,9.295562618228049,-0.4172261536340229,1.689893319039043e+18,33.05004315185547,-0.5224569216370583,-0.2104905955493449,-0.3688419964164495,1.689893319039043e+18,33.050043066406246,-0.5216775059700012,-0.1395775996148586,-0.4751586228609085,,,,,,,,,,,,,1.689893319039043e+18,33.05004315185547,-27.887215614318848,43.349549293518066,9.157285690307615,1.6898933190430188e+18,33.05401884765625,-0.0514801025390625,60.10788269042969,88.61229858398437,1.689893319039043e+18,33.05004315185547,0.3967502041273852,0.5602591623023382,-0.1980305858225917,-0.1341457065645462,-0.7865222610103935,0.1681106385566191,-1.2465375024898562
3.1,1.6898933190841457e+18,33.095145703125,9.980050055236816,2.2536575803387167,-2.4889304174165425,1.689893319089157e+18,33.10015703125,0.7469329833984375,1.2009063720703126,-0.334832763671875,1.6898933190841457e+18,33.095145703125,-2.318514872496277,9.485651153354643,-0.7637422120421007,1.6898933190841457e+18,33.095145703125,-1.0752737998962405,0.0989594254642724,-3.191793203353882,1.689893319089157e+18,33.10015703125,-1.1518568634986877,0.0317314617335795,-3.3625932693481446,,,,,,,,,,,,,1.6898933190841457e+18,33.095145703125,-24.890832138061523,45.412872314453125,7.64307861328125,1.689893319089821e+18,33.10082098388672,4.0800323486328125,62.76508331298828,86.9911003112793,1.6898933190841457e+18,33.095145703125,0.1906415846256475,0.588443774865007,-0.1779740479133914,-0.3366460781975968,-0.7656785290557858,0.1875307140188096,-1.3173227666578322
3.15,1.6898933191342597e+18,33.14525971679687,-3.811016786687374,5.111224238592387,0.5794970472618938,1.6898933191392712e+18,33.15027104492187,-0.5028472900390625,1.52564697265625,-0.0583251953125,1.6898933191342597e+18,33.14525971679687,-0.623523501767884,9.66070061245978,-1.4708881213413922,1.6898933191342597e+18,33.14525971679687,-1.5304912805557251,-1.2853952288627624,-3.239834690093994,1.6898933191392712e+18,33.15027104492187,-1.4825223684310913,-1.0810204148292542,-3.164122486114502,,,,,,,,,,,,,1.6898933191342597e+18,33.14525971679687,-18.007213973999022,49.51063232421875,3.974847412109375,1.6898933191366226e+18,33.14762265625,10.28209228515625,66.42321166992187,83.31646118164062,1.6898933191342597e+18,33.14525971679687,-0.6145814405308481,0.641532729753925,-0.1464540485280165,-1.165737571579903,-0.7141774590435188,0.2369029026296322,-1.3981778576390975
3.2,1.6898933191843738e+18,33.195373681640625,-3.781324477543831,4.13146980679214,1.964117760248482,1.6898933191893852e+18,33.20038510742187,-0.2619476318359375,1.3599029541015626,-0.050726318359375,1.6898933191843738e+18,33.195373681640625,0.6171774544694647,9.537147298027277,-2.1761241711248456,1.6898933191843738e+18,33.195373681640625,-1.3732577085494997,2.56103675365448,-2.311412239074707,1.6898933191893852e+18,33.20038510742187,-1.4245030164718628,2.6919674396514894,-2.3025859355926515,,,,,,,,,,,,,1.6898933191843738e+18,33.195373681640625,-12.882471084594728,51.66434326171875,1.2910293579101562,1.689893319188625e+18,33.199625097656245,16.435830688476564,68.76279907226562,80.45738525390625,1.6898933191843738e+18,33.195373681640625,-1.3293020202849382,0.6813478292009029,-0.0951067887024673,-1.8392006137319687,-0.677430495945478,0.259066252126014,-1.337391033696496
3.25,1.6898933192344878e+18,33.245487744140625,-3.1118161153845487,1.3775966303426026,1.1212404686430095,1.689893319239499e+18,33.2504990234375,-0.2079742431640625,1.0738311767578126,-0.191632080078125,1.6898933192344878e+18,33.245487744140625,1.3732664775707573,9.23554019888103,-2.983689823174178,1.6898933192344878e+18,33.245487744140625,-1.5074278593063355,0.75855872631073,-1.596293306350708,1.689893319239499e+18,33.2504990234375,-1.4886865139007568,0.4275226414203644,-1.4080290079116822,,,,,,,,,,,,,1.6898933192344878e+18,33.245487744140625,-7.449893951416016,53.04628448486328,-1.0612686157226563,1.6898933192406287e+18,33.251628515625,21.450311279296876,69.93037414550781,77.74615173339843,1.6898933192344878e+18,33.245487744140625,-1.6021444234250226,0.710705851156637,-0.0208025490053469,-2.000134760945127,-0.6552220570583245,0.2546770685016503,-1.2290111357510742
3.3,1.6898933192846016e+18,33.29560161132813,-3.639146132974922,-2.446870706452727,-0.8261870289239287,1.689893319289613e+18,33.30061313476563,-0.1753570556640625,0.6504058837890625,-0.4583526611328125,1.6898933192846016e+18,33.29560161132813,1.8570822160878775,8.926867983654141,-3.603624796190858,1.6898933192846016e+18,33.29560161132813,-1.4092962265014648,-0.7358424186706543,-0.6269475102424622,1.689893319289613e+18,33.30061313476563,-1.411176085472107,-0.8498674929141998,-0.5770714789628982,,,,,,,,,,,,,1.6898933192846016e+18,33.29560161132813,-5.0563232421875,53.6779296875,-4.500596618652343,1.6898933192926318e+18,33.3036318359375,22.972860717773436,70.34622192382812,74.13125,1.6898933192846016e+18,33.29560161132813,-1.6315636953082897,0.7158939191793819,0.0019541226510888,-2.0462921216814363,-0.6366098315667748,0.2864886830505865,-1.1445003303747998
3.35,1.689893319334716e+18,33.345715673828124,-4.8627971747785805,-2.492348730653524,2.545842011266649,1.689893319339727e+18,33.350727001953125,-0.27099609375,0.6206878662109375,-0.1191436767578125,1.689893319334716e+18,33.345715673828124,2.3108180928355457,8.63215976256311,-4.0357539966428275,1.689893319334716e+18,33.345715673828124,-1.2702659368515017,-2.602468967437744,0.1276339419186115,1.689893319339727e+18,33.350727001953125,-1.2014755249023437,-2.6480116844177246,0.1988811939954757,,,,,,,,,,,,,1.689893319334716e+18,33.345715673828124,-4.2382865905761715,53.70511016845703,-8.566387939453126,1.689893319339433e+18,33.35043286132812,23.618335723876953,70.3097152709961,70.38248443603516,1.689893319334716e+18,33.345715673828124,-1.5794191293351283,0.7083490987190559,-0.0062045898778264,-2.0903062684029488,-0.6180891557749437,0.3401366462741151,-1.0765677873393549
3.4,1.6898933193848297e+18,33.3958296875,-5.894852287180423,-3.224580704716444,7.0644818743914355,1.6898933193898412e+18,33.40084116210937,-0.329278564453125,0.5386444091796875,0.309161376953125,1.6898933193848297e+18,33.3958296875,2.6050695685219765,8.510320032502412,-4.117967818757892,1.6898933193848297e+18,33.3958296875,-0.5137666940689087,-1.9627495765686036,0.8745712757110595,1.6898933193898412e+18,33.40084116210937,-0.4310616970062256,-1.8081295490264893,0.9620080709457396,,,,,,,,,,,,,1.6898933193848297e+18,33.3958296875,-4.7439220428466795,53.508480834960935,-11.73421630859375,1.689893319386234e+18,33.397234130859374,22.899029541015626,70.10570983886718,67.786669921875,1.6898933193848297e+18,33.3958296875,-1.4840411845639796,0.6903586024954642,-0.0418071079230432,-2.134840484407186,-0.6044171805880468,0.395041849281387,-1.0507834398621765
3.45,1.6898933194349435e+18,33.445943750000005,-3.7891083217400303,-2.6524347800958155,7.749486934759616,1.6898933194399552e+18,33.45095502929688,-0.13857421875,0.6216796875,0.382891845703125,1.6898933194349435e+18,33.445943750000005,2.2748955694524944,8.667717281252147,-3.9764049172866343,1.6898933194349435e+18,33.445943750000005,0.5859745755791664,-0.1602932751178741,1.6701248168945313,1.6898933194399552e+18,33.45095502929688,0.7220938086509705,0.0560034634545445,1.706324028968811,,,,,,,,,,,,,1.6898933194349435e+18,33.445943750000005,-7.453448104858398,53.275935363769534,-12.58590850830078,1.6898933194382351e+18,33.44923525390625,19.3266845703125,69.91355590820312,67.27059020996094,1.6898933194349435e+18,33.445943750000005,-1.3622411742652143,0.6678935331240091,-0.0759443245330406,-2.089359230652518,-0.614911913331454,0.4121398521208936,-1.0844060532740185
3.5,1.6898933194850575e+18,33.49605766601563,6.597724194341898,1.6871948451471326,0.8057350171691177,1.689893319490069e+18,33.501069140625,0.9051666259765624,1.14537353515625,-0.3659332275390625,1.6898933194850575e+18,33.49605766601563,1.5073665688806772,9.030628334762454,-3.5036710854369404,1.6898933194850575e+18,33.49605766601563,1.379859924316406,0.2935836523771286,1.1067671716213223,1.689893319490069e+18,33.501069140625,1.2716878533363345,0.2444334506988525,0.9549731254577636,,,,,,,,,,,,,1.6898933194850575e+18,33.49605766601563,-11.938137817382811,53.58711700439453,-10.478904724121094,1.689893319490236e+18,33.501236083984374,14.764007568359377,70.35367431640626,70.19112243652344,1.6898933194850575e+18,33.49605766601563,-1.2519391277711276,0.6542846380871113,-0.1052023469182658,-1.9759154854077217,-0.6418456038194542,0.3856075824648282,-1.1710831791959724
3.55,1.6898933195351718e+18,33.54617177734375,9.214062409662008,6.567533288026452,-13.1209454624331,1.689893319540183e+18,33.551183056640625,1.004107666015625,1.55799560546875,-1.6603851318359375,1.6898933195351718e+18,33.54617177734375,1.1599230751630665,9.145162242628334,-3.341614788061082,1.6898933195351718e+18,33.54617177734375,-0.6166144661605358,1.594084656238556,0.1032678913325071,1.689893319540183e+18,33.551183056640625,-0.7643327653408051,1.6231467843055725,0.0866235227789729,,,,,,,,,,,,,1.6898933195351718e+18,33.54617177734375,-14.259437942504883,53.92756958007813,-8.480706787109375,1.689893319542236e+18,33.5532359375,13.111550903320312,70.5598358154297,71.037109375,1.6898933195351718e+18,33.54617177734375,-1.2101906115377052,0.6516855341361396,-0.1070849621122047,-1.9056779100258008,-0.6551672316522059,0.3666279618025103,-1.20149275166293
3.6,1.6898933195852856e+18,33.59628569335938,-1.6086274167104064,-2.6314276479023695,-2.415829905309677,1.689893319590297e+18,33.60129716796875,-0.13919677734375,0.6506256103515625,-0.579669189453125,1.6898933195852856e+18,33.59628569335938,0.9205636409717798,8.9716022622025,-3.8484787361451978,1.6898933195852856e+18,33.59628569335938,-0.9219531744718552,-0.1249651432037353,0.5224714063107967,1.689893319590297e+18,33.60129716796875,-0.7541650295257568,-0.2157817758619785,0.6196795463562011,,,,,,,,,,,,,1.6898933195852856e+18,33.59628569335938,-15.600694274902343,53.76244964599609,-10.598924255371092,1.6898933195890363e+18,33.60003643798828,11.931198120117188,70.30056381225586,68.50990676879883,1.6898933195852856e+18,33.59628569335938,-1.1478699372760903,0.640991554607038,-0.0785033142837264,-1.806189697011329,-0.6684944566864717,0.3687952341824433,-1.1553127015692424
3.65,1.6898933196353997e+18,33.646399609374996,0.0983909330296517,5.551623722357154,4.806447511047124,1.6898933196404111e+18,33.65141108398437,0.1408294677734375,1.519537353515625,0.087255859375,1.6898933196353997e+18,33.646399609374996,0.7714826774075627,8.992972148680687,-3.831348796098232,1.6898933196353997e+18,33.646399609374996,0.5415703866630792,-1.3264552235603333,-0.0040142357349395,1.6898933196404111e+18,33.65141108398437,0.4894187465310097,-1.5073118805885315,-0.1272539377212524,,,,,,,,,,,,,1.6898933196353997e+18,33.646399609374996,-17.180517578125,53.46031494140625,-11.751290893554687,1.689893319635837e+18,33.64683666992188,10.550808715820311,70.08643188476563,67.95208129882812,1.6898933196353997e+18,33.646399609374996,-1.075541210284744,0.6296844489167428,-0.0931566331193267,-1.769861759540505,-0.672221466724134,0.3779021514705886,-1.1606635307059257
3.7,1.6898933196855137e+18,33.696513867187505,-3.5316480712560563,0.4159350214982032,5.894309909318983,1.6898933196905252e+18,33.701525048828124,-0.2748138427734375,0.9010101318359376,0.2514892578125,1.6898933196855137e+18,33.696513867187505,1.0202799481602014,9.049451459367274,-3.636368134241998,1.6898933196855137e+18,33.696513867187505,0.4135306999087333,0.3670109629631043,0.4076145105063915,1.6898933196905252e+18,33.701525048828124,0.5197220534086228,0.8846070170402527,0.4124931305646896,,,,,,,,,,,,,1.6898933196855137e+18,33.696513867187505,-16.175371742248537,53.871690368652345,-12.24959716796875,1.689893319687839e+18,33.69883881835938,11.565432739257812,70.50020141601563,67.48192138671875,1.6898933196855137e+18,33.696513867187505,-1.0910330099461354,0.6304972646462502,-0.1167163643739051,-1.8438968588279512,-0.6590415720918266,0.3930098144380814,-1.175335956279495
3.75,1.6898933197356278e+18,33.746627734375,-4.304023123619556,-2.2943267429530616,5.859396124587059,1.689893319740639e+18,33.7516390625,-0.3938507080078125,0.742724609375,0.252752685546875,1.6898933197356278e+18,33.746627734375,0.5755626742615549,9.208871036950946,-3.3157065567269917,1.6898933197356278e+18,33.746627734375,1.2747603893280028,2.665153455734253,0.0587936341762542,1.689893319740639e+18,33.7516390625,1.381899118423462,2.5082797050476073,0.1085045859217643,,,,,,,,,,,,,1.6898933197356278e+18,33.746627734375,-16.997312164306642,54.30931854248047,-9.63733367919922,1.689893319739843e+18,33.750843359375,10.512380981445313,71.20881042480468,71.513818359375,1.6898933197356278e+18,33.746627734375,-1.0937432030818734,0.6412214907679117,-0.0995225489110588,-1.7410713857889988,-0.6787247130430013,0.3432236559754639,-1.2202543011380638
3.8,1.6898933197857413e+18,33.79674130859375,-4.533091406968832,2.6970997343480585,0.4928011405228078,1.6898933197907528e+18,33.801752734375,-0.4319305419921875,1.2349853515625,-0.23555908203125,1.6898933197857413e+18,33.79674130859375,0.3590701199872977,9.469064994021654,-2.5064144023720916,1.6898933197857413e+18,33.79674130859375,2.064186668395996,-1.545494759082794,0.08681560754776,1.6898933197907528e+18,33.801752734375,2.0262574434280394,-2.029388815164566,0.1702472518198192,,,,,,,,,,,,,1.6898933197857413e+18,33.79674130859375,-17.22425537109375,55.165348815917966,-4.150848388671875,1.689893319791844e+18,33.80284423828125,10.715554809570312,71.91980590820313,76.85966186523437,1.6898933197857413e+18,33.79674130859375,-1.11772580364932,0.6552720934459508,-0.1161283551122212,-1.7176869025336152,-0.6839895598889685,0.2981568054912356,-1.3092946459659276
3.85,1.6898933198358554e+18,33.84685541992187,-2.8053148436820505,-1.5563898352468013,-3.069273589339852,1.6898933198408666e+18,33.85186655273437,-0.2419219970703125,0.8124359130859375,-0.484820556640625,1.6898933198358554e+18,33.84685541992187,0.1670243516723346,9.656093060212134,-1.6814509823459385,1.6898933198358554e+18,33.84685541992187,1.042450022697449,-2.0563941419124605,1.970542073249817,1.6898933198408666e+18,33.85186655273437,0.9390940189361572,-1.692268493771553,2.097303056716919,,,,,,,,,,,,,1.6898933198358554e+18,33.84685541992187,-18.51447105407715,55.03225555419922,-1.2593673706054689,1.6898933198386442e+18,33.84964404296875,8.46579360961914,71.49292373657227,78.6280403137207,1.6898933198358554e+18,33.84685541992187,-0.9234414986720032,0.6412306644454044,-0.1940508994516582,-1.6580761565386204,-0.6733846352394414,0.3118065516952503,-1.39616941829882
3.9,1.6898933198859692e+18,33.89696923828125,1.832089989007115,-0.9624041854530572,-3.270225025394857,1.6898933198909806e+18,33.90198061523438,0.1107147216796875,0.8890411376953125,-0.4677581787109375,1.6898933198859692e+18,33.89696923828125,-0.7725060071863605,9.67433563767612,-1.3891307962091266,1.6898933198859692e+18,33.89696923828125,0.1616770498454571,-0.0107500962913036,1.669431710243225,1.6898933198909806e+18,33.90198061523438,0.0852852284908294,0.028734815865755,1.552576231956482,,,,,,,,,,,,,1.6898933198859692e+18,33.89696923828125,-23.694396209716796,53.1731201171875,-0.2271286010742187,1.689893319885445e+18,33.896445166015624,3.665155029296875,69.63629455566407,79.5317596435547,1.6898933198859692e+18,33.89696923828125,-0.2932123624195255,0.6073072523097728,-0.231027537139275,-1.0701906729654618,-0.697099646842284,0.3028522650151361,-1.4065854825936763
3.95,1.6898933199360832e+18,33.94708315429688,0.7685439936071634,-1.220056758251786,-1.0891844991080464,1.689893319941095e+18,33.95209462890625,-0.077764892578125,0.8654876708984375,-0.2457916259765625,1.6898933199360832e+18,33.94708315429688,-1.412524355921596,9.60155822004378,-1.3995881266243757,1.6898933199360832e+18,33.94708315429688,-0.2758394807577132,2.0285788655281065,0.8937946200370789,1.689893319941095e+18,33.95209462890625,-0.2686730623245239,2.3008042335510255,0.8630571007728577,,,,,,,,,,,,,1.6898933199360832e+18,33.94708315429688,-27.28388900756836,51.811720275878905,0.128082275390625,1.689893319937446e+18,33.94844575195312,0.2452789306640625,68.34201354980469,79.92815246582032,1.6898933199360832e+18,33.94708315429688,-0.0393060590327847,0.5889453584958032,-0.2271972696292353,-0.7840586899456198,-0.721285230318472,0.2845916104789906,-1.3662405685284884
4.0,1.6898933199861972e+18,33.99719721679687,0.1082154308210313,0.9908238735383748,1.8222619256322083,1.6898933199912087e+18,34.00220874023437,-0.192218017578125,1.0660675048828123,0.0860687255859375,1.6898933199861972e+18,33.99719721679687,-2.060387551018745,9.50574467783451,-1.2273926248717308,1.6898933199861972e+18,33.99719721679687,0.2487108640372753,2.35354061126709,1.2806658744812012,1.6898933199912087e+18,34.00220874023437,0.3648299515247345,2.151718020439148,1.3333613395690918,1.689893320000246e+18,34.01124609375,65.6621107114479,2.022174895556065,165.1288253737824,49.1895857132305,85.07211055886,348.868038843947,4.97984601974646,3.0042753955661547,-122.84773499511311,0.5748660627619057,1.6898933199861972e+18,33.99719721679687,-29.269491577148436,50.793643188476565,2.65067138671875,1.689893319989447e+18,34.000446582031245,-2.095697021484375,66.95213012695312,83.1109619140625,1.6898933199861972e+18,33.99719721679687,0.074587962952165,0.5835401841660974,-0.1930050797233584,-0.5419797715438988,-0.7534379462781959,0.2327587467360924,-1.322850535167896
4.05,1.6898933200363113e+18,34.04731118164062,3.316205036994517,0.5353700285047293,1.9039677105468509,1.689893320041323e+18,34.05232280273437,0.062725830078125,1.020465087890625,0.08704833984375,1.6898933200363113e+18,34.04731118164062,-2.737765682092011,9.384495431786776,-0.7522670025146752,1.6898933200363113e+18,34.04731118164062,1.1903164625167846,-0.5479041308164596,1.1584049940109251,1.689893320041323e+18,34.05232280273437,1.210610318183899,-0.7630924463272095,1.1351935148239136,,,,,,,,,,,,,1.6898933200363113e+18,34.04731118164062,-32.13035583496094,48.73886260986328,5.50692138671875,1.6898933200414474e+18,34.05244741210937,-5.235125732421875,64.78862915039062,85.6453643798828,1.6898933200363113e+18,34.04731118164062,0.3068749097877459,0.5670929020693816,-0.2012045635856939,-0.270317921399006,-0.773938275300032,0.1969200604575754,-1.2765085269334218
4.1,1.689893320086425e+18,34.097425439453126,3.7240415661633017,1.581623645224571,-4.750414073657989,1.6898933200914363e+18,34.102436523437504,0.0555328369140625,1.105206298828125,-0.5426025390625,1.689893320086425e+18,34.097425439453126,-3.1925586082249877,9.262793181274535,-0.4049902509726211,1.689893320086425e+18,34.097425439453126,0.7127521336078644,-0.5949882566928864,0.732536056637764,1.6898933200914363e+18,34.102436523437504,0.6282732546329498,-0.3556906282901764,0.6106827639043331,,,,,,,,,,,,,1.689893320086425e+18,34.097425439453126,-35.04283752441406,46.73250961303711,6.166531372070312,1.689893320088252e+18,34.09925207519531,-7.778339385986328,63.038291931152344,85.87084197998047,1.689893320086425e+18,34.097425439453126,0.5086339183164951,0.5468307835749049,-0.2402360224074277,-0.1268240412662868,-0.7778171525011731,0.1953946994899439,-1.2363336576458137
4.15,1.6898933201365394e+18,34.147539306640624,2.5029932834300395,0.9978085594069958,-5.824523431743979,1.6898933201415506e+18,34.152550634765625,-0.0883514404296875,1.0429229736328125,-0.6067962646484375,1.6898933201365394e+18,34.147539306640624,-3.2433699270516634,9.252875715276598,-0.1721139737354498,1.6898933201365394e+18,34.147539306640624,0.0700569678097963,0.91912242770195,-0.3291054040193558,1.6898933201415506e+18,34.152550634765625,0.0287641620263457,0.8353993684053421,-0.3376976072788238,,,,,,,,,,,,,1.6898933201365394e+18,34.147539306640624,-35.39182739257812,46.55033798217774,7.271636962890625,1.6898933201350533e+18,34.14605322265625,-7.560482788085937,63.225094604492185,87.1087890625,1.6898933201365394e+18,34.147539306640624,0.5644388993581568,0.5491733596912558,-0.2417551948747875,-0.0527749537276982,-0.7790407234646494,0.1816643865076577,-1.233173867962584
4.2,1.6898933201866532e+18,34.19765317382813,3.734669167805016,2.847191043998599,-3.858925954331755,1.6898933201916646e+18,34.20266474609375,0.113153076171875,1.2475250244140623,-0.4089141845703125,1.6898933201866532e+18,34.19765317382813,-3.105263420418501,9.299401670321226,-0.2015503938087354,1.6898933201866532e+18,34.19765317382813,-0.3959587186574936,-0.3696591507643461,-0.454033464193344,1.6898933201916646e+18,34.20266474609375,-0.456646004319191,-0.3889465272426605,-0.6173881709575653,,,,,,,,,,,,,1.6898933201866532e+18,34.19765317382813,-34.45574188232422,47.38339080810547,7.085873413085937,1.6898933201870536e+18,34.19805380859375,-6.624325561523437,64.07472534179688,86.65567932128906,1.6898933201866532e+18,34.19765317382813,0.539048483076303,0.5558012053534199,-0.2343725908889077,-0.0651800026491355,-0.7767823907136717,0.1809344856157947,-1.2477959152650764
4.25,1.6898933202367672e+18,34.24776723632813,7.950604784196614,1.570267670856118,-3.3358861812812086,1.6898933202417787e+18,34.25277861328125,0.54718017578125,1.1310791015625,-0.3933929443359375,1.6898933202367672e+18,34.24776723632813,-2.328869473189413,9.497438037260174,-0.5906942362590134,1.6898933202367672e+18,34.24776723632813,-1.1094666004180909,-0.2859133943915367,-2.881608676910401,1.6898933202417787e+18,34.25277861328125,-1.195489490032196,-0.3641055777668953,-3.01615834236145,,,,,,,,,,,,,1.6898933202367672e+18,34.24776723632813,-30.20039749145508,50.431787109375,4.173550415039062,1.6898933202390533e+18,34.25005336914062,-1.908355712890625,67.42134704589844,83.59342651367187,1.6898933202367672e+18,34.24776723632813,0.3480846870884996,0.5816737243308696,-0.2165584651687709,-0.2644034670334928,-0.7560650065413748,0.2064231653084103,-1.3216431811268672
4.3,1.6898933202868813e+18,34.297881201171876,-3.032268209930062,5.718554406223296,1.2226312703018636,1.6898933202918927e+18,34.302892578125,-0.4444061279296875,1.593682861328125,0.0174285888671875,1.6898933202868813e+18,34.297881201171876,-0.7422206969324685,9.669818101799487,-1.3542523165993392,1.6898933202868813e+18,34.297881201171876,-1.6072885036468505,-1.044784998893738,-3.1941990852355957,1.6898933202918927e+18,34.302892578125,-1.5671806573867797,-0.7996448457241059,-3.1410804748535157,,,,,,,,,,,,,1.6898933202868813e+18,34.297881201171876,-23.395195770263673,54.073533630371095,-0.1108154296875,1.689893320291054e+18,34.30205405273438,6.947479248046875,71.65649719238282,77.9032470703125,1.6898933202868813e+18,34.297881201171876,-0.4292190970272989,0.6274407062226911,-0.1845896083870527,-1.0723127348280828,-0.7095640147710816,0.2607772205068969,-1.4036739132644664
4.35,1.689893320336995e+18,34.34799521484375,-4.420641305026635,3.673223934500217,2.6437735100910063,1.6898933203420063e+18,34.353006640625,-0.344073486328125,1.312646484375,0.03177490234375,1.689893320336995e+18,34.34799521484375,0.4825989502591453,9.564137596283556,-2.09089246249333,1.689893320336995e+18,34.34799521484375,-1.4086447715759278,2.472814106941223,-2.196563482284546,1.6898933203420063e+18,34.353006640625,-1.4390166044235229,2.58411226272583,-2.1508023738861084,,,,,,,,,,,,,1.689893320336995e+18,34.34799521484375,-15.153681564331055,56.25654602050781,-4.331268310546875,1.6898933203430548e+18,34.35405478515625,14.316421508789062,73.04283752441407,74.75355224609375,1.689893320336995e+18,34.34799521484375,-1.197809826243533,0.6669932224507714,-0.1270406592759591,-1.7887393992484246,-0.6772688807715413,0.2821605953125347,-1.3494613180143502
4.4,1.6898933203871094e+18,34.398109423828124,-2.1148285461977125,1.6921643333488705,1.747211974571049,1.6898933203921208e+18,34.403120751953125,-0.1263946533203125,1.1160888671875,-0.1203125,1.6898933203871094e+18,34.398109423828124,1.1586740980152783,9.294407982913254,-2.8916103237006068,1.6898933203871094e+18,34.398109423828124,-1.5043637990951535,1.177207386493683,-1.5104497134685515,1.6898933203921208e+18,34.403120751953125,-1.4855480432510375,0.8759647727012634,-1.3485567450523377,,,,,,,,,,,,,1.6898933203871094e+18,34.398109423828124,-9.86719970703125,56.43538208007813,-6.984356689453125,1.6898933203898552e+18,34.40085522460937,18.635177612304688,72.99198532104492,72.13097381591797,1.6898933203871094e+18,34.398109423828124,-1.4773202831066508,0.6948773266722886,-0.0508213321176203,-1.9500641595686223,-0.6618674460349074,0.2760123966163788,-1.247331958523625
4.45,1.689893320437223e+18,34.44822309570312,-3.2753027378244695,-2.605843592408299,-1.1279054794901608,1.6898933204422346e+18,34.45323466796875,-0.161181640625,0.6411285400390625,-0.4881683349609375,1.689893320437223e+18,34.44822309570312,1.6064244706125557,9.01224851155877,-3.5109798886933916,1.689893320437223e+18,34.44822309570312,-1.3164503812789916,-0.7321619749069214,-0.659446632862091,1.6898933204422346e+18,34.45323466796875,-1.3064704418182371,-0.8265631675720215,-0.6334568858146667,,,,,,,,,,,,,1.689893320437223e+18,34.44822309570312,-6.922779846191406,55.82544403076171,-10.430372619628908,1.6898933204366564e+18,34.44765634765625,21.01262512207031,72.3906036376953,69.00877075195312,1.689893320437223e+18,34.44822309570312,-1.5122732557750478,0.6983836878737598,-0.0272816272445474,-1.999262039682946,-0.6460036064904402,0.3066767388835658,-1.1659984540758697
4.5,1.6898933204873375e+18,34.49833735351562,-4.541049497140348,-2.2166047377514837,2.3501477650874856,1.689893320492349e+18,34.503348583984376,-0.26170654296875,0.6604034423828125,-0.127734375,1.6898933204873375e+18,34.49833735351562,2.057065187049955,8.732124813041686,-3.957046019917726,1.6898933204873375e+18,34.49833735351562,-1.2552069187164308,-2.246714735031128,-0.0068805648945271,1.689893320492349e+18,34.503348583984376,-1.2092427134513857,-2.2851515769958497,0.0624562412500381,,,,,,,,,,,,,1.6898933204873375e+18,34.49833735351562,-4.928859710693359,54.60508270263672,-14.004490661621094,1.6898933204886574e+18,34.49965717773438,22.94952087402344,71.09927673339844,65.39789733886718,1.6898933204873375e+18,34.49833735351562,-1.4713922047028762,0.6899966558070119,-0.0335034589854553,-2.049663495289573,-0.6276287211300455,0.3583995772553492,-1.0985414869165016
4.55,1.6898933205374513e+18,34.548451171875,-5.220316656830608,-2.9168464133137464,6.748504187682866,1.6898933205424625e+18,34.55346254882813,-0.2879669189453125,0.573931884765625,0.2727142333984375,1.6898933205374513e+18,34.548451171875,2.3403313629242772,8.569136963130235,-4.154685730302334,1.6898933205374513e+18,34.548451171875,-0.6861050963401795,-1.746710968017578,0.7053476333618164,1.6898933205424625e+18,34.55346254882813,-0.6077064037322998,-1.645565438270569,0.7853415429592132,,,,,,,,,,,,,1.6898933205374513e+18,34.548451171875,-4.2315834045410154,53.25764770507813,-16.88073272705078,1.6898933205406577e+18,34.55165776367188,23.43141784667969,69.72144470214843,62.47545776367187,1.6898933205374513e+18,34.548451171875,-1.3792412730708004,0.6707336414673083,-0.0608110679594564,-2.0837805452040383,-0.6139294320034085,0.4114239392705393,-1.0629952887718404
4.6,1.6898933205875656e+18,34.59856533203125,-3.1027421436995266,-2.9694395886689424,7.402478383780121,1.689893320592577e+18,34.603576855468745,-0.0821990966796875,0.5833709716796875,0.3337188720703125,1.6898933205875656e+18,34.59856533203125,2.111931509581953,8.651449218731521,-4.102640076601207,1.6898933205875656e+18,34.59856533203125,0.3864471055567264,-0.5133017137646675,1.4374209642410278,1.689893320592577e+18,34.603576855468745,0.5146747834980487,-0.3543327838182449,1.47565815448761,,,,,,,,,,,,,1.6898933205875656e+18,34.59856533203125,-5.9878898620605465,52.66768188476563,-18.139778900146485,1.6898933205926597e+18,34.6036595703125,20.68104248046875,69.22178344726562,61.61441345214844,1.6898933205875656e+18,34.59856533203125,-1.25815514908233,0.6474951687674657,-0.0922640164225137,-2.0455750489486357,-0.6194310158294266,0.4340339395293308,-1.0807121201240537
4.65,1.6898933206376794e+18,34.64867944335937,5.331719836229235,1.1461992610716818,0.4680993915951248,1.6898933206426906e+18,34.65369077148437,0.7652130126953125,1.0809478759765625,-0.4102630615234375,1.6898933206376794e+18,34.64867944335937,1.4995059185081718,8.957031651249526,-3.692969259290397,1.6898933206376794e+18,34.64867944335937,1.1470353603363037,0.0263726033270359,1.1083720743656158,1.6898933206426906e+18,34.65369077148437,1.070576304197311,0.0496711522340774,0.9642527639865875,,,,,,,,,,,,,1.6898933206376794e+18,34.64867944335937,-9.855884552001951,52.68526611328125,-16.584147644042968,1.6898933206394616e+18,34.650461669921874,17.294696807861328,69.34344863891602,63.63475799560547,1.6898933206376794e+18,34.64867944335937,-1.1418808546830737,0.6320952582083785,-0.1267757091279954,-1.955516900733304,-0.6382419240299384,0.4205632158841589,-1.1520409721161224
4.7,1.6898933206877934e+18,34.698793359374996,8.2363880574584,5.4788398749840255,-11.936596795709132,1.6898933206928049e+18,34.70380483398438,0.910894775390625,1.4498291015625,-1.560015869140625,1.6898933206877934e+18,34.698793359374996,1.1424482818142323,9.080539372974634,-3.519741053489148,1.6898933206877934e+18,34.698793359374996,-0.3969473272562027,1.2440727949142456,0.280345107614994,1.6898933206928049e+18,34.70380483398438,-0.5193810179363936,1.238894534111023,0.2826907068490981,,,,,,,,,,,,,1.6898933206877934e+18,34.698793359374996,-11.822473907470703,52.7134521484375,-14.810850524902344,1.6898933206862615e+18,34.697261572265624,15.807162475585937,69.28755187988281,64.94712524414062,1.6898933206877934e+18,34.698793359374996,-1.0839199639044517,0.6271840181795072,-0.135081438810513,-1.885018420406351,-0.6507156800187879,0.4060381016659518,-1.1835884927257918
4.75,1.6898933207379077e+18,34.748907470703124,-1.9057496839797496,-2.6368994742161034,-1.3215751172000167,1.689893320742919e+18,34.75391870117188,-0.1758758544921875,0.6316192626953125,-0.4741668701171875,1.6898933207379077e+18,34.748907470703124,0.8868671669142693,8.952383766991497,-3.9017646283918617,1.6898933207379077e+18,34.748907470703124,-0.7321803107857704,-0.2137422755360603,0.5904190137982368,1.689893320742919e+18,34.75391870117188,-0.5950106233358383,-0.228648680448532,0.7188150316476822,,,,,,,,,,,,,1.6898933207379077e+18,34.748907470703124,-13.323515701293946,51.51597137451172,-16.081451416015625,1.6898933207382625e+18,34.7492625,14.295166015625,68.01812133789062,63.46470642089844,1.6898933207379077e+18,34.748907470703124,-1.0051712748401769,0.6131889938243387,-0.1206167368064962,-1.7946864564292238,-0.6634964946616658,0.4112780004820872,-1.1504104274499998
4.8,1.6898933207880212e+18,34.79902124023438,2.0950274580192563,5.855974333444833,6.461076712797582,1.6898933207930327e+18,34.80403276367188,0.354705810546875,1.591131591796875,0.2509490966796875,1.6898933207880212e+18,34.79902124023438,0.5400909341598302,9.032817719952464,-3.773944245712459,1.6898933207880212e+18,34.79902124023438,1.077153468132019,-1.0556380063295363,0.3943803668022155,1.6898933207930327e+18,34.80403276367188,1.0689223885536194,-1.303651724755764,0.1901211023330689,,,,,,,,,,,,,1.6898933207880212e+18,34.79902124023438,-15.52605686187744,50.63281097412109,-15.64135513305664,1.6898933207902638e+18,34.801263720703126,12.15615234375,67.24906005859376,64.20382995605469,1.6898933207880212e+18,34.79902124023438,-0.8879384096479965,0.5974422836150207,-0.1426551548254409,-1.7129608211747929,-0.6722641965135467,0.4130166883405709,-1.1712856493538832
4.85,1.6898933208381353e+18,34.849135302734375,-2.4746999105250835,2.5742982319700713,3.512540503686666,1.6898933208431468e+18,34.85414658203125,-0.2345977783203125,1.1113922119140625,0.037188720703125,1.6898933208381353e+18,34.849135302734375,0.7782283522754907,9.167345082150698,-3.3933989266687634,1.6898933208381353e+18,34.849135302734375,0.5740611553192139,0.4415443360805513,0.0816079825162887,1.6898933208431468e+18,34.85414658203125,0.6473473966121673,0.916702437400818,0.1166816636919975,,,,,,,,,,,,,1.6898933208381353e+18,34.849135302734375,-14.439100074768067,50.860539245605466,-14.671533203125,1.689893320842264e+18,34.8532642578125,13.440679931640624,67.49987182617187,65.54984436035156,1.6898933208381353e+18,34.849135302734375,-0.9121180673078092,0.6012444297580763,-0.1727865743571046,-1.795935796787789,-0.6560896529738701,0.422071476116148,-1.2078124935756986
4.9,1.689893320888249e+18,34.89924921875,-4.4887904929494855,-5.143733358722328,4.765091535212397,1.6898933208932603e+18,34.904260693359376,-0.4148895263671875,0.4459747314453125,0.1713836669921875,1.689893320888249e+18,34.89924921875,0.491431415765658,9.30515511928141,-3.052339639482498,1.689893320888249e+18,34.89924921875,1.0493993163108826,2.492156434059143,-0.0372061431407928,1.6898933208932603e+18,34.904260693359376,1.0926722168922425,2.402969741821289,0.0324894949793815,,,,,,,,,,,,,1.689893320888249e+18,34.89924921875,-14.68860321044922,51.236018371582034,-11.328143310546874,1.689893320889064e+18,34.90006378173828,12.98343276977539,67.99384689331055,69.21256256103516,1.689893320888249e+18,34.89924921875,-0.941657574921752,0.6181807354997992,-0.1578995958801461,-1.7292325398909116,-0.6707681345381831,0.3776130914835584,-1.249896031176027
4.95,1.6898933209383634e+18,34.949363232421874,-5.1315466618442525,3.5437419314450027,0.5870575164179505,1.6898933209433748e+18,34.95437465820312,-0.499615478515625,1.3405181884765625,-0.21666259765625,1.6898933209383634e+18,34.949363232421874,0.2853235321824997,9.492447038652896,-2.4341541989338396,1.6898933209383634e+18,34.949363232421874,1.576396369934082,-1.4519994914531709,0.1597473692148923,1.6898933209433748e+18,34.95437465820312,1.5465357542037963,-1.8983004808425905,0.2398820981383324,,,,,,,,,,,,,1.6898933209383634e+18,34.949363232421874,-14.990895080566409,51.872850036621095,-6.781349182128906,1.689893320935866e+18,34.94686586914062,12.782696533203126,68.54801330566406,73.22731018066406,1.6898933209383634e+18,34.949363232421874,-0.9503412196868102,0.6316684569605556,-0.1673069558478515,-1.690228771870713,-0.6761596801104719,0.3398902504598149,-1.3180058536804498
5.0,1.6898933209884772e+18,34.9994771484375,-2.7509112798235935,-1.431349146413803,-2.0870927194972335,1.6898933209934886e+18,35.00448872070312,-0.2460845947265625,0.8209686279296875,-0.3936614990234375,1.6898933209884772e+18,34.9994771484375,0.0763186676958249,9.632746437607404,-1.8220101720543205,1.6898933209884772e+18,34.9994771484375,0.7330850780010223,-1.8540403485298156,1.8419283390045167,1.6898933209934886e+18,35.00448872070312,0.6498313844203949,-1.5238905489444732,1.9552876472473144,1.6898933210002483e+18,35.011248291015626,65.46107055991888,1.8998680016166456,116.969687100709,49.189597994138225,84.87107040733099,356.55040311946186,4.9526784171211125,3.048854461821939,-122.84772939598288,0.8103880387938597,1.6898933209884772e+18,34.9994771484375,-16.036377906799316,51.70995025634765,-4.928733825683594,1.6898933209878676e+18,34.99886762695313,11.465960693359374,68.25027160644531,74.84571228027343,1.6898933209884772e+18,34.9994771484375,-0.7427522988105778,0.6142869375460309,-0.2335613918283454,-1.6062893807204035,-0.6642875430661815,0.355571792141018,-1.3825345629574222
5.05,1.6898933210385915e+18,35.049591357421875,1.9218524437099695,-0.9665812957811356,-1.504574103230983,1.6898933210436027e+18,35.05460258789063,0.122015380859375,0.8871429443359375,-0.317425537109375,1.6898933210385915e+18,35.049591357421875,-0.8237816409761084,9.634249477194547,-1.6181530484595892,1.6898933210385915e+18,35.049591357421875,0.1503157520666718,0.3923459023237228,1.586146593093872,1.6898933210436027e+18,35.05460258789063,0.1160437282174825,0.434550541639328,1.4278964161872865,,,,,,,,,,,,,1.6898933210385915e+18,35.049591357421875,-20.759970474243165,50.019091796875,-4.119932556152344,1.6898933210398702e+18,35.0508701171875,6.642236328125,66.48938903808593,75.65755615234374,1.6898933210385915e+18,35.049591357421875,-0.2091654416971415,0.582260668600763,-0.264987986430204,-1.1050216025712816,-0.6868171667507481,0.3448080116758991,-1.3831760350282352
5.1,1.689893321088705e+18,35.09970522460937,1.03323102431342,-0.8499074532771109,-1.008620256217867,1.6898933210937167e+18,35.10471669921875,-0.0472015380859375,0.89832763671875,-0.26051025390625,1.689893321088705e+18,35.09970522460937,-1.3396288210283964,9.587066870259047,-1.5655356154459714,1.689893321088705e+18,35.09970522460937,-0.0819191925227641,1.6471218168735504,0.5497645616531373,1.6898933210937167e+18,35.10471669921875,-0.0862092912197112,1.884379184246063,0.5365211248397828,,,,,,,,,,,,,1.689893321088705e+18,35.09970522460937,-22.99492073059082,49.04359588623047,-3.2477996826171873,1.6898933210918735e+18,35.102873681640624,4.541836547851562,65.59106750488282,76.750146484375,1.689893321088705e+18,35.09970522460937,-0.0045653768722406,0.5712902360638974,-0.2616248446636233,-0.8643034975105193,-0.7069498768999715,0.3244062584435753,-1.3588615841912492
5.15,1.689893321138819e+18,35.14981928710937,-0.5572291890306771,0.5206855526876449,-0.2738943610604106,1.6898933211438305e+18,35.154830615234374,-0.2478668212890625,1.0208648681640624,-0.153607177734375,1.689893321138819e+18,35.14981928710937,-1.8221881881958248,9.5277186092335,-1.42796406324625,1.689893321138819e+18,35.14981928710937,0.0184770211577415,2.0928507804870606,0.9811349272727966,1.6898933211438305e+18,35.154830615234374,0.0788133226335048,1.975150966644287,1.080175948143005,,,,,,,,,,,,,1.689893321138819e+18,35.14981928710937,-24.585838317871097,48.41663208007813,-1.1846221923828124,1.6898933211386765e+18,35.14967657470703,2.7545814514160156,64.83702850341797,79.00864028930664,1.689893321138819e+18,35.14981928710937,0.0833534860065026,0.5724632528518152,-0.2333830183858885,-0.6675692731956734,-0.7337091910312894,0.2814711335614588,-1.3319706450834328
5.2,1.689893321188933e+18,35.199933300781254,1.4344957738764583,-0.0235962134516239,2.727024011003524,1.6898933211939446e+18,35.204944677734375,-0.098175048828125,0.9632049560546876,0.165380859375,1.689893321188933e+18,35.199933300781254,-2.5247553548701105,9.412098776600956,-1.0731991552124174,1.689893321188933e+18,35.199933300781254,0.8934982061386109,0.6455465041100978,1.3179854154586792,1.6898933211939446e+18,35.204944677734375,0.9644628286361694,0.4832452833652496,1.2830106019973757,,,,,,,,,,,,,1.689893321188933e+18,35.199933300781254,-27.43309555053711,46.75468444824219,1.5531341552734377,1.689893321185479e+18,35.19647866210938,0.075555419921875,63.224334716796875,81.491259765625,1.689893321188933e+18,35.199933300781254,0.2822259795588254,0.5592559006160387,-0.2300054895665509,-0.4050738433454303,-0.7587996112508805,0.2416630931027436,-1.2864239419304058
5.25,1.6898933212390474e+18,35.25004731445313,3.5591536693972343,1.453406196825504,-2.1296014309506117,1.6898933212390472e+18,35.250047241210936,0.032684326171875,1.0899543762207031,-0.2544326782226562,1.6898933212390474e+18,35.25004731445313,-3.1155678983595965,9.277554930885431,-0.5879370830379799,1.6898933212390474e+18,35.25004731445313,1.030090594291687,-0.5336213022470474,1.2821778297424316,1.6898933212390472e+18,35.250047241210936,1.0519338995218277,-0.5356710702180862,1.325102686882019,,,,,,,,,,,,,1.6898933212390474e+18,35.25004731445313,-30.407564544677733,44.5010383605957,3.8949462890625,1.689893321237479e+18,35.248479052734375,-2.905133056640625,60.924868774414065,83.74197082519531,1.6898933212390474e+18,35.25004731445313,0.5112300175466638,0.5409185672315063,-0.2579951802486658,-0.188609901120682,-0.769535586541495,0.2202285689447972,-1.241173537561907
5.3,1.6898933212891612e+18,35.30016123046875,4.736969018055797,1.0418536866474153,-5.299652117804288,1.6898933212841498e+18,35.295149853515625,0.1433380126953125,1.054010009765625,-0.5554107666015625,1.6898933212891612e+18,35.30016123046875,-3.476661205697357,9.163430539055463,-0.3325575989638641,1.6898933212891612e+18,35.30016123046875,0.3060334339737892,0.2725686460733413,-0.0044773489236831,1.6898933212841498e+18,35.295149853515625,0.3812964916229248,0.1085941195487975,0.1792590230703353,,,,,,,,,,,,,1.6898933212891612e+18,35.30016123046875,-32.44266052246094,42.88262252807617,5.041056823730469,1.68989332128948e+18,35.30047993164062,-4.75086669921875,59.45817565917969,84.83475646972656,1.6898933212891612e+18,35.30016123046875,0.6297713603204362,0.5267166667224294,-0.2804392885230496,-0.0953255939777121,-0.7736992488498251,0.212827093171573,-1.2066133210008665
5.35,1.6898933213392753e+18,35.3502751953125,1.554693318914175,1.7062777312797306,-5.023936415761709,1.6898933213342638e+18,35.34526396484375,-0.157696533203125,1.07900390625,-0.5788726806640625,1.6898933213392753e+18,35.3502751953125,-3.2997371264398097,9.2312436122787,-0.2507290717589109,1.6898933213392753e+18,35.3502751953125,-0.3227429270744323,0.2683319307863712,-0.3947153866291046,1.6898933213342638e+18,35.34526396484375,-0.2706511475145817,0.3973159357905388,-0.4314596951007843,,,,,,,,,,,,,1.6898933213392753e+18,35.3502751953125,-31.69934959411621,43.485842895507815,6.019709777832031,1.689893321341479e+18,35.352479003906254,-3.8808441162109375,60.16775817871094,85.73695373535156,1.6898933213392753e+18,35.3502751953125,0.6255794246362776,0.5376897041765832,-0.2722609047912694,-0.0759547927963235,-0.7707832715433133,0.2065058136394673,-1.226565558233201
5.4,1.6898933213893893e+18,35.400389306640626,8.735296662623881,2.4739773245650527,-3.2604325301769372,1.689893321384378e+18,35.39537783203125,0.4574188232421875,1.2409759521484376,-0.3859405517578125,1.6898933213893893e+18,35.400389306640626,-2.9150521649211645,9.34323344707191,-0.5347660858752578,1.6898933213893893e+18,35.400389306640626,-0.932031273841858,-0.0331282798200845,-1.970647406578064,1.689893321384378e+18,35.39537783203125,-0.852685010433197,-0.0572169996798038,-1.638923305273056,,,,,,,,,,,,,1.6898933213893893e+18,35.400389306640626,-30.49202499389649,44.55921478271485,5.167916870117187,1.6898933213882793e+18,35.39927935791015,-2.21786117553711,61.5859260559082,84.58137130737305,1.6898933213893893e+18,35.400389306640626,0.5166603612669063,0.5494165291183742,-0.2588286184445803,-0.1861811618354665,-0.7625844558732797,0.2222002244845392,-1.2631470379220662
5.45,1.689893321439503e+18,35.45050322265625,1.6383778857819735,3.687094755846858,-1.1962814472931622,1.689893321434492e+18,35.44549189453125,0.2169708251953125,1.269671630859375,-0.2827178955078125,1.689893321439503e+18,35.45050322265625,-1.4545330819635836,9.610151977770329,-1.1932514027214052,1.689893321439503e+18,35.45050322265625,-1.696649384498596,-0.6385024607181549,-3.304069375991822,1.689893321434492e+18,35.44549189453125,-1.6510961055755615,-0.5884980350732804,-3.3684492111206055,,,,,,,,,,,,,1.689893321439503e+18,35.45050322265625,-24.20355072021484,48.795562744140625,2.218246459960937,1.6898933214350802e+18,35.446080078125,4.171133422851563,65.79512329101563,81.59952697753906,1.689893321439503e+18,35.45050322265625,-0.0035949867551681,0.5954749745765134,-0.2214628207970193,-0.7112937974346745,-0.7244482363827173,0.2661180064349251,-1.3713165535641334
5.5,1.6898933214896174e+18,35.50061733398437,-5.623420312258601,6.201988028168082,3.5621117593243716,1.689893321484606e+18,35.495605859375004,-0.6051300048828125,1.65789794921875,0.13587646484375,1.6898933214896174e+18,35.50061733398437,-0.0530222390817431,9.596900515818,-1.9836743136943873,1.6898933214896174e+18,35.50061733398437,-1.3653590202331545,1.08093775883317,-2.5324729442596436,1.689893321484606e+18,35.495605859375004,-1.4093232154846191,0.8788441479206085,-2.623643922805786,,,,,,,,,,,,,1.6898933214896174e+18,35.50061733398437,-16.904226303100586,52.1984146118164,-1.801849365234375,1.6898933214870815e+18,35.49808168945312,11.38924560546875,69.00378723144532,77.67100524902344,1.6898933214896174e+18,35.50061733398437,-0.8323171176726503,0.6345426325783992,-0.1737762715427367,-1.5306526360780752,-0.6871403839347282,0.3074432167631964,-1.3643427055328896
5.55,1.6898933215397312e+18,35.55073120117187,-0.1438803407942503,1.6818416767770052,0.7220700902368128,1.6898933215347195e+18,35.54571982421875,-0.00174560546875,1.1418914794921875,-0.1493194580078125,1.6898933215397312e+18,35.55073120117187,0.8268563868593797,9.398193468462823,-2.657931623946428,1.6898933215397312e+18,35.55073120117187,-1.3679977655410769,1.7486476182937625,-2.141270971298218,1.6898933215347195e+18,35.54571982421875,-1.3573675155639648,1.76167950630188,-2.1395483016967773,,,,,,,,,,,,,1.6898933215397312e+18,35.55073120117187,-11.171690559387208,53.536451721191405,-3.760630798339844,1.689893321539083e+18,35.550083007812496,16.99211730957031,70.23727722167969,75.7728271484375,1.6898933215397312e+18,35.55073120117187,-1.2564902879511748,0.6670058726273652,-0.1090536074815686,-1.8673576893795805,-0.6674908245948263,0.3117543836420282,-1.2824520331960758
5.6,1.6898933215898452e+18,35.6008453125,-3.08252876300618,0.1692996341806649,0.8672356631490589,1.6898933215848338e+18,35.59583383789062,-0.2159942626953125,1.0090301513671875,-0.2259857177734375,1.6898933215898452e+18,35.6008453125,1.4798200980463625,9.085996235527992,-3.3724982943636177,1.6898933215898452e+18,35.6008453125,-1.2495967149734497,0.4091255903244017,-1.149349480867386,1.6898933215848338e+18,35.59583383789062,-1.291346836090088,0.8937446475028992,-1.3958563089370728,,,,,,,,,,,,,1.6898933215898452e+18,35.6008453125,-6.657358551025391,54.26722412109375,-6.311875915527343,1.6898933215910825e+18,35.60208247070313,21.37041320800781,70.90884704589844,73.18316955566407,1.6898933215898452e+18,35.6008453125,-1.4556850148407388,0.6901157501916763,-0.0473441510141694,-1.9837525613910891,-0.6497167938417447,0.3148937281855487,-1.185680976687869
5.65,1.689893321639959e+18,35.6509591796875,-4.225902182228267,-1.8749062174266575,0.5241154686841369,1.6898933216349478e+18,35.645947900390624,-0.105389404296875,0.725201416015625,-0.37064208984375,1.689893321639959e+18,35.6509591796875,1.9994143191398677,8.812524162306785,-3.803752699355482,1.689893321639959e+18,35.6509591796875,-1.217095685005188,-1.6318463563919068,-0.5617499828338623,1.6898933216349478e+18,35.645947900390624,-1.2026204824447633,-1.6546066761016849,-0.5916191041469574,,,,,,,,,,,,,1.689893321639959e+18,35.6509591796875,-4.341083526611328,54.16827239990234,-9.113653564453124,1.6898933216430817e+18,35.654081591796874,23.715164184570312,70.70198059082031,70.06225891113282,1.689893321639959e+18,35.6509591796875,-1.4721187008979426,0.6904133528112789,-0.041467812428193,-2.0539326608275426,-0.6295204316786225,0.3536852819791579,-1.117009115221974
5.7,1.689893321690073e+18,35.701073291015625,-5.434698067823052,-2.907968110331297,4.615266767543554,1.689893321685062e+18,35.69606186523438,-0.3066741943359375,0.5984375,-0.0114532470703125,1.689893321690073e+18,35.701073291015625,2.4390127741070087,8.552626791642904,-4.130440463744401,1.689893321690073e+18,35.701073291015625,-1.036549150943756,-1.9981006145477296,0.2689977429807186,1.689893321685062e+18,35.69606186523438,-1.0936184048652648,-1.9656090974807736,0.1692017562687397,,,,,,,,,,,,,1.689893321690073e+18,35.701073291015625,-3.038047027587891,53.583770751953125,-11.952308654785156,1.689893321689882e+18,35.700882019042965,24.854217529296875,70.07171630859375,67.19220733642578,1.689893321690073e+18,35.701073291015625,-1.426838451725391,0.6797570334340189,-0.0518106766630842,-2.1040165383312743,-0.6106604539320323,0.4025774557894081,-1.059637282639876
5.75,1.6898933217401871e+18,35.7511873046875,-5.45174798682332,-3.7083660919344426,7.269888828550577,1.6898933217351757e+18,35.74617587890625,-0.305511474609375,0.4969970703125,0.29769287109375,1.6898933217401871e+18,35.7511873046875,2.503318599087745,8.520112761529088,-4.159940465186239,1.6898933217401871e+18,35.7511873046875,-0.1119897365570068,-1.4792843222618104,1.1852438688278195,1.6898933217351757e+18,35.74617587890625,-0.2213056482374668,-1.585612177848816,1.103953778743744,,,,,,,,,,,,,1.6898933217401871e+18,35.7511873046875,-3.7022876739501953,53.124122619628906,-14.038999938964844,1.689893321736682e+18,35.7476818359375,23.914340209960937,69.72007446289062,65.58070373535156,1.6898933217401871e+18,35.7511873046875,-1.3290190835599982,0.6587837969714982,-0.081919067300425,-2.112437158443538,-0.6046035678064137,0.4399464888297677,-1.0528440804770858
5.8,1.6898933217903017e+18,35.80130180664062,-2.3503365948839483,-2.8398459419327975,7.0300775589385625,1.6898933217852902e+18,35.796290234375,-0.124468994140625,0.5485931396484375,0.362744140625,1.6898933217903017e+18,35.80130180664062,1.9739981091064216,8.796800289665459,-3.8468967861029504,1.6898933217903017e+18,35.80130180664062,1.2450828671455385,0.3282088957726955,1.67785747051239,1.6898933217852902e+18,35.796290234375,1.1019233822822572,0.2123508691787719,1.6877210140228271,,,,,,,,,,,,,1.6898933217903017e+18,35.80130180664062,-7.142146301269531,53.19866027832031,-13.148699951171874,1.689893321788683e+18,35.79968310546875,20.251663208007812,69.84523315429688,66.75699157714844,1.6898933217903017e+18,35.80130180664062,-1.2141052112489985,0.6398954461083091,-0.1175115298046727,-2.0430421172467086,-0.6208054079271453,0.4371324727292361,-1.113733186940132
5.85,1.689893321840416e+18,35.85141591796875,10.447496418976783,7.204976269848347,-8.40493757469803,1.6898933218354043e+18,35.846404443359376,1.1214630126953125,1.4804595947265624,-0.8642608642578125,1.689893321840416e+18,35.85141591796875,1.420471457081586,9.164210408160686,-3.184195502836108,1.689893321840416e+18,35.85141591796875,0.963773825764656,-0.195962917804718,0.6635326743125916,1.6898933218354043e+18,35.846404443359376,1.1865563482046126,-0.3190260350704193,0.7498903274536133,,,,,,,,,,,,,1.689893321840416e+18,35.85141591796875,-10.523342895507811,53.79239959716797,-9.499058532714844,1.689893321840685e+18,35.851684960937504,17.06083984375,70.44987487792969,70.45086364746093,1.689893321840416e+18,35.85141591796875,-1.154404844528187,0.6357275986863632,-0.1545489591006839,-1.990643658221688,-0.6352954989233729,0.4102016124887494,-1.2072282370795029
5.9,1.6898933218905298e+18,35.90152983398438,5.345955165426284,0.5511641606771945,-8.245663426160515,1.6898933218855186e+18,35.896518505859376,0.7533294677734375,1.20206298828125,-1.39652099609375,1.6898933218905298e+18,35.90152983398438,1.1166533308223634,9.158640499073863,-3.3187495192325116,1.6898933218905298e+18,35.90152983398438,-0.9718312680721284,0.9526392698287964,0.2037693209946155,1.6898933218855186e+18,35.896518505859376,-0.8897423863410949,1.169898347556591,0.2169989485293627,,,,,,,,,,,,,1.6898933218905298e+18,35.90152983398438,-11.886300277709962,53.71937866210938,-9.204499816894533,1.6898933218926884e+18,35.903688330078126,15.7811767578125,70.30897827148438,70.38004150390626,1.6898933218905298e+18,35.90152983398438,-1.096670299923732,0.6308259296129867,-0.1426334778321713,-1.8963798964772216,-0.6500963797956002,0.3987234034337377,-1.205469045067293
5.95,1.6898933219406438e+18,35.9516439453125,-4.870446345131397,1.7021698283433913,3.585118131737113,1.6898933219356324e+18,35.946632421875,-0.3770416259765625,0.9929229736328123,-0.1271484375,1.6898933219406438e+18,35.9516439453125,0.8581837863914668,9.0587188201195,-3.654669514608085,1.6898933219406438e+18,35.9516439453125,0.0624004423618316,-0.0755472928285598,0.8229001939296723,1.6898933219356324e+18,35.946632421875,-0.1379724979400634,-0.0586632058024406,0.8540179133415222,,,,,,,,,,,,,1.6898933219406438e+18,35.9516439453125,-13.031300735473632,53.18209381103516,-10.72698974609375,1.689893321939492e+18,35.950492126464844,14.27490234375,69.6418342590332,68.78557205200195,1.6898933219406438e+18,35.9516439453125,-1.000298306554111,0.6153286145531337,-0.134300483279547,-1.801099453791073,-0.6619528539259272,0.4063287781599431,-1.177756712217266
6.0,1.689893321990758e+18,36.001757763671876,2.526383336011171,5.3922714816951745,2.097574804414511,1.6898933219857464e+18,35.99674653320312,0.4083038330078125,1.5373077392578125,-0.11683349609375,1.689893321990758e+18,36.001757763671876,0.9293474998299032,9.137390322678684,-3.4351254893815515,1.689893321990758e+18,36.001757763671876,0.2964715957641601,-1.3170168831944469,-0.1553657323122024,1.6898933219857464e+18,35.99674653320312,0.3473190814256668,-1.3782573640346527,-0.1791340738534927,1.6898933220002516e+18,36.011251708984375,65.73857498634607,1.9563501825467196,97.98867448045291,49.18961450412292,85.14857483375818,312.969823052654,4.953871623456655,3.046915320631633,-122.84773621820148,0.96803039998543,1.689893321990758e+18,36.001757763671876,-13.77186107635498,53.22896423339843,-10.31625518798828,1.689893321986294e+18,35.99729404296875,14.063406372070313,69.8689453125,69.42027587890625,1.689893321990758e+18,36.001757763671876,-0.991320347307384,0.6134510811572851,-0.155618796481298,-1.8351898256292671,-0.6544541269108226,0.4135416893163709,-1.1992253014563443
6.05,1.689893322040872e+18,36.051871875,-4.062231201584339,-4.295420247351527,5.555060477259755,1.6898933220358602e+18,36.04686025390625,-0.3180419921875,0.5849945068359375,0.2192138671875,1.689893322040872e+18,36.051871875,0.8263176549532265,9.233999399179815,-3.193689132011831,1.689893322040872e+18,36.051871875,0.9049362301826476,1.748723828792572,0.1180763209238648,1.6898933220358602e+18,36.04686025390625,0.8482949376106262,1.5115753769874574,0.1535323512740433,,,,,,,,,,,,,1.689893322040872e+18,36.051871875,-13.322539520263671,53.17941131591797,-8.956388854980469,1.6898933220382945e+18,36.049294287109376,14.4108154296875,69.8028350830078,70.97510986328125,1.689893322040872e+18,36.051871875,-0.9890318335035676,0.6171591404031277,-0.1631171935747912,-1.823267389373044,-0.6566819182912111,0.4013243712763084,-1.2276196688473713
6.1,1.689893322090986e+18,36.10198588867188,-4.33313956179738,0.2919866871726512,3.5218505053107436,1.6898933220859745e+18,36.096974316406246,-0.3952545166015625,0.86376953125,0.14501953125,1.689893322090986e+18,36.10198588867188,0.4890396471778676,9.40704418201208,-2.7186854555340108,1.689893322090986e+18,36.10198588867188,1.510778796672821,1.259205687046051,-0.0016951993107795,1.6898933220859745e+18,36.096974316406246,1.4288222908973691,1.6331728830933572,0.0340887822210788,,,,,,,,,,,,,1.689893322090986e+18,36.10198588867188,-13.523387908935549,53.57053833007812,-4.669120788574219,1.689893322090296e+18,36.101296240234376,14.226589965820311,70.23023681640625,75.41933898925781,1.689893322090986e+18,36.10198588867188,-1.0188121839801088,0.6350326205798538,-0.1507443728328417,-1.7482814814073255,-0.6725520547313193,0.3484910278343111,-1.2851543267935992
6.15,1.6898933221410995e+18,36.15209970703125,-4.520801015907526,0.8217675173681973,-2.4369388027641175,1.689893322136088e+18,36.14708823242188,-0.43643798828125,1.1370361328125,-0.404364013671875,1.6898933221410995e+18,36.15209970703125,0.4944424852955714,9.596989830762745,-1.9445399594318864,1.6898933221410995e+18,36.15209970703125,1.2420423030853271,-2.8211161613464357,0.8828737020492554,1.689893322136088e+18,36.14708823242188,1.3522831559181214,-2.660047745704651,0.6676943767815828,,,,,,,,,,,,,1.6898933221410995e+18,36.15209970703125,-13.260252380371094,53.9431640625,-0.8266204833984375,1.689893322142296e+18,36.15329604492187,14.413473510742188,70.557421875,79.06636047363281,1.6898933221410995e+18,36.15209970703125,-1.0404146542083563,0.6403340903849056,-0.1952186284364161,-1.8200932261306615,-0.6604485656794499,0.3392641639446736,-1.364633276944718
6.2,1.6898933221912138e+18,36.202213867187496,0.3489760553134419,-1.375063195568323,-2.163602952369302,1.6898933221862024e+18,36.19720234374999,-0.050018310546875,0.8227630615234375,-0.40029296875,1.6898933221912138e+18,36.202213867187496,-0.2227119114763219,9.676717447472214,-1.5411248707410692,1.6898933221912138e+18,36.202213867187496,0.4174365997314453,-0.4912494465708733,2.2836352586746216,1.6898933221862024e+18,36.19720234374999,0.4574456393718719,-0.7556565642356873,2.3085283279418944,,,,,,,,,,,,,1.6898933221912138e+18,36.202213867187496,-17.44310646057129,52.73255615234375,-0.0197998046875,1.6898933221890967e+18,36.2000966796875,9.939189910888672,69.25557327270508,79.72734451293945,1.6898933221912138e+18,36.202213867187496,-0.5432253948996636,0.6061187751734248,-0.2541734613476843,-1.426103698432846,-0.6682708648918255,0.3480272830574314,-1.4078686016360202
6.25,1.6898933222413276e+18,36.252327734375,2.3313131838536263,-1.5549936462610958,-1.708785388638675,1.6898933222363162e+18,36.2473162109375,0.157891845703125,0.859808349609375,-0.3350067138671875,1.6898933222413276e+18,36.252327734375,-1.0201584845115244,9.647395374493598,-1.4281276124709843,1.6898933222413276e+18,36.252327734375,0.0548144180327654,-0.0972285185009241,1.021745002269745,1.6898933222363162e+18,36.2473162109375,0.0962676778435707,-0.1580445373430848,1.118978750705719,,,,,,,,,,,,,1.6898933222413276e+18,36.252327734375,-21.48928756713867,51.46778869628906,0.52374267578125,1.6898933222358984e+18,36.246898291015626,5.994375610351563,67.98857421875,80.24999694824218,1.6898933222413276e+18,36.252327734375,-0.0580094906432975,0.5791983397297435,-0.2741620215688122,-0.9531614708903609,-0.6905246691924434,0.3353916410733834,-1.390496006487774
6.3,1.6898933222914417e+18,36.302441699218754,-0.1428532919949292,-0.325933848055601,-0.4693189672918617,1.6898933222864302e+18,36.2974302734375,-0.099481201171875,0.8980560302734375,-0.19945068359375,1.6898933222914417e+18,36.302441699218754,-1.393176739825159,9.60873275862217,-1.3758025865326822,1.6898933222914417e+18,36.302441699218754,-0.0189983583986758,2.2293633937835695,0.3602932274341583,1.6898933222864302e+18,36.2974302734375,-0.0341590894386172,2.06078929901123,0.3557793021202087,,,,,,,,,,,,,1.6898933222914417e+18,36.302441699218754,-23.27307891845703,50.81307830810547,1.4780471801757813,1.6898933222878991e+18,36.298898925781245,4.386920166015625,67.4095703125,81.34269104003906,1.6898933222914417e+18,36.302441699218754,0.0624040527905579,0.5754886284947196,-0.262642058470555,-0.7797923578510055,-0.708462118014155,0.3124312779194421,-1.3695723160687212
6.35,1.6898933223415557e+18,36.35255561523438,-0.7597999553027749,0.168605806697607,1.934395143644959,1.6898933223365445e+18,36.34754428710937,-0.31412353515625,1.0111846923828125,0.0373809814453125,1.6898933223415557e+18,36.35255561523438,-1.9384653156933187,9.548771100325585,-1.0816701487290858,1.6898933223415557e+18,36.35255561523438,0.6558803439140319,1.1825391428545118,1.4244142770767212,1.6898933223365445e+18,36.34754428710937,0.5702361047267914,1.4565378844738006,1.349950110912323,,,,,,,,,,,,,1.6898933223415557e+18,36.35255561523438,-24.996715545654297,49.89730072021485,4.38131103515625,1.6898933223398994e+18,36.35089951171875,2.54364013671875,66.39752502441407,84.32903137207032,1.6898933223415557e+18,36.35255561523438,0.2251099241823776,0.5750783193353974,-0.2427076085910434,-0.5146112129156135,-0.7347580602805056,0.2651283157113605,-1.3413624706767944
6.4,1.6898933223916698e+18,36.40266967773437,2.699796542990506,0.6081487320852279,-0.0337623350614308,1.6898933223866583e+18,36.39765830078125,-0.01353759765625,1.00723876953125,0.0106201171875,1.6898933223916698e+18,36.40266967773437,-2.6483511640439925,9.418588372429012,-0.6296109949415549,1.6898933223916698e+18,36.40266967773437,1.1572943329811096,-0.9901484847068788,1.465696382522583,1.6898933223866583e+18,36.39765830078125,1.1720388650894165,-0.8972008883953094,1.4640520811080933,,,,,,,,,,,,,1.6898933223916698e+18,36.40266967773437,-28.726779174804687,47.741555786132814,6.422883605957031,1.6898933223919014e+18,36.40290126953125,-1.293096923828125,64.16132202148438,86.22892456054687,1.6898933223916698e+18,36.40266967773437,0.5149787490505232,0.553127927068482,-0.2710496051113349,-0.2366487190666404,-0.7492607493882357,0.2428142867590187,-1.288978326742809
6.45,1.6898933224417838e+18,36.45278369140625,4.964377785308063,1.938638626433611,-4.345001673670113,1.6898933224367724e+18,36.447772265625,0.148260498046875,1.1414276123046876,-0.4575286865234375,1.6898933224417838e+18,36.45278369140625,-3.211522953318357,9.25871368610203,-0.3466158801337889,1.6898933224417838e+18,36.45278369140625,0.4120755285024643,0.1476714193820953,0.6199647441506386,1.6898933224367724e+18,36.447772265625,0.4771880209445953,-0.0662407040596008,0.816595982015133,,,,,,,,,,,,,1.6898933224417838e+18,36.45278369140625,-31.967110443115235,45.52160110473633,7.225971984863281,1.6898933224387046e+18,36.44970446777344,-4.359134674072266,62.049163818359375,86.83856582641602,1.6898933224417838e+18,36.45278369140625,0.6845778369619271,0.529896725996504,-0.3027459759575054,-0.1080105425668583,-0.7563550475434904,0.2354621087535293,-1.2350531362999688
6.5,1.6898933224918976e+18,36.50289765625,2.627635269882083,1.0495015710520743,-5.333070753994584,1.6898933224868864e+18,36.49788627929688,0.02640380859375,1.0369171142578124,-0.54425048828125,1.6898933224918976e+18,36.50289765625,-3.1336795429202913,9.290935104557873,-0.1450721699675358,1.6898933224918976e+18,36.50289765625,0.0744246346876024,0.3548137210309505,-0.5872763335704804,1.6898933224868864e+18,36.49788627929688,0.1122702416032552,0.5102225035429001,-0.5787326455116272,,,,,,,,,,,,,1.6898933224918976e+18,36.50289765625,-31.675687408447267,45.76820373535156,8.506593322753906,1.6898933224855066e+18,36.49650639648438,-3.8889068603515624,62.42234802246094,88.23743591308593,1.6898933224918976e+18,36.50289765625,0.7171115351220134,0.5393251893565318,-0.2975692319046936,-0.0460869166581079,-0.7557896402940141,0.2221166056252192,-1.245160623838286
6.55,1.6898933225420116e+18,36.55301171875,3.3124225958463547,2.824880077278018,-5.856571714816093,1.6898933225370004e+18,36.54800029296875,-0.073809814453125,1.2532745361328126,-0.6268951416015625,1.6898933225420116e+18,36.55301171875,-2.8434281843337414,9.378725265500544,-0.3071207516544497,1.6898933225420116e+18,36.55301171875,-0.6583414375782013,-0.7049197912216186,-0.972043150663376,1.6898933225370004e+18,36.54800029296875,-0.5723382890224457,-0.6415605008602142,-0.7997314214706421,,,,,,,,,,,,,1.6898933225420116e+18,36.55301171875,-30.48172035217285,46.89134063720703,7.981111145019531,1.6898933225375084e+18,36.54850825195312,-2.6207611083984377,63.606631469726565,87.54497680664062,1.6898933225420116e+18,36.55301171875,0.6653140363082857,0.547309525360444,-0.2929437845116617,-0.1093678928003412,-0.7477576782609858,0.2353838630705274,-1.274512251568637
6.6,1.6898933225921257e+18,36.60312578125,6.684951665287466,2.9921666180706024,-1.5861830328685045,1.6898933225871142e+18,36.59811420898437,0.573358154296875,1.2251373291015626,-0.3470062255859375,1.6898933225921257e+18,36.60312578125,-1.762712399106994,9.590141104685664,-0.91144808786083,1.6898933225921257e+18,36.60312578125,-1.3749253273010251,-1.3572624444961547,-3.1539327621459963,1.6898933225871142e+18,36.59811420898437,-1.306283462047577,-1.31173095703125,-3.0544434070587156,,,,,,,,,,,,,1.6898933225921257e+18,36.60312578125,-26.1186580657959,49.97436065673829,4.306040954589844,1.6898933225895114e+18,36.60051147460938,2.1815399169921874,66.94400024414062,83.62557678222656,1.6898933225921257e+18,36.60312578125,0.3079154748908386,0.5736676431985206,-0.2736715161297948,-0.5072769951485903,-0.7174542222220056,0.2838234576124287,-1.3624615109457274
6.65,1.6898933226422395e+18,36.65323959960937,-5.207164972764849,6.742244542766213,4.252747460603714,1.6898933226372283e+18,36.6482283203125,-0.4524566650390625,1.660101318359375,0.2364349365234375,1.6898933226422395e+18,36.65323959960937,-0.2129484354869369,9.650465166553854,-1.6752694880059358,1.6898933226422395e+18,36.65323959960937,-1.3539334297180177,0.8684858843684197,-2.9883282661437987,1.6898933226372283e+18,36.6482283203125,-1.3857102155685426,0.5163805246353149,-3.0522494316101074,,,,,,,,,,,,,1.6898933226422395e+18,36.65323959960937,-18.120121955871586,53.809190368652345,-0.3982803344726562,1.6898933226415142e+18,36.65251420898438,10.2583740234375,70.66268615722656,79.02297668457031,1.6898933226422395e+18,36.65323959960937,-0.5985104078440868,0.6132192887061944,-0.2313655932452631,-1.4276665876906525,-0.6759682945336234,0.335995133527816,-1.3925513294917926
