seconds_elapsed_rounded,accelerometer_time,accelerometer_seconds_elapsed,accelerometer_z,accelerometer_y,accelerometer_x,accelerometeruncalibrated_time,accelerometeruncalibrated_seconds_elapsed,accelerometeruncalibrated_z,accelerometeruncalibrated_y,accelerometeruncalibrated_x,gravity_time,gravity_seconds_elapsed,gravity_z,gravity_y,gravity_x,gyroscope_time,gyroscope_seconds_elapsed,gyroscope_z,gyroscope_y,gyroscope_x,gyroscopeuncalibrated_time,gyroscopeuncalibrated_seconds_elapsed,gyroscopeuncalibrated_z,gyroscopeuncalibrated_y,gyroscopeuncalibrated_x,location_time,location_seconds_elapsed,location_altitude,location_speedAccuracy,location_bearingAccuracy,location_latitude,location_altitudeAboveMeanSeaLevel,location_bearing,location_horizontalAccuracy,location_verticalAccuracy,location_longitude,location_speed,magnetometer_time,magnetometer_seconds_elapsed,magnetometer_z,magnetometer_y,magnetometer_x,magnetometeruncalibrated_time,magnetometeruncalibrated_seconds_elapsed,magnetometeruncalibrated_z,magnetometeruncalibrated_y,magnetometeruncalibrated_x,orientation_time,orientation_seconds_elapsed,orientation_yaw,orientation_qx,orientation_qz,orientation_roll,orientation_qw,orientation_qy,orientation_pitch
0.0,1.6904262626602214e+18,74.99822158203125,0.2174331121002137,-0.5311618216121197,-1.274833911969513,1.690426262661475e+18,74.99947514648437,-0.12969970703125,0.9196563720703124,-0.3963226318359375,1.6904262626602214e+18,74.99822158203125,-1.468253812702,9.395722811339496,-2.3906288285577295,1.6904262626602214e+18,74.99822158203125,0.0340652860701084,2.219744348526001,0.4393274486064911,1.6904262626664852e+18,75.00448515625001,0.0090357861015945,2.255935478210449,0.410220867395401,,,,,,,,,,,,,1.6904262626602214e+18,74.99822158203125,-27.17911262512207,53.65906753540039,-3.2015716552734377,1.6904262626595756e+18,74.99757553710938,19.04302062988281,86.24138793945312,115.70111694335938,1.6904262626602214e+18,74.99822158203125,-0.7573261562953301,-0.6290382756803783,0.0123900152710655,-1.0204736725481092,0.7580248444303976,-0.1711759481312287,-1.280295907812741
0.05,1.6904262627103196e+18,75.04831943359375,0.7334930800399183,0.0522481905359029,-1.3692838230623303,1.690426262711573e+18,75.04957309570312,-0.0995635986328125,0.9528778076171877,-0.34814453125,1.6904262627103196e+18,75.04831943359375,-1.9005165764057637,9.358400737969877,-2.2281237937271596,1.6904262627103196e+18,75.04831943359375,-0.0300557348877191,1.672744297981262,0.442073768377304,1.690426262716583e+18,75.05458295898437,-0.0144487669691443,1.5386737823486327,0.4542030274868011,,,,,,,,,,,,,1.6904262627103196e+18,75.04831943359375,-28.046864700317386,53.31255569458008,-0.8270004272460938,1.6904262627115784e+18,75.04957841796876,18.235980224609374,85.85416259765626,118.30194091796876,1.6904262627103196e+18,75.04831943359375,-0.7044761566135556,-0.6210526473964191,-0.0193939469915335,-0.8651283674080406,0.7723089072454874,-0.1315639863024852,-1.2673121399253715
0.1,1.6904262627604173e+18,75.09841733398437,1.716266947339624,-0.4638057276022434,-0.6575777150949834,1.6904262627616712e+18,75.09967114257813,-0.070465087890625,0.89532470703125,-0.2590972900390625,1.6904262627604173e+18,75.09841733398437,-2.2573862162469327,9.315318552090526,-2.070465409823209,1.6904262627604173e+18,75.09841733398437,0.1964159786701202,0.9772367119789124,0.5233976423740387,1.6904262627666808e+18,75.10468100585938,0.247794410586357,0.9193248629570008,0.5624015092849731,,,,,,,,,,,,,1.6904262627604173e+18,75.09841733398437,-28.897274017333984,52.991329193115234,1.0179641723632813,1.6904262627635814e+18,75.10158144531249,17.38858642578125,85.51103515625,119.90606079101562,1.6904262627604173e+18,75.09841733398437,-0.6422053687133109,-0.6111732252960347,-0.0363503970875434,-0.7426091958682237,0.7834257081915073,-0.1064233630626337,-1.2529289343113466
0.15,1.6904262628105157e+18,75.14851533203125,1.4800796257653832,-0.334927068041563,-0.2015888864018022,1.690426262811769e+18,75.149769140625,-0.1024688720703125,0.9198394775390624,-0.2218719482421875,1.6904262628105157e+18,75.14851533203125,-2.646295254427492,9.26960975864768,-1.7939181961664556,1.6904262628105157e+18,75.14851533203125,0.654274320602417,0.2977378100156784,0.8104207992553711,1.690426262816779e+18,75.15477900390624,0.6908053278923034,0.2389177694916725,0.7921831488609314,,,,,,,,,,,,,1.6904262628105157e+18,75.14851533203125,-29.982087326049804,52.1859992980957,2.896437072753906,1.6904262628155848e+18,75.15358486328125,16.06145324707031,84.49938049316407,121.98619384765624,1.6904262628105157e+18,75.14851533203125,-0.5224818444383991,-0.5977838785721206,-0.0362141171056513,-0.5963485886903885,0.7959817269430332,-0.0877144199147915,-1.2383506856707067
0.2,1.6904262628606134e+18,75.19861337890624,1.6172556904545423,0.2206419326919317,-1.8927913013029096,1.6904262628618673e+18,75.1998671875,-0.1527252197265625,0.97845458984375,-0.331854248046875,1.6904262628606134e+18,75.19861337890624,-2.9775214221245045,9.228254718047976,-1.4601084417170285,1.6904262628606134e+18,75.19861337890624,0.4354740858078003,0.4873887330293655,0.4869192779064178,1.690426262866877e+18,75.204876953125,0.3557193875312805,0.5703259587287903,0.433620685338974,,,,,,,,,,,,,1.6904262628606134e+18,75.19861337890624,-31.213314819335935,51.17199630737305,4.923968505859375,1.6904262628623885e+18,75.20038848876953,15.145885467529297,83.67924880981445,123.71975708007814,1.6904262628606134e+18,75.19861337890624,-0.3884880956789732,-0.5854784736260592,-0.0261264494370701,-0.4562374087019131,0.8069210728481447,-0.0733128421480231,-1.225651425965945
0.25,1.6904262629107113e+18,75.24871137695312,1.7586118465334175,1.1917718609142305,-1.0823615504463016,1.6904262629119652e+18,75.24996518554687,-0.1579345703125,1.064508056640625,-0.222528076171875,1.6904262629107113e+18,75.24871137695312,-3.1391084653273222,9.20070947470963,-1.289394323015511,1.6904262629107113e+18,75.24871137695312,-0.1870587557554244,1.0069774389266968,0.0233884193003177,1.6904262629119652e+18,75.24996502685546,-0.201576329767704,1.0136882364749908,0.0043794352095574,,,,,,,,,,,,,1.6904262629107113e+18,75.24871137695312,-30.81940612792969,50.95428085327149,6.131307983398438,1.690426262909189e+18,75.24718916015624,15.750363159179688,83.60357971191407,124.67948303222656,1.6904262629107113e+18,75.24871137695312,-0.3574032914926962,-0.5802758580008127,-0.0340966878749691,-0.3897611562648361,0.8117021895270782,-0.0566203774569307,-1.2174263989764618
0.3,1.6904262629608095e+18,75.29880932617188,2.2522321652585267,1.5848008724081517,0.8561891200559586,1.690426262962063e+18,75.30006318359375,-0.0618255615234375,1.1412017822265623,-0.0710235595703125,1.6904262629608095e+18,75.29880932617188,-3.179805568087995,9.193774823914763,-1.2380941393063964,1.6904262629608095e+18,75.29880932617188,-0.34762082695961,1.4390501737594603,-0.2789925813674926,1.6904262629570534e+18,75.29505341796876,-0.3591590583324432,1.468070960044861,-0.2406096767634153,,,,,,,,,,,,,1.6904262629608095e+18,75.29880932617188,-29.311921691894533,51.27035140991211,6.808262634277344,1.6904262629611896e+18,75.29918969726563,17.900454711914062,84.08783264160157,125.52877807617188,1.6904262629608095e+18,75.29880932617188,-0.4085775486521138,-0.5801980062766109,-0.060488329444383,-0.3712754278546404,0.8114189017322712,-0.0345274753832655,-1.2153944006452615
0.35,1.6904262630109074e+18,75.34890732421874,2.5985914293229575,2.677672915535569,-3.485551608282923,1.690426263012161e+18,75.35016108398437,-0.031866455078125,1.192852783203125,-0.5107391357421875,1.6904262630109074e+18,75.34890732421874,-2.9907617197087406,9.255117590532302,-1.2467375667805225,1.6904262630109074e+18,75.34890732421874,-0.5362854838371277,0.5973025403916836,-0.8920613408088685,1.6904262630071514e+18,75.3451513671875,-0.5050080418586731,0.6933133006095886,-0.8260971784591675,1.6904262629994414e+18,75.33744140625,75.74637832678854,1.8764335493225264,87.69856825868447,49.28005253448861,94.9278072360903,337.00281757449494,8.946254409258914,1.158685888089581,-122.96827613178893,0.8980015495659035,1.6904262630109074e+18,75.34890732421874,-26.103472900390624,51.91558151245117,7.418453979492187,1.690426263013189e+18,75.35118916015625,21.547280883789064,84.84925842285156,125.75185546875,1.6904262630109074e+18,75.34890732421874,-0.485232634998381,-0.5891713134828998,-0.0816682489306047,-0.395598449146984,0.8036094037497443,-0.0192032605565881,-1.2339261717879288
0.4,1.6904262630610053e+18,75.39900532226562,4.45405644869864,2.23899590087533,-1.306582013825178,1.6904262630622592e+18,75.4002591796875,0.271881103515625,1.178265380859375,-0.183843994140625,1.6904262630610053e+18,75.39900532226562,-2.260069902372956,9.406251102712153,-1.5667591951176525,1.6904262630610053e+18,75.39900532226562,-0.719539487361908,-0.6349681735038757,-2.3789329051971437,1.6904262630572493e+18,75.39524936523438,-0.7271960020065308,-0.5790949940681458,-2.2369677066802978,,,,,,,,,,,,,1.6904262630610053e+18,75.39900532226562,-20.628526306152345,53.165401458740234,5.894239807128907,1.6904262630651912e+18,75.4031912109375,28.224560546875,86.18517456054687,123.69943542480468,1.6904262630610053e+18,75.39900532226562,-0.6952517484745794,-0.6192905593223987,-0.0887846243889084,-0.6141282308986306,0.7792475466487471,-0.0320356365934826,-1.2848413867397444
0.45,1.6904262631111032e+18,75.44910336914063,0.6898102833058685,2.468513798462152,3.335071766932308,1.690426263112357e+18,75.45035717773438,-0.1042083740234375,1.28994140625,0.1256317138671875,1.6904262631111032e+18,75.44910336914063,-0.7703750613989029,9.58054606096208,-1.8929841935265064,1.6904262631111032e+18,75.44910336914063,-0.4950068831443787,-0.1791355274617672,-3.2487032413482666,1.6904262631073472e+18,75.44534731445313,-0.493930298089981,-0.2356211424805224,-3.2704678535461427,,,,,,,,,,,,,1.6904262631111032e+18,75.44910336914063,-10.45181121826172,54.230472564697266,4.025743103027343,1.690426263111994e+18,75.44999395751952,38.0882568359375,86.93706130981445,122.2946434020996,1.6904262631111032e+18,75.44910336914063,-1.2582314275546598,-0.6769115056270388,-0.0917517209899582,-1.1948440389256247,0.7284188377154808,-0.0471960068315353,-1.355955772192449
0.5,1.6904262631612014e+18,75.49920136718751,-2.6977757046873867,3.731145845210552,2.041598328683525,1.6904262631624553e+18,75.50045517578124,-0.1819580078125,1.3010894775390625,-0.0124908447265625,1.6904262631612014e+18,75.49920136718751,0.6306519608417431,9.542726910177468,-2.140957492997348,1.6904262631612014e+18,75.49920136718751,-0.4988090515136719,0.461485767364502,-2.6606252670288084,1.6904262631574454e+18,75.4954453125,-0.5031522452831269,0.4233452945947647,-2.698285531997681,,,,,,,,,,,,,1.6904262631612014e+18,75.49920136718751,-0.1129859924316406,53.37380447387695,3.3595916748046877,1.6904262631587942e+18,75.49679428710938,47.107357788085935,85.90180969238281,121.79685668945312,1.6904262631612014e+18,75.49920136718751,-1.9331285795503952,-0.7279056660975014,-0.1067483057009259,-1.8472073678509733,0.6754432308718858,-0.046430206627225,-1.3388874494968497
0.55,1.6904262632112993e+18,75.54929916992187,-2.5652978223648666,1.0159687192845344,2.327596501418054,1.690426263212553e+18,75.55055307617188,-0.066094970703125,1.0302154541015625,-0.0374359130859375,1.6904262632112993e+18,75.54929916992187,1.7242446774466338,9.355114088288545,-2.365574554478377,1.6904262632112993e+18,75.54929916992187,-0.3395306408405304,0.0828446544706821,-2.1129437923431396,1.6904262632075433e+18,75.54554321289064,-0.3524239301681518,0.1568585928529501,-2.1579987525939943,,,,,,,,,,,,,1.6904262632112993e+18,75.54929916992187,6.831897735595703,51.79681167602539,2.9919647216796874,1.6904262632107958e+18,75.54879565429687,54.583743286132815,84.03482055664062,121.46624450683592,1.6904262632112993e+18,75.54929916992187,-2.3148336046167444,-0.7656074926091341,-0.1238776216127175,-2.196000871574604,0.6297607353596476,-0.0408768869155724,-1.2668849281526766
0.6,1.6904262632613972e+18,75.59939716796876,-2.430949323864877,-0.1308877781999111,0.181001557829529,1.690426263262651e+18,75.60065097656249,0.020599365234375,0.8731781005859375,-0.23192138671875,1.6904262632613972e+18,75.59939716796876,2.608300221006274,9.11614739435494,-2.4913762615856525,1.6904262632613972e+18,75.59939716796876,-0.3617691457271575,-0.335705080628395,-1.6241273880004885,1.6904262632576412e+18,75.59564116210937,-0.3534002959728241,-0.3352543741464615,-1.6510016202926636,,,,,,,,,,,,,1.6904262632613972e+18,75.59939716796876,12.099681854248049,49.95061569213867,3.1108154296875,1.6904262632627973e+18,75.60079716796875,59.88953247070312,82.05003967285157,121.64228210449218,1.6904262632613972e+18,75.59939716796876,-2.4952606206965413,-0.7943133178811872,-0.1266080378810415,-2.3772716501683204,0.5923618527369727,-0.0447026859300631,-1.193806873200406
0.65,1.6904262633114952e+18,75.6494951171875,-3.7872277394643423,-1.8225016088330743,1.299370299654603,1.690426263312749e+18,75.65074897460937,-0.0567474365234375,0.70926513671875,-0.1259033203125,1.6904262633114952e+18,75.6494951171875,3.2654113122767208,8.868966531209946,-2.6122607075220343,1.6904262633114952e+18,75.6494951171875,-0.3997816920280456,-0.4849220454692841,-1.0009374737739565,1.6904262633077391e+18,75.64573911132813,-0.3957780122756957,-0.4344902575016022,-1.0622990012168885,,,,,,,,,,,,,1.6904262633114952e+18,75.6494951171875,16.070774841308594,47.99609298706055,3.362471008300781,1.690426263314799e+18,75.6527990234375,63.374734497070314,80.1656005859375,121.9358154296875,1.6904262633114952e+18,75.6494951171875,-2.572817129444458,-0.814630784278678,-0.1266889095443614,-2.466359163292913,0.5634002011537365,-0.0532618374393323,-1.1301558539368923
0.7,1.690426263361593e+18,75.6995931640625,-3.0913313996300102,-2.007899209664464,1.504520824060738,1.6904262633628472e+18,75.70084702148438,0.0593231201171875,0.671356201171875,-0.1064117431640625,1.690426263361593e+18,75.6995931640625,3.637778117944299,8.706666079040765,-2.669359669863879,1.690426263361593e+18,75.6995931640625,-0.3803138613700866,-0.888929808139801,-0.2440338939428329,1.690426263357837e+18,75.69583715820313,-0.3941292047500609,-0.8669000625610351,-0.3109056159853935,,,,,,,,,,,,,1.690426263361593e+18,75.6995931640625,18.12245635986328,46.59210739135742,3.864326477050781,1.6904262633616008e+18,75.69960070800782,64.79521179199219,79.01259994506836,122.46685409545898,1.690426263361593e+18,75.6995931640625,-2.580240166577931,-0.8249911442793703,-0.1188206271946237,-2.5084431566358623,0.5480759969138814,-0.0695013994027129,-1.092653992839071
0.75,1.690426263411691e+18,75.74969125976563,-3.290838014478087,-2.8381466198951,2.404386661823094,1.690426263412945e+18,75.75094497070313,0.0378326416015625,0.589892578125,-0.0172271728515625,1.690426263411691e+18,75.74969125976563,3.646676177766621,8.725369142849445,-2.5947556797784563,1.690426263411691e+18,75.74969125976563,0.0796785520389675,-0.5078681312501431,0.6783989667892456,1.690426263407935e+18,75.74593515625,0.0445197947323322,-0.5759873479604721,0.6144584238529205,,,,,,,,,,,,,1.690426263411691e+18,75.74969125976563,17.831805419921874,45.92444381713867,4.96221923828125,1.6904262634084045e+18,75.74640439453125,64.22141723632812,78.53112487792968,123.54386291503906,1.690426263411691e+18,75.74969125976563,-2.551284369334903,-0.8238654864979675,-0.1039853195138771,-2.523135808304987,0.5506625970480391,-0.0846444198827135,-1.096848456930411
0.8,1.6904262634617892e+18,75.79978925781249,-1.8782741156506535,-3.038321752428412,1.63925288582474,1.690426263463043e+18,75.80104311523436,0.1882720947265625,0.6288665771484375,-0.1080718994140625,1.6904262634617892e+18,75.79978925781249,3.1521088751280306,8.938172753905057,-2.508647305216789,1.6904262634617892e+18,75.79978925781249,0.3489908158779144,0.804327517747879,1.417310070991516,1.6904262634580332e+18,75.79603334960936,0.3372451424598693,0.7252207815647125,1.3792508125305176,,,,,,,,,,,,,1.6904262634617892e+18,75.79978925781249,15.591513061523438,45.7486213684082,6.272225952148437,1.6904262634604086e+18,75.79840849609374,61.8484619140625,78.40161437988282,124.80535278320312,1.6904262634617892e+18,75.79978925781249,-2.498364119914471,-0.8088305187837739,-0.1012625831644076,-2.468059214652607,0.5735388900084086,-0.0803008857868478,-1.147167253068534
0.85,1.6904262635118874e+18,75.8498873046875,4.051697240349353,0.4642662139469385,0.0708370095412433,1.690426263513141e+18,75.851141015625,0.7605377197265625,1.100738525390625,-0.3095703125,1.6904262635118874e+18,75.8498873046875,2.3636558321493863,9.19774419516325,-2.4374155680434404,1.6904262635118874e+18,75.8498873046875,0.4951612532138824,0.5704128533601761,1.2902857422828675,1.6904262635081313e+18,75.84613125,0.5030695259571075,0.6987511813640594,1.3524973273277283,,,,,,,,,,,,,1.6904262635118874e+18,75.8498873046875,13.134356689453124,45.66498641967773,6.822267150878906,1.6904262635124122e+18,75.850412109375,58.85780639648438,78.12655639648438,125.60320129394532,1.6904262635118874e+18,75.8498873046875,-2.410028883019013,-0.7852812496748426,-0.1108069269248216,-2.3392737314755094,0.6059223294252382,-0.061560244566723,-1.2170062722654138
0.9,1.6904262635619853e+18,75.89998525390624,7.127864973117113,4.007046022361516,-3.6264179934704304,1.690426263563239e+18,75.90123911132812,0.90460205078125,1.3040069580078124,-0.595111083984375,1.6904262635619853e+18,75.89998525390624,2.0662585181048514,9.306062881776096,-2.3016254339808224,1.6904262635619853e+18,75.89998525390624,-0.1079427920281887,-0.7627679944038391,0.1067639723420142,1.6904262635582292e+18,75.89622924804686,-0.0550986677408218,-0.7322680950164795,0.1885537698864936,,,,,,,,,,,,,1.6904262635619853e+18,75.89998525390624,11.169639587402344,44.78093032836914,8.296214294433593,1.690426263564415e+18,75.90241494140625,57.51948852539063,77.1317138671875,127.15333557128906,1.6904262635619853e+18,75.89998525390624,-2.357487903828624,-0.7754997280598498,-0.1011919900990578,-2.3023416795154157,0.6199964590276513,-0.0627037125728528,-1.249911336106886
0.95,1.6904262636120837e+18,75.95008330078124,2.7321916228997707,1.0510769744491577,-0.1375824243068694,1.690426263613337e+18,75.95133710937499,0.4055694580078125,1.09779052734375,-0.138104248046875,1.6904262636120837e+18,75.95008330078124,2.220543772313893,9.261856660302875,-2.3357774113339183,1.6904262636120837e+18,75.95008330078124,-0.18805912733078,-0.5699092224240303,-0.115060107409954,1.6904262636083272e+18,75.94632724609376,-0.2211780314333736,-0.631814181804657,-0.1473409347236156,,,,,,,,,,,,,1.6904262636120837e+18,75.95008330078124,11.02843780517578,43.92824478149414,9.303187561035156,1.6904262636112197e+18,75.94921954345703,57.48885726928711,76.46756744384766,127.93238067626952,1.6904262636120837e+18,75.95008330078124,-2.3476378488682377,-0.7790890673455149,-0.0905832709800542,-2.330837394694707,0.6152806969196177,-0.0788680853005758,-1.235924809196863
1.0,1.690426263662181e+18,76.00018125,0.3139757576885819,4.67049824090004,4.845818041379154,1.6904262636634353e+18,76.00143510742187,0.2976776123046875,1.4216522216796874,0.254071044921875,1.690426263662181e+18,76.00018125,2.1946987277960774,9.27785151729226,-2.296442215350121,1.690426263662181e+18,76.00018125,0.384730252623558,0.81530482172966,-0.0896802620962262,1.690426263658425e+18,75.99642529296875,0.3718657493591308,0.7874604523181915,-0.0386341579258441,,,,,,,,,,,,,1.690426263662181e+18,76.00018125,11.087686920166016,43.1517448425293,10.209078979492189,1.690426263658023e+18,75.9960228515625,57.60744934082031,75.73036499023438,128.74398193359374,1.690426263662181e+18,76.00018125,-2.3607324851885805,-0.7787658372448897,-0.0923205058397465,-2.333544388382463,0.616090133387203,-0.0733545836411561,-1.240926254045307
1.05,1.6904262637122793e+18,76.05027934570312,-0.9374427334497868,-0.9996178884643314,1.3551862072224914,1.6904262637135332e+18,76.0515330078125,-0.0195037841796875,0.6605926513671875,-0.1139923095703125,1.6904262637122793e+18,76.05027934570312,2.2931891172252596,9.266436856926084,-2.2455897754085066,1.6904262637122793e+18,76.05027934570312,0.2559498399496078,1.1509822607040403,-0.5261579900979996,1.6904262637085233e+18,76.04652329101563,0.2547658205032349,1.0831864714622497,-0.5699531704187393,,,,,,,,,,,,,1.6904262637122793e+18,76.05027934570312,12.537427520751953,42.39538345336914,10.56435546875,1.6904262637100283e+18,76.04802827148437,59.175698852539064,74.97129821777344,129.03793029785157,1.6904262637122793e+18,76.05027934570312,-2.4436877893933495,-0.7836924261455953,-0.1056585313625648,-2.366592250586105,0.6098154585756256,-0.0519191847043483,-1.2373515673653686
1.1,1.6904262637623772e+18,76.10037734375001,-6.5823477615118025,-3.3202275412827724,1.1656640445809066,1.690426263763631e+18,76.10163110351563,-0.436834716796875,0.7691375732421875,-0.1979095458984375,1.6904262637623772e+18,76.10037734375001,2.1200048674701155,9.304863793571592,-2.2537987716011703,1.6904262637623772e+18,76.10037734375001,0.3719200789928436,1.6483664751052856,0.5187048494815827,1.6904262637586212e+18,76.09662133789062,0.3938774228096008,1.6712345838546754,0.4579081296920776,,,,,,,,,,,,,1.6904262637623772e+18,76.10037734375001,13.53082504272461,41.93565444946289,10.222650146484376,1.6904262637620314e+18,76.10003139648438,59.96056213378906,74.51319580078125,128.5560302734375,1.6904262637623772e+18,76.10037734375001,-2.4797555492526353,-0.7794254484798672,-0.1301419682790165,-2.3248292172053353,0.6122942279988568,-0.0221063637874804,-1.2496437558474844
1.15,1.6904262638124754e+18,76.15047529296875,-3.4723431671416756,1.2856284238368272,-3.073602996846288,1.690426263813729e+18,76.15172905273438,-0.0969635009765625,1.0480926513671875,-0.5152801513671875,1.6904262638124754e+18,76.15047529296875,1.55087677091375,9.395204457327724,-2.3355269729302823,1.6904262638124754e+18,76.15047529296875,-0.1344267837703227,0.8578137278556823,1.2247650146484377,1.6904262638087194e+18,76.14671928710938,-0.1221865724772214,0.9147566318511964,1.2045647740364074,,,,,,,,,,,,,1.6904262638124754e+18,76.15047529296875,12.672613525390624,41.93898391723633,9.628335571289062,1.6904262638140332e+18,76.15203325195311,58.61356506347656,74.75478515625,127.9066436767578,1.6904262638124754e+18,76.15047529296875,-2.3694255576955148,-0.7609288800532661,-0.15339905318503,-2.1552022420882846,0.6303368165961692,-0.003801849833938,-1.2802060794862675
1.2,1.6904262638625733e+18,76.2005732421875,0.1972186062022299,0.1519793153542279,1.6446831234060226,1.6904262638638272e+18,76.2018271484375,0.017584228515625,0.986865234375,-0.0342987060546875,1.6904262638625733e+18,76.2005732421875,0.9131524587063492,9.45987245207131,-2.411575754996538,1.6904262638625733e+18,76.2005732421875,0.0549835108220576,1.1271157145500184,1.0657449603080749,1.6904262638588173e+18,76.19681728515624,0.046796428784728,1.0662180066108704,1.049262773990631,,,,,,,,,,,,,1.6904262638625733e+18,76.2005732421875,10.797274017333985,42.57202987670898,9.07230224609375,1.690426263866036e+18,76.20403603515624,56.80172119140625,75.345947265625,127.44789428710938,1.6904262638625733e+18,76.2005732421875,-2.1813877417056906,-0.7392436918699714,-0.1703369149552059,-1.9313195742143696,0.651433854033285,0.0044610543758679,-1.3041353101802635
1.25,1.6904262639126712e+18,76.25067128906251,-2.521960375776291,-0.0139981302142143,1.296878482838869,1.690426263913925e+18,76.25192509765625,-0.2200103759765625,0.9478546142578124,-0.1458404541015625,1.6904262639126712e+18,76.25067128906251,0.0844534487881231,9.497849423766136,-2.4234699863471088,1.6904262639126712e+18,76.25067128906251,0.058393552713096,2.2069199800491335,1.519321823120117,1.6904262639089152e+18,76.246915234375,0.0500757370144128,2.1535340785980224,1.505612325668335,,,,,,,,,,,,,1.6904262639126712e+18,76.25067128906251,8.856130981445313,43.11969833374023,8.508367919921875,1.6904262639128356e+18,76.25083569335938,54.93557357788086,75.88330841064453,126.81891250610352,1.6904262639126712e+18,76.25067128906251,-1.9310937007247584,-0.7094849498322955,-0.2004034867080156,-1.6050048802442256,0.6747942966775667,0.027318637995023,-1.3191841014402843
1.3,1.6904262639627692e+18,76.30076928710938,0.9259067555654048,-0.5712153657722473,0.3209996942020952,1.690426263964023e+18,76.30202304687501,0.044512939453125,0.9056060791015624,-0.1920196533203125,1.6904262639627692e+18,76.30076928710938,-0.8149354209388792,9.49793640062332,-2.2919363406851887,1.6904262639627692e+18,76.30076928710938,0.3366006195545196,1.656387162208557,1.0833757162094115,1.6904262639590134e+18,76.29701333007813,0.3248637855052947,1.7228576421737671,1.13639839887619,,,,,,,,,,,,,1.6904262639627692e+18,76.30076928710938,6.601253509521484,43.524373626708986,8.068519592285156,1.6904262639596375e+18,76.29763764648438,52.922976684570315,76.19067687988282,126.53539123535155,1.6904262639627692e+18,76.30076928710938,-1.650827605609751,-0.6744177667793826,-0.2344654235658395,-1.2293046115720336,0.6975029825236094,0.0590412067268898,-1.319215265335289
1.35,1.690426264012867e+18,76.35086728515626,1.0309654174689948,-0.7916302701622248,0.1337383453254401,1.690426264014121e+18,76.35212104492187,-0.06473388671875,0.8934967041015625,-0.194598388671875,1.690426264012867e+18,76.35086728515626,-1.3979966050361845,9.48862788953006,-2.0379365913055834,1.690426264012867e+18,76.35086728515626,0.3412262797355651,1.625478482246399,0.7632528066635131,1.690426264009111e+18,76.34711123046876,0.3365814805030823,1.652887225151062,0.7702433228492737,1.6904262639994345e+18,76.3374345703125,76.94682347495109,2.00522069207901,70.4892067021097,49.280064255470215,96.12825238425285,333.0623584317425,6.578111633323612,1.1508024355089694,-122.96829168388903,1.1212921339755888,1.690426264012867e+18,76.35086728515626,5.219874572753906,43.47374954223633,8.268179321289063,1.6904262640116416e+18,76.34964155273437,51.59384765625,76.08550109863282,126.77207946777344,1.690426264012867e+18,76.35086728515626,-1.4646565443395054,-0.6488237488904348,-0.255965574384869,-0.9701314563675044,0.7111308074079135,0.0873226612699194,-1.3154400322162956
1.4,1.6904262640629652e+18,76.40096518554688,0.8595327460084855,-0.6019163258886338,-0.1054281089639663,1.6904262640642191e+18,76.40221918945312,-0.0970947265625,0.904913330078125,-0.208746337890625,1.6904262640629652e+18,76.40096518554688,-1.8800910142664613,9.466537170657514,-1.730625318394452,1.6904262640629652e+18,76.40096518554688,0.5656795263290405,0.7796191692352294,0.8128491759300231,1.6904262640592092e+18,76.39720917968751,0.5537732422351838,0.8199560165405273,0.800252890586853,,,,,,,,,,,,,1.6904262640629652e+18,76.40096518554688,4.3501533508300785,43.3579963684082,8.692205810546875,1.690426264063647e+18,76.40164682617187,50.46962280273438,75.89645080566406,127.42358093261718,1.6904262640629652e+18,76.40096518554688,-1.293186897492648,-0.6259621151317033,-0.2689603743334345,-0.744690473371531,0.7235333952569064,0.1107016569140122,-1.3066756488103046
1.45,1.6904262641130634e+18,76.45106333007813,1.5896967108517883,-0.0079726447665691,-1.481879485568106,1.690426264114317e+18,76.45231708984375,-0.08345947265625,0.96068115234375,-0.290264892578125,1.6904262641130634e+18,76.45106333007813,-2.3900783258420226,9.41188776419878,-1.3543516122553498,1.6904262641130634e+18,76.45106333007813,0.6973120331764221,0.6319822907447815,1.0939684629440307,1.6904262641093074e+18,76.44730727539061,0.6904993295669556,0.6682796895503997,1.0856828093528748,,,,,,,,,,,,,1.6904262641130634e+18,76.45106333007813,2.832652282714844,42.93003616333008,9.7279296875,1.6904262641156506e+18,76.45365048828126,48.74360656738281,75.47051391601562,128.57171020507812,1.6904262641130634e+18,76.45106333007813,-1.0956154180395183,-0.6015253611237013,-0.2716232360066067,-0.5175266225615054,0.7403039128591228,0.1273966981554684,-1.286229520751944
1.5,1.690426264163161e+18,76.50116127929688,2.0779697648778557,0.4297604839462042,-1.4313460338347403,1.690426264164415e+18,76.50241508789063,-0.075018310546875,1.0345062255859374,-0.2407379150390625,1.690426264163161e+18,76.50116127929688,-2.862459749444425,9.327478945483566,-0.9784179371125252,1.690426264163161e+18,76.50116127929688,0.5643156170845032,0.4194632709026337,0.641623055934906,1.6904262641594053e+18,76.49740537109375,0.5899479031562805,0.4173826396465301,0.7062713325023651,,,,,,,,,,,,,1.690426264163161e+18,76.50116127929688,0.8958419799804688,42.49442825317383,11.08470458984375,1.6904262641624527e+18,76.50045275878907,47.11498260498047,75.0631103515625,129.76546478271484,1.690426264163161e+18,76.50116127929688,-0.924399372839814,-0.5783530012479635,-0.2692382094763491,-0.3301050065576956,0.757260523153407,0.1397428545218581,-1.2569601959253351
1.55,1.6904262642132593e+18,76.55125927734375,1.6710525717371705,1.9930708245581383,-3.298682181333303,1.6904262642145132e+18,76.55251303710938,-0.15531005859375,1.1394683837890625,-0.4422210693359375,1.6904262642132593e+18,76.55125927734375,-2.9923224516063924,9.30875799530506,-0.7499426366072892,1.6904262642132593e+18,76.55125927734375,-0.0416573051363229,0.7773465275764465,-0.0591498851776122,1.6904262642095032e+18,76.54750327148437,0.0234185099601745,0.7428023815155029,-0.0401434771716594,,,,,,,,,,,,,1.6904262642132593e+18,76.55125927734375,0.7165206909179688,42.19612045288086,11.587066650390623,1.690426264209255e+18,76.5472548828125,47.240203857421875,74.82793884277343,130.05992736816407,1.6904262642132593e+18,76.55125927734375,-0.8649641228192406,-0.5691157144565046,-0.2721522754228404,-0.2455317126537637,0.7605829186053489,0.1533713239633374,-1.250778366577897
1.6,1.6904262642633572e+18,76.6013572265625,3.0243813729768987,1.3203565059643982,-1.7619247704736885,1.6904262642646113e+18,76.6026111328125,0.0619140625,1.118316650390625,-0.263031005859375,1.6904262642633572e+18,76.6013572265625,-2.947078528422415,9.322797392764688,-0.7537826239354908,1.6904262642633572e+18,76.6013572265625,-0.3439972043037415,0.7792116463184356,-0.3943618267774582,1.6904262642596012e+18,76.59760126953125,-0.3551048278808594,0.8410980701446533,-0.3413299456238746,,,,,,,,,,,,,1.6904262642633572e+18,76.6013572265625,1.4665489196777344,42.31106033325195,10.844454956054689,1.6904262642612608e+18,76.59926088867186,48.034426879882815,74.96088562011718,129.23432006835938,1.6904262642633572e+18,76.6013572265625,-0.9178075152294662,-0.5671650168669097,-0.2899230163985257,-0.2504939088004178,0.7524443264516977,0.1674774722760313,-1.2553904375702425
1.65,1.6904262643134554e+18,76.65145532226563,4.40839435855478,2.8611924475353954,-4.450671482435465,1.6904262643147092e+18,76.65270913085938,0.216864013671875,1.2337890625,-0.5463165283203125,1.6904262643134554e+18,76.65145532226563,-2.53065195324108,9.42680815305054,-0.9173979580955208,1.6904262643134554e+18,76.65145532226563,-0.5673676252365112,-0.5231150224804878,-1.6030783653259275,1.690426264309699e+18,76.64769931640625,-0.5337719917297363,-0.3927438855171203,-1.4642287015914917,,,,,,,,,,,,,1.6904262643134554e+18,76.65145532226563,3.0248336791992188,42.616791534423825,9.70000457763672,1.6904262643132692e+18,76.65126918945313,50.08937072753906,75.36925048828125,127.83302307128906,1.6904262643134554e+18,76.65145532226563,-1.0336160213158951,-0.5842520899625034,-0.2964123179006391,-0.3518113040442292,0.7356040347577246,0.1718048349390207,-1.2921512631016685
1.7,1.6904262643635533e+18,76.70155327148437,3.28176518261075,2.5482854881221053,-1.30282514550969,1.690426264364807e+18,76.70280703124999,0.1392364501953125,1.2635955810546875,-0.180120849609375,1.6904262643635533e+18,76.70155327148437,-1.2962238475485146,9.603723873645066,-1.4219559234856811,1.6904262643635533e+18,76.70155327148437,-1.1539984464645383,-1.2608911871910096,-3.073814392089844,1.6904262643597972e+18,76.69779731445313,-1.1140308022499084,-1.281663417816162,-3.024500322341919,,,,,,,,,,,,,1.6904262643635533e+18,76.70155327148437,6.991658782958984,42.75837173461914,7.981063842773437,1.6904262643652764e+18,76.70327622070313,55.20397338867187,75.2792724609375,125.79317321777344,1.6904262643635533e+18,76.70155327148437,-1.4886185434157393,-0.639440844278061,-0.2845062648264601,-0.8502693385979739,0.6963522538893482,0.156929172766281,-1.3676811874478256
1.75,1.6904262644136517e+18,76.7516513671875,-3.051717474383116,4.84967956833899,3.52972948044449,1.690426264414905e+18,76.75290502929688,-0.3093780517578125,1.5091217041015623,0.1264190673828125,1.6904262644136517e+18,76.7516513671875,0.2375428876585862,9.588882161439656,-2.000822140111178,1.6904262644136517e+18,76.7516513671875,-0.9272857546806336,-0.5143155783414841,-2.7103111743927,1.6904262644098954e+18,76.74789531249999,-0.9654337525367735,-0.5927550464868545,-2.7758368015289308,,,,,,,,,,,,,1.6904262644136517e+18,76.7516513671875,13.394232940673827,41.96782760620117,5.498628234863281,1.6904262644120796e+18,76.7500796508789,60.988487243652344,74.3907585144043,123.56102752685548,1.6904262644136517e+18,76.7516513671875,-2.281324045254246,-0.7009518195915548,-0.2767775937683109,-1.6744878495167943,0.6411435975704407,0.1434152503895819,-1.3603166750208395
1.8,1.6904262644637496e+18,76.80174946289063,-1.5075630559138953,2.6122500692236423,1.9436728796607257,1.690426264465003e+18,76.803003125,0.0385528564453125,1.152166748046875,-0.023223876953125,1.6904262644637496e+18,76.80174946289063,1.403804502210393,9.408168451414705,-2.3620296922522783,1.6904262644637496e+18,76.80174946289063,-0.6523686170578002,-0.1139069557189941,-2.2748186111450197,1.6904262644599936e+18,76.79799350585938,-0.6702454209327697,-0.0479787651449441,-2.2764668464660645,,,,,,,,,,,,,1.6904262644637496e+18,76.80174946289063,18.903143310546874,40.609534454345706,3.5282623291015627,1.6904262644588838e+18,76.79688403320313,65.79885559082031,73.12384643554688,121.85309143066408,1.6904262644637496e+18,76.80174946289063,-2.7138273328086475,-0.741955189201309,-0.2779294109121695,-2.1002498165472128,0.5924579178989255,0.1447977758517826,-1.285772775430965
1.85,1.6904262645138476e+18,76.8518474609375,-3.080920217217952,0.8895320752745866,1.6526211937028168,1.6904262645151012e+18,76.85310117187501,-0.0994720458984375,0.96617431640625,-0.143017578125,1.6904262645138476e+18,76.8518474609375,2.504666418887078,9.135679894725085,-2.5185740066605806,1.6904262645138476e+18,76.8518474609375,-0.3249496281147003,-1.0364331603050232,-1.983395028114319,1.6904262645100915e+18,76.84809140625,-0.3367386519908905,-0.9561237335205078,-2.0333589553833007,,,,,,,,,,,,,1.6904262645138476e+18,76.8518474609375,23.598268127441408,38.56108016967774,2.7380661010742187,1.6904262645108895e+18,76.84888935546874,70.4282440185547,71.02527465820313,121.21094055175782,1.6904262645138476e+18,76.8518474609375,-2.9458505501669423,-0.7792736554523675,-0.2653962619956075,-2.349977790083904,0.5492809590515658,0.1425893278268184,-1.1994077920190724
1.9,1.6904262645639455e+18,76.90194536132813,-4.810682430590093,-2.14811607412815,-0.0084169983071089,1.6904262645651994e+18,76.90319921875,-0.129541015625,0.6635040283203125,-0.2492279052734375,1.6904262645639455e+18,76.90194536132813,3.4136055561342835,8.853376981698869,-2.465840662956238,1.6904262645639455e+18,76.90194536132813,-0.4210422396659851,-1.514185404777527,-1.3213951587677002,1.6904262645601894e+18,76.89818935546876,-0.4050709009170532,-1.5300073385238648,-1.3601441144943238,,,,,,,,,,,,,1.6904262645639455e+18,76.90194536132813,26.676747131347657,36.63506546020508,3.6696517944335936,1.6904262645628943e+18,76.90089423828125,73.44726867675782,69.07767944335937,122.30958557128906,1.6904262645639455e+18,76.90194536132813,-3.049346178269839,-0.8109741654012641,-0.2368520071919856,-2.514647082645072,0.5193619359598395,0.127566114668126,-1.1265853314579573
1.95,1.6904262646140434e+18,76.95204340820312,-5.002580557808876,-2.6048421895068885,1.366078217341006,1.6904262646152973e+18,76.95329721679687,-0.108819580078125,0.58831787109375,-0.05013427734375,1.6904262646140434e+18,76.95204340820312,3.9942328349220753,8.61919670371115,-2.431916970627159,1.6904262646140434e+18,76.95204340820312,-0.5731293559074402,-1.4046842336654664,-0.3837723940610885,1.6904262646102874e+18,76.94828745117186,-0.5794477105140686,-1.3919068574905396,-0.4816767171025276,,,,,,,,,,,,,1.6904262646140434e+18,76.95204340820312,28.20850830078125,35.50570449829102,4.587876892089843,1.6904262646149e+18,76.95289995117187,74.85352783203125,68.02997131347657,123.29231567382811,1.6904262646140434e+18,76.95204340820312,-3.058807631885759,-0.8323426602588851,-0.2115738664754182,-2.5944719938096292,0.5015360113317516,0.1038135171411973,-1.0736587827335318
2.0,1.6904262646641413e+18,77.00214140625,-5.167815660577416,-3.807717745141983,3.4149347589114307,1.6904262646653952e+18,77.00339516601562,-0.1096343994140625,0.4910858154296875,0.1183746337890625,1.6904262646641413e+18,77.00214140625,4.01734214163959,8.623235866873264,-2.3792630634476244,1.6904262646641413e+18,77.00214140625,-0.3491808623075484,-0.8330138355493546,0.9509172856807708,1.6904262646603853e+18,76.99838544921874,-0.3716834932565689,-0.932868468761444,0.8618421971797943,,,,,,,,,,,,,1.6904262646641413e+18,77.00214140625,27.70075225830078,35.82205429077148,5.632341003417968,1.690426264661706e+18,76.9997060546875,73.87636947631836,68.63498306274414,124.29703521728516,1.6904262646641413e+18,77.00214140625,-3.0005849461117897,-0.8360113373526368,-0.1916197502507996,-2.6067329605545524,0.5083403601771441,0.0765824474260249,-1.0745238280218086
2.05,1.6904262647142395e+18,77.0522396484375,-2.97443058727622,-3.263463802244663,3.353581295543313,1.6904262647154934e+18,77.05349340820312,0.102679443359375,0.611798095703125,0.0646636962890625,1.6904262647142395e+18,77.0522396484375,3.366331471523046,8.87963265284419,-2.429539106353819,1.6904262647142395e+18,77.0522396484375,0.1535811454057693,1.0101991325616837,1.924232578277588,1.6904262647104837e+18,77.04848359374999,0.1109072873368859,0.8696310505270958,1.8641921281814575,,,,,,,,,,,,,1.6904262647142395e+18,77.0522396484375,25.090809631347657,37.53413772583008,5.707833862304687,1.6904262647085125e+18,77.04651215820311,71.32056579589843,70.36203308105469,124.13290405273438,1.6904262647142395e+18,77.0522396484375,-2.8996012213384352,-0.8166652597664233,-0.196508870942274,-2.514169070349268,0.5381369482399456,0.0678848887072337,-1.133075150099023
2.1,1.6904262647643377e+18,77.10233759765626,5.326222612439393,1.8094945939350129,0.8549505620108544,1.6904262647655916e+18,77.10359140624999,0.967626953125,1.3213653564453125,-0.26461181640625,1.6904262647643377e+18,77.10233759765626,2.336120788718015,9.203473912534712,-2.439942105459422,1.6904262647643377e+18,77.10233759765626,0.5110453426837921,0.9198781847953796,1.401322865486145,1.6904262647605816e+18,77.09858154296874,0.5303049862384797,1.1121094405651093,1.5414278507232666,,,,,,,,,,,,,1.6904262647643377e+18,77.10233759765626,21.26907958984375,39.8918342590332,4.626643371582031,1.6904262647605192e+18,77.09851899414062,67.46363525390625,72.67891845703124,123.04761352539064,1.6904262647643377e+18,77.10233759765626,-2.7773918456253273,-0.7821421383870708,-0.2219507601837322,-2.33236982153045,0.5757958388083659,0.0853091096396505,-1.218773645793303
2.15,1.6904262648144356e+18,77.15243564453125,8.522287767480611,5.532228935344219,-4.382288792630732,1.6904262648156892e+18,77.153689453125,0.964288330078125,1.33463134765625,-0.672503662109375,1.6904262648144356e+18,77.15243564453125,2.1139832106408476,9.266300780230164,-2.414610241934657,1.6904262648144356e+18,77.15243564453125,-0.452943604439497,-0.3554864108562469,-0.2760342478752136,1.6904262648106796e+18,77.14867958984375,-0.3861954167485237,-0.3580715417861938,-0.2031992506235838,,,,,,,,,,,,,1.6904262648144356e+18,77.15243564453125,19.754898071289062,40.55037307739258,4.819908142089844,1.6904262648125228e+18,77.15052255859375,66.23292236328125,73.1901641845703,123.27945251464844,1.6904262648144356e+18,77.15243564453125,-2.7331514521879376,-0.7750386673155145,-0.2224180357051431,-2.2898840871808774,0.5854407796217214,0.0841484235039394,-1.2373894653827668
2.2,1.6904262648645338e+18,77.20253364257812,1.1096249957816302,0.6656151833391191,1.2345791461488602,1.6904262648657874e+18,77.20378735351562,0.256072998046875,1.080072021484375,-0.0178955078125,1.6904262648645338e+18,77.20253364257812,2.296964894823879,9.168059484804273,-2.615165430600643,1.6904262648645338e+18,77.20253364257812,-0.1201973497867583,0.5557969497516752,-0.1840359218418598,1.6904262648607775e+18,77.19877758789063,-0.1997631780803203,0.4152074158191681,-0.2415351778268814,,,,,,,,,,,,,1.6904262648645338e+18,77.20253364257812,20.431396484375,40.315259552001955,4.304714965820312,1.6904262648645292e+18,77.202529296875,67.05487365722657,72.92999877929688,122.63455810546876,1.6904262648645338e+18,77.20253364257812,-2.7310834080570117,-0.7818334347776241,-0.2268205157384513,-2.2915306167947476,0.5756948375741738,0.0764295567466078,-1.2079461536890088
2.25,1.6904262649146317e+18,77.25263168945312,1.637224740998,5.190140071301459,4.361013481794297,1.6904262649158856e+18,77.25388540039062,0.43504638671875,1.474249267578125,0.1010345458984375,1.6904262649146317e+18,77.25263168945312,2.1746435187260804,9.204847772784232,-2.589842773295641,1.6904262649146317e+18,77.25263168945312,0.4937965273857116,0.794892418384552,-0.3261669516563416,1.6904262649108756e+18,77.24887563476562,0.496613335609436,0.9036781504750252,-0.2446262571960687,,,,,,,,,,,,,1.6904262649146317e+18,77.25263168945312,20.59507751464844,40.24473190307617,3.930458068847656,1.690426264911335e+18,77.24933489990235,67.04481887817383,72.86393356323242,122.38265228271484,1.6904262649146317e+18,77.25263168945312,-2.76310732756352,-0.7754308055420526,-0.2426586151224407,-2.269250743035046,0.5746570621837406,0.0976642448806702,-1.218669198225966
2.3,1.6904262649647296e+18,77.30272958984375,-6.2339958330993355,-3.847913445025682,0.162785985276848,1.6904262649659835e+18,77.30398339843751,-0.6136993408203125,0.3807281494140625,-0.2129150390625,1.6904262649647296e+18,77.30272958984375,2.2579148286178707,9.230646698524952,-2.420278642959892,1.6904262649647296e+18,77.30272958984375,0.5643702626228333,1.013407051563263,0.2681020304560661,1.6904262649609736e+18,77.29897358398438,0.558332359790802,0.8975862026214599,0.1359596967697143,,,,,,,,,,,,,1.6904262649647296e+18,77.30272958984375,21.170449829101564,39.645293426513675,4.650791931152344,1.690426264958141e+18,77.296141015625,67.6708984375,72.24985046386719,123.18023986816408,1.6904262649647296e+18,77.30272958984375,-2.8485188773767582,-0.7754028759523948,-0.2455337124047738,-2.3212625073103403,0.5697137916174093,0.1175353381622629,-1.226470907501534
2.35,1.6904262650148275e+18,77.35282758789063,-8.427873453770875,0.654576019834876,0.5234048069706561,1.6904262650160814e+18,77.35408149414062,-0.6174560546875,1.1640625,-0.21551513671875,1.6904262650148275e+18,77.35282758789063,1.6607522731275854,9.372311072996258,-2.3478163703043755,1.6904262650148275e+18,77.35282758789063,0.2304981350898742,1.0295856833457946,1.5634610891342162,1.6904262650110715e+18,77.34907163085937,0.2645124584436416,1.1316871166229248,1.467335224151611,1.6904262649994268e+18,77.3374267578125,76.42625341936946,1.205608202605689,-1.0,49.28003681396447,95.60768232867122,-1.0,5.849129090829038,1.3100729134861455,-122.96826504660916,0.1417678128377787,1.6904262650148275e+18,77.35282758789063,19.930270385742187,40.10203018188477,4.6384765625,1.6904262650101478e+18,77.3481478515625,66.22682495117188,72.83298950195312,123.0836395263672,1.6904262650148275e+18,77.35282758789063,-2.7732022663724685,-0.7518494747517306,-0.2676588681575039,-2.1831189086936846,0.5861638955028278,0.1389883243795014,-1.2724242867211486
2.4,1.6904262650649257e+18,77.40292563476562,0.3556913825355098,1.060486023307443,-0.5984669453132152,1.690426265066179e+18,77.40417939453125,0.2275848388671875,1.03436279296875,-0.2586822509765625,1.6904262650649257e+18,77.40292563476562,0.6366152184543385,9.490491696027515,-2.368397824431658,1.6904262650649257e+18,77.40292563476562,-0.0757778480648994,1.7807352662086486,1.6745414972305297,1.6904262650611697e+18,77.39916967773438,-0.0439876966178416,1.6591609835624694,1.769374179840088,,,,,,,,,,,,,1.6904262650649257e+18,77.40292563476562,16.12016143798828,41.70439071655274,4.021553039550781,1.6904262650621514e+18,77.4001513671875,62.28402099609375,74.46549072265626,122.40523376464844,1.6904262650649257e+18,77.40292563476562,-2.466545093155245,-0.715139379382346,-0.2938213061080367,-1.8308833355785803,0.6172785189795191,0.1445281914738974,-1.3162584951840837
2.45,1.6904262651150236e+18,77.45302358398438,-1.1277573616433143,-0.6207070679807662,3.3230086672078074,1.6904262651162772e+18,77.45427739257812,-0.2413818359375,0.8968292236328125,0.0900787353515625,1.6904262651150236e+18,77.45302358398438,-0.2127860607858747,9.48930815610528,-2.4544519845880566,1.6904262651150236e+18,77.45302358398438,-0.0342504463158547,3.090429925918579,0.8982501983642578,1.6904262651112678e+18,77.44926767578124,-0.0722133181989192,3.055218982696533,0.8962886691093445,,,,,,,,,,,,,1.6904262651150236e+18,77.45302358398438,13.864656829833985,42.676859283447264,2.1662948608398436,1.6904262651141548e+18,77.45215473632814,60.07283325195313,75.37112426757812,120.3393768310547,1.6904262651150236e+18,77.45302358398438,-2.2408986375598112,-0.6774841797858083,-0.3447205000566274,-1.4848519754169691,0.6258924452904422,0.1728764674328375,-1.3157093222421885
2.5,1.6904262651651215e+18,77.50312158203126,0.1610350791823863,-0.4870140523278713,-0.092359514684826,1.6904262651663754e+18,77.504375390625,-0.017193603515625,0.9132904052734376,-0.301708984375,1.6904262651651215e+18,77.50312158203126,-0.9670430826870352,9.481969366875887,-2.3005553205312785,1.6904262651651215e+18,77.50312158203126,0.2549412012100219,2.0405963182449343,0.7892333149909974,1.6904262651613655e+18,77.499365625,0.2609315186738967,2.1292385339736937,0.8356321930885315,,,,,,,,,,,,,1.6904262651651215e+18,77.50312158203126,12.343016815185546,43.16474990844726,0.8445632934570313,1.6904262651661563e+18,77.50415659179689,58.35295104980469,76.0002227783203,119.04507751464844,1.6904262651651215e+18,77.50312158203126,-2.0577906489326168,-0.6377209373171493,-0.3908470421030485,-1.1731354781797445,0.6296512623799916,0.2094136965223404,-1.3127570830060065
2.55,1.6904262652152197e+18,77.55321958007812,1.3769660481280088,-0.7308264327269792,-1.6794388826450704,1.6904262652164736e+18,77.5544734375,-0.0474090576171875,0.89569091796875,-0.37755126953125,1.6904262652152197e+18,77.55321958007812,-1.388458040740192,9.47310439099252,-2.119680253238678,1.6904262652152197e+18,77.55321958007812,0.0496670711785554,1.8770145893096923,0.2711689084768295,1.6904262652114637e+18,77.54946357421875,0.0508165210485458,1.899318480491638,0.259576341509819,,,,,,,,,,,,,1.6904262652152197e+18,77.55321958007812,11.146826171875,43.52809982299805,0.0053909301757812,1.6904262652129592e+18,77.55095928955079,57.51964569091797,76.20492553710938,118.3366584777832,1.6904262652152197e+18,77.55321958007812,-1.967768580991421,-0.6106453189652845,-0.4206756790601417,-0.9910979858421964,0.6274911673053298,0.2370845241987646,-1.3092406388594653
2.6,1.6904262652653174e+18,77.603317578125,0.9841958921529352,-0.4725504088807105,-0.7096191894645989,1.6904262652665715e+18,77.60457138671875,-0.0617462158203125,0.9052032470703124,-0.249786376953125,1.6904262652653174e+18,77.603317578125,-1.78502636150226,9.445868593542574,-1.933758950020224,1.6904262652653174e+18,77.603317578125,0.32477907538414,0.947292149066925,0.736328387260437,1.690426265261561e+18,77.5995615234375,0.2980311036109924,1.013966190814972,0.7201015472412109,,,,,,,,,,,,,1.6904262652653174e+18,77.603317578125,10.214279174804688,43.76189346313477,-0.359527587890625,1.6904262652597627e+18,77.5977626953125,56.60188293457031,76.42882385253907,118.13087463378906,1.6904262652653174e+18,77.603317578125,-1.871737346717212,-0.5858332032208187,-0.4432413068851606,-0.8260795141667694,0.6281145792366154,0.2563838289674398,-1.2987290613472706
2.65,1.6904262653154156e+18,77.65341567382812,1.3007481346529723,-0.8258677046155929,0.6391258203423023,1.6904262653166694e+18,77.65466948242188,-0.1040924072265625,0.887060546875,-0.063775634765625,1.6904262653154156e+18,77.65341567382812,-2.248672397724241,9.407314464933872,-1.605724827136695,1.6904262653154156e+18,77.65341567382812,0.808102798461914,0.5559406578540802,0.9955480456352234,1.6904262653116595e+18,77.6496595703125,0.765174126625061,0.5955132305622101,0.971561861038208,,,,,,,,,,,,,1.6904262653154156e+18,77.65341567382812,8.543641662597656,44.057518768310544,0.8000747680664062,1.69042626531177e+18,77.64977021484376,54.87225341796875,76.7239990234375,119.4023895263672,1.6904262653154156e+18,77.65341567382812,-1.6963880179810438,-0.5607466928429365,-0.4505603293282177,-0.6212658257212234,0.641572032636993,0.26616338737765,-1.2844817157762454
2.7,1.6904262653655137e+18,77.7035138671875,2.0829963608682154,0.0855811358171701,-0.997276761391759,1.6904262653667676e+18,77.704767578125,-0.0862823486328125,0.97667236328125,-0.2799957275390625,1.6904262653655137e+18,77.7035138671875,-2.731256446328461,9.353050609113572,-1.0943275756979731,1.6904262653655137e+18,77.7035138671875,0.9832295417785644,0.3307679504156112,0.7957738161087036,1.6904262653617577e+18,77.69975786132812,1.0173448204994202,0.3259145647287368,0.8342060685157776,,,,,,,,,,,,,1.6904262653655137e+18,77.7035138671875,6.639561462402344,44.30358963012695,3.467329406738281,1.690426265363778e+18,77.7017779296875,52.99853515625,76.95693664550781,122.17567138671876,1.6904262653655137e+18,77.7035138671875,-1.466183964240163,-0.5339310870853764,-0.4461712553316167,-0.3820065806971017,0.6634396211900182,0.2749712934388256,-1.2654964054579572
2.75,1.690426265415612e+18,77.75361181640625,1.4980620909884572,1.2075179453873637,-3.260543004814088,1.6904262654168655e+18,77.75486557617187,-0.148919677734375,1.092828369140625,-0.421856689453125,1.690426265415612e+18,77.75361181640625,-2.996532938134372,9.308413711912037,-0.7349605806961655,1.690426265415612e+18,77.75361181640625,0.2146125867962837,0.5976953446865082,0.2418849304318427,1.690426265411856e+18,77.74985581054688,0.2849349528551101,0.5614815413951874,0.2825325787067413,,,,,,,,,,,,,1.690426265415612e+18,77.75361181640625,5.717420959472657,44.20735244750976,5.370094299316406,1.6904262654157855e+18,77.75378544921875,52.14559631347656,76.77908630371094,124.1206298828125,1.690426265415612e+18,77.75361181640625,-1.3408168701438476,-0.5158263680784272,-0.4450075928116074,-0.240661299990622,0.6743484334481944,0.2848212261565382,-1.250672565334384
2.8,1.6904262654657098e+18,77.80370981445313,2.906966356716752,1.36973469402194,-1.7949267594610157,1.6904262654619538e+18,77.79995373535156,0.0179862976074218,1.0808944702148438,-0.2118797302246093,1.6904262654657098e+18,77.80370981445313,-3.0335895801138877,9.300712986728549,-0.6809769738958775,1.6904262654657098e+18,77.80370981445313,-0.4103316038846969,1.2033986926078797,-0.2624895274639129,1.6904262654619538e+18,77.79995380859376,-0.4187364310026168,1.2209327220916748,-0.2040760047733783,,,,,,,,,,,,,1.6904262654657098e+18,77.80370981445313,5.969281005859375,44.01520614624023,5.835859680175782,1.690426265462591e+18,77.80059088134766,52.56899642944336,76.64639663696289,124.27016830444336,1.6904262654657098e+18,77.80370981445313,-1.3708542972357969,-0.5062043535111794,-0.4606710150313125,-0.2208334493070507,0.6651226274119745,0.2984221377562426,-1.2481885453518102
2.85,1.6904262655158075e+18,77.85380781250001,3.8464915955290193,2.3320775046765805,-4.182821486879736,1.690426265507042e+18,77.8450419921875,0.1152099609375,1.18985595703125,-0.48021240234375,1.6904262655158075e+18,77.85380781250001,-2.7317511272037027,9.387479182224869,-0.7435777485243975,1.6904262655158075e+18,77.85380781250001,-0.5199288547039032,-0.0448625728487968,-1.1547409296035769,1.690426265512052e+18,77.85005180664062,-0.459295791387558,0.0845343351364135,-1.0768528699874875,,,,,,,,,,,,,1.6904262655158075e+18,77.85380781250001,7.617953491210938,43.639434051513675,5.929325866699219,1.6904262655093998e+18,77.84739965820313,54.30340576171875,76.23817749023438,124.4289093017578,1.6904262655158075e+18,77.85380781250001,-1.456608888823404,-0.5121764183801476,-0.4700261177653787,-0.2675286151599502,0.6467782130305382,0.3136034965368913,-1.2776685923242188
2.9,1.6904262655659057e+18,77.90390581054687,3.290560191223919,2.845127447919249,-2.2493481050287185,1.69042626555714e+18,77.8951400390625,0.148748779296875,1.2614288330078125,-0.384210205078125,1.6904262655659057e+18,77.90390581054687,-1.8102252170710265,9.54438695234418,-1.2699486679851264,1.6904262655659057e+18,77.90390581054687,-1.236776614189148,-1.277427315711975,-2.567495203018189,1.69042626556215e+18,77.90014985351563,-1.2077625274658204,-1.2655886650085448,-2.463810920715332,,,,,,,,,,,,,1.6904262655659057e+18,77.90390581054687,11.001010131835937,42.6775764465332,6.386431884765625,1.6904262655614085e+18,77.8994083984375,57.816348266601565,75.20870056152344,124.90001220703124,1.6904262655659057e+18,77.90390581054687,-1.7847878464059292,-0.5579725876516567,-0.4591943251243943,-0.6260194459779231,0.6174750839906176,0.3098737945495161,-1.3397724203784782
2.95,1.6904262656160038e+18,77.95400375976563,-0.8819441774288563,5.045010066546201,4.50441803638339,1.690426265607238e+18,77.94523798828125,-0.116259765625,1.483465576171875,0.264453125,1.6904262656160038e+18,77.95400375976563,-0.3548703384297387,9.60109960416913,-1.9172734161305427,1.6904262656160038e+18,77.95400375976563,-1.0612706899642943,-0.3319515965878963,-2.9026268482208253,1.6904262656122478e+18,77.95024780273437,-1.0960058212280273,-0.4197486400604248,-2.939968538284302,,,,,,,,,,,,,1.6904262656160038e+18,77.95400375976563,15.471913909912107,40.95147933959961,6.566671752929688,1.690426265613415e+18,77.95141455078125,62.28861999511719,73.45711975097656,125.02003479003906,1.6904262656160038e+18,77.95400375976563,-2.509698737908687,-0.6205370564863818,-0.4419765067941926,-1.3804250475854338,0.5678889716248188,0.3108053955415204,-1.3658353456616543
3.0,1.6904262656661018e+18,78.00410175781249,-1.7727401789985595,4.34323694363296,3.020213322738111,1.690426265657336e+18,77.9953359375,-0.0995025634765625,1.4244781494140626,0.0716705322265625,1.6904262656661018e+18,78.00410175781249,0.8726996860955655,9.480313767075538,-2.3295161005298795,1.6904262656661018e+18,78.00410175781249,-0.6604573965072632,0.4153606623411178,-2.397715377807617,1.6904262656623457e+18,78.00034580078125,-0.6779370427131652,0.4367023885250091,-2.415035772323608,,,,,,,,,,,,,1.6904262656661018e+18,78.00410175781249,18.504837036132812,39.761775970458984,5.7402099609375,1.6904262656654208e+18,78.00342099609375,65.48555603027344,72.22673645019532,124.02369384765623,1.6904262656661018e+18,78.00410175781249,-0.5600115580931203,-0.66077737284632,-0.4356188282703071,-1.9212040220587017,0.5152992773381889,0.328259965140621,-1.3129031193815135
3.05,1.6904262657162e+18,78.0541998046875,-2.5009269108717143,1.12104038680017,3.4226586311617497,1.690426265707434e+18,78.04543403320312,-0.054998779296875,1.0606475830078126,0.0900909423828125,1.6904262657162e+18,78.0541998046875,1.9341592013841868,9.258840410447716,-2.57175924423784,1.6904262657162e+18,78.0541998046875,-0.3388822317123413,-0.3114490807056426,-2.103666567802429,1.690426265712444e+18,78.05044379882813,-0.3656759321689605,-0.2487569242715835,-2.1334874629974365,,,,,,,,,,,,,1.6904262657162e+18,78.0541998046875,21.005158996582033,39.050402069091795,4.524859619140625,1.6904262657122286e+18,78.05022857666015,67.93646240234375,71.61748886108398,122.72773361206056,1.6904262657162e+18,78.0541998046875,2.9033362190477923,-0.6924370868288381,-0.4239160628602024,-2.2115419330878177,0.4706763880529328,0.3450436088577154,-1.2356543042403625
3.1,1.690426265766298e+18,78.1042978515625,-4.344898622460962,-1.5044452453804016,0.947277577278614,1.6904262657575322e+18,78.09553208007813,-0.14765625,0.7739166259765625,-0.1664886474609375,1.690426265766298e+18,78.1042978515625,2.8935339267873763,8.99473565122187,-2.612564483548105,1.690426265766298e+18,78.1042978515625,-0.2621509104967117,-0.722511601448059,-1.7025484323501587,1.6904262657625418e+18,78.10054179687499,-0.2502779096364975,-0.7166745901107788,-1.7415782928466796,,,,,,,,,,,,,1.690426265766298e+18,78.1042978515625,23.489768981933594,38.54515609741211,3.650115966796875,1.690426265759038e+18,78.09703784179688,70.18122253417968,71.13323059082032,122.07828979492189,1.690426265766298e+18,78.1042978515625,2.7274842493730427,-0.7226552252620554,-0.3994243415488959,-2.4051999766414687,0.4391120759327874,0.3538805534508626,-1.1615049045204908
3.15,1.6904262658163958e+18,78.15439584960937,-4.4606447702738645,-2.177295991383194,1.0588539212870596,1.69042626580763e+18,78.14563017578125,-0.0874847412109375,0.666339111328125,-0.166400146484375,1.6904262658163958e+18,78.15439584960937,3.6016952894330023,8.71903304246962,-2.6736231725272535,1.6904262658163958e+18,78.15439584960937,-0.4774861991405487,-0.6116647720336914,-1.005815088748932,1.6904262658126395e+18,78.15063979492189,-0.4647442877292633,-0.5994196772575379,-1.079327929019928,,,,,,,,,,,,,1.6904262658163958e+18,78.15439584960937,25.875782775878907,38.10080642700195,2.8529327392578123,1.6904262658110454e+18,78.14904545898438,72.50178833007813,70.7206787109375,121.24366760253906,1.6904262658163958e+18,78.15439584960937,2.654984953429543,-0.7471505253260431,-0.3792904048465036,-2.5025757629347645,0.4152798624713587,0.3540686449450876,-1.0956060930319942
3.2,1.6904262658664937e+18,78.20449379882812,-4.774195639000832,-3.1051625319403406,2.995720511159897,1.690426265857728e+18,78.195728125,-0.094580078125,0.564483642578125,0.02340087890625,1.6904262658664937e+18,78.20449379882812,3.851022224695981,8.594857679842114,-2.7326874143666027,1.6904262658664937e+18,78.20449379882812,-0.2724222466349601,-0.5904269576072693,0.3166337341070175,1.690426265862738e+18,78.20073789062499,-0.3052424177527427,-0.6327949941158295,0.2181156620383262,,,,,,,,,,,,,1.6904262658664937e+18,78.20449379882812,26.51923522949219,38.39780807495117,2.092851257324219,1.6904262658630487e+18,78.20104877929688,72.9726806640625,71.10943603515625,120.53075866699218,1.6904262658664937e+18,78.20449379882812,2.6684684324734,-0.760931322903452,-0.3677893487524545,-2.5244383544820104,0.4103324105745043,0.3425071945371719,-1.0684072631697326
3.25,1.690426265916592e+18,78.25459204101563,-3.6668005065500737,-4.08163019715488,2.799744700786471,1.6904262659078262e+18,78.24582622070312,-0.0234832763671875,0.4745880126953125,0.0108245849609375,1.690426265916592e+18,78.25459204101563,3.460420148088038,8.756668185763358,-2.7324975032046437,1.690426265916592e+18,78.25459204101563,0.2628876328468322,0.7101084589958191,1.436758017539978,1.690426265912836e+18,78.25083603515625,0.224466024339199,0.6114892523735762,1.3615166425704956,,,,,,,,,,,,,1.690426265916592e+18,78.25459204101563,24.215940856933592,40.030181121826175,1.642864990234375,1.6904262659150495e+18,78.25304975585938,70.4268798828125,72.84022216796875,120.052587890625,1.690426265916592e+18,78.25459204101563,2.7276511958982725,-0.751533248285176,-0.3753617659086829,-2.4720962806720963,0.4272981847780226,0.3340364042965046,-1.104154597923914
3.3,1.6904262659666898e+18,78.30468999023438,1.00659193603456,-2.0561178231972455,0.2314917111039161,1.6904262659579244e+18,78.29592431640626,0.3371856689453125,0.7040863037109375,-0.24390869140625,1.6904262659666898e+18,78.30468999023438,2.5061211477400365,9.086003249790668,-2.6899775689309835,1.6904262659666898e+18,78.30468999023438,0.5997799158096313,1.201695477962494,1.8804639339447025,1.6904262659629338e+18,78.300933984375,0.5925617575645447,1.260675859451294,1.9132202863693235,,,,,,,,,,,,,1.6904262659666898e+18,78.30468999023438,20.544879150390624,41.92750778198242,0.8967422485351563,1.690426265961853e+18,78.29985260009765,66.08857345581055,75.01155471801758,119.2087287902832,1.6904262659666898e+18,78.30468999023438,2.8346213075880127,-0.7166572801670498,-0.4060390623660006,-2.3175429428261967,0.4551910499031659,0.3377087293282957,-1.1858093124047488
3.35,1.690426266016788e+18,78.35478793945313,9.730537768082618,6.127979373627305,-4.886129944214522,1.6904262660080225e+18,78.34602221679688,1.178125,1.5574798583984375,-0.7413330078125,1.690426266016788e+18,78.35478793945313,1.878287588880211,9.283317264578342,-2.5415215177190302,1.690426266016788e+18,78.35478793945313,0.0048257924616336,-0.382847061753273,0.3402838826179504,1.690426266013032e+18,78.35103198242187,0.1031354397535324,-0.2893869191408157,0.4883436890784651,1.6904262659994196e+18,78.33741967773437,76.10059700906277,1.469166773762136,-1.0,49.28003970229163,95.28202591836452,-1.0,5.6159593422249925,1.5117994904300884,-122.96825070827546,0.1165243995151001,1.690426266016788e+18,78.35478793945313,16.03957290649414,43.63832473754883,0.6144699096679688,1.6904262660086564e+18,78.34665649414062,62.276266479492186,76.36531982421874,119.09106140136718,1.690426266016788e+18,78.35478793945313,2.9304862702275645,-0.6942867155697734,-0.4189277759155464,-2.2071476074820646,0.4782479923167736,0.3372290602515162,-1.2426710018149674
3.4,1.690426266066886e+18,78.40488598632813,5.07206150579214,1.1082131708353755,-2.9606565043023227,1.6904262660581202e+18,78.39612016601562,0.75111083984375,1.07384033203125,-0.5975494384765625,1.690426266066886e+18,78.40488598632813,2.100398308176547,9.196730517302154,-2.677029941456914,1.690426266066886e+18,78.40488598632813,-0.5123154103755951,-0.8474273204803466,-0.412531316280365,1.69042626606313e+18,78.40113007812501,-0.5599862307310104,-0.8715220212936401,-0.4519339069724083,,,,,,,,,,,,,1.690426266066886e+18,78.40488598632813,15.600917053222656,44.523583221435544,-0.2257293701171875,1.690426266060665e+18,78.39866513671875,62.10804443359375,77.23945007324218,118.13646240234377,1.690426266066886e+18,78.40488598632813,2.9389525982063818,-0.7088258645617984,-0.4092353594371444,-2.2356893779781593,0.4747815071009496,0.3234253204407401,-1.2163966745674586
3.45,1.6904262661119744e+18,78.44997436523437,-0.8433968804197385,0.6989686453387141,4.209533976494893,1.690426266108218e+18,78.4462181640625,0.1226409912109375,1.0787628173828123,0.19715576171875,1.6904262661119744e+18,78.44997436523437,2.1528007321195677,9.181452985575795,-2.6894029693003745,1.6904262661119744e+18,78.44997436523437,0.4030087199062109,0.6332733323797584,0.2924070507287979,1.6904262661132283e+18,78.45122827148438,0.417727679759264,0.6209886580705642,0.2746998965740203,,,,,,,,,,,,,1.6904262661119744e+18,78.44997436523437,15.463417053222656,45.39162254333496,-1.0207462310791016,1.6904262661126725e+18,78.45067260742186,61.85276489257812,78.261572265625,117.455712890625,1.6904262661119744e+18,78.44997436523437,2.9397246268435997,-0.7122521694497386,-0.4059088638851728,-2.2457156167718813,0.4748368617160522,0.3200648017488301,-1.2118388696311917
3.5,1.690426266157063e+18,78.49506259765624,1.4145648926123977,6.674938483830094,4.669658195266276,1.6904262661583163e+18,78.4963162109375,0.31890869140625,1.5260772705078125,0.0884185791015625,1.690426266157063e+18,78.49506259765624,2.085219034579843,9.249734377737044,-2.500690880932659,1.690426266157063e+18,78.49506259765624,0.6018474102020264,0.4397824358195066,-0.5217465132474899,1.6904262661633262e+18,78.50132617187501,0.5708863496780395,0.4513997346162796,-0.602021461725235,,,,,,,,,,,,,1.690426266157063e+18,78.49506259765624,15.481572723388672,46.344872283935544,-0.7728515625,1.6904262661646776e+18,78.50267768554687,62.32799072265625,79.1247802734375,117.7317901611328,1.690426266157063e+18,78.49506259765624,2.8948287127515826,-0.7033063338580978,-0.4078104013622757,-2.2658466032343347,0.4768258011751072,0.3341378346756519,-1.2321738761218857
3.55,1.6904262662071606e+18,78.545160546875,-7.873127576762437,-5.477073216024637,0.4595106023046373,1.6904262662084145e+18,78.54641440429688,-0.6908966064453125,0.3408416748046875,-0.115045166015625,1.6904262662071606e+18,78.545160546875,2.118095292908698,9.280681538473369,-2.3533240862621367,1.6904262662071606e+18,78.545160546875,0.4960648953914642,1.42812237739563,0.4580261304974556,1.690426266213424e+18,78.55142416992187,0.5139137029647827,1.4915146112442017,0.6512043982744217,,,,,,,,,,,,,1.6904262662071606e+18,78.545160546875,16.57223587036133,46.83068618774414,-0.844061279296875,1.6904262662114816e+18,78.54948150634766,62.90977096557617,79.79503631591797,117.47668838500977,1.6904262662071606e+18,78.545160546875,2.8130548161339037,-0.6940753227903008,-0.4135101065092799,-2.302952819073435,0.470074869619719,0.3552033089928947,-1.2419385642809364
3.6,1.6904262662572588e+18,78.59525864257812,-7.1745547111952295,1.698041233332157,0.3928220615188778,1.6904262662585124e+18,78.59651235351564,-0.4929779052734375,1.210552978515625,-0.29339599609375,1.6904262662572588e+18,78.59525864257812,1.4579492909217624,9.43218283182621,-2.2405471342922745,1.6904262662572588e+18,78.59525864257812,0.4182558417320251,0.911755394935608,1.575241780281067,1.690426266263522e+18,78.60152221679688,0.3741855859756469,0.8375646471977234,1.706174898147583,,,,,,,,,,,,,1.6904262662572588e+18,78.59525864257812,14.821361541748049,48.06277847290039,-1.2706802368164063,1.6904262662582874e+18,78.59628749999999,60.21693420410156,81.13654479980468,117.16417846679688,1.6904262662572588e+18,78.59525864257812,2.9104873729045613,-0.6626195362750926,-0.439832066674221,-2.1437453813873755,0.4817968961403771,0.3676807731376065,-1.2940431450719636
3.65,1.6904262663073567e+18,78.64535668945312,1.7901492428608985,0.4218808950644731,-1.3268821083408593,1.6904262663086106e+18,78.64661040039063,0.328692626953125,0.9916839599609376,-0.263818359375,1.6904262663073567e+18,78.64535668945312,0.4873350279105454,9.542217791611552,-2.193881186255067,1.6904262663073567e+18,78.64535668945312,-0.0318686306476593,1.424475872516632,1.5294563174247742,1.6904262663136202e+18,78.65162026367187,-0.0717999920248985,1.5942945718765258,1.3483652353286744,,,,,,,,,,,,,1.6904262663073567e+18,78.64535668945312,10.287519073486328,49.62122573852539,-1.592877197265625,1.690426266310294e+18,78.6482939453125,55.64002685546875,82.61941833496094,116.64327697753906,1.6904262663073567e+18,78.64535668945312,-1.803038262005784,-0.6265009650921751,-0.4708559436071519,-1.787325681284787,0.5033122043103135,0.3636448798545486,-1.338096856888365
3.7,1.6904262663574546e+18,78.69545458984376,-1.4379837036705017,-0.9934902285903692,3.8179789684632417,1.6904262663587085e+18,78.69670834960938,-0.2960845947265625,0.8735382080078125,0.14605712890625,1.6904262663574546e+18,78.69545458984376,-0.2068628566224546,9.556383328894972,-2.183008553037196,1.6904262663574546e+18,78.69545458984376,0.2823799267411232,2.4280863285064695,0.85939462184906,1.690426266363718e+18,78.7017181640625,0.3547264993190765,2.415448522567749,0.9300327897071838,,,,,,,,,,,,,1.6904262663574546e+18,78.69545458984376,7.374980926513672,50.62623672485351,-2.703773498535156,1.6904262663622996e+18,78.70029956054688,53.26448059082031,83.50596923828125,115.56115417480468,1.6904262663574546e+18,78.69545458984376,-2.8419372768516267,-0.5889589585798574,-0.5098339443882905,-1.4751210564482329,0.5004785121897107,0.377315816472874,-1.3444137046817284
3.75,1.6904262664075525e+18,78.74555258789061,0.2833717697536945,-0.3010421002876758,-0.4570385715548694,1.6904262664088064e+18,78.74680639648437,0.0513885498046875,0.93651123046875,-0.2988037109375,1.6904262664075525e+18,78.74555258789061,-0.9291477687001972,9.568069090513584,-1.9288432962845263,1.6904262664075525e+18,78.74555258789061,0.3994511067867278,1.682814431190491,0.966902768611908,1.6904262664138163e+18,78.7518162109375,0.3623568832874298,1.6142903566360474,0.8544971585273743,,,,,,,,,,,,,1.6904262664075525e+18,78.74555258789061,4.6475067138671875,51.51945419311524,-2.721623229980469,1.6904262664143058e+18,78.75230581054687,50.31936340332031,84.40242614746094,115.85218505859376,1.6904262664075525e+18,78.74555258789061,-2.588033669539657,-0.5440883334106839,-0.544786236386029,-1.1222059783019684,0.5005196285807924,0.3955469319859244,-1.3497646342142402
3.8,1.6904262664576507e+18,78.79565053710937,0.6557961508274077,-0.9381702586197852,-1.6954156779080627,1.6904262664589043e+18,78.79690439453125,-0.1572998046875,0.891082763671875,-0.31134033203125,1.6904262664576507e+18,78.79565053710937,-1.3721113600254058,9.558612929190993,-1.7042608092732727,1.6904262664576507e+18,78.79565053710937,0.2711439102888107,1.3150733590126038,0.5888019859790802,1.6904262664639142e+18,78.80191416015626,0.3044450104236603,1.2371351718902588,0.6469931423664093,,,,,,,,,,,,,1.6904262664576507e+18,78.79565053710937,2.661463165283203,52.409175872802734,-2.5918212890625,1.69042626646111e+18,78.79910998535156,48.92729949951172,85.22536849975586,115.85849380493164,1.6904262664576507e+18,78.79565053710937,-2.429732770311255,-0.5124905239426722,-0.5672403565540753,-0.8935244590933815,0.4981596804721159,0.4090420778819573,-1.34541954581705
3.85,1.6904262665077489e+18,78.84574877929688,0.9154875067512692,-0.224651168333292,-0.2143151554362475,1.6904262665090022e+18,78.84700229492186,-0.055804443359375,0.9411651611328123,-0.1726776123046875,1.6904262665077489e+18,78.84574877929688,-1.822770050510913,9.52783013601005,-1.4288853281965852,1.6904262665077489e+18,78.84574877929688,0.5882828056812286,0.5520941615104675,0.9081228971481324,1.6904262665140124e+18,78.85201235351562,0.6222262263298035,0.522482055425644,0.917413294315338,,,,,,,,,,,,,1.6904262665077489e+18,78.84574877929688,1.0626876831054688,53.079508209228514,-2.10382080078125,1.6904262665079163e+18,78.8459166015625,47.01917724609375,85.86250305175781,116.72843017578126,1.6904262665077489e+18,78.84574877929688,-2.2428779492029736,-0.4851069555658729,-0.5814196308721952,-0.6662183960474181,0.5048414191692573,0.4143484641223406,-1.3318175867011155
3.9,1.6904262665578468e+18,78.89584672851564,1.2811477712914343,-0.1489373465359211,-0.5922887535218895,1.6904262665591004e+18,78.89710043945313,-0.107293701171875,0.9601104736328124,-0.171856689453125,1.6904262665578468e+18,78.89584672851564,-2.312689381213188,9.470940958574412,-1.0421428642392905,1.6904262665578468e+18,78.89584672851564,0.8310588121414184,0.3460986286401749,1.015100288391113,1.6904262665641103e+18,78.9021103515625,0.8466883063316345,0.3170547008514404,0.9964839220046996,,,,,,,,,,,,,1.6904262665578468e+18,78.89584672851564,-1.259943389892578,53.78990249633789,-0.47396240234375,1.6904262665599214e+18,78.89792133789062,44.410882568359376,86.65357360839843,118.55662841796877,1.6904262665578468e+18,78.89584672851564,-2.018001930871146,-0.4585667358163329,-0.5876656194729645,-0.4255430918448755,0.5220416758486018,0.4144172353067049,-1.3085206587625255
3.95,1.6904262666079447e+18,78.9459447265625,2.673289176719486,0.5679077902072668,-2.4154055424177647,1.6904262666091986e+18,78.94719853515626,-0.010101318359375,1.044134521484375,-0.3329071044921875,1.6904262666079447e+18,78.9459447265625,-2.6988171181121468,9.40543861728549,-0.6418402377066761,1.6904262666079447e+18,78.9459447265625,0.6018901467323303,0.2481876879930495,0.4638013571500778,1.6904262666142085e+18,78.95220825195312,0.532923036813736,0.2745983242988586,0.3732674330472946,,,,,,,,,,,,,1.6904262666079447e+18,78.9459447265625,-3.629607391357422,54.53477096557617,1.6235549926757813,1.6904262666119278e+18,78.94992778320312,42.55993041992187,87.421875,120.562646484375,1.6904262666079447e+18,78.9459447265625,-1.832446167407714,-0.4361891058007135,-0.5884176436165501,-0.2340403465068861,0.5397731388393134,0.4148686528570445,-1.2837946732612306
4.0,1.6904262666580426e+18,78.99604267578124,1.3469811273264882,1.5288028570455312,-2.734859614613056,1.6904262666592965e+18,78.99729658203125,-0.1521514892578125,1.1131561279296875,-0.3205841064453125,1.6904262666580426e+18,78.99604267578124,-2.7830831381297108,9.393006538118122,-0.442156140093319,1.6904262666580426e+18,78.99604267578124,0.0260478563606739,0.5527884542942048,-0.0626950554549693,1.6904262666643062e+18,79.00230629882813,-0.0405645802617073,0.6322951555252075,-0.0990278845652937,,,,,,,,,,,,,1.6904262666580426e+18,78.99604267578124,-3.9319732666015623,55.35584182739258,2.679725646972656,1.6904262666639345e+18,79.00193427734375,42.69737854003906,88.27568664550782,121.15206909179688,1.6904262666580426e+18,78.99604267578124,-1.7714870936349818,-0.4253931119337111,-0.5896421627052659,-0.1575252500818072,0.5424160602450939,0.4208718010116777,-1.2793201775725591
4.05,1.6904262667081408e+18,79.04614072265625,3.143282886854708,2.159281143647432,-1.9660851074921708,1.6904262667093944e+18,79.04739448242188,0.0839202880859375,1.2171722412109376,-0.2903839111328125,1.6904262667081408e+18,79.04614072265625,-2.649388836528659,9.432456037357449,-0.4135116668087988,1.6904262667081408e+18,79.04614072265625,-0.1681907668709755,0.3380788182839751,-0.6696657061576843,1.6904262667144044e+18,79.05240434570312,-0.1772736355662345,0.1608800143003463,-0.7922354519367218,,,,,,,,,,,,,1.6904262667081408e+18,79.04614072265625,-2.590259552001953,56.442919158935545,2.281871032714844,1.690426266715943e+18,79.05394291992187,44.68141174316406,89.30522766113282,120.629052734375,1.6904262667081408e+18,79.04614072265625,-1.8018490085371424,-0.4215164230672904,-0.5946194319224843,-0.1550720641079431,0.5305604939156529,0.4326943464719737,-1.2938147080558795
4.1,1.6904262667582387e+18,79.09623876953125,3.6694305043405295,2.0807646562933924,-5.328478399316071,1.6904262667594924e+18,79.09749243164063,0.210650634765625,1.1595306396484375,-0.58804931640625,1.6904262667582387e+18,79.09623876953125,-2.023117763132155,9.571336334068178,-0.6038442398243398,1.6904262667582387e+18,79.09623876953125,-0.4852835476398468,-1.3061473488807678,-2.105975246429443,1.6904262667645025e+18,79.10250239257813,-0.5252366125583648,-1.5269293904304504,-2.3546500205993652,,,,,,,,,,,,,1.6904262667582387e+18,79.09623876953125,0.9841888427734377,57.18626022338867,1.6140655517578124,1.69042626676275e+18,79.10075,49.25065612792969,90.02577209472656,119.82862854003906,1.6904262667582387e+18,79.09623876953125,-1.9287843058676104,-0.4481947079115801,-0.5793884450454602,-0.3010432032618009,0.5170648447507042,0.4424397755735077,-1.3528535873775334
4.15,1.690426266808337e+18,79.14633671875,0.1320271282672882,1.953358874990344,-2.3582945096988976,1.6904262668095908e+18,79.14759072265625,-0.1919677734375,1.2157257080078123,-0.262420654296875,1.690426266808337e+18,79.14633671875,-0.5749244530765154,9.718284786422252,-1.0771453355549274,1.690426266808337e+18,79.14633671875,-1.015617942810059,-1.8407671213150023,-3.0563117980957033,1.6904262668146004e+18,79.15260034179687,-1.0674463391304017,-1.6411221385002135,-2.9689258098602296,,,,,,,,,,,,,1.690426266808337e+18,79.14633671875,8.697499084472657,57.32035446166992,0.7481216430664063,1.6904262668095557e+18,79.14755581054688,57.98945922851563,89.72284240722657,118.80872192382812,1.690426266808337e+18,79.14633671875,-2.642366347252061,-0.5182346985357176,-0.5342243100052951,-1.1001878741783009,0.4936153728351601,0.449068445968395,-1.436899425166133
4.2,1.690426266858435e+18,79.19643486328125,-3.667518065621853,4.222026977456212,1.3370213127176462,1.6904262668596887e+18,79.19768881835937,-0.222894287109375,1.415576171875,-0.0537139892578125,1.690426266858435e+18,79.19643486328125,0.7634710961766168,9.63651075857699,-1.6151675152297318,1.690426266858435e+18,79.19643486328125,-1.0415254831314087,-0.4357109010219574,-2.195184659957886,1.6904262668646986e+18,79.20269848632813,-1.017519462108612,-0.3910192072391509,-2.1078433275222777,,,,,,,,,,,,,1.690426266858435e+18,79.19643486328125,17.78385238647461,55.96126022338867,-1.3216659545898437,1.6904262668615616e+18,79.19956162109375,66.29883117675782,88.09416809082032,116.47844848632812,1.690426266858435e+18,79.19643486328125,2.7901172870863675,-0.5755410101566387,-0.5035652276435659,-1.994367104843806,0.4553438774071369,0.4555583078367414,-1.3860599118888797
4.25,1.690426266908533e+18,79.24653291015625,-2.5465963659913835,0.9563781154835224,0.6544537378555536,1.6904262669097866e+18,79.24778671875,-0.082781982421875,0.98546142578125,-0.1625,1.690426266908533e+18,79.24653291015625,1.7578565273475646,9.43128453858614,-2.011247672535628,1.690426266908533e+18,79.24653291015625,-0.7930223703384399,-1.1320361852645875,-1.798991823196411,1.6904262669147963e+18,79.252796484375,-0.7740768909454345,-1.26815105676651,-1.7701677322387694,,,,,,,,,,,,,1.690426266908533e+18,79.24653291015625,24.309371948242188,54.02458114624024,-3.1528106689453126,1.6904262669135665e+18,79.25156645507812,72.42835388183593,86.07919921875,115.09933166503906,1.690426266908533e+18,79.24653291015625,2.52649200068925,-0.6154265554646031,-0.4816971265255527,-2.2837402422476236,0.4221610696469132,0.4590558052097623,-1.294331286026907
4.3,1.690426266958631e+18,79.29663095703125,-3.9932208521744608,-0.4465665404140949,-1.0929780169460177,1.6904262669598848e+18,79.29788471679687,-0.1337158203125,0.8731689453125,-0.3434356689453125,1.690426266958631e+18,79.29663095703125,2.6851186138185854,9.167745713453888,-2.2017127274374664,1.690426266958631e+18,79.29663095703125,-0.8532780408859253,-1.8527864694595335,-1.3954431295394898,1.6904262669648945e+18,79.30289458007812,-0.8650331735610962,-1.914502477645874,-1.32504198551178,,,,,,,,,,,,,1.690426266958631e+18,79.29663095703125,29.838502502441408,51.87985916137696,-3.33568115234375,1.6904262669655729e+18,79.30357280273438,77.68395080566407,83.98861389160156,115.24285583496092,1.690426266958631e+18,79.29663095703125,2.431772877107976,-0.6594966293314485,-0.4461870255972414,-2.4526549895679697,0.4048314511098187,0.4492037635171483,-1.2085290177713843
4.35,1.6904262670087288e+18,79.34672895507813,-5.046895091188252,-1.2456996166479586,-0.3248890151777863,1.690426267009983e+18,79.3479828125,-0.171368408203125,0.7794281005859375,-0.249700927734375,1.6904262670087288e+18,79.34672895507813,3.401719537316263,8.907444788877367,-2.2863769529923794,1.6904262670087288e+18,79.34672895507813,-0.9901471495628356,-2.3120229721069334,-0.6396180033683777,1.6904262670149924e+18,79.35299252929687,-1.019542574882507,-2.3188768863677978,-0.5193907171487808,1.690426266999413e+18,79.3374130859375,76.11967797018588,1.5043071422986498,-1.0,49.28004057704544,95.30110687948763,-1.0,5.95279751936422,1.1672189765459038,-122.9682380297114,0.1900788303735132,1.6904262670087288e+18,79.34672895507813,33.642645263671874,50.29225997924805,-2.6844558715820312,1.6904262670123791e+18,79.3503790283203,80.5747184753418,82.73261642456055,115.95951461791992,1.6904262670087288e+18,79.34672895507813,2.442492228113939,-0.7026302320949466,-0.4075442369096036,-2.549178001072684,0.4004373932606659,0.4237020281026558,-1.1394700794698205
4.4,1.6904262670588268e+18,79.39682690429689,-5.109261998608708,-1.017717725682855,1.2945222751015424,1.6904262670600806e+18,79.39808071289062,-0.1337188720703125,0.7792694091796875,-0.063958740234375,1.6904262670588268e+18,79.39682690429689,3.735888422014713,8.755029303289055,-2.358116464331298,1.6904262670588268e+18,79.39682690429689,-1.1281522035598754,-2.1666682243347166,0.3364088982343673,1.6904262670650906e+18,79.40309052734375,-1.1016660451889038,-2.0987430810928345,0.4633457690477371,,,,,,,,,,,,,1.6904262670588268e+18,79.39682690429689,34.94383697509765,50.045284271240234,-2.0146575927734376,1.6904262670591857e+18,79.3971857421875,81.49003601074219,82.87487487792968,116.560009765625,1.6904262670588268e+18,79.39682690429689,2.5368664705457404,-0.7374954294982536,-0.37577701538365,-2.578545349839756,0.4101692714920329,0.3825439114483778,-1.103467259068905
4.45,1.690426267108925e+18,79.44692509765625,-4.4522536662864685,-2.0410800623500345,3.3810779651126266,1.6904262671101788e+18,79.44817890624999,-0.070501708984375,0.6771484375,0.13214111328125,1.690426267108925e+18,79.44692509765625,3.589772854901254,8.790425026319026,-2.4488356352370975,1.690426267108925e+18,79.44692509765625,-0.6304297178983689,-1.11074138879776,1.2121761918067933,1.6904262671151887e+18,79.45318872070312,-0.5167389005422592,-0.9449418544769288,1.2875519514083862,,,,,,,,,,,,,1.690426267108925e+18,79.44692509765625,34.04079895019531,51.55638046264649,-1.9104995727539065,1.6904262671111923e+18,79.44919233398437,79.8933319091797,84.8656982421875,116.47837524414062,1.690426267108925e+18,79.44692509765625,2.6738455596053172,-0.7533868601145122,-0.3605274050617159,-2.5425654018763852,0.4323590912904359,0.3396108594364141,-1.1116088479330164
4.5,1.690426267159023e+18,79.49702319335937,-2.0886312103369833,-2.2236996644484996,4.360455906363725,1.690426267160277e+18,79.498276953125,0.1267822265625,0.7040252685546875,0.191357421875,1.690426267159023e+18,79.49702319335937,3.0320068117409944,9.003690292763114,-2.4226489376747606,1.690426267159023e+18,79.49702319335937,0.2855036288499832,-0.0471188187599181,1.480696392059326,1.690426267165287e+18,79.50328671874999,0.3888964131474495,0.0917570278048515,1.4762821197509766,,,,,,,,,,,,,1.690426267159023e+18,79.49702319335937,30.98613586425781,54.3562614440918,-2.1669937133789063,1.690426267163197e+18,79.50119663085937,76.40800170898437,87.88172607421875,116.33414001464844,1.690426267159023e+18,79.49702319335937,2.789094452492484,-0.7441205289935725,-0.3631426542678099,-2.4664844705441658,0.4620151948359376,0.317550341201668,-1.1637279571922732
4.55,1.6904262672091213e+18,79.54712114257812,1.2120635383147,0.3355009516328572,2.385100566655546,1.690426267210375e+18,79.54837495117188,0.468646240234375,1.0658203125,-0.0993011474609375,1.6904262672091213e+18,79.54712114257812,2.3622700184272225,9.268060775640013,-2.155376946589649,1.6904262672091213e+18,79.54712114257812,0.831233286857605,-0.1268286675214767,1.2979051351547242,1.6904262672153848e+18,79.553384765625,0.8149716019630432,-0.3582249835133552,1.2285594463348388,,,,,,,,,,,,,1.6904262672091213e+18,79.54712114257812,27.21336669921875,57.42491073608399,-1.5218231201171877,1.6904262672151995e+18,79.55319956054687,72.66812133789062,90.87918395996094,117.46363525390623,1.6904262672091213e+18,79.54712114257812,2.8497392223647267,-0.7205398080330151,-0.369993128101955,-2.401408740570832,0.4925196622020905,0.3181572332661956,-1.2385368411225268
4.6,1.6904262672592192e+18,79.59721904296876,6.372917776994704,3.011327947040796,-4.957642281121015,1.690426267260473e+18,79.59847314453125,0.84532470703125,1.267816162109375,-0.7605316162109375,1.6904262672592192e+18,79.59721904296876,2.027827226771265,9.422779394378065,-1.807264146082252,1.6904262672592192e+18,79.59721904296876,0.0632053107023239,-1.048262369632721,0.3346946612000465,1.6904262672654828e+18,79.60348271484375,-0.1137258261442184,-0.9404953479766844,0.1676056161522865,,,,,,,,,,,,,1.6904262672592192e+18,79.59721904296876,24.772084045410157,59.70300216674805,0.5357620239257812,1.690426267262005e+18,79.60000494384767,71.1350212097168,92.60501861572266,119.28002166748048,1.6904262672592192e+18,79.59721904296876,2.880638823154173,-0.7125253511501979,-0.3550760585692378,-2.4138018271658477,0.5200792685901934,0.3093154331324051,-1.2901257989637809
4.65,1.690426267309317e+18,79.64731704101563,4.160338699949682,0.677439359741211,-4.992786192120909,1.690426267310571e+18,79.64857109375001,0.5628387451171875,0.941009521484375,-0.621124267578125,1.690426267309317e+18,79.64731704101563,2.171905647420883,9.35468469850838,-1.981642690962404,1.690426267309317e+18,79.64731704101563,-0.886310076713562,-0.7089760303497314,-0.3028118789196014,1.690426267315581e+18,79.6535806640625,-0.8593833804130554,-0.6940275430679321,-0.2059609353542328,,,,,,,,,,,,,1.690426267309317e+18,79.64731704101563,25.673062133789063,60.13447799682617,-0.7077957153320312,1.690426267308812e+18,79.64681215820312,72.72550964355469,92.73456726074218,117.09545288085936,1.690426267309317e+18,79.64731704101563,2.933216466015234,-0.7253649539766321,-0.3470991615184003,-2.4023264683438543,0.5184373504542423,0.2907096644592831,-1.2662696892882377
4.7,1.6904262673594153e+18,79.69741538085938,-0.9448273784214256,1.6323850458818672,1.1369219634473322,1.6904262673606692e+18,79.69866909179687,0.1490936279296875,1.2585235595703126,0.033135986328125,1.6904262673594153e+18,79.69741538085938,2.157819926601499,9.313366599692106,-2.184295407203436,1.6904262673594153e+18,79.69741538085938,-0.0050420686602592,-0.4378496527671814,0.4548353374004364,1.6904262673656788e+18,79.70367890625,0.1711749494075775,-0.5430769085884094,0.3804098725318908,,,,,,,,,,,,,1.6904262673594153e+18,79.69741538085938,27.1233642578125,60.06731948852539,-3.461833190917969,1.69042626736082e+18,79.69881997070313,73.5573516845703,92.75227355957033,114.60726013183594,1.6904262673594153e+18,79.69741538085938,3.0173753622253288,-0.7321586964010429,-0.3453465867146182,-2.349961877640287,0.5202931899253901,0.2719425031505508,-1.252314143555576
4.75,1.6904262674095132e+18,79.74751337890625,1.7352855360643566,4.4406747552692885,1.9056181957806648,1.690426267410767e+18,79.74876713867188,0.2816864013671875,1.2072296142578125,-0.111083984375,1.6904262674095132e+18,79.74751337890625,2.299393174110204,9.348250515355469,-1.8609063920989637,1.6904262674095132e+18,79.74751337890625,0.6394504308700562,-1.0989142656326294,-0.5823631107807159,1.6904262674157768e+18,79.75377700195313,0.6218560814857483,-0.9373689621686936,-0.5584045976400376,,,,,,,,,,,,,1.6904262674095132e+18,79.74751337890625,28.177850341796876,59.639366912841794,-2.6548675537109374,1.6904262674128236e+18,79.7508236328125,75.4619873046875,91.85697631835936,116.57957458496094,1.6904262674095132e+18,79.74751337890625,2.9502191310379495,-0.7381330672810488,-0.3212696547260422,-2.460822548119941,0.5286304019413867,0.2690319003204577,-1.263842820457422
4.8,1.690426267459611e+18,79.79761088867187,-7.321405080776214,-5.517202981839179,0.096936321081072,1.6904262674608648e+18,79.79886479492187,-0.5141510009765625,0.5084716796875,-0.1613616943359375,1.690426267459611e+18,79.79761088867187,2.3980884092356263,9.38946503689289,-1.4972449001605808,1.690426267459611e+18,79.79761088867187,0.7139668941497803,-0.2084365457296371,0.4174580577760934,1.6904262674658744e+18,79.8038744140625,0.6682482719421386,-0.3299122847616672,0.5138738125562667,,,,,,,,,,,,,1.690426267459611e+18,79.79761088867187,30.088787841796876,58.51538009643555,-0.7223800659179688,1.690426267464827e+18,79.80282685546874,76.494384765625,91.1424835205078,118.14932861328126,1.690426267459611e+18,79.79761088867187,2.84438740716622,-0.7388012206759864,-0.3033355177477459,-2.5842258489319847,0.5345028595667101,0.2764506176735312,-1.2782786988767652
4.85,1.6904262675097088e+18,79.84770878906251,-7.171283726700544,1.596167601979375,-4.16334483757615,1.6904262675109627e+18,79.84896284179688,-0.49644775390625,1.095635986328125,-0.544158935546875,1.6904262675097088e+18,79.84770878906251,2.088632788546085,9.495749587329628,-1.2723009740388391,1.6904262675097088e+18,79.84770878906251,-0.279847165942192,-1.454205536842346,1.2206570506095886,1.6904262675159726e+18,79.85397260742187,-0.3751425602007657,-1.515290665626526,1.38016836643219,,,,,,,,,,,,,1.6904262675097088e+18,79.84770878906251,28.77099609375,58.85502395629883,0.49793701171875,1.6904262675116298e+18,79.84963000488281,74.82454681396484,91.64484024047852,119.06157684326172,1.6904262675097088e+18,79.84770878906251,2.8785194846220024,-0.7324346675336961,-0.2893645213704821,-2.5930260913735763,0.556498737790424,0.2644389480954874,-1.318608301891375
4.9,1.690426267559807e+18,79.89780698242188,-1.4775640627478808,0.3093109807479381,0.7236098962508141,1.6904262675610609e+18,79.8990607421875,0.1132720947265625,1.0391845703125,0.0122100830078125,1.690426267559807e+18,79.89780698242188,1.391133134394437,9.609866380375028,-1.3559783512873946,1.690426267559807e+18,79.89780698242188,-0.4117030262947082,-0.9850534796714784,1.6368117094039918,1.6904262675660703e+18,79.90407065429687,-0.3849901854991913,-0.7636120095849037,1.5119615554809571,,,,,,,,,,,,,1.690426267559807e+18,79.89780698242188,24.361119079589844,60.304341888427736,0.2940078735351562,1.6904262675584346e+18,79.89643461914063,70.45905151367188,93.06004333496094,118.71052551269533,1.690426267559807e+18,79.89780698242188,-0.583408563409687,-0.7213945090016998,-0.279982819372948,-2.363249800050757,0.5921079486514113,0.2245125933739577,-1.3705643739203746
4.95,1.6904262676099052e+18,79.94790507812499,-0.6754181268858164,0.4331152888798713,1.8972090300668776,1.690426267611159e+18,79.94915883789062,-0.1002655029296875,1.0145050048828126,0.033624267578125,1.6904262676099052e+18,79.94790507812499,0.796325369175896,9.65500187474847,-1.511233794928938,1.6904262676099052e+18,79.94790507812499,-0.2814634308218955,0.7070988327264786,1.1693837642669678,1.6904262676161687e+18,79.95416870117188,-0.235443945415318,0.7610103607177734,1.2328545808792115,,,,,,,,,,,,,1.6904262676099052e+18,79.94790507812499,21.69878387451172,60.9205924987793,-0.9577163696289064,1.6904262676104417e+18,79.94844184570313,67.35187683105468,93.72710266113282,116.85910034179688,1.6904262676099052e+18,79.94790507812499,-2.777626858984455,-0.7050492072306757,-0.2904265802244944,-2.053590443703569,0.6123599786935355,0.2084887960663471,-1.394743177589835
5.0,1.6904262676600028e+18,79.99800302734374,-0.2911080338680744,-0.4258163640433549,1.9393759131191672,1.690426267661257e+18,79.99925688476563,0.0408203125,0.9213653564453124,-0.0219085693359375,1.6904262676600028e+18,79.99800302734374,0.1345270498443487,9.683295890627502,-1.535294527926296,1.6904262676600028e+18,79.99800302734374,0.2492861330509185,-0.0663070641458034,1.2375245094299316,1.6904262676662666e+18,80.00426660156249,0.2700425088405608,-0.1303584873676299,1.1859307765960694,,,,,,,,,,,,,1.6904262676600028e+18,79.99800302734374,18.1639045715332,61.50049819946289,-2.6111099243164064,1.6904262676624468e+18,80.00044682617188,63.679544067382814,94.3009765625,115.8375457763672,1.6904262676600028e+18,79.99800302734374,-2.395322952995243,-0.6817235522183587,-0.3051098159741593,-1.6546433949024697,0.6324588778584084,0.2051264271556281,-1.4121126349383597
5.05,1.690426267710101e+18,80.0481009765625,0.0974753525546938,-1.0072491724473236,-0.7714694672128557,1.690426267711355e+18,80.04935483398438,-0.0664337158203125,0.9101806640625,-0.19530029296875,1.690426267710101e+18,80.0481009765625,-0.3896876505637168,9.694160515895485,-1.4217688618679345,1.690426267710101e+18,80.0481009765625,0.1878145605325698,0.084822803735733,1.012771987915039,1.6904262677163648e+18,80.05436459960939,0.1994925498962401,0.128561382740736,1.0066884756088257,,,,,,,,,,,,,1.690426267710101e+18,80.0481009765625,15.062444305419922,61.93683547973633,-2.4262741088867186,1.6904262677144507e+18,80.05245068359375,60.736026000976565,94.61815795898436,116.09001770019532,1.690426267710101e+18,80.0481009765625,-2.036621870419803,-0.6635692321621047,-0.3055364503893865,-1.3041416811012652,0.6530621310539664,0.1994494489427864,-1.4191935526402903
5.1,1.6904262677601992e+18,80.09819926757812,-0.3074372958305478,-0.3429435519498586,-0.2539939918389916,1.6904262677614523e+18,80.09945273437499,-0.1095245361328125,0.9452484130859377,-0.1786041259765625,1.6904262677601992e+18,80.09819926757812,-0.8694626184835285,9.681705874183177,-1.288799645057991,1.6904262677601992e+18,80.09819926757812,0.3624564170837402,0.0766056024469435,0.8937840580940246,1.690426267766463e+18,80.10446284179687,0.3853625953197479,0.0584086086601018,0.8688053250312805,,,,,,,,,,,,,1.6904262677601992e+18,80.09819926757812,12.471420288085938,62.011243438720705,-2.313214111328125,1.690426267761255e+18,80.09925469970703,58.57236862182617,94.64527893066406,116.19912338256836,1.6904262677601992e+18,80.09819926757812,-1.7136606848639104,-0.6451990223119228,-0.3079992293416713,-0.978782950105475,0.6704057763132201,0.1984029415866364,-1.411021723254852
5.15,1.690426267810297e+18,80.14829721679686,0.2579904849031567,-0.4496487243384122,-0.6918109556037932,1.690426267811551e+18,80.14955102539062,-0.1100555419921875,0.9393218994140624,-0.1643310546875,1.690426267810297e+18,80.14829721679686,-1.272024699767679,9.66292565348506,-1.0783120850858836,1.690426267810297e+18,80.14829721679686,0.5005902469158172,-0.0868585087358951,0.8515238642692566,1.690426267816561e+18,80.15456083984375,0.516488766670227,-0.0740278874523937,0.8844081401824951,,,,,,,,,,,,,1.690426267810297e+18,80.14829721679686,10.458854675292969,61.69260940551758,-1.5469085693359377,1.69042626780806e+18,80.146059765625,56.788882446289065,94.30175476074218,117.0001953125,1.690426267810297e+18,80.14829721679686,-1.4352507763606124,-0.6290177956863667,-0.3043947470137258,-0.7051117639083402,0.6871473661228421,0.1986462080094622,-1.3994405724627008
5.2,1.6904262678603953e+18,80.19839516601562,0.5825079195156693,-0.0257307704883813,-0.3594981324877589,1.690426267861649e+18,80.1996490234375,-0.1186614990234375,0.9968475341796876,-0.127069091796875,1.6904262678603953e+18,80.19839516601562,-1.7421394059340656,9.616454292784928,-0.7924418349669129,1.6904262678603953e+18,80.19839516601562,0.6962202429771424,0.1248748440295457,1.0398248076438903,1.6904262678666588e+18,80.2046587890625,0.7202699184417725,0.1374456897377967,1.0257727265357972,,,,,,,,,,,,,1.6904262678603953e+18,80.19839516601562,8.34105987548828,61.41681747436523,-0.55712890625,1.6904262678600622e+18,80.19806220703124,54.19704895019531,93.9677276611328,118.19553833007812,1.6904262678603953e+18,80.19839516601562,-1.1565273902932431,-0.6090122531100388,-0.299080902658408,-0.4306080195285874,0.7066395089114008,0.2005843248286072,-1.3737486768633986
5.25,1.6904262679104932e+18,80.24849316406251,0.2075006238897145,0.163885558629632,-1.745073033620119,1.690426267911747e+18,80.24974707031251,-0.2209625244140625,0.9863006591796876,-0.2337860107421875,1.6904262679104932e+18,80.24849316406251,-2.18780452591598,9.548612227275967,-0.4338001658714935,1.6904262679104932e+18,80.24849316406251,0.6694751024246216,0.0484133251011371,0.7567912459373474,1.6904262679167567e+18,80.25475678710937,0.628505527973175,0.0532310500741004,0.7075331807136536,,,,,,,,,,,,,1.6904262679104932e+18,80.24849316406251,5.965264892578125,60.842053985595705,0.8622817993164062,1.690426267912065e+18,80.25006503906249,51.95182495117187,93.2142547607422,119.78934020996094,1.6904262679104932e+18,80.24849316406251,-0.9231624820400818,-0.5880740180079819,-0.2921715609882968,-0.1976021225952588,0.7253672704601997,0.20638508891018,-1.3410471925196246
5.3,1.6904262679605914e+18,80.29859135742188,1.0153151069074868,1.0162581745243071,-2.4655192343690993,1.690426267961845e+18,80.29984506835937,-0.0950164794921875,1.0846466064453124,-0.2645263671875,1.6904262679605914e+18,80.29859135742188,-2.4530631605781616,9.492342058521508,-0.2120060966958477,1.6904262679605914e+18,80.29859135742188,0.1131344690918922,0.4273785620927811,0.3441975682973861,1.690426267966855e+18,80.30485483398436,0.0410766493529081,0.5453490734100341,0.2813761755824088,,,,,,,,,,,,,1.6904262679605914e+18,80.29859135742188,4.677201843261718,59.725128936767575,1.8237701416015624,1.6904262679640673e+18,80.30206728515626,51.10715026855469,91.9890869140625,120.13883666992189,1.6904262679605914e+18,80.29859135742188,-0.816898643032761,-0.5746292014738652,-0.2895558460688824,-0.0864644015475203,0.7356792272229778,0.2114666171379847,-1.3169776466548275
5.35,1.6904262680106895e+18,80.34868950195313,3.352206324702203,1.4209669855135678,-1.8841036109086873,1.6904262680119432e+18,80.34994321289062,0.0662139892578125,1.131756591796875,-0.26005859375,1.6904262680106895e+18,80.34868950195313,-2.467728405625075,9.48994914280951,-0.1350461947873047,1.6904262680106895e+18,80.34868950195313,-0.0363660144619643,0.8259424090385437,-0.3349145635962486,1.690426268016953e+18,80.35495307617188,-0.0219347536563873,0.736505675315857,-0.3993033468723297,1.690426267999405e+18,80.33740502929687,76.24603052530438,1.567814565577062,-1.0,49.280036134164384,95.42745943460612,-1.0,7.503460462744928,1.165135202801466,-122.96823257868196,0.1649027695155248,1.6904262680106895e+18,80.34868950195313,5.329815673828125,57.89191818237305,0.8892684936523437,1.69042626801607e+18,80.35406977539063,52.31536865234375,89.83481140136719,119.13778076171874,1.6904262680106895e+18,80.34868950195313,-0.8229832769178117,-0.5688928610729561,-0.3010875858575599,-0.0544685143155833,0.7315378030299713,0.224754519772069,-1.3160182786229278
5.4,1.6904262680607877e+18,80.39878740234374,1.9772541298407316,2.0303549040049313,-5.982993395065665,1.690426268062041e+18,80.4000412109375,0.0009552001953125,1.1856658935546875,-0.638592529296875,1.6904262680607877e+18,80.39878740234374,-2.1891410352167484,9.556772971186636,-0.1588519118439778,1.6904262680607877e+18,80.39878740234374,-0.3169108062982558,-0.6174413427710534,-0.9251214504241944,1.690426268062041e+18,80.40004132080078,-0.3232008889317512,-0.6869908347725868,-0.9410392940044404,,,,,,,,,,,,,1.6904262680607877e+18,80.39878740234374,7.68857421875,54.97359390258789,0.2503143310546875,1.690426268062871e+18,80.40087109375,54.72664642333984,87.00565719604492,118.62220001220705,1.6904262680607877e+18,80.39878740234374,-0.8531242468940498,-0.5786799003826966,-0.3022399122628182,-0.0742986885565907,0.7212818657360347,0.2312187900134861,-1.3449210156933895
5.45,1.6904262681108854e+18,80.44888540039062,2.794790234797299,2.0192282960259913,-1.601166345501691,1.6904262681121393e+18,80.4501392578125,0.1612030029296875,1.1789154052734374,-0.110888671875,1.6904262681108854e+18,80.44888540039062,-1.440270499433428,9.677554365913869,-0.5689977481749653,1.6904262681108854e+18,80.44888540039062,-0.8684794068336487,-1.4447035789489746,-2.1361151695251466,1.690426268107129e+18,80.44512944335938,-0.8439046144485474,-1.4359487533569335,-2.037936472892761,,,,,,,,,,,,,1.6904262681108854e+18,80.44888540039062,11.96512222290039,50.81814804077148,-0.43419189453125,1.6904262681096727e+18,80.44767255859374,59.147238159179686,82.81099548339844,118.03836059570312,1.6904262681108854e+18,80.44888540039062,-1.125442350024781,-0.6175295904153912,-0.2876854026009298,-0.4005936611567279,0.7004008623850563,0.2120249281357891,-1.40997934692489
5.5,1.6904262681609836e+18,80.49898344726563,0.4936380881905555,2.251694638928771,1.1209106813928484,1.6904262681622372e+18,80.50023725585939,-0.014324951171875,1.2732086181640625,-0.0139892578125,1.6904262681609836e+18,80.49898344726563,-0.1281930500900652,9.730776603726744,-1.1310559063450991,1.6904262681609836e+18,80.49898344726563,-1.2185152530670167,-0.4256941273808479,-2.790846920013428,1.6904262681572275e+18,80.49522739257813,-1.200159192085266,-0.5147354587912559,-2.8095664978027344,,,,,,,,,,,,,1.6904262681609836e+18,80.49898344726563,17.246343231201173,46.08610916137695,-0.1790832519531249,1.6904262681616737e+18,80.499673828125,65.39688720703126,77.12868957519531,118.44200134277344,1.6904262681609836e+18,80.49898344726563,-2.1055107155779043,-0.6745706013960908,-0.2755391716646195,-1.4252094021751565,0.6560309835715453,0.1953697559507767,-1.447024478350447
5.55,1.6904262682110817e+18,80.54908168945312,-2.30091854243353,3.723719260793328,2.0911850449252127,1.690426268212335e+18,80.55033520507813,-0.1141082763671875,1.293798828125,0.054595947265625,1.6904262682110817e+18,80.54908168945312,1.0628766301579773,9.597888474715948,-1.680369967563152,1.6904262682110817e+18,80.54908168945312,-0.9523154973983764,-0.1859628058969974,-2.057283568382263,1.6904262682073257e+18,80.54532563476563,-0.9838500857353212,-0.1472122993320226,-2.102051544189453,,,,,,,,,,,,,1.6904262682110817e+18,80.54908168945312,21.68818817138672,40.851525115966794,0.7869155883789063,1.6904262682136763e+18,80.55167646484375,68.72702331542969,72.3357421875,119.76019592285157,1.6904262682110817e+18,80.54908168945312,-2.8027504892538766,-0.7197847927185441,-0.2789107816164869,-2.1234739386885715,0.6065251550722298,0.1897150217858856,-1.365775001112416
5.6,1.6904262682611796e+18,80.59917958984376,-2.7524741817587612,0.3764996676886081,1.5526860707449912,1.6904262682624333e+18,80.60043344726563,-0.0644134521484375,0.968798828125,-0.11099853515625,1.6904262682611796e+18,80.59917958984376,2.004585759654492,9.386426458301544,-1.9941768276517091,1.6904262682611796e+18,80.59917958984376,-0.6198422074317932,-1.1330378770828249,-1.6576232433319091,1.6904262682574236e+18,80.5954236328125,-0.6348073363304139,-1.0561500191688538,-1.6866909980773923,,,,,,,,,,,,,1.6904262682611796e+18,80.59917958984376,22.49180603027344,37.191707611083984,3.1885009765625,1.6904262682656788e+18,80.60367880859374,68.77579650878906,69.09821166992188,122.54420776367188,1.6904262682611796e+18,80.59917958984376,-3.009305021660764,-0.7549198798062162,-0.2702193800957438,-2.35491602332671,0.5697965378813922,0.1793990603734331,-1.2778382618545092
5.65,1.6904262683112776e+18,80.64927758789062,-3.1655128388413787,-0.5970411795198917,-1.3811871145021914,1.6904262683125317e+18,80.65053139648437,-0.0551055908203125,0.855352783203125,-0.325286865234375,1.6904262683112776e+18,80.64927758789062,2.8211967125901576,9.145957426207064,-2.124582492197007,1.6904262683112776e+18,80.64927758789062,-0.753317403793335,-1.4209930658340455,-1.2422825813293457,1.6904262683075215e+18,80.64552163085938,-0.7328663468360901,-1.4062060832977294,-1.278472328186035,,,,,,,,,,,,,1.6904262683112776e+18,80.64927758789062,21.05817413330078,35.57626113891602,5.553556823730469,1.6904262683124805e+18,80.65048016357423,67.17266464233398,68.11837005615234,124.18236923217772,1.6904262683112776e+18,80.64927758789062,-3.0845859685667696,-0.7867151768843124,-0.246588104021634,-2.4947740183402907,0.5433864501119915,0.157475444268591,-1.2021791037134688
5.7,1.6904262683613755e+18,80.69937563476563,-4.438924638279379,-1.2802565507662296,2.4836498758912087,1.6904262683626294e+18,80.70062934570312,-0.1016510009765625,0.7650482177734375,0.0471893310546875,1.6904262683613755e+18,80.69937563476563,3.4176479341667885,8.913570344472527,-2.240309146204889,1.6904262683613755e+18,80.69937563476563,-0.7067926168441773,-1.5683069944381711,-0.6097276329994201,1.6904262683576197e+18,80.69561967773437,-0.717042863368988,-1.5595892190933227,-0.6675175368785858,,,,,,,,,,,,,1.6904262683613755e+18,80.69937563476563,19.1239501953125,36.163378143310545,4.89991455078125,1.6904262683592806e+18,80.69728056640625,65.46550598144532,68.89423828125,123.27591247558594,1.6904262683613755e+18,80.69937563476563,-3.0764474010270577,-0.8109834299174548,-0.2239408678880495,-2.5609353971415043,0.5249172720249091,0.1282522960027843,-1.1408905380444638
5.75,1.6904262684114737e+18,80.74947368164062,-4.080123416627645,-2.050366946133375,1.976687961938381,1.6904262684127278e+18,80.75072763671875,-0.035595703125,0.669891357421875,-0.0324859619140625,1.6904262684114737e+18,80.74947368164062,3.662873805399537,8.805457292660474,-2.284013614087999,1.6904262684114737e+18,80.74947368164062,-0.6775172829627991,-1.2108147501945496,0.2680600769817829,1.6904262684077174e+18,80.74571757812501,-0.6801393747329711,-1.251390814781189,0.1963060257956385,,,,,,,,,,,,,1.6904262684114737e+18,80.74947368164062,17.798411560058593,37.408792877197264,3.80367431640625,1.6904262684112827e+18,80.74928256835938,63.88887023925781,70.3431610107422,121.96699829101564,1.6904262684114737e+18,80.74947368164062,-3.0212249595444405,-0.8230499669134648,-0.2024936077152292,-2.584037931771497,0.521747262370856,0.0962469692917775,-1.1149970490144734
5.8,1.6904262684615716e+18,80.79957167968749,-3.726050684802532,-2.8998043269068,2.51041580542013,1.6904262684628255e+18,80.80082548828125,-0.0102020263671875,0.599737548828125,0.030078125,1.6904262684615716e+18,80.79957167968749,3.43407761698991,8.871660826408267,-2.3770886420179904,1.6904262684615716e+18,80.79957167968749,-0.3507799923419952,-0.3491203010082245,1.1380070805549622,1.6904262684578158e+18,80.7958158203125,-0.3905333995819092,-0.430320055782795,1.0940725326538083,,,,,,,,,,,,,1.6904262684615716e+18,80.79957167968749,15.354471588134766,38.4438117980957,2.1761566162109376,1.6904262684632845e+18,80.801284375,60.81522827148437,71.28547668457031,120.07488098144532,1.6904262684615716e+18,80.79957167968749,-2.9207840412662542,-0.8186103602822625,-0.1939685815286805,-2.535581864394092,0.5359531664394117,0.0701898738664846,-1.130695075425122
5.85,1.6904262685116698e+18,80.8496697265625,-0.8545434132885932,-2.4223231251734494,2.7834831264588233,1.6904262685129234e+18,80.8509234375,0.2598724365234375,0.7385101318359375,0.0066864013671875,1.6904262685116698e+18,80.8496697265625,2.8330518102002147,9.06578405310452,-2.432134032830894,1.6904262685116698e+18,80.8496697265625,0.1761817026883363,0.6600299537181854,1.3188020706176755,1.6904262685079137e+18,80.845913671875,0.1540335047990083,0.6120989680290222,1.3245431900024414,,,,,,,,,,,,,1.6904262685116698e+18,80.8496697265625,11.461984252929687,38.848307037353514,0.335382080078125,1.6904262685152842e+18,80.85328413085938,56.86649475097656,71.50099182128906,118.3657684326172,1.6904262685116698e+18,80.8496697265625,-2.817039016291349,-0.8000842744011099,-0.2008699115866557,-2.430876406952521,0.5613710184883869,0.065325996419697,-1.1799050405488738
5.9,1.6904262685617677e+18,80.89976762695312,4.333696844967007,2.103039850274324,-0.0779119455896317,1.6904262685630216e+18,80.90102158203125,0.77755126953125,1.2176025390625,-0.339617919921875,1.6904262685617677e+18,80.89976762695312,2.1752098327589033,9.254305105105638,-2.4017926121288538,1.6904262685617677e+18,80.89976762695312,0.2829715311527252,0.3982381448149681,1.085336458683014,1.6904262685580116e+18,80.89601162109375,0.287706995010376,0.5000226020812988,1.1275808095932007,,,,,,,,,,,,,1.6904262685617677e+18,80.89976762695312,7.818058776855469,38.6845344543457,-1.3524063110351563,1.690426268562083e+18,80.9000831298828,53.678565979003906,71.22275924682617,116.80890655517578,1.6904262685617677e+18,80.89976762695312,-2.7204565871769404,-0.7780717575180487,-0.2131671320831482,-2.3055210652262885,0.5861837029002557,0.0740077403856774,-1.233834549493379
5.95,1.690426268611866e+18,80.94986596679686,7.028703990949988,3.1966824101567264,-4.407447842258811,1.6904262686131195e+18,80.9511197265625,0.842669677734375,1.25126953125,-0.7017608642578125,1.690426268611866e+18,80.94986596679686,1.9161528876680136,9.319604383490084,-2.3749960828790067,1.690426268611866e+18,80.94986596679686,-0.3326466664671897,-0.3883808076381683,-0.0724056005477905,1.6904262686081098e+18,80.94610991210938,-0.2690582618117332,-0.3478052109479904,0.0292675487697124,,,,,,,,,,,,,1.690426268611866e+18,80.94986596679686,5.868601989746094,38.37098770141601,-2.928694152832031,1.6904262686088842e+18,80.94688413085937,52.313113403320315,70.97919006347657,115.4068359375,1.690426268611866e+18,80.94986596679686,-2.657510478138313,-0.7698631124788253,-0.212158638348929,-2.24965916033488,0.5977370667467967,0.0706630769625335,-1.2543585859527169
6.0,1.690426268661964e+18,80.99996391601562,1.789262303958535,-0.3059204030746221,-1.2712941935360431,1.6904262686632177e+18,81.00121762695312,0.309130859375,0.8966583251953125,-0.2792694091796875,1.690426268661964e+18,80.99996391601562,2.1254377061738072,9.233031898548006,-2.5301594643229244,1.690426268661964e+18,80.99996391601562,-0.220594191364944,-0.4269149333238601,-0.1357180088758468,1.690426268658208e+18,80.99620795898439,-0.292914479970932,-0.4768754363059997,-0.2004307314753532,,,,,,,,,,,,,1.690426268661964e+18,80.99996391601562,7.41834716796875,37.58027267456055,-4.199476623535157,1.6904262686608868e+18,80.99888662109375,54.16871643066406,70.12654113769531,114.27968139648438,1.690426268661964e+18,80.99996391601562,-2.6512693741001057,-0.7779528262394051,-0.2083573403338769,-2.2694125163336913,0.5900979964244911,0.0560652283193859,-1.2271049265092369
6.05,1.690426268712062e+18,81.0500619140625,0.8237999292047323,5.089483531427383,4.461616713272035,1.6904262687133158e+18,81.05131567382813,0.400079345703125,1.568951416015625,0.2208526611328125,1.690426268712062e+18,81.0500619140625,2.1043385117827356,9.276025003291368,-2.384796352238059,1.690426268712062e+18,81.0500619140625,0.6406574010848999,-0.099294526875019,-0.1478143878281116,1.690426268708306e+18,81.04630590820312,0.6310427248477936,-0.0267118841409683,-0.0664709597826004,,,,,,,,,,,,,1.690426268712062e+18,81.0500619140625,9.033568572998046,37.074137115478514,-3.2629318237304688,1.6904262687128883e+18,81.05088837890625,56.16358642578125,69.63518676757812,115.87366638183592,1.690426268712062e+18,81.0500619140625,-2.6741043765351327,-0.7769174626392819,-0.202775523295392,-2.2941805900477727,0.5929398607170807,0.0606215389705617,-1.2403926156817573
6.1,1.69042626876216e+18,81.10016010742189,-2.701368789969385,-0.5724947672843932,-0.0625283523663877,1.690426268763414e+18,81.10141391601562,-0.27259521484375,0.63245849609375,-0.2605377197265625,1.69042626876216e+18,81.10016010742189,2.240904101810306,9.297055516360402,-2.1703639124846457,1.69042626876216e+18,81.10016010742189,0.265405848622322,0.6999767661094666,0.0933023527264594,1.690426268758404e+18,81.09640405273437,0.2730992883443832,0.5355806887149811,-0.0316172674298286,,,,,,,,,,,,,1.69042626876216e+18,81.10016010742189,11.823445129394532,36.9782356262207,-0.4132431030273437,1.6904262687648927e+18,81.10289252929688,58.8248779296875,69.60518493652344,118.81128845214845,1.69042626876216e+18,81.10016010742189,-2.7563087540370494,-0.7805017206184479,-0.1954566557555529,-2.3720516209933544,0.589515202477741,0.0710525156920503,-1.2470277503732494
6.15,1.690426268812258e+18,81.15025805664064,-6.424886566067338,-2.4394938063961265,1.8839499693299828,1.690426268813512e+18,81.15151196289062,-0.466461181640625,0.9042449951171876,-0.0269012451171875,1.690426268812258e+18,81.15025805664064,1.8195797592630985,9.402490055065154,-2.103947086699306,1.690426268812258e+18,81.15025805664064,0.5660512983798981,0.9866073355078696,0.9190488815307616,1.690426268808502e+18,81.1465021484375,0.563415789604187,1.1256535708904267,0.8829152226448059,,,,,,,,,,,,,1.690426268812258e+18,81.15025805664064,12.409595489501951,36.72434616088867,2.001060485839844,1.6904262688116966e+18,81.1496967163086,58.84183883666992,69.29351043701172,120.91095352172852,1.690426268812258e+18,81.15025805664064,-2.7249365418503255,-0.7641966384973629,-0.2138258036801149,-2.282483819667935,0.6012196303453301,0.0932774245890771,-1.2830534811846692
6.2,1.6904262688623562e+18,81.20035615234374,-4.772790506830215,1.1925122163397073,-1.167662349565178,1.69042626886361e+18,81.20160991210938,-0.2422637939453125,1.03157958984375,-0.3269622802734375,1.6904262688623562e+18,81.20035615234374,1.1301023757864537,9.542878067538142,-1.9375573193898792,1.6904262688623562e+18,81.20035615234374,0.1342870071530341,0.0960758239030838,1.885835313796997,1.6904262688586e+18,81.19660009765626,0.1774679914116859,0.0108967036008835,1.854288983345032,,,,,,,,,,,,,1.6904262688623562e+18,81.20035615234374,10.59845962524414,36.73071365356445,4.599140930175781,1.690426268858499e+18,81.19649907226562,56.84549560546875,69.39866333007812,123.26309204101562,1.6904262688623562e+18,81.20035615234374,-2.5407183459567664,-0.7403940709134567,-0.2155793476889172,-2.092331714981282,0.6291211344946193,0.0967048108405252,-1.3388550261178431
6.25,1.6904262689124544e+18,81.25045434570312,1.682162813103199,-0.056528176716566,1.732212762942463,1.690426268913708e+18,81.25170805664064,0.152099609375,0.9809661865234376,0.0301788330078125,1.6904262689124544e+18,81.25045434570312,0.2671665122834872,9.59601578348577,-1.9934200179350376,1.6904262689124544e+18,81.25045434570312,-0.179790824651718,1.874279308319092,1.0993446946144103,1.6904262689086984e+18,81.24669829101563,-0.1847071066498756,1.7784154891967774,1.171326470375061,,,,,,,,,,,,,1.6904262689124544e+18,81.25045434570312,7.801423645019531,37.19465560913086,6.021492004394531,1.6904262689105047e+18,81.24850483398437,54.12734680175781,69.8719696044922,124.54947814941406,1.6904262689124544e+18,81.25045434570312,-2.193423497298172,-0.7092430544569555,-0.2381069290293114,-1.704336467519068,0.6553919470940424,0.102420109920338,-1.3631638805231383
6.3,1.6904262689625523e+18,81.30055229492187,-1.990229931269884,-0.4035894515705108,1.9313729316665231,1.690426268963806e+18,81.30180610351563,-0.2338592529296875,0.9278411865234376,-0.0433624267578125,1.6904262689625523e+18,81.30055229492187,-0.4202222027780021,9.589632687546016,-1.9976622732277216,1.6904262689625523e+18,81.30055229492187,0.1757101668044924,2.062820887565613,1.0027602434158325,1.6904262689587963e+18,81.29679633789063,0.1457254081964492,2.146209383010864,0.9948933124542236,,,,,,,,,,,,,1.6904262689625523e+18,81.30055229492187,6.77350082397461,37.42094345092774,6.313711547851563,1.6904262689625108e+18,81.30051083984375,53.020755004882815,70.09125366210938,124.89850769042968,1.6904262689625523e+18,81.30055229492187,-1.9582081970643643,-0.6789392556023894,-0.2797240840238174,-1.363760029120488,0.6656285045490294,0.1321128008760856,-1.3600286438936005
6.35,1.6904262690126505e+18,81.35065029296875,1.2054426880963145,-0.7284616909700632,-0.6818445797367394,1.690426269013904e+18,81.35190415039062,0.0015411376953125,0.9042205810546876,-0.3085845947265625,1.6904262690126505e+18,81.35065029296875,-0.9559369183611872,9.590898294341564,-1.805371756464392,1.6904262690126505e+18,81.35065029296875,0.256126869469881,1.3045072317123414,0.488469249010086,1.6904262690088945e+18,81.34689433593749,0.2830322295427322,1.3066969156265258,0.5253145933151245,1.6904262689993976e+18,81.33739770507813,76.37543636467308,1.7058361655430316,-1.0,49.28003125551739,95.55686527397484,-1.0,9.008612395281425,1.3016170916073928,-122.96822890684592,0.2036466785072727,1.6904262690126505e+18,81.35065029296875,6.101226806640625,37.52135238647461,7.140086364746094,1.690426269014518e+18,81.35251796874999,52.50206909179688,70.18098449707031,125.98402404785156,1.6904262690126505e+18,81.35065029296875,-1.7537566210784994,-0.6528732617936704,-0.3044279373816848,-1.0837296215208938,0.675304199662323,0.1579590239760579,-1.3606464444070112
6.4,1.6904262690627484e+18,81.40074829101562,-0.2255051986532658,0.1196316401702165,-1.5251813055475056,1.690426269064002e+18,81.40200209960938,-0.1387115478515625,1.0019012451171876,-0.2827178955078125,1.6904262690627484e+18,81.40074829101562,-1.3163903788124025,9.5694625906986,-1.6878373808343707,1.6904262690627484e+18,81.40074829101562,0.0167568165808916,1.225799036026001,0.6119094371795655,1.6904262690589924e+18,81.39699228515624,0.0079176312312483,1.2933596611022948,0.5992975354194641,,,,,,,,,,,,,1.6904262690627484e+18,81.40074829101562,5.854856872558594,37.4076286315918,8.305369567871093,1.690426269061324e+18,81.39932403564453,52.30989837646485,70.0170783996582,126.92758560180664,1.6904262690627484e+18,81.40074829101562,-1.645965083833953,-0.6331891331810284,-0.3272765626646601,-0.9096268334788328,0.6782069326007041,0.17860167411457,-1.3504796610841694
6.45,1.6904262691128466e+18,81.45084653320313,0.9001383710934221,-0.581342792032957,-0.28231331751585,1.6904262691141002e+18,81.45210034179688,-0.0955963134765625,0.88753662109375,-0.1709716796875,1.6904262691128466e+18,81.45084653320313,-1.6857056879548729,9.533831188442708,-1.556283802976012,1.6904262691128466e+18,81.45084653320313,0.3028316468000411,0.5010075390338897,0.6665430426597595,1.6904262691090906e+18,81.44709047851562,0.2829267233610153,0.5262927234172821,0.6540523767471313,,,,,,,,,,,,,1.6904262691128466e+18,81.45084653320313,5.23355712890625,37.328417205810545,9.7230712890625,1.6904262691081275e+18,81.44612783203125,51.635791015625,69.95826721191406,128.3337432861328,1.6904262691128466e+18,81.45084653320313,-1.5187059007315962,-0.6150354463357912,-0.3399060420027402,-0.7462610939153536,0.6858570084398693,0.189095433305928,-1.3343984364641803
6.5,1.6904262691629445e+18,81.50094448242189,0.4727138119749725,-0.6564650776779651,0.8698809754130243,1.6904262691641984e+18,81.50219829101562,-0.16107177734375,0.9282012939453124,-0.0536895751953125,1.6904262691629445e+18,81.50094448242189,-2.1091206607188284,9.488435815637112,-1.288716423753947,1.6904262691629445e+18,81.50094448242189,0.6656697750091553,0.4296361982822418,0.9741273880004884,1.6904262691591885e+18,81.49718857421875,0.6358194887638092,0.444616824388504,0.9575518727302552,,,,,,,,,,,,,1.6904262691629445e+18,81.50094448242189,4.244211578369141,37.048249053955075,11.991098022460935,1.690426269160132e+18,81.49813227539062,50.64796142578125,69.6758544921875,130.67088928222657,1.6904262691629445e+18,81.50094448242189,-1.3402588500275845,-0.5945969541224279,-0.3426406522287428,-0.5502331183999418,0.7000755747030651,0.1971416617747746,-1.315446446149321
6.55,1.6904262692130424e+18,81.55104248046875,1.8823935628943147,0.0128157593357563,-1.8483217965575307,1.6904262692142963e+18,81.5522962890625,-0.063226318359375,0.968658447265625,-0.3153900146484375,1.6904262692130424e+18,81.55104248046875,-2.584672472598702,9.4156396933043,-0.900730520993769,1.6904262692130424e+18,81.55104248046875,0.6664092183113098,0.2348093181848526,0.8571542620658874,1.6904262692092864e+18,81.54728652343749,0.7000176191329956,0.2386543333530426,0.8877914667129516,,,,,,,,,,,,,1.6904262692130424e+18,81.55104248046875,2.977178192138672,36.76479263305664,14.552542114257813,1.6904262692121375e+18,81.55013774414063,49.32078857421875,69.3048583984375,133.4286865234375,1.6904262692130424e+18,81.55104248046875,-1.1355291015869606,-0.5709599140614248,-0.3390407038923871,-0.3367261108739655,0.718893382926701,0.2053903264909876,-1.287581266048422
6.6,1.6904262692631404e+18,81.60114047851563,2.0458653677043315,1.4986877047669886,-2.201786347969472,1.6904262692643948e+18,81.60239453125,-0.092730712890625,1.1219146728515623,-0.2749542236328125,1.6904262692631404e+18,81.60114047851563,-2.8554046871402856,9.357879461348654,-0.6669161244828998,1.6904262692631404e+18,81.60114047851563,0.1281210742890834,0.5002274453639984,0.2046818923205136,1.6904262692593843e+18,81.59738452148437,0.1668329282314516,0.4844756126403808,0.2540240198373794,,,,,,,,,,,,,1.6904262692631404e+18,81.60114047851563,2.339524841308594,36.305321502685544,16.72080078125,1.6904262692641446e+18,81.60214453124999,48.824588012695315,68.86044311523438,135.8180908203125,1.6904262692631404e+18,81.60114047851563,-1.0420900151090084,-0.5560164545589951,-0.3397236095861126,-0.2295545852338526,0.7281278360836126,0.2127158107927065,-1.2671098365928093
6.65,1.6904262693132385e+18,81.65123876953125,2.427286242086589,1.46999375901103,-1.4780366925348345,1.6904262693144924e+18,81.65249248046875,-0.0394134521484375,1.116912841796875,-0.2256195068359375,1.6904262693132385e+18,81.65123876953125,-2.8442063583254815,9.366222459184527,-0.5939353662981838,1.6904262693132385e+18,81.65123876953125,-0.1438675165176391,0.743340528011322,-0.3303614258766174,1.6904262693094825e+18,81.64748266601563,-0.1388648882508277,0.7702391862869262,-0.294327924400568,,,,,,,,,,,,,1.6904262693132385e+18,81.65123876953125,3.156262969970703,36.20326156616211,18.712063598632813,1.6904262693161498e+18,81.65414975585938,50.05714111328125,68.89317016601562,137.70262145996094,1.6904262693132385e+18,81.65123876953125,-1.0527646032879487,-0.5517020898005172,-0.3496322028822539,-0.2058428877427481,0.7230152882480247,0.2249242444166018,-1.2699924957961362
6.7,1.6904262693633367e+18,81.70133666992187,2.35035550416708,2.3379544046598673,-4.374009215419888,1.6904262693645906e+18,81.70259057617187,0.0136260986328125,1.20174560546875,-0.5388824462890625,1.6904262693633367e+18,81.70133666992187,-2.5869025112861395,9.434783954235314,-0.66482754739929,1.6904262693633367e+18,81.70133666992187,-0.4409942746162414,-0.182823421061039,-0.9412355363368988,1.6904262693595807e+18,81.6975806640625,-0.4075670301914215,-0.0871306955814361,-0.8548524856567383,,,,,,,,,,,,,1.6904262693633367e+18,81.70133666992187,4.873768615722656,36.50872573852539,20.57834777832031,1.6904262693629542e+18,81.7009542236328,51.71592330932617,69.24131774902344,139.37079238891602,1.6904262693633367e+18,81.70133666992187,-1.1195331020853132,-0.560350481522548,-0.3555428944459229,-0.2529924417911874,0.7109595520228865,0.2325455878282122,-1.2947431125624171
