seconds_elapsed_rounded,accelerometer_time,accelerometer_seconds_elapsed,accelerometer_z,accelerometer_y,accelerometer_x,accelerometeruncalibrated_time,accelerometeruncalibrated_seconds_elapsed,accelerometeruncalibrated_z,accelerometeruncalibrated_y,accelerometeruncalibrated_x,gravity_time,gravity_seconds_elapsed,gravity_z,gravity_y,gravity_x,gyroscope_time,gyroscope_seconds_elapsed,gyroscope_z,gyroscope_y,gyroscope_x,gyroscopeuncalibrated_time,gyroscopeuncalibrated_seconds_elapsed,gyroscopeuncalibrated_z,gyroscopeuncalibrated_y,gyroscopeuncalibrated_x,location_time,location_seconds_elapsed,location_bearingAccuracy,location_speedAccuracy,location_verticalAccuracy,location_horizontalAccuracy,location_speed,location_bearing,location_altitude,location_longitude,location_latitude,magnetometer_time,magnetometer_seconds_elapsed,magnetometer_z,magnetometer_y,magnetometer_x,magnetometeruncalibrated_time,magnetometeruncalibrated_seconds_elapsed,magnetometeruncalibrated_z,magnetometeruncalibrated_y,magnetometeruncalibrated_x,orientation_time,orientation_seconds_elapsed,orientation_qz,orientation_qy,orientation_qx,orientation_qw,orientation_roll,orientation_pitch,orientation_yaw
0.0,1.6888757076629873e+18,29.9929873046875,2.1882601181666055,-4.360904693603516,-2.91733455657959,1.6888757076629873e+18,29.9929873046875,-0.1280160248279571,-13.636297543843588,-5.0620161692301435,1.6888757076629873e+18,29.9929873046875,-2.3390775124231973,-9.259647687276203,-2.2093950510025024,1.6888757076629873e+18,29.9929873046875,1.244027058283488,-0.9012807806332906,1.530930091937383,1.6888757076629873e+18,29.9929873046875,1.2430089712142944,-0.8968519767125448,1.5330681552489598,1.6888757076629875e+18,29.992987548828125,0.0,0.0,0.9922048449516296,10.661999702453612,1.0800673961639404,84.9462661743164,41.20000076293945,-122.7525326,49.1905145,1.6888757076659914e+18,29.995991503906247,5.69739990234375,49.71255874633789,-6.622159767150879,1.6888757076659914e+18,29.995991503906247,-249.69739379882813,144.9457580566406,-139.98035583496093,1.6888757076629873e+18,29.9929873046875,-0.4563314616680145,0.6862898468971252,-0.3840312659740448,0.4158004721005757,2.3908847173055015,1.2390388250350952,-0.470729907353719
0.05,1.688875707714887e+18,30.04488655598958,-3.881686051686605,-7.435412724812825,0.6125842332839966,1.688875707714887e+18,30.04488655598958,-4.836293379465739,-16.725032488505047,-2.3320050636927285,1.688875707714887e+18,30.04488655598958,-0.9774087270100912,-9.273874600728352,-3.009302775065104,1.688875707714887e+18,30.04488655598958,1.4636331001917522,-2.30413285891215,2.369393507639567,1.688875707714887e+18,30.04488655598958,1.4626659552256267,-2.299653093020121,2.3715316454569497,,,,,,,,,,,,1.688875707715997e+18,30.045996875000004,0.8905999913811684,50.712957763671874,-3.1646798610687257,1.688875707715997e+18,30.045996875000004,-254.50419921875,145.94615478515624,-136.5228759765625,1.688875707714887e+18,30.04488655598958,-0.4630795518557231,0.6502546469370524,-0.3554064532121022,0.4855056206385295,1.8907385269800825,1.24416180451711,-0.0429497125248113
0.1,1.688875707766785e+18,30.09678499348958,1.2389296889305117,-12.322251637776692,1.7525189717610676,1.688875707766785e+18,30.09678499348958,2.1006988088289895,-21.371894200642902,-1.872383713722229,1.688875707766785e+18,30.09678499348958,0.8389676858981451,-9.033897399902344,-3.6896161238352456,1.688875707766785e+18,30.09678499348958,1.0031934482976794,-2.7164668639500937,3.030909776687622,1.688875707766785e+18,30.09678499348958,1.0022262452791135,-2.712038040161133,3.0330986181894937,,,,,,,,,,,,1.688875707765993e+18,30.09599296875,-5.404599809646607,50.656839752197264,0.1097999811172485,1.688875707765993e+18,30.09599296875,-260.7993896484375,145.8900360107422,-133.24839782714844,1.688875707766785e+18,30.09678499348958,-0.4580739239851634,0.5875771244366964,-0.3337826530138651,0.5767380396525065,1.3507123788197837,1.1759060621261597,0.3579649825890858
0.15,1.6888757078186836e+18,30.14868391927083,-6.351605733235677,-6.885339736938477,2.205197334289551,1.6888757078186836e+18,30.14868391927083,-4.002793500820796,-15.75135326385498,-1.2480564390619595,1.6888757078186836e+18,30.14868391927083,2.3260106245676675,-8.850268363952637,-3.5179672241210938,1.6888757078186836e+18,30.14868391927083,0.3764966130256653,-3.821216662724813,1.3338751196861267,1.6888757078186836e+18,30.14868391927083,0.3755803306897481,-3.816787838935852,1.3360132177670796,,,,,,,,,,,,1.688875707815993e+18,30.145993115234376,-11.721759796142578,49.62715835571289,-0.1024799853563308,1.688875707815993e+18,30.145993115234376,-267.116552734375,144.86035766601563,-133.46067810058594,1.6888757078186836e+18,30.14868391927083,-0.4658318956693013,0.5221678813298544,-0.3290163576602936,0.6331997513771057,0.9829147656758628,1.1292840639750164,0.614226500193278
0.2,1.6888757078705856e+18,30.20058544921875,-6.829250415166219,3.9131016731262207,1.6506675879160564,1.6888757078705856e+18,30.20058544921875,-3.0125637451807656,-4.5042892297108965,-1.6119648218154907,1.6888757078705856e+18,30.20058544921875,3.7938852310180664,-8.40164566040039,-3.327345927556356,1.6888757078705856e+18,30.20058544921875,1.1097894310951233,-4.053498109181722,1.951358119646708,1.6888757078705856e+18,30.20058544921875,1.108822246392568,-4.049018383026123,1.9534961382548015,,,,,,,,,,,,1.6888757078659948e+18,30.19599458007813,-15.559879493713378,48.48523941040039,-0.724679970741272,1.6888757078659948e+18,30.19599458007813,-270.9546691894531,143.71843872070312,-134.08287963867187,1.6888757078705856e+18,30.20058544921875,-0.4283442795276642,0.4384161631266276,-0.3381963968276977,0.7134129007657369,0.7180138826370239,1.0330641667048135,0.6604566772778829
0.25,1.6888757079224773e+18,30.25247729492187,-9.350706736246744,13.325873057047524,0.3557307322820027,1.6888757079224773e+18,30.25247729492187,-4.180061896642049,5.365506013234456,-2.109073758125305,1.6888757079224773e+18,30.25247729492187,5.147843678792317,-7.944621562957764,-2.529517968495687,1.6888757079224773e+18,30.25247729492187,-0.0367537227769693,-4.494950135548909,1.4723888635635376,1.6888757079224773e+18,30.25247729492187,-0.0376700231184562,-4.490521272023519,1.4745268821716309,,,,,,,,,,,,1.6888757079159913e+18,30.245991162109373,-19.50291976928711,47.301839447021486,-2.520519971847534,1.6888757079159913e+18,30.245991162109373,-274.89771728515626,142.5350372314453,-135.87871704101562,1.6888757079224773e+18,30.25247729492187,-0.3953628738721211,0.3408347765604655,-0.3486001988252004,0.7777865926424662,0.4537695944309234,0.948258896668752,0.7038533290227255
0.3,1.68887570797437e+18,30.3043701171875,-5.177945613861084,9.143364429473875,4.889757752418518,1.68887570797437e+18,30.3043701171875,0.4693920388817787,1.232104281584422,3.4596228202184043,1.68887570797437e+18,30.3043701171875,5.624536037445068,-7.895514965057373,-1.494848410288493,1.68887570797437e+18,30.3043701171875,0.0425060366590817,-1.955481469631195,-0.7080946130057176,1.68887570797437e+18,30.3043701171875,0.0415897344549497,-1.951052685578664,-0.7059565906723341,,,,,,,,,,,,1.6888757079659868e+18,30.295986718750004,-20.47891960144043,46.167239379882815,-7.290719890594483,1.6888757079659868e+18,30.295986718750004,-275.87371826171875,141.40044250488282,-140.64891967773437,1.68887570797437e+18,30.3043701171875,-0.3755778570969899,0.2688329021135965,-0.3769848545392354,0.8027215798695883,0.2542679061492284,0.9396157264709472,0.7456952333450317
0.35,1.6888757080262707e+18,30.356270670572915,0.8537773291269938,5.6471625963846845,3.9199657440185542,1.6888757080262707e+18,30.356270670572915,5.835695664087932,-2.623730023701986,2.167299081881841,1.6888757080262707e+18,30.356270670572915,4.9591169357299805,-8.255147298177084,-1.8173801501592,1.6888757080262707e+18,30.356270670572915,1.7205019394556682,0.8419759099682173,-2.349642276763916,1.6888757080262707e+18,30.356270670572915,1.719585696856181,0.8464047225813071,-2.347453316052755,,,,,,,,,,,,1.688875708015985e+18,30.345984765625,-16.233319664001463,47.960638427734374,-6.883239841461181,1.688875708015985e+18,30.345984765625,-271.62811279296875,143.19383544921874,-140.24143676757814,1.6888757080262707e+18,30.356270670572915,-0.3400333225727081,0.2875238358974456,-0.4068134029706319,0.7973047296206156,0.3495684762795766,1.0046764016151428,0.6113065282503763
0.4,1.6888757080695194e+18,30.399519287109374,7.024977445602417,-7.462635040283203,1.517679214477539,1.6888757080695194e+18,30.399519287109374,10.940284252166748,-16.062419891357422,-1.1330015361309052,1.6888757080695194e+18,30.399519287109374,3.892505288124085,-8.584039688110352,-2.7153942584991455,1.6888757080695194e+18,30.399519287109374,1.1007027924060822,1.3317625522613523,-1.7689893543720243,1.6888757080695194e+18,30.399519287109374,1.0997101664543152,1.3361913710832596,-1.766851395368576,,,,,,,,,,,,1.688875708065987e+18,30.395987011718752,-9.813679885864255,49.91019897460937,-1.9739599466323852,1.688875708065987e+18,30.395987011718752,-265.20847778320314,145.14339294433594,-135.3321563720703,1.6888757080695194e+18,30.399519287109374,-0.3104065209627151,0.3473120629787445,-0.4268419146537781,0.7750877439975739,0.6066217422485352,1.0701295137405396,0.394784465432167
0.45,1.688875708112766e+18,30.442766031901044,10.14781697591146,-12.734938144683838,-2.199612617492676,1.688875708112766e+18,30.442766031901044,14.482359568277994,-21.26102622350057,-4.401597321033478,1.688875708112766e+18,30.442766031901044,4.311741193135579,-8.510342280069986,-2.266698122024536,1.688875708112766e+18,30.442766031901044,-0.2193515306959549,-2.90802393356959,0.7101817528406779,1.688875708112766e+18,30.442766031901044,-0.2202678316583235,-2.903595189253489,0.7123197913169861,,,,,,,,,,,,1.6888757081159864e+18,30.445986328125,-10.094279861450197,50.09807815551758,-2.5863999366760253,1.6888757081159864e+18,30.445986328125,-265.48907470703125,145.3312774658203,-135.94459838867186,1.688875708112766e+18,30.442766031901044,-0.2889755964279175,0.3014832238356272,-0.4363179802894592,0.7967172265052795,0.4816432694594065,1.0547387599945068,0.4115288952986399
0.5,1.6888757081646743e+18,30.494674153645832,-8.163190523783365,-3.0007878939310704,6.106119473775228,1.6888757081646743e+18,30.494674153645832,-3.667000532150269,-11.444870789845783,3.896711746851603,1.6888757081646743e+18,30.494674153645832,4.473388195037842,-8.428337732950846,-2.274121205012003,1.6888757081646743e+18,30.494674153645832,-0.7479535738627116,2.487799564997355,0.2310597797234852,1.6888757081646743e+18,30.494674153645832,-0.748920758565267,2.492330233256022,0.2331978032986322,1.6888757081819763e+18,30.511976318359373,0.0,0.0,1.002590298652649,10.557000160217283,1.1121766567230225,84.42939758300781,41.20000076293945,-122.7525225,49.1905204,1.6888757081659935e+18,30.49599350585937,-11.631479644775393,49.80039901733399,-2.9548399448394775,1.6888757081659935e+18,30.49599350585937,-267.0262756347656,145.03359985351562,-136.31304016113282,1.6888757081646743e+18,30.494674153645832,-0.3016212383906047,0.3043519854545593,-0.4248370329538981,0.7971088886260986,0.4675177633762359,1.0379949013392131,0.453168233235677
0.55,1.6888757082165752e+18,30.546575520833333,-8.546670277913412,-2.2709886233011876,-0.7112521330515543,1.6888757082165752e+18,30.546575520833333,-4.273581246534984,-10.805189609527588,-2.9956146081288657,1.6888757082165752e+18,30.546575520833333,4.2502875328063965,-8.518455823262533,-2.34907595316569,1.6888757082165752e+18,30.546575520833333,0.1402953863143921,2.1269819140434265,-0.1150462627410888,1.6888757082165752e+18,30.546575520833333,0.1393790841102599,2.131410598754883,-0.1129082441329955,,,,,,,,,,,,1.688875708215994e+18,30.545993994140627,-13.293120002746582,49.053759002685545,-3.667319965362549,1.688875708215994e+18,30.545993994140627,-268.6879150390625,144.28695983886718,-137.0255157470703,1.6888757082165752e+18,30.546575520833333,-0.347559650739034,0.3387611508369446,-0.4114903310934703,0.7711969017982483,0.5015338162581126,1.0557248989741008,0.5500860015551249
0.6,1.688875708268471e+18,30.598470947265625,-8.154646078745523,2.6197754542032876,-0.9155348936716716,1.688875708268471e+18,30.598470947265625,-5.291328390439351,-6.110072771708171,-4.295914173126221,1.688875708268471e+18,30.598470947265625,2.8405160903930664,-8.714103062947592,-3.445092757542928,1.688875708268471e+18,30.598470947265625,-0.2756529251734416,5.196477890014648,-2.1497874657313027,1.688875708268471e+18,30.598470947265625,-0.2766201396783193,5.200957457224528,-2.1476495265960693,,,,,,,,,,,,1.6888757082659942e+18,30.595994335937498,-10.452959632873537,50.085879516601565,0.0488000035285949,1.6888757082659942e+18,30.595994335937498,-265.84775390625,145.31907653808594,-133.30939636230468,1.688875708268471e+18,30.598470947265625,-0.3613554835319519,0.4442447920640309,-0.396985093752543,0.716021736462911,0.8855702877044678,1.0985942284266157,0.3672343492507934
0.65,1.6888757083203686e+18,30.65036873372396,-2.557902842760086,-4.419568061828613,-3.0987221399943032,1.6888757083203686e+18,30.65036873372396,-1.6350955367088318,-13.771093368530272,-5.848258018493652,1.6888757083203686e+18,30.65036873372396,0.9000058273474375,-9.335780143737797,-2.814249356587728,1.6888757083203686e+18,30.65036873372396,-2.948341131210327,4.576551596323649,-2.1445442835489907,1.6888757083203686e+18,30.65036873372396,-2.9493083159128823,4.58098030090332,-2.1424062649408975,,,,,,,,,,,,1.6888757083159936e+18,30.645993603515628,-5.192320013046265,50.43235855102539,-2.8303999423980715,1.6888757083159936e+18,30.645993603515628,-260.5871154785156,145.66555480957032,-136.1885955810547,1.6888757083203686e+18,30.65036873372396,-0.4199124773343403,0.5260256131490072,-0.421287993590037,0.606411337852478,1.277626355489095,1.2667705217997232,0.210122932990392
0.7,1.6888757083722698e+18,30.702269612630207,-0.9640517632166544,3.96878433227539,-3.098789612452189,1.6888757083722698e+18,30.702269612630207,-1.6466607252756755,-5.531807025273641,-5.396413167317708,1.6888757083722698e+18,30.702269612630207,-0.7054104606310526,-9.484846115112305,-2.362337112426758,1.6888757083722698e+18,30.702269612630207,0.1379028260707855,3.2896620432535806,-2.389043052991231,1.6888757083722698e+18,30.702269612630207,0.1369865238666534,3.294192632039388,-2.386905034383138,,,,,,,,,,,,1.6888757083659927e+18,30.69599267578125,-0.936959981918335,50.31035842895508,-6.65143985748291,1.6888757083659927e+18,30.69599267578125,-256.3317535400391,145.5435546875,-140.0096405029297,1.6888757083722698e+18,30.702269612630207,-0.4505531887213389,0.6008663773536682,-0.4177312850952148,0.5106015106042227,1.8555431763331096,1.3174007336298623,-0.1605264508010198
0.75,1.6888757084241677e+18,30.754167643229167,4.9392093022664385,2.9752120971679688,1.468710740407308,1.6888757084241677e+18,30.754167643229167,3.13220477104187,-6.357929229736328,-0.9280163645744324,1.6888757084241677e+18,30.754167643229167,-1.829806129137675,-9.317396163940428,-2.4614405632019043,1.6888757084241677e+18,30.754167643229167,0.573907881975174,2.5971954663594565,-0.6805547674496969,1.6888757084241677e+18,30.754167643229167,0.5729915897051493,2.601675033569336,-0.6783658415079117,,,,,,,,,,,,1.6888757084159926e+18,30.74599248046875,3.6599999904632567,50.37867965698242,-5.760839939117432,1.6888757084159926e+18,30.74599248046875,-251.73479614257812,145.61187744140625,-139.11903686523436,1.6888757084241677e+18,30.754167643229167,-0.4447837968667348,0.6583071351051331,-0.3992708424727122,0.4571944077809651,2.2161598205566406,1.256592313448588,-0.3949421942234039
0.8,1.6888757084760648e+18,30.806064941406248,1.4223800897598269,1.8319969177246096,-2.5514942010243735,1.6888757084760648e+18,30.806064941406248,-0.5750750303268433,-7.514061292012532,-4.742175658543904,1.6888757084760648e+18,30.806064941406248,-2.0202566385269165,-9.330313046773275,-2.25539493560791,1.6888757084760648e+18,30.806064941406248,-0.4643594026565552,1.52273432413737,0.0798197239637374,1.6888757084760648e+18,30.806064941406248,-0.4653266072273254,1.5271631081899006,0.0819577525059381,,,,,,,,,,,,1.688875708465996e+18,30.795995947265624,3.696599912643433,50.39087905883789,-5.3655599594116214,1.688875708465996e+18,30.795995947265624,-251.698193359375,145.62407531738282,-138.7237579345703,1.6888757084760648e+18,30.806064941406248,-0.4670986533164978,0.6798453330993652,-0.3745397428671518,0.4233710666497548,2.3085906505584717,1.260773738225301,-0.3826534450054168
0.85,1.6888757085193157e+18,30.8493154296875,4.57498824596405,-0.1413788795471191,-2.847588896751404,1.6888757085193157e+18,30.8493154296875,2.2890339493751526,-9.489037036895752,-4.731806755065918,1.6888757085193157e+18,30.8493154296875,-2.30875563621521,-9.331912994384766,-1.948931336402893,1.6888757085193157e+18,30.8493154296875,-0.4565454125404358,1.5875624418258667,-1.1133782863616943,1.6888757085193157e+18,30.8493154296875,-0.4574616998434067,1.5919911861419678,-1.111240267753601,,,,,,,,,,,,1.6888757085159913e+18,30.845991357421877,3.772239875793457,50.1322380065918,-6.907639980316162,1.6888757085159913e+18,30.845991357421877,-251.62255859375,145.3654357910156,-140.26583557128907,1.6888757085193157e+18,30.8493154296875,-0.4755445420742035,0.6920749843120575,-0.3715776950120926,0.3958879709243774,2.447508692741394,1.2611813545227053,-0.468876302242279
0.9,1.6888757085625682e+18,30.892568115234372,1.3501652081807454,-0.5893243153889974,-5.357794284820557,1.6888757085625682e+18,30.892568115234372,-1.4480565190315249,-9.868199984232584,-6.861618518829346,1.6888757085625682e+18,30.892568115234372,-2.8210232257843018,-9.26313050587972,-1.5685376326243083,1.6888757085625682e+18,30.892568115234372,-0.814996063709259,0.3611740929385026,-0.5584326585133871,1.6888757085625682e+18,30.892568115234372,-0.8160650730133057,0.365602867056926,-0.5562946299711863,,,,,,,,,,,,1.6888757085659924e+18,30.89599248046875,6.038999843597412,49.33435897827148,-9.19636001586914,1.6888757085659924e+18,30.89599248046875,-249.3557922363281,144.5675537109375,-142.55455322265624,1.6888757085625682e+18,30.892568115234372,-0.4734000464280446,0.7064843575159708,-0.3793964783350627,0.3644067347049713,2.643542528152466,1.2387781937917073,-0.6268996397654215
0.95,1.688875708614467e+18,30.944467203776043,3.1227564811706543,-2.585725466410319,-7.979827721913655,1.688875708614467e+18,30.944467203776043,0.3952145576477051,-11.877174059549969,-9.532606760660808,1.688875708614467e+18,30.944467203776043,-2.750343402226766,-9.275703430175785,-1.6174925963083904,1.688875708614467e+18,30.944467203776043,0.5371541728576025,-0.3863722601284583,0.12252938747406,1.688875708614467e+18,30.944467203776043,0.5362378731369972,-0.3818925941983859,0.1246674160162607,,,,,,,,,,,,1.6888757086159872e+18,30.945987207031248,6.007279872894287,49.42707901000976,-9.003600120544434,1.6888757086159872e+18,30.945987207031248,-249.38751220703125,144.6602783203125,-142.3617950439453,1.688875708614467e+18,30.944467203776043,-0.4703856011231739,0.7007627288500468,-0.3852450350920359,0.3731079598267873,2.6201721827189126,1.242858648300171,-0.627853532632192
1.0,1.688875708666366e+18,30.99636588541667,-0.79323410987854,-3.033021926879883,-1.4547030925750732,1.688875708666366e+18,30.99636588541667,-2.778465876976649,-12.381461143493652,-3.6125639279683432,1.688875708666366e+18,30.99636588541667,-2.008033196131388,-9.332694053649902,-2.222574313481649,1.688875708666366e+18,30.99636588541667,0.9922997156778972,-1.7032450040181475,2.129679878552755,1.688875708666366e+18,30.99636588541667,0.991332471370697,-1.6987653175989788,2.131817897160848,,,,,,,,,,,,1.6888757086659945e+18,30.99599453125,3.359879994392395,50.039519500732425,-6.761239814758301,1.6888757086659945e+18,30.99599453125,-252.0349151611328,145.27271728515626,-140.11943664550782,1.688875708666366e+18,30.99636588541667,-0.4734459519386291,0.6834144194920858,-0.3667909801006317,0.4168669581413269,2.3074485460917153,1.262078007062276,-0.3566304047902424
1.05,1.6888757087182643e+18,31.04826416015625,-2.554098685582479,-8.769399325052897,-0.1845005353291829,1.6888757087182643e+18,31.04826416015625,-3.0486554702123008,-18.074185689290363,-3.183650573094686,1.6888757087182643e+18,31.04826416015625,-0.5173581553002199,-9.2890412012736,-3.063863515853882,1.6888757087182643e+18,31.04826416015625,1.88558828830719,-3.1434106826782227,2.408947149912516,1.6888757087182643e+18,31.04826416015625,1.884570201237996,-3.138880173365275,2.41108504931132,1.6888757087009654e+18,31.03096533203125,0.0,0.0,1.002590298652649,10.446999549865724,1.127586841583252,84.35356140136719,41.20000076293945,-122.7525149,49.1905228,1.6888757087159923e+18,31.045992333984373,-2.2594399482011793,50.2810791015625,-3.3940398931503295,1.6888757087159923e+18,31.045992333984373,-257.65422973632815,145.5142791748047,-136.7522399902344,1.6888757087182643e+18,31.04826416015625,-0.4739868740240733,0.6376864115397135,-0.3450461725393931,0.4985891779263814,1.7484413782755537,1.2488572200139365,0.0947460892299811
1.1,1.6888757087701647e+18,31.10016471354167,-3.100793262322744,-13.251694679260254,2.847008546193441,1.6888757087701647e+18,31.10016471354167,-1.864806572596232,-22.246470769246415,-0.8237291971842451,1.6888757087701647e+18,31.10016471354167,1.2131852507591248,-8.979030927022299,-3.735451300938924,1.6888757087701647e+18,31.10016471354167,0.6817765335241953,-1.9006054202715557,2.7176886399586997,1.6888757087701647e+18,31.10016471354167,0.6808602114518484,-1.8961256742477417,2.719826579093933,,,,,,,,,,,,1.6888757087659917e+18,31.095991650390623,-8.942599964141845,49.96631927490235,0.4953199744224548,1.6888757087659917e+18,31.095991650390623,-264.33739013671874,145.19951477050782,-132.86287841796874,1.6888757087701647e+18,31.10016471354167,-0.4758496085802714,0.5826948086420695,-0.3132557074228922,0.5791478355725607,1.2561933596928914,1.1607255538304646,0.4844943086306254
1.15,1.6888757088220628e+18,31.152062662760414,-2.932041803995768,-2.473467032114665,2.090107560157776,1.6888757088220628e+18,31.152062662760414,-0.2167498568693796,-11.241281350453695,-1.3306088248888652,1.6888757088220628e+18,31.152062662760414,2.692490498224894,-8.752069155375162,-3.485429843266805,1.6888757088220628e+18,31.152062662760414,1.0795006851355236,-5.313509623209636,1.4567608733971913,1.6888757088220628e+18,31.152062662760414,1.0785844226678212,-5.309029897054036,1.4588989317417145,,,,,,,,,,,,1.6888757088159923e+18,31.14599243164063,-13.344359588623046,49.29043884277344,-0.3879599869251251,1.6888757088159923e+18,31.14599243164063,-268.73914794921876,144.5236358642578,-133.74615478515625,1.6888757088220628e+18,31.152062662760414,-0.4546692272027333,0.5006932814915975,-0.3339588443438212,0.6553517381350199,0.9133931795756022,1.1067968606948853,0.622248907883962
1.2,1.6888757088739543e+18,31.203954345703124,-8.01777172088623,8.577391465504965,1.7723986307779949,1.6888757088739543e+18,31.203954345703124,-3.7659039894739785,0.3704887380202611,-1.4947165250778198,1.6888757088739543e+18,31.203954345703124,4.229065895080566,-8.191157658894857,-3.3318285942077637,1.6888757088739543e+18,31.203954345703124,1.1427252491315203,-4.157446940739949,1.6094262997309368,1.6888757088739543e+18,31.203954345703124,1.1417580445607505,-4.1529163519541425,1.6115642786026,,,,,,,,,,,,1.6888757088659945e+18,31.19599453125,-17.933999633789064,48.06067886352539,-0.8905999898910523,1.6888757088659945e+18,31.19599453125,-273.32880249023435,143.29387817382812,-134.24879760742186,1.6888757088739543e+18,31.203954345703124,-0.4138034482796986,0.4158638815085093,-0.3339089651902516,0.7371002634366354,0.6652424136797587,0.9922957221666971,0.6527345379193624
1.25,1.6888757089258606e+18,31.25586059570313,-8.217663447062174,11.337007840474447,1.7708030541737874,1.6888757089258606e+18,31.25586059570313,-2.927020311355591,3.421736399332682,-0.6041877071062723,1.6888757089258606e+18,31.25586059570313,5.267841657002767,-7.899526596069336,-2.439704259236654,1.6888757089258606e+18,31.25586059570313,-0.4684827327728271,-3.5956546465555825,0.6325000491924584,1.6888757089258606e+18,31.25586059570313,-0.4695517520109812,-3.591174920399984,0.6346380710601807,,,,,,,,,,,,1.6888757089159892e+18,31.245989208984373,-21.240199279785156,47.04563980102539,-3.1817599296569825,1.6888757089159892e+18,31.245989208984373,-276.6349853515625,142.27883911132812,-136.53995361328126,1.6888757089258606e+18,31.25586059570313,-0.3862872223059336,0.3287869294484456,-0.3517271081606547,0.7863517999649048,0.4296095768610636,0.9398924509684244,0.6923320094744364
1.3,1.6888757089691095e+18,31.299109619140623,-6.689195156097412,7.902480602264404,5.0773231983184814,1.6888757089691095e+18,31.299109619140623,-1.2505489736795423,-0.1238285601139069,3.492922782897949,1.6888757089691095e+18,31.299109619140623,5.415844678878784,-8.010563850402832,-1.649113953113556,1.6888757089691095e+18,31.299109619140623,0.126907255500555,-2.3273966312408447,-0.9515753388404846,1.6888757089691095e+18,31.299109619140623,0.1259145997464656,-2.3228914737701416,-0.9494373202323914,,,,,,,,,,,,1.6888757089659968e+18,31.295996679687494,-20.081199645996097,46.830918884277345,-7.00035982131958,1.6888757089659968e+18,31.295996679687494,-275.4759948730469,142.06411743164062,-140.35855712890626,1.6888757089691095e+18,31.299109619140623,-0.3667014390230179,0.2787421196699142,-0.3837139457464217,0.8002957701683044,0.2909565716981888,0.9591692388057708,0.7072734832763672
1.35,1.6888757090123558e+18,31.342355550130208,2.4968791007995605,4.095803101857503,4.919041633605957,1.6888757090123558e+18,31.342355550130208,7.273383140563965,-4.286941130956014,3.1353952089945474,1.6888757090123558e+18,31.342355550130208,4.753702640533447,-8.366998990376791,-1.8483599424362185,1.6888757090123558e+18,31.342355550130208,1.5033393502235413,0.8619309067726135,-2.527149478594462,1.6888757090123558e+18,31.342355550130208,1.5023212432861328,0.866410513718923,-2.5250115394592285,,,,,,,,,,,,1.6888757090159928e+18,31.345992919921876,-15.145079803466796,48.52671890258789,-6.243959903717041,1.6888757090159928e+18,31.345992919921876,-270.5398742675781,143.759912109375,-139.60215759277344,1.6888757090123558e+18,31.342355550130208,-0.335302044947942,0.2927451531092326,-0.4156346321105957,0.7928145527839661,0.3703294893105824,1.0258464217185974,0.588229238986969
1.4,1.6888757090642578e+18,31.3942578125,4.755751609802246,-15.929197629292808,0.3718852599461873,1.6888757090642578e+18,31.3942578125,8.48993412653605,-24.63370990753174,-2.195215384165446,1.6888757090642578e+18,31.3942578125,3.711380958557129,-8.688766161600748,-2.6318140824635825,1.6888757090642578e+18,31.3942578125,0.3194825326402982,-0.5025384624799094,-0.6985752880573273,1.6888757090642578e+18,31.3942578125,0.3185662130514781,-0.4980588008960088,-0.696437289317449,,,,,,,,,,,,1.688875709065991e+18,31.395990869140626,-9.228079795837402,50.09075927734375,-2.4009599924087524,1.688875709065991e+18,31.395990869140626,-264.6228759765625,145.32395935058594,-135.7591583251953,1.6888757090642578e+18,31.3942578125,-0.3130958477656047,0.350073238213857,-0.4349502523740132,0.76808234055837,0.614572008450826,1.092031955718994,0.3930199742317199
1.45,1.688875709116157e+18,31.446156819661457,9.268952210744224,1.4804805119832356,2.385994593302409,1.688875709116157e+18,31.446156819661457,13.866008440653482,-7.006384293238322,0.5842474301656088,1.688875709116157e+18,31.446156819661457,4.5742543538411455,-8.47111956278483,-1.8664605617523191,1.688875709116157e+18,31.446156819661457,-0.0992147028446197,-1.4539610147476196,1.462156891822815,1.688875709116157e+18,31.446156819661457,-0.10018190741539,-1.44948148727417,1.4643458127975464,,,,,,,,,,,,1.6888757091159926e+18,31.445992578124997,-10.635960006713868,49.6832778930664,-4.240719985961914,1.6888757091159926e+18,31.445992578124997,-266.0307556152344,144.91647644042968,-137.59891357421876,1.688875709116157e+18,31.446156819661457,-0.2946505149205525,0.2772255539894103,-0.4371677239735921,0.803126871585846,0.385233610868454,1.0464964707692463,0.4788142442703247
1.5,1.6888757091680522e+18,31.498052164713545,-14.996589024861654,-7.357800801595052,1.7061773141225178,1.6888757091680522e+18,31.498052164713545,-10.531609853108725,-15.817554155985514,-0.497308353583018,1.6888757091680522e+18,31.498052164713545,4.442177613576253,-8.444008191426596,-2.2681991259256997,1.6888757091680522e+18,31.498052164713545,-0.8970556159814199,3.667278528213501,-0.367180922999978,1.6888757091680522e+18,31.498052164713545,-0.897971898317337,3.671707312266032,-0.3650428814192613,,,,,,,,,,,,1.6888757091659932e+18,31.49599301757813,-12.922239685058594,49.27091903686524,-3.8210398674011232,1.6888757091659932e+18,31.49599301757813,-268.31703491210936,144.50411682128907,-137.17923889160156,1.6888757091680522e+18,31.498052164713545,-0.3302384018898009,0.3201846182346343,-0.4143895705540975,0.7847432891527811,0.4699473977088928,1.0406312147776289,0.5239141086737314
1.55,1.6888757092199547e+18,31.54995467122396,-5.707295974095662,0.8302939732869467,0.8342543045679728,1.6888757092199547e+18,31.54995467122396,-2.1413769324620566,-7.801798184712728,-2.1328026056289673,1.6888757092199547e+18,31.54995467122396,3.5431177616119385,-8.616346995035807,-3.031770388285319,1.6888757092199547e+18,31.54995467122396,1.0129164059956868,3.83689554532369,-1.2522737781206768,1.6888757092199547e+18,31.54995467122396,1.0119491616884868,3.841324249903361,-1.2501357595125837,1.6888757092199575e+18,31.54995751953125,0.0,0.0,1.0121893882751465,10.368000030517578,1.148446798324585,84.19285583496094,41.20000076293945,-122.7525019,49.1905265,1.688875709215994e+18,31.545993798828125,-12.497679710388184,49.52955856323242,-1.8812399327754976,1.688875709215994e+18,31.545993798828125,-267.89247436523436,144.76275634765625,-135.23943786621095,1.6888757092199547e+18,31.54995467122396,-0.3550827105840047,0.3977383474508921,-0.4014281928539276,0.7440122167269388,0.7059558232625326,1.075924038887024,0.4569067060947418
1.6,1.6888757092718538e+18,31.601853841145836,-8.90484348932902,0.6063313484191895,-2.299201250076294,1.6888757092718538e+18,31.601853841145836,-7.166703224182129,-8.319644769032797,-5.916054566701253,1.6888757092718538e+18,31.601853841145836,1.715338905652364,-8.910230954488119,-3.6815667947133384,1.6888757092718538e+18,31.601853841145836,-1.7377589295307796,5.289380391438802,-1.942449649175008,1.6888757092718538e+18,31.601853841145836,-1.73872609436512,5.293809016545613,-1.9403116703033447,,,,,,,,,,,,1.6888757092659912e+18,31.59599125976563,-8.056879997253418,50.21763916015625,1.32247998714447,1.6888757092659912e+18,31.59599125976563,-263.4516845703125,145.45083618164062,-132.03571472167968,1.6888757092718538e+18,31.601853841145836,-0.3895562291145324,0.5123771627744039,-0.3871005276838938,0.6588490804036459,1.1426242589950562,1.1446470419565835,0.2802734623352687
1.65,1.688875709323751e+18,31.653750732421873,-2.3870213826497397,-2.36765988667806,-4.847193241119385,1.688875709323751e+18,31.653750732421873,-2.429113745689392,-11.805189768473308,-7.471588770548503,1.688875709323751e+18,31.653750732421873,-0.0648937597870826,-9.42178471883138,-2.689108928044637,1.688875709323751e+18,31.653750732421873,-1.8190040240685144,3.7744853496551514,-2.188373883565267,1.688875709323751e+18,31.653750732421873,-1.820022091269493,3.778914213180542,-2.1862357457478843,,,,,,,,,,,,1.6888757093159928e+18,31.645992675781248,-2.874319911003113,50.415279388427734,-3.716119909286499,1.6888757093159928e+18,31.645992675781248,-258.2691162109375,145.6484802246094,-137.07431640625,1.688875709323751e+18,31.653750732421873,-0.4423750440279643,0.5787491202354431,-0.4100365440050761,0.5478788415590922,1.6060219605763753,1.2930303812026978,0.0285644847899675
1.7,1.6888757093756516e+18,31.7056513671875,4.07781720161438,2.3231428464253745,0.1579663753509521,1.6888757093756516e+18,31.7056513671875,2.665803770224253,-7.043273448944092,-2.349951277176539,1.6888757093756516e+18,31.7056513671875,-1.4348150094350178,-9.3506711324056,-2.5726311206817627,1.6888757093756516e+18,31.7056513671875,0.599615161617597,3.0001628398895264,-1.8182404041290283,1.6888757093756516e+18,31.7056513671875,0.5986479371786118,3.0045915444691977,-1.8161023457845051,,,,,,,,,,,,1.688875709365992e+18,31.695992041015625,1.6567599713802337,50.386000061035155,-5.06299991607666,1.688875709365992e+18,31.695992041015625,-253.7380340576172,145.61919555664062,-138.42119750976562,1.6888757093756516e+18,31.7056513671875,-0.4438185393810272,0.6416639685630798,-0.4010794262091318,0.4793351987997691,2.0782569646835327,1.2678343057632446,-0.299520879983902
1.75,1.688875709427553e+18,31.757552815755208,3.0594124794006348,3.598962942759196,0.9187737305959066,1.688875709427553e+18,31.757552815755208,1.0342975457509358,-5.68175745010376,-1.50528484134702,1.688875709427553e+18,31.757552815755208,-2.0479164123535156,-9.264975229899088,-2.4887720743815103,1.688875709427553e+18,31.757552815755208,0.0866919476538896,2.939381758371989,0.4235332372287909,1.688875709427553e+18,31.757552815755208,0.0857756665597359,2.9439123471577964,0.4256712788095076,,,,,,,,,,,,1.6888757094159992e+18,31.745999169921873,4.074799966812134,50.35183868408203,-4.238279914855957,1.6888757094159992e+18,31.745999169921873,-251.31999816894532,145.5850402832031,-137.5964782714844,1.688875709427553e+18,31.757552815755208,-0.4640375475088755,0.6882990797360738,-0.3606029152870178,0.4248031675815582,2.2644893328348794,1.2393851280212402,-0.3194286624590555
1.8,1.6888757094707942e+18,31.80079443359375,0.7461853623390197,2.922834873199463,-3.3930429220199585,1.6888757094707942e+18,31.80079443359375,-1.3570295721292496,-6.420541286468506,-5.497509956359863,1.6888757094707942e+18,31.80079443359375,-2.12601637840271,-9.327630996704102,-2.1691805124282837,1.6888757094707942e+18,31.80079443359375,-0.7000515460968018,1.1748465299606323,-0.1153008230030536,1.6888757094707942e+18,31.80079443359375,-0.7009678483009338,1.179275393486023,-0.1131627820432186,,,,,,,,,,,,1.6888757094659924e+18,31.795992480468747,2.1642799615859984,50.2810791015625,-5.033719825744629,1.6888757094659924e+18,31.795992480468747,-253.2305145263672,145.5142791748047,-138.3919189453125,1.6888757094707942e+18,31.80079443359375,-0.4857832789421081,0.6991700828075409,-0.3448586016893387,0.3952484875917434,2.3515663146972656,1.2593989968299866,-0.3265805244445801
1.85,1.6888757095140452e+18,31.844045166015626,4.1126508712768555,0.1528784434000651,-3.213547865549723,1.6888757095140452e+18,31.844045166015626,1.5272190173467,-9.14616584777832,-4.932604630788167,1.6888757095140452e+18,31.844045166015626,-2.6082332928975425,-9.283299128214518,-1.783770243326823,1.6888757095140452e+18,31.844045166015626,-0.6238970458507538,1.87611985206604,-1.1902709205945332,1.6888757095140452e+18,31.844045166015626,-0.6248133480548859,1.8805996179580688,-1.18813290198644,,,,,,,,,,,,1.688875709515993e+18,31.84599296875,3.3574398279190065,50.00047912597656,-6.912519836425782,1.688875709515993e+18,31.84599296875,-252.0373565673828,145.23367614746093,-140.27071838378907,1.6888757095140452e+18,31.844045166015626,-0.4892771343390147,0.7175821860631307,-0.3424046238263448,0.3579541047414143,2.545628865559896,1.2450527747472129,-0.4556517700354258
1.9,1.688875709565949e+18,31.89594856770833,1.5206255912780762,-1.8980964024861653,-7.534959316253662,1.688875709565949e+18,31.89594856770833,-1.2576276858647664,-11.205389022827148,-8.90309476852417,1.688875709565949e+18,31.89594856770833,-2.8010547955830893,-9.291547457377115,-1.432848850886027,1.688875709565949e+18,31.89594856770833,-0.5703954274455706,-0.854345957438151,0.1824450939893722,1.688875709565949e+18,31.89594856770833,-0.5714135359351833,-0.8498662908871969,0.1845831150809923,,,,,,,,,,,,1.6888757095659904e+18,31.895990429687497,4.550599861145019,49.56859893798829,-8.488759899139405,1.6888757095659904e+18,31.895990429687497,-250.8441955566406,144.80179748535156,-141.84695739746093,1.688875709565949e+18,31.89594856770833,-0.4910638829072316,0.7184062798817953,-0.3547946711381275,0.3417603671550751,2.676433881123861,1.2473408381144206,-0.5798808336257935
1.95,1.6888757096178496e+18,31.947849853515624,2.146188974380493,-2.623546600341797,-6.102234244346619,1.6888757096178496e+18,31.947849853515624,-0.346161683400472,-11.950554211934408,-7.808179219563802,1.6888757096178496e+18,31.947849853515624,-2.5151522159576416,-9.311262448628744,-1.7706583340962727,1.6888757096178496e+18,31.947849853515624,0.8341364860534668,-1.0051278571287792,1.0117964670062063,1.6888757096178496e+18,31.947849853515624,0.8332201838493347,-1.0006990432739258,1.013985350728035,,,,,,,,,,,,1.688875709615994e+18,31.94599384765625,4.499359893798828,49.92483825683594,-8.00807991027832,1.688875709615994e+18,31.94599384765625,-250.8954345703125,145.1580352783203,-141.36627807617188,1.6888757096178496e+18,31.947849853515624,-0.4873923162619273,0.7092740535736084,-0.3526740670204162,0.3671267529328664,2.532841602961222,1.2540452480316162,-0.4742901821931203
2.0,1.6888757096697467e+18,31.999746663411457,-1.6730095545450847,-6.080119768778483,-0.1700505018234253,1.6888757096697467e+18,31.999746663411457,-2.915654381116231,-15.481961250305176,-2.6179473797480264,1.6888757096697467e+18,31.999746663411457,-1.2654462655385337,-9.386096318562826,-2.51261043548584,1.6888757096697467e+18,31.999746663411457,1.4409801959991455,-2.480774720509847,2.31808090209961,1.6888757096697467e+18,31.999746663411457,1.44001301129659,-2.47624405225118,2.3202189604441323,,,,,,,,,,,,1.6888757096659937e+18,31.995993603515625,-0.0390399992465973,50.09319915771484,-5.853559970855713,1.6888757096659937e+18,31.995993603515625,-255.43382873535157,145.32639770507814,-139.21175537109374,1.6888757096697467e+18,31.999746663411457,-0.4951429466406504,0.6714204351107279,-0.3360863029956817,0.4362957974274953,2.0420087973276773,1.2796945174535117,-0.0700958569844563
2.05,1.6888757097216443e+18,32.05164453125,-1.374786655108134,-11.28236484527588,1.572330911954244,1.6888757097216443e+18,32.05164453125,-1.0534401337305703,-20.477577209472656,-1.7647066911061604,1.6888757097216443e+18,32.05164453125,0.2985450029373169,-9.17946720123291,-3.401751120885214,1.6888757097216443e+18,32.05164453125,1.5654948949813845,-3.6815830866495767,2.450536847114563,1.6888757097216443e+18,32.05164453125,1.5644259254137676,-3.6770524183909097,2.452674865722656,1.6888757097389445e+18,32.0689443359375,0.0,0.0,1.0121893882751465,10.279000282287598,1.156550645828247,84.1930160522461,41.20000076293945,-122.7524945,49.190528,1.6888757097159946e+18,32.04599467773437,-4.684799909591675,50.41039886474609,-2.0178799510002134,1.6888757097159946e+18,32.04599467773437,-260.07958984375,145.6435974121094,-135.37608032226564,1.6888757097216443e+18,32.05164453125,-0.4807072679201762,0.6156924168268839,-0.3240585525830586,0.5325795412063599,1.49050768216451,1.2148847182591755,0.3244887838761011
2.1,1.68887570977354e+18,32.1035400390625,-4.156415621439616,-7.836030006408691,3.609185218811035,1.68887570977354e+18,32.1035400390625,-2.1605193614959717,-16.849858283996582,0.3200400198499362,1.68887570977354e+18,32.1035400390625,1.973094900449117,-8.998083114624023,-3.353858788808187,1.68887570977354e+18,32.1035400390625,-0.2016873260339101,-3.2452216148376465,1.8004743655522664,1.68887570977354e+18,32.1035400390625,-0.2026036282380422,-3.2407418886820474,1.8026124636332197,,,,,,,,,,,,1.688875709765994e+18,32.0959939453125,-11.729079818725586,49.54419937133789,-0.6319599870592356,1.688875709765994e+18,32.0959939453125,-267.1238708496094,144.77739562988282,-133.9901550292969,1.68887570977354e+18,32.1035400390625,-0.4937009612719218,0.5460259715716044,-0.3172134160995483,0.5971975525220236,1.0346700350443525,1.1642714738845823,0.6641873121261597
2.15,1.6888757098254426e+18,32.155442626953125,-3.7883947292963662,1.7246192296346028,0.8542991081873575,1.6888757098254426e+18,32.155442626953125,-0.3876372873783111,-6.981458981831868,-2.102892279624939,1.6888757098254426e+18,32.155442626953125,3.377955913543701,-8.690333048502604,-3.0219048659006753,1.6888757098254426e+18,32.155442626953125,1.147561232248942,-4.1655919551849365,1.8446093797683716,1.6888757098254426e+18,32.155442626953125,1.1465940872828166,-4.161163171132405,1.8467474381128948,,,,,,,,,,,,1.6888757098159923e+18,32.145992285156254,-15.332959938049315,48.690198516845705,-3.015839862823486,1.6888757098159923e+18,32.145992285156254,-270.7277465820313,143.92339477539062,-136.37403564453126,1.6888757098254426e+18,32.155442626953125,-0.4617239733537037,0.4589836696783702,-0.342010756333669,0.6769256194432577,0.728857179482778,1.0922060012817385,0.7405474583307902
2.2,1.6888757098773432e+18,32.20734318033854,-10.225833257039389,10.68388811747233,0.5827031135559083,1.6888757098773432e+18,32.20734318033854,-5.623531977335612,2.4083759486675262,-1.9760727087656655,1.6888757098773432e+18,32.20734318033854,4.579499880472819,-8.259766896565756,-2.6234893004099527,1.6888757098773432e+18,32.20734318033854,0.477238451441129,-4.356741825739543,1.296714226404826,1.6888757098773432e+18,32.20734318033854,0.4763221740722656,-4.352262179056804,1.2988522450129192,,,,,,,,,,,,1.6888757098659942e+18,32.19599409179688,-19.27599983215332,47.5311996459961,-3.513599920272827,1.6888757098659942e+18,32.19599409179688,-274.67078857421876,142.76439819335937,-136.87179870605468,1.6888757098773432e+18,32.20734318033854,-0.4245491921901703,0.3786608477433522,-0.3507733841737111,0.7431568702061971,0.5179325938224792,1.004141390323639,0.7485917806625366
2.25,1.6888757099205908e+18,32.250590698242185,-7.713155269622803,10.631603240966797,0.5531226992607117,1.6888757099205908e+18,32.250590698242185,-2.4035903215408325,2.5124638080596924,-0.9849455915391444,1.6888757099205908e+18,32.250590698242185,5.286763668060303,-8.103394508361816,-1.6027817726135254,1.6888757099205908e+18,32.250590698242185,-0.6604216992855072,-4.059581279754639,0.3936263024806976,1.6888757099205908e+18,32.250590698242185,-0.6613380014896393,-4.055152416229248,0.3957643248140811,,,,,,,,,,,,1.6888757099159951e+18,32.24599506835938,-19.91527976989746,46.54299774169922,-7.729919910430908,1.6888757099159951e+18,32.24599506835938,-275.31007080078126,141.7761962890625,-141.08811645507814,1.6888757099205908e+18,32.250590698242185,-0.4007141143083572,0.2970791459083557,-0.3779612034559249,0.7797671854496002,0.2899997308850288,0.9749912917613984,0.7948439419269562
2.3,1.6888757099638364e+18,32.29383650716146,-0.72650416692098,5.622307459513347,5.984901428222656,1.6888757099638364e+18,32.29383650716146,4.488735914230347,-2.626521587371826,4.848257462183635,1.6888757099638364e+18,32.29383650716146,5.19243860244751,-8.233083724975586,-1.201357364654541,1.6888757099638364e+18,32.29383650716146,0.9876164073745408,-0.5453499654928843,-1.195208748181661,1.6888757099638364e+18,32.29383650716146,0.9867000871648391,-0.540921151638031,-1.1930707295735676,,,,,,,,,,,,1.6888757099659894e+18,32.29598950195312,-17.560679626464843,47.0602783203125,-9.899079895019533,1.6888757099659894e+18,32.29598950195312,-272.9554809570312,142.2934783935547,-143.257275390625,1.6888757099638364e+18,32.29383650716146,-0.3788606127103169,0.2702712615331014,-0.4039325316747029,0.7874586582183838,0.2238069127003351,0.9989841977755228,0.7739739616711935
2.35,1.6888757100157356e+18,32.34573551432292,4.366890589396159,2.683159669240316,3.711327314376831,1.6888757100157356e+18,32.34573551432292,8.54656426111857,-5.907480398813884,1.501097410917282,1.6888757100157356e+18,32.34573551432292,4.156872272491455,-8.574894905090332,-2.274943391482035,1.6888757100157356e+18,32.34573551432292,1.9824612935384112,1.6967800060908,-2.559678077697754,1.6888757100157356e+18,32.34573551432292,1.981494108835856,1.7012087901433308,-2.5575400988260903,,,,,,,,,,,,1.6888757100159918e+18,32.34599169921875,-12.504999732971193,49.446598815917966,-4.460319948196411,1.6888757100159918e+18,32.34599169921875,-267.89979248046876,144.67979736328124,-137.81851501464843,1.6888757100157356e+18,32.34573551432292,-0.3358354568481445,0.3318239549795785,-0.4224591056505839,0.7732903957366943,0.5012222528457642,1.0672170718510945,0.5172207454840342
2.4,1.6888757100676383e+18,32.397638346354164,8.921617190043131,-17.004506429036457,-4.335292816162109,1.6888757100676383e+18,32.397638346354164,12.958330790201822,-25.652254740397137,-6.620541413625081,1.6888757100676383e+18,32.397638346354164,4.013912121454875,-8.63200314839681,-2.3499621550242105,1.6888757100676383e+18,32.397638346354164,-0.082365001241366,-3.341432809829712,0.5800674458344778,1.6888757100676383e+18,32.397638346354164,-0.0833322058121363,-3.336902379989624,0.5822054942448934,,,,,,,,,,,,1.6888757100659922e+18,32.39599223632813,-9.269559860229492,49.978518676757815,-2.803559970855713,1.6888757100659922e+18,32.39599223632813,-264.66435546875,145.2117156982422,-136.16175842285156,1.6888757100676383e+18,32.397638346354164,-0.3024012247721354,0.3214235007762908,-0.4388712545235951,0.7822609345118204,0.5280252595742544,1.0791250069936116,0.4165347814559936
2.45,1.6888757101195256e+18,32.44952555338542,-5.082117239634196,-1.8770306905110676,4.982451756795247,1.6888757101195256e+18,32.44952555338542,-0.5916252136230469,-10.367901166280111,2.941177805264791,1.6888757101195256e+18,32.44952555338542,4.467690626780192,-8.475125312805176,-2.1059873898824057,1.6888757101195256e+18,32.44952555338542,-0.5568545833230019,2.057597833375136,0.9212866226832072,1.6888757101195256e+18,32.44952555338542,-0.5578217667837938,2.062077450255553,0.9234246412913004,,,,,,,,,,,,1.6888757101159887e+18,32.44598872070313,-11.284999656677249,49.73939895629883,-3.816159915924072,1.6888757101159887e+18,32.44598872070313,-266.67979125976564,144.97259521484375,-137.1743621826172,1.6888757101195256e+18,32.44952555338542,-0.3072212040424346,0.2990423242251078,-0.4285359978675842,0.7950368324915568,0.43777001897494,1.0463434457778928,0.4823297162850697
2.5,1.688875710171424e+18,32.501423909505206,-11.08916703859965,-2.097487290700277,1.8563159306844077,1.688875710171424e+18,32.501423909505206,-6.727022230625153,-10.59701363245646,-0.3996013800303142,1.688875710171424e+18,32.501423909505206,4.339343070983887,-8.483781178792318,-2.3206308682759604,1.688875710171424e+18,32.501423909505206,-0.0923424661159516,2.2931881745656333,0.0913752615451812,1.688875710171424e+18,32.501423909505206,-0.0933605730533599,2.2976169188817344,0.0935132826368014,,,,,,,,,,,,1.6888757101659858e+18,32.495985888671875,-14.73759994506836,48.80243911743164,-4.511559963226318,1.6888757101659858e+18,32.495985888671875,-270.1323974609375,144.03563537597657,-137.86975708007813,1.688875710171424e+18,32.501423909505206,-0.3565334379673004,0.339519997437795,-0.4051186641057332,0.7702174782752991,0.4880374173323313,1.047739068667094,0.5813219348589579
2.55,1.688875710223325e+18,32.553324869791666,-6.633119106292725,3.555070718129476,-2.131269693374634,1.688875710223325e+18,32.553324869791666,-3.4644082387288413,-5.0568318367004395,-5.532205820083618,1.688875710223325e+18,32.553324869791666,3.145909388860067,-8.596157391866049,-3.4656496047973633,1.688875710223325e+18,32.553324869791666,0.1244637767473855,5.519269307454427,-2.0500637690226235,1.688875710223325e+18,32.553324869791666,0.1235475142796834,5.523698012034099,-2.0479257106781006,,,,,,,,,,,,1.6888757102159862e+18,32.5459861328125,-13.10767993927002,49.3489990234375,-0.4928799748420715,1.6888757102159862e+18,32.5459861328125,-268.5024780273437,144.5821990966797,-133.8510772705078,1.688875710223325e+18,32.553324869791666,-0.3704564174016316,0.4395470221837361,-0.3816428383191426,0.7223985393842062,0.8371480107307434,1.071751594543457,0.4285642703374226
2.6,1.6888757102752238e+18,32.605223876953126,-6.265613396962483,-5.410595893859863,-4.378769477208455,1.6888757102752238e+18,32.605223876953126,-5.45124876499176,-14.712668736775717,-7.293323357899983,1.6888757102752238e+18,32.605223876953126,0.7915631632010142,-9.286327679951986,-2.9792673587799072,1.6888757102752238e+18,32.605223876953126,-3.08639657497406,5.094972451527913,-2.799951712290446,1.6888757102752238e+18,32.605223876953126,-3.087363918622335,5.099401315053304,-2.7978137731552124,1.6888757102579256e+18,32.58792553710938,0.0,0.0,0.9895314574241638,10.22599983215332,1.1680517196655271,84.28387451171875,41.20000076293945,-122.7524851,49.19053,1.6888757102659863e+18,32.595986181640626,-6.724639892578125,50.1761589050293,-1.0882399559020997,1.6888757102659863e+18,32.595986181640626,-262.11943969726565,145.40935668945312,-134.44643859863282,1.6888757102752238e+18,32.605223876953126,-0.4263812104860942,0.5428431232770284,-0.4057974815368652,0.5972235202789307,1.3344521125157671,1.2501012484232583,0.2017855023344357
2.65,1.6888757103271342e+18,32.65713435872396,1.915939450263977,2.541743755340576,-1.3571573893229167,1.6888757103271342e+18,32.65713435872396,1.2981063028176625,-6.913662115732829,-3.86321226755778,1.6888757103271342e+18,32.65713435872396,-0.6406346360842387,-9.439660708109535,-2.570768356323242,1.6888757103271342e+18,32.65713435872396,0.2628756705671548,3.0637946128845215,-1.6283122301101685,1.6888757103271342e+18,32.65713435872396,0.2619593801597753,3.0683252016703286,-1.6261741717656453,,,,,,,,,,,,1.6888757103159967e+18,32.64599658203125,-2.005679965019226,50.42747802734375,-5.346039962768555,1.6888757103159967e+18,32.64599658203125,-257.4004699707031,145.66067810058593,-138.70423583984376,1.6888757103271342e+18,32.65713435872396,-0.4562633832295735,0.6114805936813354,-0.3979371786117553,0.5089345375696818,1.8122986157735188,1.2987713813781738,-0.0788904891038934
2.7,1.6888757103703834e+18,32.70038342285156,4.43902850151062,2.4971213340759277,2.152766227722168,1.6888757103703834e+18,32.70038342285156,2.9147571325302124,-6.8380889892578125,-0.4247260093688965,1.6888757103703834e+18,32.70038342285156,-1.5470727682113647,-9.319465160369871,-2.642205834388733,1.6888757103703834e+18,32.70038342285156,0.4046218693256378,2.113670110702514,-1.06901416182518,1.6888757103703834e+18,32.70038342285156,0.4036292135715484,2.1182515621185303,-1.0668761432170868,,,,,,,,,,,,1.6888757103659935e+18,32.69599370117187,1.7421600073575974,50.25423889160156,-4.843399906158448,1.6888757103659935e+18,32.69599370117187,-253.65263671875,145.48743591308593,-138.20159606933595,1.6888757103703834e+18,32.70038342285156,-0.4498411118984222,0.6554661095142365,-0.3859528005123138,0.4679325819015503,2.1041752099990845,1.256392776966095,-0.2781089693307876
2.75,1.6888757104136276e+18,32.743627766927084,1.7558581431706746,4.483753522237142,-0.4528074264526367,1.6888757104136276e+18,32.743627766927084,-0.0011964042981465,-4.868197758992513,-2.8147571086883545,1.6888757104136276e+18,32.743627766927084,-1.7798560460408528,-9.336206118265787,-2.4266631603240967,1.6888757104136276e+18,32.743627766927084,-0.4145738780498504,2.062942862510681,0.0334448764721552,1.6888757104136276e+18,32.743627766927084,-0.4154901802539825,2.0674224694569907,0.0355829000473022,,,,,,,,,,,,1.6888757104159903e+18,32.74599028320313,1.7982799530029296,50.50067977905273,-4.811679935455322,1.6888757104159903e+18,32.74599028320313,-253.5965148925781,145.73387756347657,-138.1698791503906,1.6888757104136276e+18,32.743627766927084,-0.4697935183842976,0.6759825944900513,-0.3651820719242096,0.4344864288965861,2.2083675861358643,1.2618544101715088,-0.2854529023170471
2.8,1.6888757104655276e+18,32.79552734375,3.1575855811436973,0.4941956202189128,-3.6647956371307377,1.6888757104655276e+18,32.79552734375,0.9944172240793704,-8.868996938069662,-5.611169179280599,1.6888757104655276e+18,32.79552734375,-2.1859697500864663,-9.347447395324709,-2.0110870599746704,1.6888757104655276e+18,32.79552734375,-0.6897177696228027,1.0944668849309285,-0.975653608640035,1.6888757104655276e+18,32.79552734375,-0.690684974193573,1.0988956689834597,-0.9735155701637268,,,,,,,,,,,,1.6888757104659963e+18,32.79599609375,3.3232799053192137,50.36403884887695,-6.973519802093506,1.6888757104659963e+18,32.79599609375,-252.0715118408203,145.59723815917968,-140.33171691894532,1.6888757104655276e+18,32.79552734375,-0.4784950216611226,0.6905196905136108,-0.3662098944187164,0.3999907374382019,2.402547756830851,1.265466292699178,-0.4213083883126576
2.85,1.6888757105174295e+18,32.84742936197917,2.1093244155248008,-0.1650676727294922,-3.989759922027588,1.6888757105174295e+18,32.84742936197917,-0.5956134001413981,-9.468997637430826,-5.509474118550618,1.6888757105174295e+18,32.84742936197917,-2.7277392546335855,-9.288184801737469,-1.5844276746114094,1.6888757105174295e+18,32.84742936197917,-0.6778568228085836,0.6650286515553793,-0.392684539159139,1.6888757105174295e+18,32.84742936197917,-0.6788239975770315,0.6695082982381185,-0.3905465205510458,,,,,,,,,,,,1.688875710515991e+18,32.845990966796876,5.045919895172119,49.61983871459961,-8.552199840545654,1.688875710515991e+18,32.845990966796876,-250.348876953125,144.85303649902343,-141.9103973388672,1.6888757105174295e+18,32.84742936197917,-0.4797775248686473,0.7082947293917338,-0.3698479433854421,0.3623492916425069,2.622285683949789,1.245857000350952,-0.585314412911733
2.9,1.6888757105693276e+18,32.89932763671875,2.8838436603546143,-2.3049262364705405,-8.461816946665445,1.6888757105693276e+18,32.89932763671875,0.3924229145050049,-11.660224596659342,-10.03151003519694,1.6888757105693276e+18,32.89932763671875,-2.5142222245534263,-9.339553197224935,-1.6344064871470134,1.6888757105693276e+18,32.89932763671875,0.4006767074267069,-0.7395032693942388,0.3461060635745525,1.6888757105693276e+18,32.89932763671875,0.3997604052225749,-0.735023612777392,0.3482440859079361,,,,,,,,,,,,1.6888757105659935e+18,32.89599365234375,4.723839902877808,49.42463912963867,-9.2085599899292,1.6888757105659935e+18,32.89599365234375,-250.67095642089845,144.6578369140625,-142.56676025390624,1.6888757105693276e+18,32.89932763671875,-0.4800171852111816,0.6969183484713236,-0.3767357468605041,0.3767051696777344,2.572606166203817,1.262608329455058,-0.5698849161465963
2.95,1.6888757106212252e+18,32.95122534179688,0.5589593648910522,-5.4849653244018555,-2.6485459009806314,1.6888757106212252e+18,32.95122534179688,-1.053041352890432,-14.87478256225586,-4.9170511563618975,1.6888757106212252e+18,32.95122534179688,-1.634802222251892,-9.374072074890137,-2.3332186539967856,1.6888757106212252e+18,32.95122534179688,1.3156001170476277,-1.9572122891743975,2.385886907577514,1.6888757106212252e+18,32.95122534179688,1.314683834711711,-1.952783505121867,2.388025005658468,,,,,,,,,,,,1.6888757106159918e+18,32.94599174804687,1.773879957199097,50.09319915771484,-6.778319835662842,1.6888757106159918e+18,32.94599174804687,-253.62091674804688,145.32639770507814,-140.1365173339844,1.6888757106212252e+18,32.95122534179688,-0.4816730717817942,0.6744299530982971,-0.3575120766957601,0.4296336273352305,2.1824800968170166,1.2749247550964355,-0.2364046101768811
3.0,1.6888757106731223e+18,33.00312223307292,-3.552154858907064,-9.79652976989746,1.337458252906799,1.6888757106731223e+18,33.00312223307292,-3.6522449254989624,-19.113667805989586,-1.6731812556584675,1.6888757106731223e+18,33.00312223307292,-0.1228915154933929,-9.301392873128256,-3.075352986653646,1.6888757106731223e+18,33.00312223307292,1.5177456140518188,-2.8647034962972007,2.3574307759602866,1.6888757106731223e+18,33.00312223307292,1.516829291979472,-2.8602237701416016,2.3595688343048096,,,,,,,,,,,,1.6888757106659932e+18,32.9959931640625,-3.4940798759460447,50.57631912231445,-3.430639958381653,1.6888757106659932e+18,32.9959931640625,-258.8888732910156,145.80951538085938,-136.78883666992186,1.6888757106731223e+18,33.00312223307292,-0.4856806794802348,0.6272257367769877,-0.3350976705551147,0.5074514051278433,1.6186944643656414,1.2514688571294148,0.2268070454398791
3.05,1.6888757107250258e+18,33.055025716145835,-2.491605798403422,-10.31494140625,3.1028854052225747,1.6888757107250258e+18,33.055025716145835,-0.9168498913447062,-19.38824399312337,-0.2404786658783753,1.6888757107250258e+18,33.055025716145835,1.5519545475641887,-9.057557423909506,-3.4080775578816733,1.6888757107250258e+18,33.055025716145835,0.1065959880749384,-2.3504058122634888,2.4336870908737183,1.6888757107250258e+18,33.055025716145835,0.1056796709696451,-2.3458752234776816,2.4358760515848794,,,,,,,,,,,,1.6888757107159926e+18,33.04599248046875,-10.06988010406494,49.84675827026367,-1.0125999689102172,1.6888757107159926e+18,33.04599248046875,-265.4646728515625,145.0799591064453,-134.37080078125,1.6888757107250258e+18,33.055025716145835,-0.4917093714078267,0.5654443701108297,-0.3173532684644063,0.5807551344235738,1.1418550809224446,1.1796379486719768,0.5912492672602335
3.1,1.688875710776921e+18,33.10692114257812,-3.1891032059987388,-1.143600622812907,1.8747870922088623,1.688875710776921e+18,33.10692114257812,-0.2715853055318196,-9.98604663213094,-1.1844471742709477,1.688875710776921e+18,33.10692114257812,2.894716501235962,-8.826700846354166,-3.1239476998647056,1.688875710776921e+18,33.10692114257812,1.2606731255849202,-4.637027184168498,1.4965689182281494,1.688875710776921e+18,33.10692114257812,1.25970592101415,-4.632547537485759,1.4987069765726726,1.688875710776924e+18,33.106923828125,0.0,0.0,0.9895314574241638,10.175000190734863,1.1729928255081177,84.42224884033203,41.20000076293945,-122.7524715,49.1905302,1.6888757107659912e+18,33.09599116210937,-14.415519714355469,48.83659896850586,-2.5253999710083006,1.6888757107659912e+18,33.09599116210937,-269.81031494140626,144.06979370117188,-135.88359680175782,1.688875710776921e+18,33.10692114257812,-0.4706667860349019,0.487195869286855,-0.3386686444282532,0.6520066857337952,0.8237843712170919,1.122943679491679,0.7131083607673645
3.15,1.6888757108201738e+18,33.150173828125006,-8.301307201385498,6.997097969055176,1.0042973160743711,1.6888757108201738e+18,33.150173828125006,-4.197908163070679,-1.3926227539777756,-1.996810495853424,1.6888757108201738e+18,33.150173828125006,4.080597519874573,-8.37397575378418,-3.0658212900161743,1.6888757108201738e+18,33.150173828125006,1.2434925436973572,-4.173507809638977,1.7666986584663391,1.6888757108201738e+18,33.150173828125006,1.2424999475479126,-4.169078946113586,1.7688366770744324,,,,,,,,,,,,1.688875710815996e+18,33.145995898437505,-17.772959899902343,47.965518951416016,-2.3594799041748047,1.688875710815996e+18,33.145995898437505,-273.1677551269531,143.19871826171874,-135.71767883300782,1.6888757108201738e+18,33.150173828125006,-0.4364143013954162,0.4211938977241516,-0.3387459069490433,0.7190081775188446,0.641765296459198,1.0257708430290222,0.7207081913948059
3.2,1.6888757108634196e+18,33.193419677734376,-8.651212056477865,12.022785186767578,0.0845046838124593,1.6888757108634196e+18,33.193419677734376,-3.551945765813192,3.978267033894857,-2.2670000394185386,1.6888757108634196e+18,33.193419677734376,5.076464811960856,-8.028773148854574,-2.4162182013193765,1.6888757108634196e+18,33.193419677734376,-0.1455895453691482,-4.009363174438477,1.1909326910972595,1.6888757108634196e+18,33.193419677734376,-0.1465058475732803,-4.004934469858806,1.1930707494417827,,,,,,,,,,,,1.688875710865991e+18,33.19599086914063,-20.827839660644532,46.6137580871582,-4.543279933929443,1.688875710865991e+18,33.19599086914063,-276.22264404296874,141.84695739746093,-137.90147705078124,1.6888757108634196e+18,33.193419677734376,-0.4093651572863261,0.3449969589710235,-0.3494950036207835,0.76839812596639,0.4419482847054799,0.961467226346334,0.7451852162679037
3.25,1.688875710915316e+18,33.24531608072917,-6.043256600697835,6.608291149139404,4.299481789271037,1.688875710915316e+18,33.24531608072917,-0.5932206312815348,-1.4604194164276123,2.988037347793579,1.688875710915316e+18,33.24531608072917,5.427234490712483,-8.05296548207601,-1.3761579593022664,1.688875710915316e+18,33.24531608072917,-0.1213585610191027,-2.2020673751831055,-0.5789984501898289,1.688875710915316e+18,33.24531608072917,-0.1223257680733998,-2.1975876887639365,-0.5768604290982088,,,,,,,,,,,,1.6888757109159946e+18,33.245994580078126,-20.48135986328125,45.86955947875977,-9.086559963226318,1.6888757109159946e+18,33.245994580078126,-275.87615356445315,141.1027587890625,-142.44475708007812,1.688875710915316e+18,33.24531608072917,-0.3918711245059967,0.2776089211304982,-0.3832496404647827,0.7888232866923014,0.2441746940215428,0.9656442602475483,0.7938154935836792
3.3,1.6888757109672212e+18,33.297221191406244,1.3681498368581135,5.490019639333089,3.976698080698649,1.6888757109672212e+18,33.297221191406244,6.22193710009257,-2.91585373878479,2.5108685890833535,1.6888757109672212e+18,33.297221191406244,4.830985864003499,-8.390128135681152,-1.5305429697036743,1.6888757109672212e+18,33.297221191406244,1.5017612775166829,0.5902994473775228,-2.2477295796076455,1.6888757109672212e+18,33.297221191406244,1.5008450349171956,0.5947282214959463,-2.2455915609995523,,,,,,,,,,,,1.68887571096599e+18,33.29598984375,-16.48951988220215,47.538519287109374,-8.557079887390136,1.68887571096599e+18,33.29598984375,-271.8843139648437,142.77171936035157,-141.91527404785157,1.6888757109672212e+18,33.297221191406244,-0.3574748237927754,0.2865622242291768,-0.4149717489878337,0.7857894500096639,0.3061091601848602,1.0292307535807292,0.6784960230191549
3.35,1.6888757110191194e+18,33.34911922200521,8.798006057739258,-14.23923683166504,-0.5502611001332601,1.6888757110191194e+18,33.34911922200521,12.641481399536133,-22.9986146291097,-2.756132880846659,1.6888757110191194e+18,33.34911922200521,3.820673942565918,-8.743632316589355,-2.270585219065348,1.6888757110191194e+18,33.34911922200521,0.6196209878350297,-0.4167119959990183,-0.9144652287165322,1.6888757110191194e+18,33.34911922200521,0.6186537550141413,-0.4122831622759501,-0.912327249844869,,,,,,,,,,,,1.688875711015997e+18,33.34599672851563,-9.703879737854004,49.70523910522461,-4.516439819335938,1.688875711015997e+18,33.34599672851563,-265.0986755371094,144.93843688964844,-137.8746368408203,1.6888757110191194e+18,33.34911922200521,-0.3278028865655262,0.3373594681421916,-0.4383782843748728,0.7657442092895508,0.5343303680419922,1.1032201051712036,0.4750241637229919
3.4,1.688875711071017e+18,33.40101717122396,6.584915955861409,-3.7005128860473633,2.001335779825846,1.688875711071017e+18,33.40101717122396,10.986445585886637,-12.28834056854248,0.1822534004847208,1.688875711071017e+18,33.40101717122396,4.378727912902832,-8.57208283742269,-1.8837958971659343,1.688875711071017e+18,33.40101717122396,0.2083559532960255,-0.9266316692034404,0.9962193965911864,1.688875711071017e+18,33.40101717122396,0.2073378538091976,-0.9222028851509094,0.9983574350674947,,,,,,,,,,,,1.6888757110659932e+18,33.39599331054687,-10.340719985961917,49.71011962890625,-4.948319911956787,1.6888757110659932e+18,33.39599331054687,-265.7355224609375,144.9433135986328,-138.3065155029297,1.688875711071017e+18,33.40101717122396,-0.3054840962092082,0.2894135614236195,-0.440363864103953,0.7930266261100769,0.4041204452514648,1.0661609172821045,0.4946962197621663
3.45,1.688875711122918e+18,33.45291796875,-14.000814437866213,-6.216995557149251,2.7960330645243325,1.688875711122918e+18,33.45291796875,-9.533204873402914,-14.793227513631184,1.0815558433532717,1.688875711122918e+18,33.45291796875,4.44480832417806,-8.560486793518066,-1.7791906595230105,1.688875711122918e+18,33.45291796875,-1.759088297684987,1.8053104480107625,0.3133738785982132,1.688875711122918e+18,33.45291796875,-1.7600045601526897,1.8097900748252869,0.315511900310715,,,,,,,,,,,,1.6888757111159905e+18,33.44599067382812,-12.880759620666504,49.10743865966797,-6.068279838562011,1.6888757111159905e+18,33.44599067382812,-268.2755493164062,144.34063720703125,-139.42647705078124,1.688875711122918e+18,33.45291796875,-0.3484637141227722,0.305880586306254,-0.4250690837701161,0.7771615584691366,0.3773576517899831,1.063244064648946,0.6194853981335958
3.5,1.6888757111748137e+18,33.50481372070312,-5.156937122344971,5.287439505259196,-0.5847071011861166,1.6888757111748137e+18,33.50481372070312,-1.1324033339818318,-3.3782668113708496,-2.7870401541392007,1.6888757111748137e+18,33.50481372070312,4.001732349395752,-8.649961153666178,-2.2670465310414634,1.6888757111748137e+18,33.50481372070312,1.285464107990265,3.1555261611938477,-1.286940336227417,1.6888757111748137e+18,33.50481372070312,1.284547785917918,3.1599549849828086,-1.2848023176193235,,,,,,,,,,,,1.6888757111659935e+18,33.49599370117188,-13.729879570007324,48.714599609375,-5.921879863739013,1.6888757111659935e+18,33.49599370117188,-269.1246765136719,143.9477966308594,-139.280078125,1.6888757111748137e+18,33.50481372070312,-0.364840030670166,0.3521937827269236,-0.4145700136820475,0.7550382216771444,0.5141516526540121,1.0822255611419678,0.5857366323471069
3.55,1.6888757112267154e+18,33.556715332031246,-8.94863510131836,-0.4174356460571289,-3.828801075617472,1.6888757112267154e+18,33.556715332031246,-6.754539489746094,-9.471589724222818,-6.832306385040283,1.6888757112267154e+18,33.556715332031246,2.1712939739227295,-9.038408915201822,-3.0682188669840493,1.6888757112267154e+18,33.556715332031246,-1.617723912000656,5.151426633199056,-2.709390958150228,1.6888757112267154e+18,33.556715332031246,-1.6186910768349965,5.155906359354655,-2.7072529792785645,,,,,,,,,,,,1.6888757112159913e+18,33.545991162109374,-8.966999721527099,49.749158477783205,-1.688480019569397,1.6888757112159913e+18,33.545991162109374,-264.3617919921875,144.98235473632812,-135.0466766357422,1.6888757112267154e+18,33.556715332031246,-0.3857590059439341,0.4658756454785664,-0.414682259162267,0.6783297856648763,0.9664077957471212,1.1772207419077556,0.3570607701937358
3.6,1.688875711269968e+18,33.5999677734375,-0.3169553279876709,-6.413082599639893,-3.244666337966919,1.688875711269968e+18,33.5999677734375,0.2820539474487302,-15.890735149383543,-5.690431356430054,1.688875711269968e+18,33.5999677734375,0.5762077420949936,-9.461907386779783,-2.5104784965515137,1.688875711269968e+18,33.5999677734375,-1.2379948049783709,3.968027949333191,-2.326480269432068,1.688875711269968e+18,33.5999677734375,-1.2389874830842018,3.972532987594605,-2.3243422508239746,,,,,,,,,,,,1.6888757112659927e+18,33.5959927734375,-3.2061599254608155,50.39331893920898,-5.175239944458008,1.6888757112659927e+18,33.5959927734375,-258.6009582519531,145.62651672363282,-138.53343505859374,1.688875711269968e+18,33.5999677734375,-0.4283724278211593,0.5316783487796783,-0.433615431189537,0.5877122282981873,1.348099410533905,1.3067395091056824,0.1608436666429042
3.65,1.6888757113132106e+18,33.643210856119794,2.647689421971639,4.472084363301595,-1.0386069615681963,1.6888757113132106e+18,33.643210856119794,1.963709791501363,-4.960720062255859,-3.6017962296803794,1.6888757113132106e+18,33.643210856119794,-0.7067810644706091,-9.417059262593588,-2.6279027462005615,1.6888757113132106e+18,33.643210856119794,0.5244278013706207,3.6697728633880615,-2.0064887205759683,1.6888757113132106e+18,33.643210856119794,0.5234605967998505,3.674201726913452,-2.004299799601237,1.6888757112959153e+18,33.62591528320313,0.0,0.0,0.996124029159546,10.081000328063965,1.1866919994354248,84.54257202148438,41.20000076293945,-122.7524577,49.1905292,1.688875711315993e+18,33.64599296875,0.8905999958515167,50.39331893920898,-5.316759967803955,1.688875711315993e+18,33.64599296875,-254.5041931152344,145.62651672363282,-138.67496032714843,1.6888757113132106e+18,33.643210856119794,-0.4347496529420216,0.6005618174870809,-0.4182087779045105,0.5240029493967692,1.8296351035435992,1.2900809446970622,-0.1647005019088586
3.7,1.6888757113651146e+18,33.69511450195313,3.6323343912760415,2.215186913808187,1.269474744796753,1.6888757113651146e+18,33.69511450195313,2.0402801434199014,-7.105885664621989,-1.316052496433258,1.6888757113651146e+18,33.69511450195313,-1.6148556073506672,-9.305327415466309,-2.650240739186605,1.6888757113651146e+18,33.69511450195313,-0.033393965413173,1.537598729133606,-0.7253006597359976,1.6888757113651146e+18,33.69511450195313,-0.0343102663755416,1.5420784155527751,-0.7231626311937968,,,,,,,,,,,,1.6888757113659953e+18,33.69599521484375,3.5477599143981933,50.324998474121095,-4.845839786529541,1.6888757113659953e+18,33.69599521484375,-251.84703674316407,145.55819702148438,-138.20403442382812,1.6888757113651146e+18,33.69511450195313,-0.4356318811575572,0.6478171348571777,-0.4031046628952026,0.4774526556332906,2.1219959259033203,1.2513290643692017,-0.3453182280063628
3.75,1.6888757114170092e+18,33.74700919596354,1.599152406056722,2.396350701649984,-1.9110957781473796,1.6888757114170092e+18,33.74700919596354,-0.3756731419513623,-6.950950463612874,-4.11346157391866,1.6888757114170092e+18,33.74700919596354,-1.997627019882202,-9.33155600229899,-2.2670792738596597,1.6888757114170092e+18,33.74700919596354,-0.6940447092056274,1.4499905109405518,-0.5280421078205109,1.6888757114170092e+18,33.74700919596354,-0.6950119137763977,1.454470157623291,-0.5259040594100952,,,,,,,,,,,,1.6888757114159903e+18,33.74599033203125,4.272439956665039,49.97119827270508,-6.268359851837158,1.6888757114159903e+18,33.74599033203125,-251.1223571777344,145.20439453125,-139.62655639648438,1.6888757114170092e+18,33.74700919596354,-0.4501820703347524,0.6647974650065104,-0.3995346426963806,0.4422975679238637,2.29844601949056,1.2597267230351763,-0.4502682487169901
3.8,1.688875711468903e+18,33.79890283203125,4.188406070073445,0.0523672103881835,-2.16967236995697,1.688875711468903e+18,33.79890283203125,1.5704892079035442,-9.23250675201416,-3.915854295094808,1.688875711468903e+18,33.79890283203125,-2.640718460083008,-9.269128799438477,-1.8108954032262168,1.688875711468903e+18,33.79890283203125,-0.5360342562198639,1.9052378336588545,-1.208851397037506,1.688875711468903e+18,33.79890283203125,-0.5370523730913798,1.909666577974955,-1.2067133784294128,,,,,,,,,,,,1.6888757114659868e+18,33.795986816406256,6.070719909667969,49.61007919311523,-7.9690399169921875,1.6888757114659868e+18,33.795986816406256,-249.324072265625,144.84327697753906,-141.32723388671874,1.688875711468903e+18,33.79890283203125,-0.4560084740320841,0.6887012521425883,-0.3998655577500661,0.3969277640183766,2.544212500254313,1.2395747900009155,-0.6187575658162435
3.85,1.6888757115208008e+18,33.85080086263021,2.1470648845036826,-2.1797186533610025,-7.458082516988118,1.6888757115208008e+18,33.85080086263021,-0.5439683596293131,-11.492328008015951,-8.950153668721518,1.6888757115208008e+18,33.85080086263021,-2.713834762573242,-9.29686419169108,-1.5567845900853474,1.6888757115208008e+18,33.85080086263021,0.0149152955661217,-0.0113010009129841,0.6851362586021423,1.6888757115208008e+18,33.85080086263021,0.0139480891327063,-0.0068213244279225,0.6873252193133036,,,,,,,,,,,,1.6888757115159877e+18,33.845987304687505,6.666079807281494,49.15379943847656,-9.962519645690918,1.6888757115159877e+18,33.845987304687505,-248.7287170410156,144.38699340820312,-143.32071533203126,1.6888757115208008e+18,33.85080086263021,-0.467114249865214,0.6934966842333475,-0.3962137103080749,0.3792622784773509,2.626604954401652,1.248203198115031,-0.6630855798721313
3.9,1.688875711572702e+18,33.90270190429687,0.9117342631022136,-3.866796811421712,-6.381110191345215,1.688875711572702e+18,33.90270190429687,-1.059222807486852,-13.245270411173502,-8.40957514444987,1.688875711572702e+18,33.90270190429687,-1.99375851949056,-9.362728436787924,-2.0931785106658936,1.688875711572702e+18,33.90270190429687,1.2531391382217407,-1.600161572297414,2.0695605079332986,1.688875711572702e+18,33.90270190429687,1.2521719535191853,-1.5957327398161094,2.0716986060142517,,,,,,,,,,,,1.6888757115659873e+18,33.895987255859374,4.728719806671142,49.614958953857425,-8.342359733581542,1.6888757115659873e+18,33.895987255859374,-250.66607666015625,144.84815979003906,-141.70055541992187,1.688875711572702e+18,33.90270190429687,-0.4736316998799642,0.6786606311798096,-0.3748339513937632,0.4170454641183217,2.33156951268514,1.2704923550287883,-0.3941531926393509
3.95,1.688875711624603e+18,33.95460278320312,-3.539501349131266,-8.362665176391602,0.5894298950831095,1.688875711624603e+18,33.95460278320312,-4.058825492858887,-17.71685791015625,-2.2679970264434814,1.688875711624603e+18,33.95460278320312,-0.5421255764861901,-9.33844757080078,-2.9221404393514,1.688875711624603e+18,33.95460278320312,1.4878131945927937,-2.527505874633789,2.172134955724081,1.688875711624603e+18,33.95460278320312,1.4868460098902383,-2.52302614847819,2.174323876698812,,,,,,,,,,,,1.6888757116159885e+18,33.94598862304688,-1.3053999900817872,50.47139892578125,-4.904399967193603,1.6888757116159885e+18,33.94598862304688,-256.7001922607422,145.70459899902343,-138.26260070800782,1.688875711624603e+18,33.95460278320312,-0.4772201577822367,0.636430819829305,-0.3494852979977925,0.4943290551503499,1.7607967853546145,1.2628398736317952,0.0839317068457603
4.0,1.688875711676509e+18,34.00650887044271,0.3076367775599162,-11.458471616109213,2.142237742741903,1.688875711676509e+18,34.00650887044271,1.5246268312136333,-20.586849212646484,-1.184447209040324,1.688875711676509e+18,34.00650887044271,1.1941885948181152,-9.112632433573404,-3.3913984298706055,1.688875711676509e+18,34.00650887044271,0.3127120931943256,-2.6495770613352456,2.9095002015431723,1.688875711676509e+18,34.00650887044271,0.3117449084917705,-2.6450973749160767,2.911689201990763,,,,,,,,,,,,1.6888757116659945e+18,33.99599453125,-6.907639837265014,50.41039962768555,-2.13743999004364,1.6888757116659945e+18,33.99599453125,-262.30243530273435,145.6436004638672,-135.49563903808593,1.688875711676509e+18,34.00650887044271,-0.4741577605406443,0.571001410484314,-0.3355434636274974,0.5794607003529867,1.234357833862305,1.1944599151611328,0.4690092106660207
4.05,1.6888757117197527e+18,34.04975268554688,-6.9089956283569345,-7.719921112060547,1.8730245232582092,1.6888757117197527e+18,34.04975268554688,-4.476672053337097,-16.758431911468506,-1.058225803077221,1.6888757117197527e+18,34.04975268554688,2.4095224142074585,-9.022765636444092,-2.9959638118743896,1.6888757117197527e+18,34.04975268554688,0.0064140856266021,-3.972762107849121,1.3102295994758606,1.6888757117197527e+18,34.04975268554688,0.00549778342247,-3.968256950378418,1.312367618083954,,,,,,,,,,,,1.688875711715993e+18,34.04599321289062,-13.322399711608886,49.10011978149414,-3.0987999200820924,1.688875711715993e+18,34.04599321289062,-268.7171936035156,144.33331909179688,-136.45699768066407,1.6888757117197527e+18,34.04975268554688,-0.4856518656015396,0.5102707147598267,-0.3414916992187499,0.6218688488006592,0.8901780843734741,1.169881522655487,0.7138230800628662
4.1,1.6888757117630016e+18,34.09300179036458,-4.032966653505961,2.424347241719564,0.539526104927063,1.6888757117630016e+18,34.09300179036458,-0.479362150033315,-6.253442446390788,-2.3242284059524536,1.6888757117630016e+18,34.09300179036458,3.530803124109904,-8.662044525146484,-2.9284679889678955,1.6888757117630016e+18,34.09300179036458,1.4244359731674194,-3.907806793848674,1.8149315516153972,1.6888757117630016e+18,34.09300179036458,1.4235196113586426,-3.9033270676930742,1.8170695304870603,,,,,,,,,,,,1.6888757117659927e+18,34.095992724609374,-16.81403980255127,48.17779922485352,-3.918639898300171,1.6888757117659927e+18,34.095992724609374,-272.2088317871094,143.41099853515624,-137.27683715820314,1.6888757117630016e+18,34.09300179036458,-0.4513796468575795,0.4443129301071167,-0.3499598900477091,0.6895147164662679,0.6921237707138062,1.0855005979537964,0.7301369309425354
4.15,1.6888757118149066e+18,34.14490649414063,-9.976003328959148,10.352134068806969,1.796402057011922,1.6888757118149066e+18,34.14490649414063,-5.231308460235596,2.1206390261650085,-0.6482555468877157,1.6888757118149066e+18,34.14490649414063,4.7218936284383135,-8.215749740600586,-2.509371042251587,1.6888757118149066e+18,34.14490649414063,0.5036074854433537,-4.262872219085693,1.2803226312001543,1.6888757118149066e+18,34.14490649414063,0.502691184480985,-4.258392492930095,1.2824606498082478,1.6888757118149033e+18,34.1449033203125,0.0,0.0,1.0062954425811768,10.00100040435791,1.2082853317260742,84.57762908935547,41.20000076293945,-122.7524487,49.1905284,1.6888757118159946e+18,34.14599453125,-19.510239791870116,47.30183868408203,-5.241119861602783,1.6888757118159946e+18,34.14599453125,-274.9050354003906,142.5350341796875,-138.59931335449218,1.6888757118149066e+18,34.14490649414063,-0.4118637541929881,0.3629136383533478,-0.356983075539271,0.7551437815030416,0.487038900454839,0.9952117800712584,0.7297778924306234
4.2,1.6888757118668055e+18,34.19680550130209,-6.926496346791585,11.62595272064209,3.062025268872579,1.6888757118668055e+18,34.19680550130209,-1.501496250430743,3.546362559000651,1.7381862103939056,1.6888757118668055e+18,34.19680550130209,5.402198791503906,-8.063844998677572,-1.3885526657104492,1.6888757118668055e+18,34.19680550130209,-0.4744895795981089,-3.280702749888102,0.117286113401254,1.6888757118668055e+18,34.19680550130209,-0.475405881802241,-3.2762739658355713,0.1194241667787233,,,,,,,,,,,,1.6888757118659942e+18,34.19599423828125,-19.610279846191407,46.55763931274414,-9.193919849395751,1.6888757118659942e+18,34.19599423828125,-275.005078125,141.79083862304688,-142.55211791992187,1.6888757118668055e+18,34.19680550130209,-0.3851097524166107,0.2757959564526875,-0.3857642312844594,0.791389544804891,0.2482443302869796,0.9672025442123412,0.7749430139859518
4.25,1.6888757119187013e+18,34.24870141601563,1.6456756591796875,6.337653795878093,4.466304063796997,1.6888757119187013e+18,34.24870141601563,6.780661265055339,-1.9788643221060436,3.4863425890604653,1.6888757119187013e+18,34.24870141601563,5.112184206644694,-8.300772984822592,-1.0446749925613403,1.6888757119187013e+18,34.24870141601563,1.1194105744361875,0.0896953530609607,-1.8410460551579793,1.6888757119187013e+18,34.24870141601563,1.1183924674987793,0.0942259542644023,-1.8389079968134563,,,,,,,,,,,,1.6888757119159982e+18,34.2459982421875,-16.5627197265625,47.40431900024414,-10.679879760742187,1.6888757119159982e+18,34.2459982421875,-271.9575134277344,142.63751525878905,-144.03807373046874,1.6888757119187013e+18,34.24870141601563,-0.3588207066059112,0.254762182633082,-0.4184826413790385,0.7943044702212015,0.2000742405652999,1.011461853981018,0.7366831501324972
4.3,1.6888757119706002e+18,34.30060034179687,4.311128298441569,-4.9142327308654785,2.5253092447916665,1.6888757119706002e+18,34.30060034179687,8.316454410552979,-13.656038443247477,0.5571288665135702,1.6888757119706002e+18,34.30060034179687,3.982524792353312,-8.726060549418131,-2.0328938563664756,1.6888757119706002e+18,34.30060034179687,1.1119783520698547,0.970054030418396,-1.9498309294382732,1.6888757119706002e+18,34.30060034179687,1.1110111847519877,0.9745845794677734,-1.9476929903030396,,,,,,,,,,,,1.6888757119659912e+18,34.295991162109374,-10.731119918823245,49.38071899414062,-6.158559894561767,1.6888757119659912e+18,34.295991162109374,-266.12590942382815,144.613916015625,-139.51675415039062,1.6888757119706002e+18,34.30060034179687,-0.3280191620190937,0.3208003342151642,-0.441237966219584,0.7710607449213663,0.4714323778947194,1.0991439421971638,0.5113678673903147
4.35,1.6888757120225032e+18,34.35250301106771,7.277843157450358,-12.391639550526936,-1.292983849843343,1.6888757120225032e+18,34.35250301106771,11.489137967427572,-21.123040676116943,-2.86061954498291,1.6888757120225032e+18,34.35250301106771,4.188493490219116,-8.715655644734701,-1.632349133491516,1.6888757120225032e+18,34.35250301106771,0.0275398289474348,-2.9072604974110923,0.906422237555186,1.6888757120225032e+18,34.35250301106771,0.0265726456418634,-2.9027807315190635,0.9085602561632792,,,,,,,,,,,,1.6888757120159903e+18,34.34599033203125,-8.349679946899414,49.958998107910155,-5.965799808502197,1.6888757120159903e+18,34.34599033203125,-263.7444763183594,145.19219665527345,-139.3239990234375,1.6888757120225032e+18,34.35250301106771,-0.2994398176670074,0.2782252033551534,-0.4579328894615173,0.7891814112663269,0.3706321517626444,1.0967589616775513,0.4968579908212026
4.4,1.688875712074407e+18,34.40440649414062,-8.300589084625244,-4.4945753415425616,1.5482856035232544,1.688875712074407e+18,34.40440649414062,-3.710270881652832,-13.034502506256104,-0.0323030948638916,1.688875712074407e+18,34.40440649414062,4.567516962687175,-8.524182001749674,-1.645302176475525,1.688875712074407e+18,34.40440649414062,-0.4114177227020263,1.7583247038225334,0.6546948254108428,1.688875712074407e+18,34.40440649414062,-0.4123340447743733,1.7627534580727418,0.6568328440189362,,,,,,,,,,,,1.6888757120659904e+18,34.395990380859374,-10.262639808654786,49.55395965576171,-5.921879863739013,1.6888757120659904e+18,34.395990380859374,-265.6574340820313,144.7871551513672,-139.2800750732422,1.688875712074407e+18,34.40440649414062,-0.3014289339383443,0.2698910534381866,-0.4416471223036447,0.8005645473798116,0.3434672156969706,1.0555562178293865,0.518698255221049
4.45,1.6888757121263014e+18,34.45630143229167,-4.331527392069499,3.1615405082702637,0.9381148020426432,1.6888757121263014e+18,34.45630143229167,-0.0558327833811442,-5.398407260576884,-1.2340982755025227,1.6888757121263014e+18,34.45630143229167,4.252893129984538,-8.54420248667399,-2.236926555633545,1.6888757121263014e+18,34.45630143229167,0.6379978557427725,3.4625368118286133,-0.5381213774283726,1.6888757121263014e+18,34.45630143229167,0.6370815436045328,3.466965675354004,-0.5359833550949892,,,,,,,,,,,,1.6888757121159926e+18,34.445992480468746,-13.195519828796389,49.15623931884765,-5.687639904022217,1.6888757121159926e+18,34.445992480468746,-268.5903076171875,144.38943786621093,-139.04583740234375,1.6888757121263014e+18,34.45630143229167,-0.3391500810782115,0.3290522992610931,-0.4183873732884725,0.7752403418223063,0.4822371502717336,1.0595744053522749,0.5384377141793569
4.5,1.6888757121695506e+18,34.49955065917969,-8.063794612884521,0.6159946918487549,1.845909833908081,1.6888757121695506e+18,34.49955065917969,-5.114359259605408,-8.1006019115448,-1.513161152601242,1.6888757121695506e+18,34.49955065917969,2.926633834838867,-8.700851440429688,-3.4237844944000244,1.6888757121695506e+18,34.49955065917969,0.4266893863677978,6.818172454833984,-2.7067439556121826,1.6888757121695506e+18,34.49955065917969,0.4256967008113861,6.822601079940796,-2.7046058177948,,,,,,,,,,,,1.6888757121659963e+18,34.49599658203125,-10.931199645996092,49.78819808959961,-1.1175199747085571,1.6888757121659963e+18,34.49599658203125,-266.32598876953125,145.02139892578126,-134.47571716308593,1.6888757121695506e+18,34.49955065917969,-0.3550686091184616,0.4369997531175613,-0.3994982093572616,0.722650408744812,0.8655475378036499,1.093478083610535,0.3636164367198943
4.55,1.6888757122127987e+18,34.542798990885416,-12.240918000539144,-1.4269208908081057,-3.4898404280344644,1.6888757122127987e+18,34.542798990885416,-11.324631373087565,-10.663015683492024,-6.595616340637207,1.6888757122127987e+18,34.542798990885416,0.8934851586818695,-9.220349629720053,-3.1704893112182617,1.6888757122127987e+18,34.542798990885416,-2.607631047566732,3.9373318354288735,-2.60294775168101,1.6888757122127987e+18,34.542798990885416,-2.608598232269287,3.941760698954264,-2.600809653600057,,,,,,,,,,,,1.6888757122159903e+18,34.54599013671875,-3.652679908275604,50.60559844970703,-1.7177599608898162,1.6888757122159903e+18,34.54599013671875,-259.04746704101564,145.8387939453125,-135.07595520019532,1.6888757122127987e+18,34.542798990885416,-0.3942434291044871,0.5252518256505331,-0.4225102464358011,0.6235713362693787,1.311464826265971,1.2282235622406006,0.130513930072387
4.6,1.6888757122646968e+18,34.59469685872396,3.526506861050924,-0.0907290776570638,-3.834210475285848,1.6888757122646968e+18,34.59469685872396,3.0781668623288474,-9.563912709554035,-6.300900300343831,1.6888757122646968e+18,34.59469685872396,-0.4711415578688805,-9.457438468933104,-2.5314033031463623,1.6888757122646968e+18,34.59469685872396,-0.2977968125293652,4.194608052571614,-1.712713400522868,1.6888757122646968e+18,34.59469685872396,-0.298764018341899,4.199087778727214,-1.7105754216512044,,,,,,,,,,,,1.6888757122659927e+18,34.59599252929688,0.0219600088894367,50.16639862060547,-5.6632399559021,1.6888757122659927e+18,34.59599252929688,-255.37283325195312,145.39959716796875,-139.021435546875,1.6888757122646968e+18,34.59469685872396,-0.4324438472588857,0.5834673245747884,-0.427862803141276,0.5369287927945455,1.753775993982951,1.3045192162195842,-0.1313486248254775
4.65,1.6888757123165983e+18,34.64659847005208,3.583690663178762,1.2164850234985354,1.3568830092748003,1.6888757123165983e+18,34.64659847005208,1.9954147537549336,-8.14796002705892,-1.073579748471578,1.6888757123165983e+18,34.64659847005208,-1.611077348391215,-9.348699887593588,-2.4951762358347573,1.6888757123165983e+18,34.64659847005208,0.3174972136815389,2.027410864830017,-0.8643743346134821,1.6888757123165983e+18,34.64659847005208,0.3165300091107686,2.031839609146118,-0.8622363110383352,1.6888757123338982e+18,34.66389819335937,0.0,0.0,1.0062954425811768,9.937999725341797,1.2324460744857788,84.46012115478516,41.20000076293945,-122.7524344,49.1905289,1.6888757123159956e+18,34.64599580078125,3.179319906234741,50.38112030029297,-5.929199886322022,1.6888757123159956e+18,34.64599580078125,-252.2154754638672,145.61431884765625,-139.2873992919922,1.6888757123165983e+18,34.64659847005208,-0.4381687541802724,0.6431695620218912,-0.4101834297180175,0.4753040870030721,2.147275686264038,1.265331149101257,-0.3779666026433309
4.7,1.688875712368496e+18,34.69849584960937,1.5587131579717,5.665870348612468,-0.4452269077301027,1.688875712368496e+18,34.69849584960937,-0.2867398758729299,-3.7164523601531982,-2.6145575046539307,1.688875712368496e+18,34.69849584960937,-1.8682544628779096,-9.366577784220375,-2.234044075012207,1.688875712368496e+18,34.69849584960937,-0.4611523499091466,2.5270985762278237,0.0717257658640543,1.688875712368496e+18,34.69849584960937,-0.4621195544799168,2.5315274397532144,0.0738637844721476,,,,,,,,,,,,1.6888757123659924e+18,34.69599223632813,2.847479963302612,50.29327926635742,-6.202479839324951,1.6888757123659924e+18,34.69599223632813,-252.5473175048828,145.52647705078124,-139.56068115234376,1.688875712368496e+18,34.69849584960937,-0.4650765657424927,0.669594963391622,-0.3827976981798808,0.4341470797856648,2.272108713785807,1.271328608194987,-0.3785551091035206
4.75,1.6888757124203942e+18,34.75039436848959,3.976750214894613,0.4122257232666016,-3.361932118733724,1.6888757124203942e+18,34.75039436848959,1.6779668927192688,-8.961918512980143,-5.090331395467122,1.6888757124203942e+18,34.75039436848959,-2.321584781010946,-9.358399073282875,-1.7931127150853474,1.6888757124203942e+18,34.75039436848959,-0.5906048814455668,1.4431182543436687,-1.095230499903361,1.6888757124203942e+18,34.75039436848959,-0.5915211836496989,1.4476997057596843,-1.0930924812952678,,,,,,,,,,,,1.6888757124159944e+18,34.74599443359375,3.3208398818969727,49.83943939208984,-8.076399898529052,1.6888757124159944e+18,34.74599443359375,-252.07395629882816,145.0726348876953,-141.43459777832032,1.6888757124203942e+18,34.75039436848959,-0.4769864479700724,0.6890362699826559,-0.3783532579739888,0.3928873240947723,2.486963669459025,1.2684935331344604,-0.5140915413697561
4.8,1.6888757124722924e+18,34.80229223632812,1.6650818188985188,-0.4356679916381836,-6.534336010615031,1.6888757124722924e+18,34.80229223632812,-0.8420741756757101,-9.809775034586588,-7.9678999582926435,1.6888757124722924e+18,34.80229223632812,-2.5299575328826904,-9.358361879984535,-1.4982773065567017,1.6888757124722924e+18,34.80229223632812,-0.3790418906137347,-0.0459166963895161,0.4268420860171318,1.6888757124722924e+18,34.80229223632812,-0.379958181331555,-0.0414879322052001,0.4289801071087519,,,,,,,,,,,,1.6888757124659924e+18,34.79599243164062,4.670159912109375,49.549078369140624,-9.662399673461914,1.6888757124659924e+18,34.79599243164062,-250.7246337890625,144.782275390625,-143.02059631347657,1.6888757124722924e+18,34.80229223632812,-0.4826378424962361,0.6954670747121176,-0.3805974125862121,0.3721534311771393,2.612372318903605,1.2684038877487185,-0.6079130172729492
4.85,1.6888757125241935e+18,34.854193603515625,2.8296988010406494,-2.5142186482747397,-6.9447964032491045,1.6888757125241935e+18,34.854193603515625,0.7700901081164678,-11.95454184214274,-8.608179569244385,1.6888757125241935e+18,34.854193603515625,-2.082410176595052,-9.424578030904136,-1.7280964056650798,1.6888757125241935e+18,34.854193603515625,0.569937268892924,-0.9787588616212208,1.3612114042043686,1.6888757125241935e+18,34.854193603515625,0.5689700742562612,-0.9742791652679444,1.3633493880430858,,,,,,,,,,,,1.688875712515993e+18,34.84599311523438,3.3940399169921873,49.6222785949707,-9.301279830932618,1.688875712515993e+18,34.84599311523438,-252.0007537841797,144.85547790527343,-142.65947875976562,1.6888757125241935e+18,34.854193603515625,-0.4899274905522664,0.6842394471168518,-0.3707642455895741,0.3924827575683594,2.4493442376454673,1.2922098636627195,-0.4605322281519572
4.9,1.6888757125760955e+18,34.90609554036458,-2.7358922163645425,-9.703587214152018,-0.0083395242691039,1.6888757125760955e+18,34.90609554036458,-3.5184462467829385,-19.20599110921224,-2.267199476559957,1.6888757125760955e+18,34.90609554036458,-0.8053553799788157,-9.486658732096354,-2.323573430379232,1.6888757125760955e+18,34.90609554036458,1.4159347613652546,-1.7586301962534587,2.4211134910583496,1.6888757125760955e+18,34.90609554036458,1.4150183995564778,-1.754201332728068,2.423251549402873,,,,,,,,,,,,1.688875712565992e+18,34.89599169921875,-0.7564000099897384,50.18347930908203,-7.3102398872375485,1.688875712565992e+18,34.89599169921875,-256.1511962890625,145.41667785644532,-140.66844177246094,1.6888757125760955e+18,34.90609554036458,-0.5031006832917532,0.6466304659843445,-0.3498627642790476,0.4536532461643219,1.9109951257705688,1.316208442052205,0.0106470904623468
4.95,1.6888757126193382e+18,34.94933837890625,0.8596124127507211,-11.097543716430664,1.6083732843399048,1.6888757126193382e+18,34.94933837890625,1.3363914489746094,-20.39970970153809,-1.4401801824569702,1.6888757126193382e+18,34.94933837890625,0.4539775475859642,-9.286420822143556,-3.113266944885254,1.6888757126193382e+18,34.94933837890625,2.1335232257843018,-2.85342788696289,2.3619104623794556,1.6888757126193382e+18,34.94933837890625,2.1324541568756104,-2.848922848701477,2.364048480987549,,,,,,,,,,,,1.688875712615997e+18,34.94599658203125,-6.444040012359619,50.17127914428711,-3.552639889717102,1.688875712615997e+18,34.94599658203125,-261.8388305664063,145.40447387695312,-136.91083679199218,1.6888757126193382e+18,34.94933837890625,-0.4967029392719269,0.6082007586956024,-0.3265427500009537,0.5257456004619598,1.428220510482788,1.2457982301712036,0.3992598354816437
5.0,1.6888757126625956e+18,34.992595703125,-2.070048570632934,-11.15919589996338,2.687044938405355,1.6888757126625956e+18,34.992595703125,-0.3902294635772705,-20.2022024790446,-0.6989036301771799,1.6888757126625956e+18,34.992595703125,1.6570175886154177,-9.02726141611735,-3.450662056605021,1.6888757126625956e+18,34.992595703125,0.4346815335253874,-1.023301074902217,2.2272146542867026,1.6888757126625956e+18,34.992595703125,0.4336634051675598,-1.0188214580217998,2.2293527523676553,,,,,,,,,,,,1.688875712665991e+18,34.99599077148437,-12.61479969024658,49.33679885864258,-0.9979599833488464,1.688875712665991e+18,34.99599077148437,-268.0095947265625,144.56999816894532,-134.3561584472656,1.6888757126625956e+18,34.992595703125,-0.5077514946460724,0.5709361433982849,-0.2987302442391713,0.5716019868850708,1.1217692295710249,1.171020785967509,0.662022054195404
5.05,1.688875712714492e+18,35.0444921061198,-3.4704136848449707,-2.1441731452941895,2.3159673611323037,1.688875712714492e+18,35.0444921061198,-0.6907281478246053,-10.89691432317098,-1.1032906274000804,1.688875712714492e+18,35.0444921061198,2.7568841775258384,-8.736996014912924,-3.483971436818441,1.688875712714492e+18,35.0444921061198,1.6487252712249756,-4.259156227111816,1.1933252811431885,1.688875712714492e+18,35.0444921061198,1.6477580865224202,-4.254727363586426,1.1954632997512815,,,,,,,,,,,,1.6888757127159946e+18,35.04599458007813,-15.247559547424316,48.663359832763675,-1.0491999983787537,1.6888757127159946e+18,35.04599458007813,-270.64235229492186,143.8965576171875,-134.4073974609375,1.688875712714492e+18,35.0444921061198,-0.4837208986282348,0.5129055678844452,-0.3098735908667246,0.6370269656181335,0.9017128149668376,1.101763129234314,0.7200239102045695
5.1,1.6888757127663944e+18,35.096394368489584,-10.42876148223877,9.926374276479086,3.4311345418294272,1.6888757127663944e+18,35.096394368489584,-6.266004880269368,1.6973089377085369,0.1124626795450846,1.6888757127663944e+18,35.096394368489584,4.139955600102742,-8.213320096333822,-3.383385340372721,1.6888757127663944e+18,35.096394368489584,1.021264870961507,-4.505182266235352,1.4933619101842244,1.6888757127663944e+18,35.096394368489584,1.02034858862559,-4.500753402709961,1.4954999287923176,,,,,,,,,,,,1.6888757127659924e+18,35.09599228515625,-19.041759490966797,47.38479919433594,-0.8857199788093567,1.6888757127659924e+18,35.09599228515625,-274.4365539550781,142.6179992675781,-134.24391479492186,1.6888757127663944e+18,35.096394368489584,-0.4457190434137979,0.4358089069525401,-0.3138740758101145,0.7152536114056905,0.6848661700884501,0.9946420391400655,0.7315078576405843
5.15,1.688875712818288e+18,35.148288004557294,-8.637608687082926,11.49537754058838,1.3670128186543782,1.688875712818288e+18,35.148288004557294,-3.2632118860880532,3.589832146962484,-0.8334999084472656,1.688875712818288e+18,35.148288004557294,5.351595401763916,-7.889800071716309,-2.265226165453593,1.688875712818288e+18,35.148288004557294,-0.4743877698977788,-4.287815888722737,0.9714284340540568,1.688875712818288e+18,35.148288004557294,-0.4753549732267856,-4.283387025197347,0.97356649239858,,,,,,,,,,,,1.6888757128159962e+18,35.14599614257812,-20.90835952758789,46.28191986083984,-4.440799951553345,1.6888757128159962e+18,35.14599614257812,-276.3031494140625,141.51511840820314,-137.7989990234375,1.688875712818288e+18,35.148288004557294,-0.414977769056956,0.3313061197598775,-0.3421640296777089,0.7745959162712097,0.3986345430215199,0.9365026950836182,0.7794934312502543
5.2,1.6888757128701898e+18,35.20018994140625,-1.50533660252889,7.12458864847819,5.53429651260376,1.6888757128701898e+18,35.20018994140625,4.032703638076782,-0.833898683389028,3.9573299090067544,1.6888757128701898e+18,35.20018994140625,5.5152387619018555,-7.942742188771565,-1.6416802406311035,1.6888757128701898e+18,35.20018994140625,1.0926343103249867,-0.9202175786097844,-1.280424435933431,1.6888757128701898e+18,35.20018994140625,1.0917180081208546,-0.9157888293266296,-1.278286377588908,1.68887571285289e+18,35.182889892578125,0.0,0.0,1.0152525901794434,9.831000328063965,1.2741779088974,84.20671844482422,41.20000076293945,-122.7524218,49.1905293,1.688875712865995e+18,35.19599487304687,-20.286159133911134,46.072079467773435,-8.09347972869873,1.688875712865995e+18,35.19599487304687,-275.68095703125,141.3052764892578,-141.45167541503906,1.6888757128701898e+18,35.20018994140625,-0.3896247744560241,0.2863476077715556,-0.3706478575865428,0.7928463816642761,0.2871024310588836,0.94570122162501,0.7655786673227946
5.25,1.6888757129220928e+18,35.25209293619792,7.160849412282308,1.58090082804362,1.9321655829747515,1.6888757129220928e+18,35.25209293619792,11.498310407002768,-6.896912574768066,-0.3986043681701024,1.6888757129220928e+18,35.25209293619792,4.314659198125203,-8.462068239847818,-2.395483414332072,1.6888757129220928e+18,35.25209293619792,1.2118548055489855,1.5212580959002178,-3.212183952331543,1.6888757129220928e+18,35.25209293619792,1.2108876407146454,1.5257377823193867,-3.2100459734598794,,,,,,,,,,,,1.6888757129159905e+18,35.245990234375,-14.422839546203614,48.35347900390625,-4.919039869308472,1.6888757129159905e+18,35.245990234375,-269.8176330566406,143.58667907714843,-138.27723693847656,1.6888757129220928e+18,35.25209293619792,-0.3441974719365437,0.3375469843546549,-0.4077157179514567,0.775007426738739,0.5094587902228037,1.0435888369878132,0.5362811386585236
5.3,1.6888757129739848e+18,35.30398486328125,6.176607608795166,-18.168168703715008,0.7320010662078857,1.6888757129739848e+18,35.30398486328125,10.288738250732422,-26.82374127705892,-1.3802598714828491,1.6888757129739848e+18,35.30398486328125,4.089329242706299,-8.639826774597168,-2.176974376042684,1.6888757129739848e+18,35.30398486328125,-0.3059925821920236,-3.41667103767395,0.6442083021004995,1.6888757129739848e+18,35.30398486328125,-0.3069088831543922,-3.4122424920399985,0.6463463505109152,,,,,,,,,,,,1.6888757129659948e+18,35.29599467773438,-9.413519859313965,49.778438568115234,-3.8600800037384033,1.6888757129659948e+18,35.29599467773438,-264.8083190917969,145.0116394042969,-137.21828002929686,1.6888757129739848e+18,35.30398486328125,-0.3228165010611216,0.3220823605855306,-0.4333488643169403,0.7767454783121744,0.4879757662614186,1.079695463180542,0.4912785490353902
5.35,1.6888757130258865e+18,35.35588655598958,-5.239254951477051,-3.008514404296875,6.037688096364339,1.6888757130258865e+18,35.35588655598958,-0.6245266199111938,-11.477173805236816,4.181258201599121,1.6888757130258865e+18,35.35588655598958,4.59192689259847,-8.452914237976074,-1.9211433331171672,1.6888757130258865e+18,35.35588655598958,-1.029664268096288,2.1026490926742554,0.8839729328950247,1.6888757130258865e+18,35.35588655598958,-1.0305805305639903,2.1071287790934243,0.8861109515031179,,,,,,,,,,,,1.6888757130159903e+18,35.345990478515624,-11.716879653930665,49.22943954467773,-5.038599872589112,1.6888757130159903e+18,35.345990478515624,-267.111669921875,144.46263732910157,-138.39679870605468,1.6888757130258865e+18,35.35588655598958,-0.3311454653739929,0.299309104681015,-0.4205549259980519,0.7895224491755167,0.3940629959106445,1.0407381057739258,0.5665477712949117
5.4,1.6888757130691343e+18,35.399134399414066,-11.259947776794434,-5.055031776428223,-1.7708581686019895,1.6888757130691343e+18,35.399134399414066,-6.622734785079956,-13.558929443359377,-3.4067812263965607,1.6888757130691343e+18,35.399134399414066,4.6144118309021,-8.488152503967285,-1.7006364464759829,1.6888757130691343e+18,35.399134399414066,-0.7922158846631646,1.2509756982326508,0.4730388000607491,1.6888757130691343e+18,35.399134399414066,-0.7931321552023292,1.255480796098709,0.4751768186688423,,,,,,,,,,,,1.6888757130659968e+18,35.395996826171874,-14.444799995422365,48.280279541015624,-6.636799716949463,1.6888757130659968e+18,35.395996826171874,-269.8395935058594,143.5134765625,-139.9949951171875,1.6888757130691343e+18,35.399134399414066,-0.3791374117136001,0.313280239701271,-0.4088876992464065,0.7686891853809357,0.3505196720361709,1.0475550293922424,0.71258145570755
5.45,1.6888757131123817e+18,35.44238167317708,-6.837900002797444,3.493114153544108,-1.4065388838450117,1.6888757131123817e+18,35.44238167317708,-3.086741268634796,-5.174877802530925,-3.989832401275635,1.6888757131123817e+18,35.44238167317708,3.728357394536336,-8.652246793111166,-2.6480069955190024,1.6888757131123817e+18,35.44238167317708,1.1476121544837952,4.551709572474162,-2.1792617241541543,1.6888757131123817e+18,35.44238167317708,1.1466449697812398,4.556138435999553,-2.177123785018921,,,,,,,,,,,,1.6888757131159926e+18,35.44599252929687,-12.707519912719729,48.92687835693359,-3.0914799213409423,1.6888757131159926e+18,35.44599252929687,-268.1023193359375,144.16007385253906,-136.44967346191407,1.6888757131123817e+18,35.44238167317708,-0.3823442955811818,0.3888394633928935,-0.3972124059995015,0.7369419535001119,0.6203303237756094,1.0824265877405803,0.5738292237122854
5.5,1.6888757131642798e+18,35.49427986653646,-9.319902261098228,-0.5471030871073403,-4.000366131464641,1.6888757131642798e+18,35.49427986653646,-7.778867244720459,-9.770493030548096,-6.87238613764445,1.6888757131642798e+18,35.49427986653646,1.5182336767514546,-9.207644780476889,-2.9367336432139077,1.6888757131642798e+18,35.49427986653646,-2.869335929552714,4.392986536026001,-3.0237320264180503,1.6888757131642798e+18,35.49427986653646,-2.8703030745188394,4.39746618270874,-3.0215940475463867,,,,,,,,,,,,1.688875713165991e+18,35.495990625000005,-5.50219988822937,50.037079620361325,-2.8718799114227296,1.688875713165991e+18,35.495990625000005,-260.8969970703125,145.27027587890626,-136.230078125,1.6888757131642798e+18,35.49427986653646,-0.4103884597619374,0.5006752808888754,-0.4143138627211253,0.6381523807843527,1.1119688749313354,1.2264679272969563,0.3147293378909429
5.55,1.6888757132161823e+18,35.54618245442708,2.25892964998881,-2.7429696718851724,-2.088650623957316,1.6888757132161823e+18,35.54618245442708,1.9966110785802205,-12.33500051498413,-4.081756591796875,1.6888757132161823e+18,35.54618245442708,-0.2851199905077616,-9.576285680135092,-2.057819445927938,1.6888757132161823e+18,35.54618245442708,-0.4217006514469782,3.775656223297119,-2.56787387530009,1.6888757132161823e+18,35.54618245442708,-0.4226169337828955,3.78008500734965,-2.5657358964284263,,,,,,,,,,,,1.6888757132159951e+18,35.54599516601563,0.100040003657341,49.656439208984374,-7.888519763946533,1.6888757132159951e+18,35.54599516601563,-255.2947540283203,144.88964233398437,-141.24671630859376,1.6888757132161823e+18,35.54618245442708,-0.4492685397466023,0.5667904814084371,-0.4390643735726674,0.5320123434066772,1.702403465906779,1.3545554876327517,-0.0863182594378789
5.6,1.6888757132680804e+18,35.59808040364583,5.598785400390625,3.398580233256022,2.719250758488973,1.6888757132680804e+18,35.59808040364583,4.034099578857422,-6.049853324890137,0.6137590284148852,1.6888757132680804e+18,35.59808040364583,-1.5874871810277302,-9.432688395182293,-2.1702051957448325,1.6888757132680804e+18,35.59808040364583,0.6678793330987295,3.2654310862223306,-0.9466375211874644,1.6888757132680804e+18,35.59808040364583,0.6669630308945974,3.269859870274862,-0.9444994628429412,,,,,,,,,,,,1.6888757132659945e+18,35.59599462890625,3.1280799388885496,49.99803924560547,-7.62255973815918,1.6888757132659945e+18,35.59599462890625,-252.26671752929687,145.23124084472656,-140.98076171875,1.6888757132680804e+18,35.59808040364583,-0.4533609847227732,0.6411733428637186,-0.4115386207898457,0.4619919260342915,2.2044049898783364,1.2947837511698406,-0.4099224309126536
5.65,1.6888757133199828e+18,35.649982666015624,0.5115707317988077,4.356301943461101,-3.447322448094686,1.6888757133199828e+18,35.649982666015624,-1.0919246673583982,-5.128217697143555,-5.363711436589559,1.6888757133199828e+18,35.649982666015624,-1.626296838124593,-9.468774477640787,-1.9811023871103923,1.6888757133199828e+18,35.649982666015624,-0.3822489182154338,1.8955657879511516,0.6396777232487997,1.6888757133199828e+18,35.649982666015624,-0.3831652204195658,1.8999945720036824,0.6418157617251078,,,,,,,,,,,,1.6888757133159908e+18,35.64599067382812,2.6303199529647827,50.202998352050784,-7.046719932556153,1.6888757133159908e+18,35.64599067382812,-252.7644775390625,145.43619689941406,-140.40491943359376,1.6888757133199828e+18,35.649982666015624,-0.485548992951711,0.663822591304779,-0.3767243127028147,0.4259875416755676,2.2623093922932944,1.3084747393925984,-0.3400244613488515
5.7,1.6888757133718753e+18,35.70187532552083,3.4455522696177163,0.4719926516215006,-3.689435283342997,1.6888757133718753e+18,35.70187532552083,1.5712868372599285,-9.017750898996988,-5.304090181986491,1.6888757133718753e+18,35.70187532552083,-1.8970668315887451,-9.473998387654625,-1.6793683369954426,1.6888757133718753e+18,35.70187532552083,-0.398640473683675,1.515963892141978,-1.1963796019554138,1.6888757133718753e+18,35.70187532552083,-0.3996076782544454,1.52049454053243,-1.1942415436108906,1.6888757133718825e+18,35.70188256835937,0.0,0.0,1.0152525901794434,9.664999961853027,1.3107967376708984,85.30381774902344,41.20000076293945,-122.7524003,49.1905265,1.6888757133659927e+18,35.69599267578125,1.9495599269866943,50.068798828125,-8.22279977798462,1.6888757133659927e+18,35.69599267578125,-253.4452362060547,145.3019989013672,-141.58099365234375,1.6888757133718753e+18,35.70187532552083,-0.4971643388271332,0.6782392462094625,-0.3691367805004119,0.3953547179698944,2.4178072611490884,1.3106112082799275,-0.4295198420683543
5.75,1.688875713423782e+18,35.75378190104167,0.6299412250518798,-0.9806906382242838,-4.624175310134888,1.688875713423782e+18,35.75378190104167,-1.8502501050631208,-10.38385327657064,-5.915655771891276,1.688875713423782e+18,35.75378190104167,-2.502992788950602,-9.387417475382486,-1.3561940590540569,1.688875713423782e+18,35.75378190104167,-0.5621487498283386,-0.0219911237557729,-0.1961386601130167,1.688875713423782e+18,35.75378190104167,-0.5630650321642557,-0.0175114770730336,-0.194000631570816,,,,,,,,,,,,1.6888757134159903e+18,35.74599038085937,4.433479928970337,49.60031967163086,-9.32323989868164,1.6888757134159903e+18,35.74599038085937,-250.96131286621093,144.8335174560547,-142.6814392089844,1.688875713423782e+18,35.75378190104167,-0.4941944479942322,0.700061043103536,-0.3702028691768646,0.3585765461126963,2.6503564516703286,1.2781092723210652,-0.6045828461647034
5.8,1.688875713475681e+18,35.805680826822915,4.277728001276652,-3.007488250732422,-8.155945301055908,1.688875713475681e+18,35.805680826822915,2.1084755659103394,-12.45384438832601,-9.660223642985024,1.688875713475681e+18,35.805680826822915,-2.19205379486084,-9.43061097462972,-1.568992018699646,1.688875713475681e+18,35.805680826822915,0.7225517829259237,-0.7234171653787295,0.7385360995928446,1.688875713475681e+18,35.805680826822915,0.7215845584869385,-0.718937486410141,0.7406741182009379,,,,,,,,,,,,1.6888757134659886e+18,35.795988818359376,4.5188798904418945,49.29775848388672,-9.801479721069336,1.6888757134659886e+18,35.795988818359376,-250.87591247558595,144.53095397949218,-143.15967407226563,1.688875713475681e+18,35.805680826822915,-0.4915799299875894,0.6862620115280151,-0.3746744195620219,0.3833106954892476,2.525034268697103,1.2937260468800862,-0.5270785888036092
5.85,1.6888757135275796e+18,35.857579589843745,-1.3881633679072063,-3.164197285970052,-0.2172955274581909,1.6888757135275796e+18,35.857579589843745,-2.4448665181795755,-12.658430417378744,-2.4033910036087036,1.6888757135275796e+18,35.857579589843745,-1.0795046091079712,-9.478487968444826,-2.2508089542388916,1.6888757135275796e+18,35.857579589843745,1.1980594793955486,-2.02705454826355,2.3868541717529297,1.6888757135275796e+18,35.857579589843745,1.1970922549565632,-2.022625684738159,2.3889921506245932,,,,,,,,,,,,1.6888757135159944e+18,35.84599418945312,1.434719967842102,49.97607879638672,-7.893399906158447,1.6888757135159944e+18,35.84599418945312,-253.9600799560547,145.2092742919922,-141.25159301757813,1.6888757135275796e+18,35.857579589843745,-0.4997145632902781,0.6560384035110474,-0.352392425139745,0.441862682501475,2.0197309255599976,1.3124056259791057,-0.0823313966393471
5.9,1.6888757135708232e+18,35.9008232421875,-2.461987853050232,-11.469830513000488,-0.3300192356109619,1.6888757135708232e+18,35.9008232421875,-2.334497570991516,-20.86062812805176,-3.1369904279708862,1.6888757135708232e+18,35.9008232421875,0.1046888530254363,-9.375052452087402,-2.8716846704483032,1.6888757135708232e+18,35.9008232421875,1.741729497909546,-3.638847827911377,2.0389918088912964,1.6888757135708232e+18,35.9008232421875,1.740736901760101,-3.6343427896499634,2.0411298871040344,,,,,,,,,,,,1.6888757135659886e+18,35.89598857421875,-3.923519873619079,50.17127990722656,-4.77263994216919,1.6888757135659886e+18,35.89598857421875,-259.318310546875,145.40447692871095,-138.1308349609375,1.6888757135708232e+18,35.9008232421875,-0.4941416531801224,0.6147217154502869,-0.3413076996803283,0.5109318941831589,1.5374089479446411,1.2746402621269226,0.2935860231518745
5.95,1.6888757136227195e+18,35.95271997070313,-2.530654470125834,-11.039553006490072,2.8622707525889077,1.6888757136140687e+18,35.94406884765625,1.2205389738082886,-21.41137631734212,-0.8817551533381144,1.6888757136227195e+18,35.95271997070313,1.6715615193049114,-9.111809094746908,-3.203554630279541,1.6888757136140687e+18,35.94406884765625,0.5331835448741913,-2.1151718695958457,2.5462390581766763,1.6888757136140687e+18,35.94406884765625,0.532216360171636,-2.110743006070455,2.54837703704834,,,,,,,,,,,,1.6888757136159862e+18,35.945986328125,-10.267519855499268,49.67351913452149,-2.5497999668121336,1.6888757136159862e+18,35.945986328125,-265.6623168945313,144.9067138671875,-135.90799865722656,1.6888757136227195e+18,35.95271997070313,-0.4938829441865285,0.5545032819112142,-0.3271067639191945,0.5841119090716044,1.0904297232627869,1.193471948305766,0.6201129754384359
6.0,1.688875713674619e+18,36.00461865234375,-3.410783569018046,-1.3431720733642578,2.5282249053319297,1.688875713665968e+18,35.99596769205729,-1.8899310529232023,-11.56132157643636,0.201595276594162,1.688875713674619e+18,36.00461865234375,2.88728404045105,-8.906890233357748,-2.90380597114563,1.688875713665968e+18,35.99596769205729,0.7115052913626035,-4.469344615936279,1.144557853539785,1.688875713665968e+18,35.99596769205729,0.7104872018098831,-4.464865048726399,1.146695872147878,,,,,,,,,,,,1.68887571366599e+18,35.9959900390625,-13.268719673156738,49.0342399597168,-3.935719871520996,1.68887571366599e+18,35.9959900390625,-268.66350708007815,144.26743774414064,-137.29391479492188,1.688875713674619e+18,36.00461865234375,-0.4748788277308146,0.4814137419064839,-0.3473804593086242,0.6488111615180969,0.7886346777280172,1.1407738129297893,0.7411395112673441
6.05,1.6888757137265183e+18,36.056518636067715,-8.909555594126383,5.989216168721517,2.189255158106486,1.6888757137178655e+18,36.04786555989583,-3.5786656538645425,-4.164109547932942,-0.7160521745681763,1.6888757137265183e+18,36.056518636067715,4.008586724599202,-8.489922841389975,-2.8292431036631265,1.6888757137178655e+18,36.04786555989583,1.231300671895345,-3.119078000386556,1.449990431467692,1.6888757137178655e+18,36.04786555989583,1.2303844292958577,-3.1146491368611655,1.4521284500757854,,,,,,,,,,,,1.6888757137159867e+18,36.045986669921874,-16.274799728393553,48.39983901977539,-3.928399896621704,1.6888757137159867e+18,36.045986669921874,-271.6695983886719,143.6330352783203,-137.2865966796875,1.6888757137265183e+18,36.056518636067715,-0.4393433829148609,0.4160417020320892,-0.3500895798206329,0.7146076560020447,0.6134749054908752,1.0482324361801147,0.7400098443031311
6.1,1.6888757137697787e+18,36.099778808593754,-11.466620922088625,12.732864379882812,0.4411810636520386,1.6888757137697743e+18,36.09977425130209,-5.659623583157857,3.767698605855306,-1.4683954914410908,1.6888757137697787e+18,36.099778808593754,4.903039216995239,-8.154006481170654,-2.3731935024261475,1.6888757137697743e+18,36.09977425130209,0.299323966105779,-4.518671989440918,1.3009902636210124,1.6888757137697743e+18,36.09977425130209,0.2983058492342631,-4.51414140065511,1.3031282822291057,,,,,,,,,,,,1.6888757137659963e+18,36.09599648437499,-18.24387969970703,47.59707946777344,-4.535959959030151,1.6888757137659963e+18,36.09599648437499,-273.6386779785156,142.8302764892578,-137.89415588378907,1.6888757137697787e+18,36.099778808593754,-0.4047375917434692,0.34739451110363,-0.3598141968250274,0.7652249038219452,0.4492290616035461,0.9831228852272034,0.729298323392868
6.15,1.688875713813024e+18,36.14302425130209,-3.521267573038737,8.386606852213541,3.56077245871226,1.6888757138216753e+18,36.15167521158854,2.5158536434173584,-0.3996013800303141,3.0211380322774253,1.688875713813024e+18,36.14302425130209,5.455396334330241,-8.000173727671305,-1.566063125928243,1.6888757138216753e+18,36.15167521158854,0.5438736726840337,-1.7395405968030293,-0.4116213719050089,1.6888757138216753e+18,36.15167521158854,0.5429573903481165,-1.7351118127504983,-0.4094833532969157,,,,,,,,,,,,1.6888757138159951e+18,36.14599521484375,-18.941719436645503,46.94803924560547,-8.14960012435913,1.6888757138159951e+18,36.14599521484375,-274.3365112304688,142.18123779296874,-141.50780029296874,1.688875713813024e+18,36.14302425130209,-0.382688711086909,0.2816026111443837,-0.3781703511873881,0.7943661014238993,0.2772201995054881,0.9553951621055604,0.7536936004956564
6.2,1.6888757138649265e+18,36.194926432291666,0.1705845991770426,6.083325068155925,4.480129241943359,1.6888757138735716e+18,36.20357161458333,6.475576241811116,-2.9298119942347207,2.111466566721598,1.6888757138649265e+18,36.194926432291666,4.967533588409424,-8.251229921976725,-1.825001080830892,1.6888757138735716e+18,36.20357161458333,1.5189164479573567,0.7677558064460754,-2.539672255516052,1.6888757138735716e+18,36.20357161458333,1.5179491837819417,0.7722354630629221,-2.537534236907959,1.6888757138908613e+18,36.220861328125,0.0,0.0,1.0247753858566284,9.54800033569336,1.3286389112472534,86.46881866455078,41.20000076293945,-122.7523943,49.1905236,1.6888757138659948e+18,36.195994677734376,-15.215839958190918,48.2485595703125,-6.197599792480469,1.6888757138659948e+18,36.195994677734376,-270.6106323242187,143.48175659179688,-139.55579833984376,1.6888757138649265e+18,36.194926432291666,-0.3465392192204793,0.2914378543694814,-0.4027175406614939,0.7952304283777872,0.3522046605745951,1.0016091267267864,0.6265025933583578
6.25,1.688875713916827e+18,36.24682682291667,11.383248964945476,-14.641700585683187,-0.7749817371368408,1.6888757139254756e+18,36.255475830078126,16.78126398722331,-27.219155311584473,-3.5102708538373313,1.688875713916827e+18,36.24682682291667,4.078901529312134,-8.641269048055014,-2.2111686070760093,1.6888757139254756e+18,36.255475830078126,-0.3427972098191579,-1.5940019488334656,-0.3355686515569686,1.6888757139254756e+18,36.255475830078126,-0.34371351202329,-1.589471350113551,-0.3333796858787536,,,,,,,,,,,,1.6888757139159844e+18,36.245984228515624,-9.647759628295898,49.827239227294925,-3.691719913482666,1.6888757139159844e+18,36.245984228515624,-265.0425537109375,145.06043701171876,-137.04991760253907,1.688875713916827e+18,36.24682682291667,-0.3149905602137248,0.3198016087214152,-0.4361871778964996,0.7797693610191345,0.4952914118766784,1.0797574520111084,0.466976135969162
6.3,1.6888757139687252e+18,36.29872509765625,1.9944595495859785,-6.689048131306966,5.901567737261455,1.6888757139773734e+18,36.30737353515625,2.9866414070129395,-12.088340759277344,5.703890879948934,1.6888757139687252e+18,36.29872509765625,4.427607536315918,-8.602293014526367,-1.6151326894760132,1.6888757139773734e+18,36.30737353515625,-0.5521712799866995,0.0959567526976267,0.886518215139707,1.6888757139773734e+18,36.30737353515625,-0.5531893682976564,0.1004364093144734,0.8886562387148539,,,,,,,,,,,,1.6888757139659948e+18,36.29599467773438,-9.396439743041991,49.568599700927734,-5.6485998153686525,1.6888757139659948e+18,36.29599467773438,-264.79124145507814,144.80179443359376,-139.00679931640624,1.6888757139687252e+18,36.29872509765625,-0.3097611467043558,0.2768367032210032,-0.445284237464269,0.7931333382924398,0.3483853836854299,1.0713838736216228,0.5363306403160095
6.35,1.6888757140206203e+18,36.350620361328126,-13.097577412923178,-4.277804374694824,3.2744716008504233,1.6888757140206246e+18,36.35062463378906,-10.61695432662964,-14.836996078491213,3.251845896244049,1.6888757140206203e+18,36.350620361328126,4.656826337178548,-8.549926122029623,-1.1870404879252117,1.6888757140206246e+18,36.35062463378906,-2.599766194820404,1.4892131686210632,0.5119814425706863,1.6888757140206246e+18,36.35062463378906,-2.6006824374198914,1.4936418533325195,0.5141194611787796,,,,,,,,,,,,1.6888757140159903e+18,36.345990429687504,-12.675799560546874,48.63895950317383,-8.105679798126221,1.6888757140159903e+18,36.345990429687504,-268.0705993652344,143.87215881347657,-141.46387634277343,1.6888757140206203e+18,36.350620361328126,-0.3615118861198425,0.2772925396760304,-0.4316269755363464,0.7782936692237854,0.2468948562939961,1.0600004593531291,0.7246334354082743
6.4,1.6888757140725248e+18,36.40252465820313,-5.298319180806478,4.90800937016805,-3.1872571309407554,1.6888757140638733e+18,36.39387329101563,-0.2358924945195516,-3.9555352528889975,-5.1790651480356855,1.6888757140725248e+18,36.40252465820313,4.033443371454875,-8.71519692738851,-1.8987947702407837,1.6888757140638733e+18,36.39387329101563,1.174082989494006,3.5642459392547607,-1.3963361183802288,1.6888757140638733e+18,36.39387329101563,1.1731158246596654,3.5687256256739297,-1.3941980600357056,,,,,,,,,,,,1.6888757140659953e+18,36.39599526367188,-13.512719917297364,48.36567916870117,-8.20083990097046,1.6888757140659953e+18,36.39599526367188,-268.9075134277344,143.598876953125,-141.5590362548828,1.6888757140725248e+18,36.40252465820313,-0.3802332282066345,0.3421893616517384,-0.4199926058451335,0.7485870321591696,0.4417950610319773,1.095734437306722,0.6654958128929138
6.45,1.6888757141244232e+18,36.45442301432291,-9.928722858428957,-1.227887789408366,-6.38528839747111,1.6888757141157724e+18,36.4457724609375,-8.76311461130778,-9.006783644358316,-8.630313078562418,1.6888757141244232e+18,36.45442301432291,2.0630462964375815,-9.139223416646322,-2.8347633679707847,1.6888757141157724e+18,36.4457724609375,-0.767246683438619,4.919399579366048,-2.9521590073903403,1.6888757141157724e+18,36.4457724609375,-0.7681630651156107,4.9238284428914385,-2.9500210285186768,,,,,,,,,,,,1.6888757141159928e+18,36.445992675781255,-8.766919898986817,49.89067916870117,-3.437960004806518,1.6888757141159928e+18,36.445992675781255,-264.16171875,145.1238800048828,-136.79615783691406,1.6888757141244232e+18,36.45442301432291,-0.397658626238505,0.4667335947354634,-0.4202329019705454,0.6675550738970438,0.9556913375854492,1.2041094303131104,0.3869415124257405
6.5,1.6888757141763195e+18,36.50631966145833,0.9999353090922036,-2.021016279856364,-2.1086739699045816,1.688875714167668e+18,36.497668131510416,1.1868400573730469,-13.064014116923014,-5.036692142486572,1.6888757141763195e+18,36.50631966145833,0.0067753717303276,-9.498637517293297,-2.4062907695770264,1.688875714167668e+18,36.497668131510416,-0.87226465344429,5.031697114308675,-2.675131559371948,1.688875714167668e+18,36.497668131510416,-0.8732318381468455,5.036125818888347,-2.6729935805002847,,,,,,,,,,,,1.688875714165995e+18,36.49599501953124,-2.2521199703216555,50.16640014648438,-5.924319839477539,1.688875714165995e+18,36.49599501953124,-257.64691772460935,145.39960021972655,-139.2825164794922,1.6888757141763195e+18,36.50631966145833,-0.4377575715382893,0.5600390831629435,-0.4305266241232554,0.5549339850743612,1.5674004554748535,1.3202062050501506,0.0158387566916644
6.55,1.6888757142195686e+18,36.54956848144531,3.2268160581588745,3.529714822769165,1.0135793685913086,1.6888757142195712e+18,36.54957120768229,1.315454324086507,-6.406583309173584,-1.605384608109792,1.6888757142195686e+18,36.54956848144531,-1.0682606101036072,-9.419456005096436,-2.517575621604919,1.6888757142195712e+18,36.54957120768229,0.5251913865407308,2.263153910636902,-1.5875369707743328,1.6888757142195712e+18,36.54957120768229,0.5242241819699606,2.2675827741622925,-1.5853989521662395,,,,,,,,,,,,1.6888757142159926e+18,36.545992529296875,2.1398799657821654,50.29571914672851,-5.951159858703614,1.6888757142159926e+18,36.545992529296875,-253.25491638183593,145.52891845703124,-139.30935974121093,1.6888757142195686e+18,36.54956848144531,-0.4381200224161147,0.6163823306560516,-0.4176393300294876,0.5035618394613266,1.9728532433509829,1.289713740348816,-0.2673098966479301
6.6,1.6888757142628209e+18,36.59282104492187,3.747770309448242,2.316704432169596,1.8974432150522869,1.6888757142714668e+18,36.60146695963542,1.687139352162679,-6.673781712849935,-0.8783653080463409,1.6888757142628209e+18,36.59282104492187,-1.6728639205296834,-9.325887680053713,-2.5398239294687905,1.6888757142714668e+18,36.60146695963542,0.1890119016170501,3.2739322980244956,-0.0438804825146993,1.6888757142714668e+18,36.60146695963542,0.1880955994129181,3.2784120241800943,-0.0417424564560254,,,,,,,,,,,,1.6888757142659958e+18,36.595995703125,3.3769599914550783,50.19811935424805,-4.936119937896729,1.6888757142659958e+18,36.595995703125,-252.0178375244141,145.4313171386719,-138.29431762695313,1.6888757142628209e+18,36.59282104492187,-0.4476613501707713,0.6567955811818441,-0.3917571306228637,0.4627794623374939,2.1556069056193032,1.2571295499801636,-0.3310218056042989
