seconds_elapsed_rounded,accelerometer_time,accelerometer_seconds_elapsed,accelerometer_z,accelerometer_y,accelerometer_x,accelerometeruncalibrated_time,accelerometeruncalibrated_seconds_elapsed,accelerometeruncalibrated_z,accelerometeruncalibrated_y,accelerometeruncalibrated_x,gravity_time,gravity_seconds_elapsed,gravity_z,gravity_y,gravity_x,gyroscope_time,gyroscope_seconds_elapsed,gyroscope_z,gyroscope_y,gyroscope_x,gyroscopeuncalibrated_time,gyroscopeuncalibrated_seconds_elapsed,gyroscopeuncalibrated_z,gyroscopeuncalibrated_y,gyroscopeuncalibrated_x,location_time,location_seconds_elapsed,location_bearingAccuracy,location_speedAccuracy,location_verticalAccuracy,location_horizontalAccuracy,location_speed,location_bearing,location_altitude,location_longitude,location_latitude,magnetometer_time,magnetometer_seconds_elapsed,magnetometer_z,magnetometer_y,magnetometer_x,magnetometeruncalibrated_time,magnetometeruncalibrated_seconds_elapsed,magnetometeruncalibrated_z,magnetometeruncalibrated_y,magnetometeruncalibrated_x,orientation_time,orientation_seconds_elapsed,orientation_qz,orientation_qy,orientation_qx,orientation_qw,orientation_roll,orientation_pitch,orientation_yaw
0.0,1.688754813343914e+18,15.000913981119792,7.589742819468181,-1.2738308906555176,-0.5099867184956868,1.68875481334391e+18,15.000910034179688,11.850154876708984,-8.224729537963867,0.5060819908976555,1.688754813343914e+18,15.000913981119792,4.030737559000651,-8.755528450012207,1.7962531248728435,1.688754813343914e+18,15.000913981119792,0.6639596124490103,-0.4167628139257431,-2.397595206896464,1.6887548133482424e+18,15.005242513020834,0.4664464990297953,-0.5765040715535482,-2.02232031027476,,,,,,,,,,,,1.6887548133380613e+18,14.995061279296872,-3.5184800148010256,50.898399353027344,-8.230119800567627,1.6887548133380613e+18,14.995061279296872,-258.0470764160156,144.21619567871093,-140.23411560058594,1.68875481334391e+18,15.000910034179688,-0.0097787464037537,-0.1019117385149001,-0.5350877940654755,0.8385032713413239,-0.4201680719852447,1.1094201803207395,0.2862255126237869
0.05,1.6887548133958144e+18,15.052814453125,5.658107042312622,-11.652491410573324,3.4295969009399414,1.688754813387169e+18,15.044169189453124,9.760323524475098,-23.632912317911785,5.649454355239868,1.6887548133958144e+18,15.052814453125,3.9464202721913657,-8.685347557067871,2.273221810658773,1.6887548133958144e+18,15.052814453125,0.0669406453768412,-3.4389167626698813,1.7519614696502686,1.6887548134001446e+18,15.05714453125,0.2018909752368927,-3.450574239095052,1.7279341220855713,,,,,,,,,,,,1.6887548133880586e+18,15.04505849609375,-1.786080002784729,50.656839752197264,-8.039799690246582,1.6887548133880586e+18,15.04505849609375,-256.31467590332034,143.97463684082032,-140.043798828125,1.688754813387169e+18,15.044169189453124,0.0115548347433408,-0.1401530901590982,-0.5313572287559509,0.83484814564387,-0.5115713675816854,1.1002794901529949,0.2902296682198842
0.1,1.688754813447727e+18,15.10472705078125,-7.693752765655518,-3.208724021911621,8.55831797917684,1.6887548134390776e+18,15.09607771809896,0.3114652633666992,-9.91725262006124,11.374481836954752,1.688754813447727e+18,15.10472705078125,3.915223439534506,-8.651144981384277,2.453376293182373,1.688754813447727e+18,15.10472705078125,0.1605048393830657,0.5336925983428955,-1.1114184111356735,1.688754813443397e+18,15.100397094726564,0.1666898429393768,0.4765512347221374,-1.2983940541744232,,,,,,,,,,,,1.688754813438059e+18,15.095058984375,-3.242759943008423,50.525079345703126,-8.191079902648926,1.688754813438059e+18,15.095058984375,-257.7713623046875,143.8428741455078,-140.19507751464843,1.6887548134390776e+18,15.09607771809896,0.0495612770318984,-0.1822424282630284,-0.5132192969322205,0.8371389905611674,-0.5593845844268799,1.070466677347819,0.2193514506022135
0.15,1.6887548134996324e+18,15.15663232421875,-2.1310580571492515,4.274391969045003,-5.776070515314738,1.6887548134909775e+18,15.147977701822915,-0.1908276379108429,-6.173681855201721,-3.391227861245474,1.6887548134996324e+18,15.15663232421875,3.682540734608968,-8.861276308695475,2.0212577978769937,1.6887548134996324e+18,15.15663232421875,0.5211189538240433,1.9969693819681804,-0.9396634896596272,1.6887548134866565e+18,15.143656168619792,0.2769764785965283,1.6641496419906616,-0.6154976387818654,,,,,,,,,,,,1.6887548134880635e+18,15.145063476562502,-1.9690799236297607,50.0712387084961,-7.468839836120606,1.6887548134880635e+18,15.145063476562502,-256.49767150878904,143.3890380859375,-139.47283935546875,1.6887548134909775e+18,15.147977701822915,0.0305043272674083,-0.1521561741828918,-0.5358820160230001,0.8297791083653768,-0.5249456266562144,1.1169540484746296,0.2589855392773946
0.2,1.688754813542887e+18,15.19988671875,-4.625299692153931,0.2540369033813476,2.4610618948936462,1.688754813542883e+18,15.199883138020835,-2.045663893222809,-8.388039588928223,3.3924243450164795,1.688754813542887e+18,15.19988671875,2.7354047298431396,-9.325967788696287,1.283829629421234,1.688754813542887e+18,15.19988671875,0.3681226745247841,4.700608015060425,-4.2239803075790405,1.688754813538563e+18,15.195563639322918,0.4156937897205353,4.330729166666667,-3.876449028650919,,,,,,,,,,,,1.6887548135380613e+18,15.195061230468747,2.740120017528534,50.0273193359375,-6.4415998458862305,1.6887548135380613e+18,15.195061230468747,-251.7884735107422,143.3451171875,-138.44559631347656,1.688754813542883e+18,15.199883138020835,-0.0121192503720522,-0.0746856393913427,-0.5956447124481201,0.7982702851295471,-0.4597454567750295,1.2571969429651897,0.3696977396806081
0.25,1.688754813586138e+18,15.243138020833332,-8.070665200551352,2.0001487731933594,1.538031816482544,1.6887548135947927e+18,15.251792480468753,-8.264809449513754,-8.358727614084879,2.331406851609548,1.688754813586138e+18,15.243138020833332,1.069202979405721,-9.664801279703775,1.1929012537002563,1.688754813586138e+18,15.243138020833332,-1.2847514152526855,4.74336854616801,-4.131383577982585,1.6887548135904645e+18,15.247464436848958,-1.4181745449701946,4.4846164385477705,-3.915748039881388,,,,,,,,,,,,1.6887548135880576e+18,15.245057568359377,12.073119735717771,47.9703987121582,-9.284199810028076,1.6887548135880576e+18,15.245057568359377,-242.4554748535156,141.28819885253907,-141.28819885253907,1.6887548135947927e+18,15.251792480468753,-0.1130797167619069,0.0148443067446351,-0.6768310864766439,0.7261959314346313,-1.0269322991371157,1.4069950183232625,1.2087627053260803
0.3,1.6887548136380406e+18,15.295040445963542,-5.116615374883016,-2.3106492360432944,-2.6461433370908103,1.6887548136466957e+18,15.30369580078125,-1.5355939865112298,-11.439486821492514,-1.204387406508128,1.6887548136380406e+18,15.295040445963542,-0.0136596771577993,-9.625590324401855,1.882757584253947,1.6887548136380406e+18,15.295040445963542,-1.2540045181910198,-0.6463972528775533,-1.0982338984807334,1.6887548136423703e+18,15.299370524088545,-1.124297519524892,-1.0211121439933777,-1.0677415231863658,,,,,,,,,,,,1.68875481363806e+18,15.29506015625,16.20159969329834,45.44743881225586,-14.42527961730957,1.68875481363806e+18,15.29506015625,-238.32699584960935,138.7652374267578,-146.4292785644531,1.6887548136466957e+18,15.30369580078125,-0.1523020068804423,0.0111026250912497,-0.7107944488525391,0.6864362359046936,-1.621392289797465,1.3672276337941487,1.8542180458704631
0.35,1.688754813689945e+18,15.346945068359377,6.122700810432434,0.7955300013224283,-2.1110779444376626,1.688754813698603e+18,15.355603190104167,3.082354466120402,-8.42373259862264,0.4815555661916733,1.688754813689945e+18,15.346945068359377,-0.9163809219996134,-9.551907857259115,2.024861097335815,1.688754813689945e+18,15.346945068359377,0.2340631981690724,0.7044294277826945,-2.143577059110006,1.688754813694279e+18,15.351278808593747,0.3096577723821004,1.111163894335429,-2.052812616030375,,,,,,,,,,,,1.6887548136880635e+18,15.345063671875,20.76927947998047,42.93911895751953,-14.940119552612304,1.6887548136880635e+18,15.345063671875,-233.75931396484376,136.2569152832031,-146.94411926269532,1.688754813698603e+18,15.355603190104167,-0.1486368030309677,0.011560196056962,-0.7429003914197286,0.6522968610127767,-2.038997252782186,1.3369205792744954,2.267643928527832
0.4,1.6887548137418578e+18,15.398857910156252,0.1781560579935709,1.9479128519694011,-1.389764428138733,1.6887548137505016e+18,15.407501627604168,-0.9100702404975892,-7.720641771952312,0.6773682236671448,1.6887548137418578e+18,15.398857910156252,-1.3654582500457764,-9.51904582977295,1.93644920984904,1.6887548137418578e+18,15.398857910156252,0.2359976085523764,1.5701781908671062,-1.0000882347424824,1.6887548137461842e+18,15.403184407552082,0.1809179248909155,1.4315118392308552,-1.0270171960194905,,,,,,,,,,,,1.6887548137380634e+18,15.395063378906247,22.811559677124023,41.85087890625,-15.95515956878662,1.6887548137380634e+18,15.395063378906247,-231.7170379638672,135.1686767578125,-147.9591552734375,1.6887548137505016e+18,15.407501627604168,-0.1767322421073912,0.0536296814680099,-0.7544231216112772,0.6297701001167297,-2.1959827740987143,1.322115421295166,2.525814930597941
0.45,1.6887548137937572e+18,15.450757161458334,1.6325819889704387,-0.3079487482706706,-1.530754486719767,1.6887548137937695e+18,15.450769653320314,-0.5847460329532623,-9.823134899139404,0.5270191729068756,1.6887548137937572e+18,15.450757161458334,-1.948497970898946,-9.386216163635254,2.0714571475982666,1.6887548137937572e+18,15.450757161458334,-0.5033529500166575,-0.1131627907355626,-1.477021257082621,1.6887548137980897e+18,15.455089680989582,-0.5225443144639333,-0.2258165081342061,-1.4893403848012288,,,,,,,,,,,,1.6887548137880612e+18,15.445061181640623,24.497599792480468,40.16727905273437,-17.233719635009766,1.6887548137880612e+18,15.445061181640623,-230.03099670410157,133.48507690429688,-149.2377166748047,1.6887548137937695e+18,15.450769653320314,-0.1858477294445037,0.0607292260974645,-0.771133303642273,0.6058700680732727,-2.3155150413513184,1.2765214443206787,2.6698930263519287
0.5,1.6887548138456686e+18,15.502668701171876,4.9241414070129395,-1.53386656443278,-2.441718578338623,1.688754813837018e+18,15.494017822265626,2.835096001625061,-10.37647533416748,0.2560320248206456,1.6887548138456686e+18,15.502668701171876,-2.5573044617970786,-9.19339911142985,2.2723511854807534,1.6887548138456686e+18,15.502668701171876,-0.4807000557581584,0.3377066850662231,-0.861370877828449,1.688754813849992e+18,15.50699178059896,-0.4821762939294179,0.4803946216901143,-0.6996952344973882,1.6887548138240435e+18,15.48104345703125,0.0,0.0,6.114830017089844,60.277000427246094,0.0039359307847917,0.0,332.8999938964844,-122.9173609,49.2791975,1.6887548138380634e+18,15.495063330078125,27.47439956665039,37.751679229736325,-18.058439254760746,1.6887548138380634e+18,15.495063330078125,-227.0541961669922,131.06947631835936,-150.06244201660155,1.688754813837018e+18,15.494017822265626,-0.184494803349177,0.0538353671630223,-0.7899768551190695,0.5821772416432699,-2.4077181021372476,1.221835374832153,2.751671632130941
0.55,1.6887548138975767e+18,15.554576741536458,0.356118122736613,-6.885417620340983,-5.974225680033366,1.688754813888923e+18,15.545923095703126,-2.666402022043864,-15.210176467895508,-3.2558340231577554,1.6887548138975767e+18,15.554576741536458,-2.4913768768310547,-9.175052007039389,2.417219797770182,1.6887548138975767e+18,15.554576741536458,0.1166752551992734,-0.1926261683305104,0.1932370432962973,1.6887548138932495e+18,15.550249755859376,-0.0678823962807655,-0.0832303911447524,0.238466516137123,,,,,,,,,,,,1.688754813888065e+18,15.545065136718751,27.847719573974608,36.526799011230466,-19.617599868774413,1.688754813888065e+18,15.545065136718751,-226.68087463378907,129.84459838867187,-151.62160034179686,1.688754813888923e+18,15.545923095703126,-0.19905420144399,0.0555269805093605,-0.7899038791656494,0.5773546497027079,-2.3635485967000327,1.2060617208480835,2.731729586919149
0.6,1.68875481394948e+18,15.60647998046875,5.057102004686992,-5.424715995788574,-1.032652695973714,1.688754813940828e+18,15.597827880859375,3.4825538794199624,-15.764314333597818,0.0532402793566385,1.68875481394948e+18,15.60647998046875,-1.9339334964752195,-9.400059382120768,1.979935884475708,1.68875481394948e+18,15.60647998046875,1.2234612305959065,1.172912175456683,2.2831087907155356,1.6887548139364984e+18,15.59349845377604,1.0757846037546794,0.5026402672131857,1.3651310813923676,,,,,,,,,,,,1.688754813938064e+18,15.5950640625,27.359719467163085,37.6150390625,-18.59035987854004,1.688754813938064e+18,15.5950640625,-227.16887512207032,130.9328369140625,-150.5943572998047,1.688754813940828e+18,15.597827880859375,-0.1885750293731689,0.0679260517160097,-0.7774144609769186,0.5958713491757711,-2.365928332010905,1.2609744866689043,2.7351908683776855
0.65,1.688754813992735e+18,15.649734985351564,-3.434171438217163,-1.2253398895263672,1.700042486190796,1.6887548139927268e+18,15.64972696940104,-3.3341989517211914,-11.887941678365072,3.425923744837443,1.688754813992735e+18,15.649734985351564,-0.4597121998667716,-9.67620325088501,1.5187273025512695,1.688754813992735e+18,15.649734985351564,1.2945761680603027,0.4544073697179556,3.4455853700637817,1.6887548139884122e+18,15.645412109375002,1.2953906456629436,0.7478517492612203,3.514460563659668,,,,,,,,,,,,1.6887548139880604e+18,15.6450603515625,20.06899948120117,41.98263931274414,-17.40452003479004,1.6887548139880604e+18,15.6450603515625,-234.4595916748047,135.3004364013672,-149.40851440429688,1.6887548139927268e+18,15.64972696940104,-0.1970497667789458,0.0949787745873133,-0.7169708808263143,0.6614070932070414,-1.8176815509796145,1.401073654492696,2.235234459241231
0.7,1.6887548140359877e+18,15.692987792968747,-3.08087690671285,-6.129737854003906,4.809678395589192,1.6887548140446385e+18,15.701638671875,-1.8105690876642864,-16.288142840067547,6.84546693166097,1.6887548140359877e+18,15.692987792968747,1.01181960105896,-9.684270858764648,1.0672181844711304,1.6887548140359877e+18,15.692987792968747,1.028289834658305,-0.1311833163102467,3.744094928105672,1.6887548140403162e+18,15.69731624348958,0.9607383012771606,-0.0593557407458623,3.768631299336751,,,,,,,,,,,,1.688754814038061e+18,15.695061083984376,12.597719764709472,45.6426383972168,-14.69367961883545,1.688754814038061e+18,15.695061083984376,-241.93087463378907,138.96044006347657,-146.6976745605469,1.6887548140446385e+18,15.701638671875,-0.1850795298814772,0.0941250498096147,-0.6502068837483724,0.7303144733111063,-0.6975358227888743,1.3938290278116865,1.0966408451398213
0.75,1.688754814087894e+18,15.74489396158854,-3.526793599128723,-4.6280059814453125,8.600664774576822,1.6887548140965394e+18,15.753539306640626,-0.0540379186471302,-12.833505312601725,8.66700299580892,1.688754814087894e+18,15.74489396158854,2.675084908803304,-9.371843973795572,1.0457249879837036,1.688754814087894e+18,15.74489396158854,0.0352774697045484,-2.25663803021113,3.1683035691579184,1.6887548140922191e+18,15.749219075520834,0.0081448704004288,-2.5098416407903037,3.1030936241149902,,,,,,,,,,,,1.6887548140880596e+18,15.74505966796875,4.838519954681397,47.60439834594727,-13.844559669494627,1.6887548140880596e+18,15.74505966796875,-249.69007568359376,140.9221984863281,-145.8485565185547,1.6887548140965394e+18,15.753539306640626,-0.1664392401774724,0.051816901192069,-0.5906342466672262,0.7872957984606425,-0.3734069367249806,1.247332016626994,0.6874363621075948
0.8,1.6887548141397993e+18,15.79679931640625,-1.8605461120605469,-0.0074591636657714,-0.8884970744450887,1.6887548141484506e+18,15.805450602213542,0.5280162493387858,-8.211369514465332,-0.2512463728586833,1.6887548141397993e+18,15.79679931640625,3.932667016983032,-8.885907491048178,1.2874250809351604,1.6887548141397993e+18,15.79679931640625,0.5977825274070104,-0.9654725243647894,2.913012663523356,1.6887548141441272e+18,15.80112744140625,0.699695219596227,-0.7190393184622129,2.89590851465861,,,,,,,,,,,,1.6887548141380634e+18,15.795063427734371,-0.017080008983612,48.08019866943359,-12.507439613342283,1.6887548141380634e+18,15.795063427734371,-254.54567260742184,141.397998046875,-144.51143493652344,1.6887548141484506e+18,15.805450602213542,-0.1334711263577143,0.0093951821327209,-0.5367688139279684,0.8327909310658773,-0.2967848281065622,1.1121556758880615,0.5046382347742716
0.85,1.6887548141917048e+18,15.848704833984376,-10.731300036112469,7.755871931711833,-2.640807310740153,1.6887548142003558e+18,15.85735595703125,-4.824728031953176,0.7280163367589315,-1.2919248342514038,1.6887548141917048e+18,15.848704833984376,5.056657950083415,-8.3146390914917,1.1805120706558228,1.6887548141917048e+18,15.848704833984376,0.5430083125829697,-2.333352565765381,2.836400032043457,1.6887548141960315e+18,15.853031331380208,0.3900374472141266,-2.569604674975077,2.8376217683156333,,,,,,,,,,,,1.6887548141880635e+18,15.84506337890625,-6.451359844207763,48.20219955444336,-10.477359771728516,1.6887548141880635e+18,15.84506337890625,-260.9799560546875,141.5199951171875,-142.48135986328126,1.6887548142003558e+18,15.85735595703125,-0.0961747417847315,-0.0225943276503433,-0.4817659954229991,0.8702102104822794,-0.2422373642524082,0.9880170226097108,0.3507073322931925
0.9,1.6887548142436104e+18,15.900610270182291,-5.304200172424316,8.689367294311523,-0.4824304183324178,1.68875481424361e+18,15.90060986328125,0.1752742528915405,0.9643075466156006,1.8586249947547913,1.6887548142436104e+18,15.900610270182291,5.738035360972087,-7.689011096954346,2.0327049096425376,1.6887548142436104e+18,15.900610270182291,-0.1161152993639309,-2.4504859844843545,1.1687888577580452,1.6887548142479373e+18,15.904937255859377,-0.0332921507457891,-2.3181318044662476,0.8883507798115412,,,,,,,,,,,,1.6887548142380618e+18,15.89506171875,-10.850679588317872,47.526318359375,-11.448479652404783,1.6887548142380618e+18,15.89506171875,-265.3792785644531,140.8441162109375,-143.45247802734374,1.68875481424361e+18,15.90060986328125,-0.0704080909490584,-0.0834172628819941,-0.4454844444990157,0.8885354101657867,-0.3438388556241989,0.894700437784195,0.3243055492639541
0.95,1.6887548142955128e+18,15.9525126953125,-2.004955609639486,6.294094403584798,0.9757033189137776,1.6887548142868652e+18,15.943864990234376,2.768894592920939,-1.2823535005251567,3.280559857686361,1.6887548142955128e+18,15.9525126953125,5.288044293721517,-7.938604672749837,2.266894976298014,1.6887548142955128e+18,15.9525126953125,1.0405580202738445,-0.5482515754799048,-1.9822068214416504,1.6887548142998423e+18,15.956842122395832,1.109382192293803,-0.4109595992291968,-2.2017109791437783,,,,,,,,,,,,1.6887548142880635e+18,15.945063427734372,-10.355359745025634,47.931359100341794,-12.866119956970214,1.6887548142880635e+18,15.945063427734372,-264.8839477539062,141.24915466308593,-144.8701171875,1.6887548142868652e+18,15.943864990234376,-0.0492088831961154,-0.1089199682076771,-0.4591368436813354,0.8801625569661459,-0.4038837949434915,0.9234581192334492,0.3148199617862701
1.0,1.6887548143474145e+18,16.004414225260415,8.640353520711264,-1.6475292841593423,-0.1124921242396037,1.6887548143387697e+18,15.99576944986979,9.95374313990275,-6.636493603388469,1.7411772807439168,1.6887548143474145e+18,16.004414225260415,4.0696587562561035,-8.725998242696127,1.8440229098002117,1.6887548143474145e+18,16.004414225260415,0.7504988710085551,0.0450004066030184,-2.608139991760254,1.6887548143430963e+18,16.000096435546876,1.0421361029148102,-0.2409099787473678,-3.2037590742111206,1.6887548143430897e+18,16.000089599609375,0.0,0.0,12.816483497619627,59.108001708984375,0.0052587655372917,0.0,332.8999938964844,-122.917372,49.2792027,1.688754814338064e+18,15.995063671874998,-3.999160039424896,49.22699890136719,-10.753079605102538,1.688754814338064e+18,15.995063671874998,-258.5277587890625,142.5447967529297,-142.7570770263672,1.6887548143387697e+18,15.99576944986979,-0.0287221974382797,-0.0978461131453513,-0.5224579175313314,0.846233050028483,-0.4240869581699371,1.073911468187968,0.3231733043988545
1.05,1.6887548143993265e+18,16.056326416015626,4.4100258350372314,-13.317456404368082,2.4615694681803384,1.6887548143906808e+18,16.047680908203123,10.88415273030599,-26.230520566304524,4.928616364796956,1.6887548143993265e+18,16.056326416015626,4.060104131698608,-8.660662333170572,2.1644790967305503,1.6887548143993265e+18,16.056326416015626,0.0115046277642249,-2.898097515106201,1.8005253076553345,1.688754814386346e+18,16.043346028645832,-0.2289726535479227,-1.9136371811230977,1.2093096176783245,,,,,,,,,,,,1.6887548143880645e+18,16.045064257812502,0.6465999957174062,49.675958251953126,-10.29923973083496,1.6887548143880645e+18,16.045064257812502,-253.88199462890623,142.99375915527344,-142.30323791503906,1.6887548143906808e+18,16.047680908203123,-0.0144026344642043,-0.1170711939533551,-0.5321554938952128,0.8379745682080587,-0.4808533887068431,1.0955188274383545,0.3311226069927215
1.1,1.6887548144425876e+18,16.099587646484373,-0.3567140102386474,4.657564163208008,8.223250389099121,1.688754814442579e+18,16.09957902018229,0.8869395256042475,-5.324229796727498,10.378668944040934,1.6887548144425876e+18,16.099587646484373,4.1602418422698975,-8.560400485992432,2.373488664627075,1.6887548144425876e+18,16.099587646484373,0.3872122056782245,-0.3165809214115143,-0.9143125787377356,1.6887548144382556e+18,16.095255533854168,0.4078034609556198,-0.8434521953264872,-0.3888156811396281,,,,,,,,,,,,1.6887548144380593e+18,16.09505908203125,-1.2541599988937375,49.973638916015624,-9.818559837341308,1.6887548144380593e+18,16.09505908203125,-255.7827575683594,143.29143676757812,-141.82255859375,1.688754814442579e+18,16.09957902018229,0.0231089834123849,-0.1583963334560393,-0.5148312052090963,0.8421375354131063,-0.5255709489186605,1.0644363164901731,0.2596177657445271
1.15,1.6887548144858284e+18,16.142828450520835,-7.410120010375977,-2.1014889081319175,0.3741124471028645,1.6887548144944837e+18,16.151483561197917,-0.8853445053100586,-8.53699286778768,-0.6817549069722494,1.6887548144858284e+18,16.142828450520835,3.7586093743642177,-8.775328954060873,2.2571194966634116,1.6887548144858284e+18,16.142828450520835,-0.1041525229811668,1.3531174063682556,-0.7591527765616775,1.6887548144901578e+18,16.14715763346354,-0.0452040309707323,1.497637967268626,-0.6786713103453318,,,,,,,,,,,,1.6887548144880594e+18,16.1450591796875,1.0784799575805664,49.549078369140624,-9.430599975585938,1.6887548144880594e+18,16.1450591796875,-253.4501159667969,142.86687622070312,-141.43459777832032,1.6887548144944837e+18,16.151483561197917,0.0036180190121133,-0.1382215445240338,-0.5389304558436075,0.8308124542236328,-0.5351887345314026,1.1122037172317505,0.3287978967030843
1.2,1.6887548145377377e+18,16.194737548828126,-4.038517554601033,0.5006457964579264,-0.1911747455596923,1.6887548145463826e+18,16.203382649739584,-2.1752750972906747,-9.140383084615072,2.280359963575999,1.6887548145377377e+18,16.194737548828126,2.963677962621053,-9.187033335367838,1.654709418614705,1.6887548145377377e+18,16.194737548828126,0.3365867485602696,3.965635299682617,-3.8817430337270102,1.6887548145420634e+18,16.199063232421874,0.3212133000294367,4.245513439178467,-4.088572025299072,,,,,,,,,,,,1.6887548145380613e+18,16.19506123046875,5.9438399314880375,49.370957946777345,-9.162199783325196,1.6887548145380613e+18,16.19506123046875,-248.5847595214844,142.6887634277344,-141.16619873046875,1.6887548145463826e+18,16.203382649739584,-0.0444155614823102,-0.0641350572307904,-0.5981955130894979,0.7961081465085348,-0.5266616145769755,1.249521017074585,0.4980293611685435
1.25,1.6887548145954066e+18,16.25240641276042,-9.133994261423746,1.0853627522786458,0.033440093199412,1.688754814598286e+18,16.255285888671875,-8.593822638193766,-8.338987032572428,1.323430359363556,1.6887548145954066e+18,16.25240641276042,1.1066089868545532,-9.624990781148275,1.4498353799184165,1.6887548145896394e+18,16.246639404296875,-1.2264646987120311,4.421798944473267,-3.567758480707804,1.6887548145939674e+18,16.25096728515625,-1.397354284922282,4.04184091091156,-3.3488651116689048,,,,,,,,,,,,1.688754814588056e+18,16.245056054687502,13.25651969909668,47.07979888916016,-12.72703971862793,1.688754814588056e+18,16.245056054687502,-241.27207641601564,140.39759521484376,-144.7310363769531,1.688754814598286e+18,16.255285888671875,-0.1378375813364982,0.0247453401486078,-0.6685044368108114,0.7296882073084513,-0.9625927805900574,1.3832000494003296,1.1941043734550476
1.3,1.688754814650193e+18,16.30719287109375,0.4343918561935425,-1.315905253092448,-3.16748325030009,1.688754814650193e+18,16.30719287109375,0.4217349688212077,-10.918848355611166,-1.042672445376714,1.688754814650193e+18,16.30719287109375,-0.0185029345254103,-9.58543841044108,2.0621233781178794,1.688754814641542e+18,16.298542154947917,-0.980082392692566,-0.9780970811843872,-1.7292067209879558,1.6887548146458683e+18,16.302868489583332,-0.8116872062285742,-1.1593713263670604,-1.803121527036031,,,,,,,,,,,,1.6887548146380544e+18,16.295054443359373,17.59971981048584,44.46411972045898,-17.770519256591797,1.6887548146380544e+18,16.295054443359373,-236.9288757324219,137.78191833496095,-149.77451782226564,1.688754814650193e+18,16.30719287109375,-0.1637918502092361,0.0143462857231497,-0.7069015900293986,0.6876968145370483,-1.5688411792119343,1.3550957838694255,1.8229295015335083
1.35,1.6887548146934477e+18,16.350447631835937,4.214637517929077,0.3252139091491698,-1.202265381813049,1.6887548146934477e+18,16.350447631835937,3.255136042833328,-9.239286422729492,0.8961120843887329,1.6887548146934477e+18,16.350447631835937,-0.965347558259964,-9.546995639801024,2.0356900691986084,1.6887548146934474e+18,16.35044734700521,0.3719151355326175,1.1120292842388153,-2.11395001411438,1.6887548146977733e+18,16.3547734375,0.4225151240825653,1.4029029284914334,-1.9742146730422976,,,,,,,,,,,,1.6887548146880563e+18,16.345056298828126,23.43131980895996,42.13147964477539,-17.76075973510742,1.6887548146880563e+18,16.345056298828126,-231.09727783203124,135.44927368164062,-149.76475524902344,1.6887548146934477e+18,16.350447631835937,-0.1597110778093337,0.0211890670470893,-0.7402424812316895,0.652641773223877,-2.0049756169319153,1.3380242586135864,2.263281226158142
1.4,1.6887548147367032e+18,16.393703125,0.8353840311368307,1.8470733960469563,-1.0240440964698792,1.6887548147367032e+18,16.393703125,-0.5084748069445292,-7.693124294281006,0.9674979249636332,1.6887548147367032e+18,16.393703125,-1.3497048616409302,-9.522692998250326,1.9288546244303384,1.6887548147453553e+18,16.402355305989584,0.3035491208235422,1.787391742070516,-1.219796101252238,1.6887548147496804e+18,16.406680338541666,0.2477567649135986,1.682221094767253,-1.2241230408350627,,,,,,,,,,,,1.6887548147380554e+18,16.395055322265627,25.095399475097658,40.930998992919925,-19.30284004211426,1.6887548147380554e+18,16.395055322265627,-229.4331970214844,134.24879455566406,-151.3068389892578,1.6887548147367032e+18,16.393703125,-0.1849582443634668,0.0634854299326737,-0.7509260972340902,0.6305626233418783,-2.172468582789103,1.3279834191004436,2.528349002202352
1.45,1.6887548147886067e+18,16.445606608072918,1.316054085890452,0.7111156781514486,-1.5531190633773804,1.6887548147886067e+18,16.445606608072918,-0.523629367351532,-8.726025740305582,0.5266203681627909,1.6887548147886067e+18,16.445606608072918,-1.845529516537984,-9.419636726379396,2.0170520544052124,1.6887548147972588e+18,16.45425887044271,-0.5269730985164642,-0.0019853065411249,-1.2100731531778972,1.688754814792934e+18,16.449933959960937,-0.5140431076288223,0.1023199334740639,-1.249983012676239,,,,,,,,,,,,1.6887548147880576e+18,16.44505771484375,26.403239440917968,39.523118591308595,-21.125519943237304,1.6887548147880576e+18,16.44505771484375,-228.12535705566407,132.84091796875,-153.1295166015625,1.6887548147886067e+18,16.445606608072918,-0.2038412292798359,0.0870432083805401,-0.7653473416964213,0.6041741371154785,-2.303536574045817,1.288239161173503,2.722116231918335
1.5,1.6887548148405115e+18,16.49751147460938,4.650885979334514,-0.8460588455200195,-2.36866029103597,1.6887548148405115e+18,16.49751147460938,2.2532413005828857,-10.100104331970211,-0.0430708055694898,1.6887548148405115e+18,16.49751147460938,-2.4034907023111978,-9.23654079437256,2.262902021408081,1.6887548148491666e+18,16.506166829427084,-0.5852598150571188,0.162846490740776,-0.906269520521164,1.688754814836188e+18,16.49318806966146,-0.6141231854756674,-0.257734219233195,-1.1078041394551594,1.6887548148621432e+18,16.519143310546873,0.0,0.0,12.816483497619627,54.415000915527344,0.0188017860054969,0.0,332.8999938964844,-122.9173612,49.2792457,1.6887548148380562e+18,16.495056103515626,29.50691909790039,37.44179992675781,-21.92827911376953,1.6887548148380562e+18,16.495056103515626,-225.02167663574215,130.7595977783203,-153.93227844238282,1.6887548148405115e+18,16.49751147460938,-0.2056041657924652,0.0782346899310747,-0.7847296794255575,0.5794287522633871,-2.380549430847168,1.227391521135966,2.7908337116241455
1.55,1.688754814892425e+18,16.5494248046875,0.066218376159668,-4.964902877807617,-5.830588181813558,1.688754814892425e+18,16.5494248046875,-2.3852453231811523,-14.1477632522583,-3.2797621885935464,1.688754814892425e+18,16.5494248046875,-2.45730972290039,-9.165356000264486,2.488138437271118,1.6887548148924198e+18,16.54941979980469,-0.1682170145213604,0.3699552752077579,0.3100904822349548,1.6887548148880965e+18,16.545096354166667,-0.2214895536502202,0.5028948038816451,0.1465058475732803,,,,,,,,,,,,1.6887548148880566e+18,16.545056640625,30.102279663085938,36.49751968383789,-23.787559509277344,1.6887548148880566e+18,16.545056640625,-224.4263153076172,129.81531982421876,-155.79155883789062,1.688754814892425e+18,16.5494248046875,-0.2202594677607218,0.0799330150087674,-0.7864026228586832,0.571539839108785,-2.3454271952311196,1.2058286666870115,2.780557076136271
1.6,1.688754814944333e+18,16.6013330078125,4.006397247314453,-7.57135804494222,-2.82746414343516,1.688754814944333e+18,16.6013330078125,1.8596220016479492,-16.937395095825195,-0.745763103167216,1.688754814944333e+18,16.6013330078125,-2.152621308962504,-9.348532994588217,2.01901376247406,1.6887548149356818e+18,16.59268155924479,1.2096658945083618,-0.2594141165415446,0.9988155911366144,1.6887548149400013e+18,16.59700146484375,1.2892311016718547,-0.1211549441019694,1.2826643240017197,,,,,,,,,,,,1.6887548149380613e+18,16.595061181640624,29.88023910522461,37.693119049072266,-22.874999618530275,1.6887548149380613e+18,16.595061181640624,-224.6483581542969,131.01091613769532,-154.87899780273438,1.688754814944333e+18,16.6013330078125,-0.2040320684512455,0.0921649634838103,-0.775109072526296,0.590542217095693,-2.3808442751566568,1.2642333110173545,2.808000326156616
1.65,1.6887548149962414e+18,16.653241455078128,-1.0789869626363118,-1.8976707458496096,2.7917533715566,1.6887548149962414e+18,16.653241455078128,-1.5387843462328117,-11.58704408009847,4.339184522628784,1.6887548149962414e+18,16.653241455078128,-0.465643435716629,-9.671868642171225,1.4847437540690105,1.6887548149875848e+18,16.6445849609375,1.041372537612915,0.924290011326472,3.6626461346944175,1.688754814991914e+18,16.6489140625,0.9663379391034445,0.8581638435522715,3.683008352915446,,,,,,,,,,,,1.6887548149880635e+18,16.64506337890625,23.73875961303711,43.23435974121094,-21.45491943359375,1.6887548149880635e+18,16.64506337890625,-230.7898376464844,136.55216064453126,-153.45891418457032,1.6887548149962414e+18,16.653241455078128,-0.2100768933693567,0.1120111470421155,-0.7145649989446005,0.6572784980138143,-1.8283530076344807,1.4032621781031291,2.2895644903182983
1.7,1.688754815048144e+18,16.70514404296875,-3.978370428085327,-7.353371620178223,6.974664211273193,1.688754815048144e+18,16.70514404296875,-2.5505495071411133,-17.00579071044922,8.074380874633789,1.688754815048144e+18,16.70514404296875,1.4219748576482136,-9.634915351867674,1.0370290875434875,1.688754815039493e+18,16.69649308268229,1.0846930344899497,0.443742702404658,3.8135299682617183,1.6887548150438195e+18,16.700819417317707,1.1220576365788777,0.4053599933783213,3.820045789082845,,,,,,,,,,,,1.6887548150380626e+18,16.695062451171875,14.803479766845705,48.51695938110352,-20.02263984680176,1.6887548150380626e+18,16.695062451171875,-239.7251159667969,141.83475646972656,-152.0266357421875,1.688754815048144e+18,16.70514404296875,-0.2127423932154973,0.1146830742557843,-0.643092691898346,0.7260964314142863,-0.6774731377760569,1.3828627268473308,1.146933913230896
1.75,1.6887548151000422e+18,16.757042154947914,-3.1370347340901694,-2.6763792037963867,6.103031476338704,1.6887548151000422e+18,16.757042154947914,-0.2342972258726755,-11.998808860778809,7.235297520955403,1.6887548151000422e+18,16.757042154947914,2.896891434987386,-9.304924964904783,1.0695782899856567,1.6887548150913974e+18,16.748397379557293,0.1143336041520039,-2.397137006123861,2.8961121241251626,1.688754815095714e+18,16.752714192708336,0.0353792781631151,-2.6558384895324707,2.807129383087158,,,,,,,,,,,,1.68875481508806e+18,16.7450599609375,4.596959829330444,51.72067947387696,-17.838839721679687,1.68875481508806e+18,16.7450599609375,-249.93163452148437,145.0384765625,-149.84283752441405,1.6887548151000422e+18,16.757042154947914,-0.1909719655911127,0.0735752669473488,-0.5881661574045817,0.7818992932637533,-0.3553096155325572,1.2489832242329917,0.7366678714752197
1.8,1.6887548151433034e+18,16.80030334472656,-0.2062985897064209,-1.535614013671875,-1.943894386291504,1.6887548151433034e+18,16.80030334472656,3.6652060747146606,-10.468299865722656,-0.5578267574310303,1.6887548151433034e+18,16.80030334472656,3.8656586408615112,-8.915181159973145,1.3233802318572998,1.6887548151433044e+18,16.800304524739584,0.6197736735145251,-1.1352421542008715,2.828713337580363,1.6887548151476303e+18,16.804630208333332,0.7332928453882536,-0.8386161724726359,2.824131806691488,,,,,,,,,,,,1.6887548151380593e+18,16.795059228515626,-1.7909600228071212,52.66495895385742,-15.881959342956543,1.6887548151380593e+18,16.795059228515626,-256.3195556640625,145.98275756835938,-147.88595581054688,1.6887548151433034e+18,16.80030334472656,-0.1618384569883346,0.0254467967897653,-0.5493707358837128,0.8192497789859772,-0.3335750997066498,1.139580488204956,0.6055528521537781
1.85,1.688754815186555e+18,16.8435546875,-9.761409918467203,5.263472398122151,-2.077316919962565,1.688754815186555e+18,16.8435546875,-5.005585551261902,-3.277170059581598,-1.032702386379242,1.688754815186555e+18,16.8435546875,4.749978224436442,-8.523138046264648,0.9819271564483644,1.6887548151952044e+18,16.852204101562503,0.8498153686523438,-2.1209750374158225,2.272571404774984,1.6887548151995338e+18,16.856533691406252,0.7208209708333015,-2.4755313992500305,2.2862141132354736,,,,,,,,,,,,1.6887548151880617e+18,16.84506181640625,-8.732759761810303,52.76743850708008,-13.244319725036622,1.6887548151880617e+18,16.84506181640625,-263.2613525390625,146.08523864746093,-145.24831848144532,1.688754815186555e+18,16.8435546875,-0.1365175644556681,0.0219622137956321,-0.5066327552000681,0.8507392605145773,-0.2063483546177545,1.051875392595927,0.4386995633443196
1.9,1.6887548152384635e+18,16.895463623046876,-6.52824592590332,9.849854787190756,-1.8156578143437705,1.6887548152384635e+18,16.895463623046876,-1.0646066963672638,1.8516459465026855,-0.120438794294993,1.6887548152384635e+18,16.895463623046876,5.457793076833089,-7.980704625447591,1.6325315634409587,1.688754815247115e+18,16.904115071614584,-0.1603521245221296,-2.450435002644857,1.3806572556495669,1.68875481524279e+18,16.899790039062502,-0.2621375620365143,-2.540053963661194,1.6668221950531004,,,,,,,,,,,,1.6887548152380613e+18,16.895061230468748,-12.910039710998536,51.9768783569336,-13.341919708251954,1.6887548152380613e+18,16.895061230468748,-267.4386291503906,145.294677734375,-145.34591674804688,1.6887548152384635e+18,16.895463623046876,-0.094646967947483,-0.045003339027365,-0.467849850654602,0.8773006200790405,-0.2913649181524911,0.9489145874977112,0.3649989565213521
1.95,1.688754815290365e+18,16.947364583333336,-3.113654136657715,6.392701307932536,0.2893802324930827,1.688754815290365e+18,16.947364583333336,2.2372891505559287,-1.5802599589029949,2.4323042233784995,1.688754815290365e+18,16.947364583333336,5.3450972239176435,-7.955456892649333,2.0802365938822427,1.6887548152990198e+18,16.956019856770833,1.055880586306254,-0.649349756538868,-1.552157700061798,1.688754815286043e+18,16.94304305013021,0.6705773174762726,-1.1426234145959218,-0.8540405109524727,,,,,,,,,,,,1.6887548152880635e+18,16.945063769531252,-13.019839668273926,52.10619888305664,-14.48627986907959,1.6887548152880635e+18,16.945063769531252,-267.5484375,145.4239959716797,-146.4902770996094,1.688754815290365e+18,16.947364583333336,-0.0704038428763548,-0.0842578709125518,-0.4690254827340444,0.8762362400690714,-0.3732006947199504,0.9445510109265646,0.3526512483755747
2.0,1.6887548153422748e+18,16.999274902343753,4.40588919321696,2.807149887084961,0.5918296178181967,1.6887548153422748e+18,16.999274902343753,8.69372304280599,-5.886343638102214,2.20737890402476,1.6887548153422748e+18,16.999274902343753,4.28198782602946,-8.675988833109537,1.5528618892033894,1.688754815342274e+18,16.999274169921875,1.5460235476493835,-0.1004873514175415,-3.226895570755005,1.68875481533795e+18,16.994949869791668,1.4867441654205322,-0.0920879393815994,-3.0170634587605796,,,,,,,,,,,,1.6887548153380644e+18,16.995064453125003,-6.422079992294312,54.13139877319336,-11.267919731140136,1.6887548153380644e+18,16.995064453125003,-260.9506774902344,147.44920043945314,-143.27191772460938,1.6887548153422748e+18,16.999274902343753,-0.042762010047833,-0.0679570908347765,-0.5258363684018453,0.8464502890904745,-0.3504244784514109,1.0862290064493816,0.3137306074301402
2.05,1.688754815394176e+18,17.051176188151043,7.307625850041707,-17.220706303914387,1.6814138889312744,1.688754815394176e+18,17.051176188151043,11.125628312428791,-26.097718556722004,3.5076785882314048,1.688754815394176e+18,17.051176188151043,3.812156200408935,-8.85950756072998,1.7635773022969563,1.6887548153855252e+18,17.04252530924479,-0.1864157045880953,-2.528676768143972,0.5691227912902833,1.6887548153898555e+18,17.046855387369792,-0.2154317970077197,-2.748842775821686,0.9932159980138144,1.6887548153812052e+18,17.038205322265625,0.0,0.0,13.8883638381958,49.72600173950195,0.0271412041038274,0.0,332.8999938964844,-122.9173558,49.2792696,1.6887548153880568e+18,17.0450568359375,-0.8344799876213074,55.03907928466797,-10.055239868164062,1.6887548153880568e+18,17.0450568359375,-255.36307678222656,148.35687561035155,-142.05923461914062,1.688754815394176e+18,17.051176188151043,-0.0150811521646877,-0.0986078307032584,-0.5433146953582764,0.8330217401186625,-0.4344710111618042,1.126976768175761,0.3130589326222737
2.1,1.6887548154460849e+18,17.103085123697916,-0.9455852508544922,0.315518856048584,7.778979221979777,1.6887548154460849e+18,17.103085123697916,3.207778135935465,-8.318448702494303,10.028120358784994,1.6887548154460849e+18,17.103085123697916,4.147517363230388,-8.61646302541097,2.186453421910604,1.688754815437434e+18,17.094434244791668,0.3688608010609944,-1.6295848414301872,0.5742133458455404,1.6887548154417605e+18,17.098760498046875,0.3062471002340317,-1.2366966406504314,0.2303471018870671,,,,,,,,,,,,1.688754815438063e+18,17.09506298828125,-4.589639949798584,54.9439193725586,-9.901519966125488,1.688754815438063e+18,17.09506298828125,-259.11823120117185,148.2617156982422,-141.905517578125,1.6887548154460849e+18,17.103085123697916,0.0269445249189932,-0.1495838165283202,-0.5160651405652364,0.8429255882898966,-0.4883078535397847,1.0718878110249836,0.2299606651067733
2.15,1.6887548154979904e+18,17.154990478515625,-7.053733189900716,2.436091899871826,-2.227937857309977,1.6887548154979904e+18,17.154990478515625,-3.1712875962257385,-6.35354216893514,-0.1090727647145589,1.6887548154979904e+18,17.154990478515625,3.876599550247192,-8.77212937672933,2.056177536646525,1.6887548154893332e+18,17.146333251953124,-0.0698422640562057,1.3014484246571858,-0.7669922423859438,1.6887548154936627e+18,17.15066276041667,-0.0153225362300873,1.419803539911906,-0.7935648709535599,,,,,,,,,,,,1.6887548154880635e+18,17.145063427734375,-4.128479862213135,54.81215972900391,-10.33339958190918,1.6887548154880635e+18,17.145063427734375,-258.657080078125,148.1299591064453,-142.33739318847657,1.6887548154979904e+18,17.154990478515625,0.0116621629955867,-0.1337856302658716,-0.5331781705220541,0.8351530432701111,-0.490043560663859,1.105938990910848,0.2782037854194641
2.2,1.6887548155498888e+18,17.206888997395833,-5.064486821492513,0.9155893325805664,0.4402755498886108,1.6887548155498888e+18,17.206888997395833,-2.2139591773351035,-8.377471288045248,1.8552351395289104,1.6887548155498888e+18,17.206888997395833,2.844681660334269,-9.275555928548178,1.3522721926371255,1.6887548155412406e+18,17.198240559895833,0.3937535434961319,3.6429458459218345,-3.4050137996673584,1.688754815545568e+18,17.202568033854167,0.3572543499370416,3.820911169052124,-3.5810957749684653,,,,,,,,,,,,1.6887548155380636e+18,17.195063525390623,-0.5075199604034424,54.9805191040039,-9.137799835205078,1.6887548155380636e+18,17.195063525390623,-255.03611755371097,148.2983154296875,-141.141796875,1.6887548155498888e+18,17.206888997395833,-0.0298420088365673,-0.0638464055955409,-0.5910686055819193,0.802437980969747,-0.4475934604803721,1.2420214811960857,0.3985145390033722
2.25,1.6887548155931525e+18,17.250152343750003,-6.850935459136963,3.126398801803589,-0.0088925957679748,1.6887548155931525e+18,17.250152343750003,-5.501099348068237,-6.52881646156311,1.259522020816803,1.6887548155931525e+18,17.250152343750003,1.3439902067184448,-9.637710571289062,1.205727219581604,1.6887548155931476e+18,17.250147623697917,-1.5913039843241374,4.65952730178833,-3.825340032577514,1.6887548155974766e+18,17.2544765625,-1.8005252877871196,4.518926620483398,-3.6512433687845864,,,,,,,,,,,,1.6887548155880556e+18,17.24505556640625,8.010519790649415,53.9215591430664,-10.499319648742675,1.6887548155880556e+18,17.24505556640625,-246.51807250976563,147.2393585205078,-142.5033203125,1.6887548155931525e+18,17.250152343750003,-0.106838222593069,0.0112193949753418,-0.6559796631336212,0.7465475797653198,-0.7413013279438019,1.3816459774971008,0.9092240631580352
2.3,1.688754815636405e+18,17.293404785156252,-7.168013523022334,-3.8898658752441406,-2.8275185426076255,1.688754815636405e+18,17.293404785156252,-6.708876674373944,-13.504891713460289,-0.8041878081858158,1.688754815636405e+18,17.293404785156252,0.453290785352389,-9.59752114613851,1.9606433312098184,1.6887548156450555e+18,17.302055501302082,-1.3145819703737895,-0.2802853782971701,-1.5270613034566245,1.6887548156493755e+18,17.30637556966146,-1.0879510144392648,-0.6903286774953207,-1.551495909690857,,,,,,,,,,,,1.6887548156380616e+18,17.295061474609376,13.205279922485351,51.24487838745117,-17.21907958984375,1.6887548156380616e+18,17.295061474609376,-241.3233184814453,144.56267700195312,-149.22307739257812,1.688754815636405e+18,17.293404785156252,-0.1755846440792083,0.029356775805354,-0.689102292060852,0.7022974093755087,-1.3261068264643352,1.3614724079767864,1.6185908317565918
2.35,1.6887548156883064e+18,17.345306396484375,5.9536019166310625,0.3066876729329428,-2.1194705168406167,1.6887548156883064e+18,17.345306396484375,5.393621603647868,-9.271190643310549,0.0496510863304138,1.6887548156883064e+18,17.345306396484375,-0.5658263017733892,-9.560373624165852,2.106434186299642,1.6887548156969608e+18,17.353960693359376,0.4821253915627797,0.6506223678588867,-2.047416647275289,1.6887548156926385e+18,17.349638427734376,0.501444011926651,0.3799582123756408,-2.218128025531769,,,,,,,,,,,,1.6887548156880614e+18,17.345061328125002,19.061279678344725,49.266038513183595,-18.568399810791018,1.6887548156880614e+18,17.345061328125002,-235.46731872558593,142.58383483886718,-150.57239990234376,1.6887548156883064e+18,17.345306396484375,-0.1658280938863754,0.0189036279916762,-0.726210335890452,0.666704018910726,-1.8235779603322344,1.3441474437713623,2.0872839291890464
2.4,1.688754815740214e+18,17.397214111328125,-0.1795440912246703,2.416832447052002,-1.0096711317698162,1.688754815740214e+18,17.397214111328125,-1.2989039023717246,-7.154938538869222,0.970488985379537,1.688754815740214e+18,17.397214111328125,-1.1252058347066245,-9.554266293843588,1.9174727201461792,1.688754815748864e+18,17.40586376953125,0.3798054655392964,1.5092952847480774,-1.05725500981013,1.688754815735891e+18,17.392891113281248,0.4822781284650166,1.890373428662618,-1.11711980899175,,,,,,,,,,,,1.6887548157380667e+18,17.395066650390625,21.74527969360351,47.89231796264649,-19.141799545288087,1.6887548157380667e+18,17.395066650390625,-232.78331909179687,141.21012268066406,-151.1457946777344,1.688754815740214e+18,17.397214111328125,-0.1869157205025354,0.063787568360567,-0.7431323528289795,0.6391749382019043,-2.092203458150228,1.342052658398946,2.4510364532470703
2.45,1.6887548157921208e+18,17.449120849609375,1.4233909447987874,0.6338129043579102,-0.7543853123982748,1.6887548157921208e+18,17.449120849609375,-0.2087737719217935,-8.860821723937988,1.2319048245747883,1.6887548157921208e+18,17.449120849609375,-1.6380107800165813,-9.477129936218262,1.9236027399698896,1.688754815792121e+18,17.449121337890624,-0.2788599804043769,0.1054506152868271,-1.397048830986023,1.6887548157877952e+18,17.444795084635416,-0.1962404524286588,0.2453642040491103,-1.3344860474268596,,,,,,,,,,,,1.6887548157880602e+18,17.445060205078125,23.25319976806641,47.223758697509766,-20.020199584960935,1.6887548157880602e+18,17.445060205078125,-231.27539672851563,140.54155883789062,-152.02419738769532,1.6887548157921208e+18,17.449120849609375,-0.200380469361941,0.0870463674267132,-0.7582804560661316,0.6141432325045267,-2.2659963766733804,1.310466726620992,2.6788938840230307
2.5,1.6887548158440202e+18,17.50102001953125,3.859112739562988,-0.8592138290405273,-2.0076250632603965,1.6887548158440202e+18,17.50102001953125,1.6352948745091755,-10.181659380594889,0.2131606042385101,1.6887548158440202e+18,17.50102001953125,-2.229663848876953,-9.304940859476725,2.158098300298055,1.6887548158353692e+18,17.49236922200521,-0.6404413183530172,-0.3805690507094065,-1.1315769751866658,1.6887548158396977e+18,17.496697672526043,-0.6425284345944723,-0.3502294023831684,-1.0995065371195476,,,,,,,,,,,,1.688754815838064e+18,17.495063671875,26.327599716186523,45.435238647460935,-20.683879470825197,1.688754815838064e+18,17.495063671875,-228.20099182128905,138.75303649902344,-152.68788146972656,1.6887548158440202e+18,17.50102001953125,-0.2018742362658182,0.0793281222383181,-0.7788525819778442,0.5884496966997782,-2.3662172158559165,1.2491499582926433,2.771880706151326
2.55,1.6887548158959311e+18,17.552931315104164,0.8914413849512736,-3.7029101053873696,-5.7067341804504395,1.6887548158959311e+18,17.552931315104164,-1.4991033921639123,-12.928021748860678,-3.254238804181417,1.6887548158959311e+18,17.552931315104164,-2.3963908354441323,-9.20760695139567,2.389807860056559,1.6887548158872804e+18,17.54428043619792,-0.4649702608585357,0.2463823159535726,-0.1049670130014419,1.6887548158916068e+18,17.54860693359375,-0.4079052582383156,0.2183843205372492,-0.0149662047624588,1.6887548159002417e+18,17.55724169921875,0.0,0.0,13.8883638381958,43.18899917602539,0.0365363843739032,0.0,332.8999938964844,-122.9173505,49.2792954,1.6887548158880591e+18,17.545059130859375,27.876999282836913,43.87119979858399,-22.03075942993164,1.6887548158880591e+18,17.545059130859375,-226.65159301757816,137.18899536132812,-154.03475646972657,1.6887548158959311e+18,17.552931315104164,-0.210567533969879,0.0741809432705243,-0.7849477926890055,0.577935000260671,-2.353060801823934,1.2183599869410198,2.7649973233540854
2.6,1.6887548159478372e+18,17.604836995442707,4.756579558054606,-6.856793721516927,-2.5276747147242227,1.6887548159478372e+18,17.604836995442707,2.440878465771675,-16.1798677444458,-0.4151547203461329,1.6887548159478372e+18,17.604836995442707,-2.321547031402588,-9.305569648742676,2.0498326222101846,1.688754815939186e+18,17.596186279296877,1.055167903502782,0.0907134811083476,0.1487456858158111,1.6887548159435123e+18,17.600512532552084,1.14552503824234,0.2150245731075604,0.3206024418274562,,,,,,,,,,,,1.6887548159380623e+18,17.5950623046875,27.959959411621092,44.349439239501955,-21.796519470214843,1.6887548159380623e+18,17.5950623046875,-226.56863403320312,137.6672393798828,-153.80051879882814,1.6887548159478372e+18,17.604836995442707,-0.2017290691534678,0.0895917912324269,-0.7809656858444214,0.5841324925422668,-2.414541323979696,1.248926083246867,2.8350284894307456
2.65,1.6887548159997386e+18,17.656738525390626,-0.9109418392181396,-2.7742993036905923,2.4907776514689126,1.6887548159997386e+18,17.656738525390626,-1.8366907636324563,-12.411770502726236,4.147359848022461,1.6887548159997386e+18,17.656738525390626,-0.9315950175126394,-9.619966506958008,1.5938947598139446,1.6887548159910904e+18,17.648090494791663,0.9791152079900106,0.7098763187726339,3.424306948979696,1.6887548159954145e+18,17.652414225260415,0.92887153228124,0.5615378618240356,3.554319461186727,,,,,,,,,,,,1.6887548159880635e+18,17.645063427734375,22.47971954345703,47.76299896240234,-19.773759841918945,1.6887548159880635e+18,17.645063427734375,-232.0488739013672,141.08079528808594,-151.7777557373047,1.6887548159997386e+18,17.656738525390626,-0.208535020550092,0.1103515823682148,-0.7312942743301392,0.6393676996231079,-2.0548420747121177,1.3758056958516438,2.512013037999471
2.7,1.6887548160429962e+18,17.699996337890624,-2.5218323469161987,-5.956667423248291,3.5880918502807617,1.6887548160429962e+18,17.699996337890624,-1.9178473949432373,-15.669997215270996,4.982455015182495,1.6887548160429962e+18,17.699996337890624,0.5981388986110687,-9.695825576782228,1.3316757678985596,1.6887548160429975e+18,17.699997477213543,0.6934338609377543,-0.1430951903263728,3.6790886720021567,1.68875481604732e+18,17.704320149739583,0.7142542004585266,-0.011759174366792,3.670841932296753,,,,,,,,,,,,1.6887548160380613e+18,17.69506123046875,11.533879566192628,51.45471878051758,-18.12431945800781,1.6887548160380613e+18,17.69506123046875,-242.99471435546872,144.77251586914062,-150.1283172607422,1.6887548160429962e+18,17.699996337890624,-0.2070915922522544,0.1026954390108585,-0.6771761476993561,0.6983872354030609,-1.1580304503440857,1.4168115258216858,1.6010535955429075
2.75,1.6887548160862515e+18,17.74325138346354,-1.1953149636586506,-5.425271034240723,6.568900426228841,1.6887548160862515e+18,17.74325138346354,0.896710306406021,-14.95374552408854,7.7320075035095215,1.6887548160862515e+18,17.74325138346354,2.0861792167027793,-9.51097011566162,1.1004192431767783,1.6887548160948982e+18,17.751898356119792,0.1442659978444378,-0.4867577950159709,3.3098206520080566,1.6887548160992284e+18,17.756228515625,0.0799724385142326,-0.6292930295070013,3.2222632567087808,,,,,,,,,,,,1.6887548160880596e+18,17.745059619140626,1.8690399676561356,53.34083862304688,-16.413879776000975,1.6887548160880596e+18,17.745059619140626,-252.65955810546876,146.65863647460938,-148.41787719726562,1.6887548160862515e+18,17.74325138346354,-0.2104655653238296,0.0983122761050859,-0.6190643906593323,0.7498045563697815,-0.5035365223884583,1.3254224061965942,0.9472311735153198
2.8,1.6887548161381568e+18,17.795156494140628,-2.1756115754445395,-2.826850255330404,1.5117904146512349,1.6887548161381568e+18,17.795156494140628,1.1320044994354248,-12.003395398457846,2.7543382048606873,1.6887548161381568e+18,17.795156494140628,3.301770051320394,-9.159040451049805,1.1798603932062786,1.688754816146806e+18,17.803805989583335,0.8954266558090845,-0.8784751569231352,1.9963076909383135,1.6887548161424778e+18,17.799477783203123,0.717384859919548,-1.1924853324890137,1.874363660812378,,,,,,,,,,,,1.6887548161380634e+18,17.79506337890625,-5.350919914245606,52.75035934448242,-15.930759620666503,1.6887548161380634e+18,17.79506337890625,-259.8795166015625,146.0681579589844,-147.93475952148438,1.6887548161381568e+18,17.795156494140628,-0.2022039045890171,0.069325178861618,-0.571167508761088,0.7923780679702759,-0.3465039630730946,1.203488866488139,0.7396024862925211
2.85,1.6887548161900572e+18,17.84705729166667,-11.521066506703695,4.431922594706218,-2.3561079502105713,1.6887548161900572e+18,17.84705729166667,-7.250850756963094,-4.3774696588516235,-1.5032908121744792,1.6887548161900572e+18,17.84705729166667,4.26436972618103,-8.791887601216635,0.7901297012964884,1.6887548161987126e+18,17.855712646484374,1.0178542236487071,-2.4104233980178833,3.1151073773701987,1.6887548161857372e+18,17.842737386067707,1.3259339133898418,-1.5052738059312103,2.6951375007629395,,,,,,,,,,,,1.688754816188061e+18,17.845060791015623,-10.274839878082275,52.18183822631836,-13.236999702453613,1.688754816188061e+18,17.845060791015623,-264.8034301757813,145.49963989257813,-145.24099731445312,1.6887548161900572e+18,17.84705729166667,-0.172147790590922,0.0606872464219728,-0.526886502901713,0.8296836415926615,-0.1852951695521672,1.1100834210713704,0.5250988801320394
2.9,1.688754816241968e+18,17.89896785481771,-6.543097813924153,10.035243034362791,-1.542336543401082,1.688754816241968e+18,17.89896785481771,-1.030907779932022,2.0271195570627847,-0.1096710264682769,1.688754816241968e+18,17.89896785481771,5.506344000498454,-7.99061918258667,1.3699781099955242,1.688754816250618e+18,17.90761808268229,-0.1000291840173303,-2.9027298291524253,2.476498564084371,1.6887548162376428e+18,17.894642903645835,0.0078394412994384,-3.151759147644043,3.1668272813161216,,,,,,,,,,,,1.6887548162380636e+18,17.895063671875,-17.084879875183105,50.232278442382814,-13.083279609680176,1.6887548162380636e+18,17.895063671875,-271.6134765625,143.55007934570312,-145.0872772216797,1.688754816241968e+18,17.89896785481771,-0.1304224704702694,-0.0105413474763433,-0.4662312467892964,0.8744573394457499,-0.2428012738625208,0.9499452511469524,0.4208886722723643
2.95,1.6887548162938737e+18,17.950873535156248,-2.394110997517904,6.668030579884847,1.3118325471878052,1.6887548162938737e+18,17.950873535156248,3.314657648404439,-1.0660025080045064,3.408177057902018,1.6887548162938737e+18,17.950873535156248,5.702922662099202,-7.71652873357137,2.033657113711039,1.6887548162938726e+18,17.95087255859375,0.5591707825660706,-1.432326316833496,-0.6603453233838081,1.688754816289549e+18,17.946548828125,0.4519893722608685,-1.6499470671017964,-0.34162637591362,,,,,,,,,,,,1.6887548162880591e+18,17.945059130859374,-19.93723945617676,48.58039855957031,-15.559879684448244,1.6887548162880591e+18,17.945059130859374,-274.4658264160156,141.898193359375,-147.56387939453126,1.6887548162938737e+18,17.950873535156248,-0.1048543031016985,-0.0645256315668423,-0.4520940879980723,0.8833556175231934,-0.3441315193970998,0.9031847914059956,0.4045527776082356
3.0,1.688754816345777e+18,18.00277685546875,1.106064001719157,4.2154520352681475,1.171220064163208,1.688754816345777e+18,18.00277685546875,5.795217037200928,-4.258426745732625,2.825923601786295,1.688754816345777e+18,18.00277685546875,4.6833070119222,-8.456374168395996,1.5920161406199138,1.6887548163371272e+18,17.99412711588542,1.6599754095077517,0.0685187131166458,-3.0090712706247964,1.688754816341452e+18,17.998452229817705,1.708997329076131,0.0919861247142155,-3.087618350982666,,,,,,,,,,,,1.6887548163380634e+18,17.995063330078125,-13.920199584960937,50.48115921020508,-13.349239921569824,1.6887548163380634e+18,17.995063330078125,-268.44879760742185,143.79895629882813,-145.35323791503907,1.688754816345777e+18,18.00277685546875,-0.0796773557861645,-0.0484542710085709,-0.5081005493799845,0.8558390935262045,-0.3286158144474029,1.0402555267016094,0.3743696510791778
3.05,1.688754816397683e+18,18.05468302408854,7.868397394816081,-14.472243309020996,-0.5929478804270426,1.688754816397683e+18,18.05468302408854,11.514063199361166,-23.49911340077718,0.8093722860018412,1.688754816397683e+18,18.05468302408854,3.639819780985514,-9.00936508178711,1.3396327495574951,1.6887548163890322e+18,18.0460322265625,0.4979060888290405,-1.5435037811597188,-1.4998777508735657,1.688754816393359e+18,18.050359130859377,0.3873903751373291,-1.7227418025334675,-1.1659890413284302,,,,,,,,,,,,1.688754816388061e+18,18.045060888671877,-5.668119812011719,52.32579956054688,-10.291919898986816,1.688754816388061e+18,18.045060888671877,-260.19671020507815,145.6435974121094,-142.2959197998047,1.688754816397683e+18,18.05468302408854,-0.0524052580197652,-0.0481942358116308,-0.5586408178011576,0.8262189825375875,-0.3569034934043884,1.163633147875468,0.3629943629105885
3.1,1.6887548164495877e+18,18.106587483723956,3.9021987915039062,-6.748918533325195,5.299133022626241,1.6887548164495877e+18,18.106587483723956,7.75075117746989,-15.647664388020834,6.969494859377543,1.6887548164495877e+18,18.106587483723956,3.8427063624064126,-8.88124148050944,1.6076744000116985,1.6887548164409364e+18,18.09793636067708,0.5373577972253164,-2.177174647649129,1.1122837861378987,1.688754816445264e+18,18.102264241536457,0.5765549838542938,-2.020131289958954,0.99112884948651,,,,,,,,,,,,1.6887548164380626e+18,18.095062646484376,-5.165479850769043,52.28431854248047,-10.418799781799317,1.6887548164380626e+18,18.095062646484376,-259.69407958984374,145.60211791992188,-142.42279968261718,1.6887548164495877e+18,18.106587483723956,-0.0140301961606988,-0.0899399345119793,-0.5442533493041992,0.833861251672109,-0.399934043486913,1.1320842504501345,0.2898581524689992
3.15,1.6887548164928443e+18,18.149844360351565,-12.029605865478516,4.250899314880371,5.719570219516754,1.6887548164928443e+18,18.149844360351565,-8.249256134033203,-4.6728835105896,7.415357351303101,1.6887548164928443e+18,18.149844360351565,3.774503827095032,-8.906278133392334,1.6330994367599487,1.688754816492839e+18,18.149838704427083,0.1392772694428761,0.3263547619183858,-0.2551889568567276,1.688754816497166e+18,18.154166015625,0.1336776812871297,0.4591161211331685,-0.3129157125949859,,,,,,,,,,,,1.688754816488057e+18,18.145057080078125,-5.699839878082275,52.01591873168945,-9.974720001220703,1.688754816488057e+18,18.145057080078125,-260.2284362792969,145.3337158203125,-141.9787170410156,1.6887548164928443e+18,18.149844360351565,-0.0076079135760664,-0.0960233025252819,-0.5461121797561646,0.8321466147899628,-0.411640390753746,1.1371610164642334,0.2835178077220917
3.2,1.6887548165360975e+18,18.193097493489585,-3.5634400049845376,5.564998308817546,-2.639821946620941,1.6887548165360975e+18,18.193097493489585,-0.1878365526596705,-3.568695624669392,-1.2959129214286804,1.6887548165360975e+18,18.193097493489585,3.3697574138641357,-9.116189320882162,1.2812216679255168,1.6887548165447455e+18,18.201745605468748,0.3443752874930699,2.771241108576457,-2.7367780605951944,1.6887548165490747e+18,18.20607470703125,0.2813034405310948,3.067816138267517,-2.972113927205404,,,,,,,,,,,,1.6887548165380623e+18,18.195062255859376,-3.3476799726486206,51.99395904541016,-8.371639919281005,1.6887548165380623e+18,18.195062255859376,-257.87627563476565,145.31175842285157,-140.37563781738282,1.6887548165360975e+18,18.193097493489585,-0.0220553350324431,-0.0651219822466373,-0.5680090586344401,0.8197428385416666,-0.3645580609639485,1.191717227300008,0.3023852010567983
3.25,1.6887548165880033e+18,18.245003173828124,-8.349881490071615,0.6602684656778971,1.178025980790456,1.6887548165880033e+18,18.245003173828124,-6.543572425842285,-8.947561581929525,2.119442621866862,1.6887548165880033e+18,18.245003173828124,1.800463040669759,-9.590325355529789,0.878729244073232,1.6887548165966538e+18,18.253653645833335,-1.3965397675832112,3.883423089981079,-3.607821067174276,1.6887548165923292e+18,18.249329345703124,-1.1271990835666656,4.029954433441162,-3.7694203853607178,,,,,,,,,,,,1.6887548165880612e+18,18.245061230468753,3.591679972410202,51.66699905395508,-9.228079795837402,1.6887548165880612e+18,18.245061230468753,-250.93691711425785,144.98479919433595,-141.2320770263672,1.6887548165880033e+18,18.245003173828124,-0.0884355480472246,0.0153050512696305,-0.6366441448529562,0.76484348376592,-0.4759383300940196,1.3588987588882446,0.6235743959744772
3.3,1.688754816639911e+18,18.296911051432293,-4.541577021280925,-2.4033430417378745,-1.8652725617090864,1.688754816639911e+18,18.296911051432293,-4.13619335492452,-12.045270125071209,-0.0021934111913044,1.688754816639911e+18,18.296911051432293,0.3995377353082101,-9.624422709147137,1.8003917535146077,1.6887548166485517e+18,18.305551920572913,-2.1562016208966575,1.4116077323754628,-2.433025360107422,1.6887548166355804e+18,18.292580240885417,-2.6107362111409507,2.2928826808929443,-2.635272661844889,,,,,,,,,,,,1.6887548166380613e+18,18.29506123046875,10.257760047912598,49.21724014282226,-15.559879493713378,1.6887548166380613e+18,18.29506123046875,-244.27083435058591,142.5350372314453,-147.56387939453126,1.688754816639911e+18,18.296911051432293,-0.1800376325845718,0.0462832128008206,-0.688767691453298,0.7001736760139465,-1.2960548400878906,1.376103440920512,1.6191389163335164
3.35,1.68875481669181e+18,18.348810058593752,2.3703628381093345,-1.0302473704020183,-3.676251173019409,1.68875481669181e+18,18.348810058593752,1.7012968858083088,-10.587642033894856,-1.4466607371966045,1.68875481669181e+18,18.348810058593752,-0.6749119758605957,-9.5398899714152,2.166902939478556,1.6887548167004644e+18,18.35746435546875,0.5233078996340433,0.4826344450314839,-2.0082194805145264,1.6887548166874888e+18,18.34448876953125,0.1604030231634775,0.1932370389501253,-2.1408790747324624,,,,,,,,,,,,1.688754816688065e+18,18.34506489257813,14.988919830322263,46.6576789855957,-19.19547996520996,1.688754816688065e+18,18.34506489257813,-239.5396728515625,139.97547912597656,-151.19947509765626,1.68875481669181e+18,18.348810058593752,-0.2026963879664738,0.0565356773634751,-0.7267793615659078,0.6536294420560201,-1.8491371075312295,1.3371586402257285,2.22040057182312
3.4,1.6887548167437169e+18,18.40071671549479,1.5814680258433025,1.6683510144551594,-1.3087023099263508,1.6887548167437169e+18,18.40071671549479,0.1896311913927396,-7.87777026494344,0.614357203245163,1.6887548167437169e+18,18.40071671549479,-1.397682825724284,-9.528616587320965,1.8603720664978027,1.688754816743719e+18,18.400718750000003,0.7558693885803223,1.106735110282898,-1.3866641521453855,1.6887548167393946e+18,18.396394449869792,0.7349217732747396,1.0805697043736775,-1.422501524289449,,,,,,,,,,,,1.6887548167380562e+18,18.39505615234375,18.790439224243165,45.70119934082031,-18.741639709472658,1.6887548167380562e+18,18.39505615234375,-235.7381561279297,139.0189971923828,-150.74563293457032,1.6887548167437169e+18,18.40071671549479,-0.208161508043607,0.0977846557895342,-0.7477658987045288,0.6226821541786194,-2.1981918017069497,1.3335103193918865,2.6374818483988443
3.45,1.688754816795616e+18,18.45261604817708,2.4679234425226846,0.522273063659668,-0.3401658535003662,1.688754816795616e+18,18.45261604817708,0.6366902192433676,-8.969695091247559,1.477567990620931,1.688754816795616e+18,18.45261604817708,-1.8370792865753176,-9.47446346282959,1.7550464471181233,1.6887548167869734e+18,18.443973307291667,0.2325360390047232,1.161203940709432,-1.117068926493327,1.6887548167912988e+18,18.44829890950521,0.1529708405335744,1.1661417881647749,-1.1152363220850627,,,,,,,,,,,,1.6887548167880614e+18,18.445061376953124,20.65215950012207,44.88867950439453,-18.612319564819337,1.6887548167880614e+18,18.445061376953124,-233.87643127441407,138.20647583007812,-150.61631774902344,1.688754816795616e+18,18.45261604817708,-0.2242372334003448,0.1343287775913874,-0.757368246714274,0.5982586344083151,-2.3671768506368003,1.3114535411198935,2.884352366129557
3.5,1.6887548168475272e+18,18.504527180989584,1.187182029088338,-0.3947076797485351,-1.5098800659179688,1.6887548168475272e+18,18.504527180989584,-1.101296638449033,-9.736395517985024,0.5523432244857153,1.6887548168475272e+18,18.504527180989584,-2.2943247159322104,-9.324183146158854,1.9995359579722087,1.6887548168388774e+18,18.49587744140625,-0.574264238278071,0.1996511220932006,-1.062345544497172,1.6887548168432026e+18,18.500202392578124,-0.5979861815770467,0.0506509083012739,-1.091972529888153,,,,,,,,,,,,1.6887548168380593e+18,18.495059326171877,21.9624397277832,43.70527954101563,-20.37643966674805,1.6887548168380593e+18,18.495059326171877,-232.56615600585937,137.02307739257813,-152.38043823242188,1.6887548168475272e+18,18.504527180989584,-0.2397873699665069,0.1446973035732905,-0.7709219654401144,0.5719724893569946,-2.415916124979655,1.257614334424337,2.9736127853393555
3.55,1.6887548168994348e+18,18.55643489583333,3.4903527895609536,-2.314950625101725,-3.6735124588012695,1.6887548168994348e+18,18.55643489583333,0.7692925135294596,-11.493325233459473,-1.4031910796960194,1.6887548168994348e+18,18.55643489583333,-2.7269062995910645,-9.160869916280111,2.2076340516408286,1.688754816890781e+18,18.547781087239585,-0.5074763000011444,-0.0270816919704278,-0.6959791618088881,1.6887548168951132e+18,18.55211336263021,-0.4858924051125844,0.077834407488505,-0.5446372876564661,,,,,,,,,,,,1.6887548168880635e+18,18.54506328125,24.836759948730467,41.684959411621094,-21.09135971069336,1.6887548168880635e+18,18.54506328125,-229.69183349609375,135.00275573730468,-153.09535522460936,1.6887548168994348e+18,18.55643489583333,-0.2414039870103199,0.1394198983907699,-0.7865126132965088,0.5510544975598654,-2.455592075983683,1.2058685223261516,3.0103441874186196
3.6,1.6887548169426957e+18,18.599695678710937,-0.2150031328201294,-8.46775484085083,-5.725100040435791,1.6887548169426957e+18,18.599695678710937,-2.833700180053711,-17.683258056640625,-3.4863425493240356,1.6887548169426957e+18,18.599695678710937,-2.624543070793152,-9.197999477386476,2.1760700941085815,1.6887548169426834e+18,18.59968367513021,0.5768603881200155,-0.5338453104098638,0.4008803168932597,1.6887548169470157e+18,18.604015787760417,0.744135661671559,-0.5581272169947624,0.4265875617663064,1.6887548169383624e+18,18.5953623046875,0.0,0.0,17.146907806396484,37.354000091552734,0.0408816039562225,0.0,332.8999938964844,-122.9173494,49.2793056,1.688754816938063e+18,18.5950630859375,25.361359786987304,41.52147979736328,-21.415879440307616,1.688754816938063e+18,18.5950630859375,-229.167236328125,134.8392761230469,-153.41988220214844,1.6887548169426957e+18,18.599695678710937,-0.2407240942120552,0.1385615542531013,-0.7836377322673798,0.555634617805481,-2.44465708732605,1.2155601978302002,2.9966143369674683
3.65,1.688754816985938e+18,18.642937906901043,4.246133168538411,-6.0188414255778,0.7481404940287272,1.688754816985938e+18,18.642937906901043,2.0997018814086914,-15.467803637186686,2.38165619969368,1.688754816985938e+18,18.642937906901043,-2.152277191480001,-9.43145783742269,1.5708282788594563,1.688754816994598e+18,18.65159806315104,1.5864170392354329,1.0391326546669006,2.753220518430074,1.688754816998921e+18,18.655920979817708,1.5351043144861858,1.0927361051241558,3.0703614155451455,,,,,,,,,,,,1.6887548169880625e+18,18.64506245117187,23.094599151611327,44.01027908325195,-19.149119567871093,1.6887548169880625e+18,18.64506245117187,-231.43399353027343,137.328076171875,-151.1531188964844,1.688754816985938e+18,18.642937906901043,-0.2274850060542424,0.1592337290445963,-0.764234205087026,0.58163982629776,-2.500610589981079,1.2940679788589478,3.0601589679718018
3.7,1.688754817037849e+18,18.694849202473957,-1.8475688695907593,-1.6705904006958008,3.677703777949015,1.688754817037849e+18,18.694849202473957,-2.081556260585785,-11.418150901794434,4.846462885538737,1.688754817037849e+18,18.694849202473957,-0.2398334890604019,-9.730055809020996,1.1060717503229778,1.6887548170464965e+18,18.703496337890623,0.4973461180925369,0.4950553675492604,3.836081027984619,1.6887548170421755e+18,18.699175537109376,0.4138612151145935,0.4637230783700942,3.827910780906677,,,,,,,,,,,,1.688754817038064e+18,18.69506396484375,13.21991958618164,48.57795867919922,-17.25567970275879,1.688754817038064e+18,18.69506396484375,-241.30867614746097,141.8957550048828,-149.25967712402343,1.688754817037849e+18,18.694849202473957,-0.2439272254705429,0.1712911824385324,-0.6946024497350057,0.654176652431488,-1.731914798418681,1.442424774169922,2.3291946252187095
3.75,1.6887548170897492e+18,18.746749348958332,-3.140590190887451,-5.323812802632649,6.624404748280843,1.6887548170897492e+18,18.746749348958332,-1.525823215643565,-14.970096588134766,7.5242306391398115,1.6887548170897492e+18,18.746749348958332,1.608920931816101,-9.62877909342448,0.83713831504186,1.6887548170984018e+18,18.75540177408854,0.4278092831373214,0.0987056493759155,3.2096896171569824,1.6887548170854267e+18,18.74242667643229,0.6307183702786764,0.7242825428644816,3.5278995037078857,,,,,,,,,,,,1.6887548170880635e+18,18.745063427734372,3.6502399146556854,50.48847885131836,-16.09423961639404,1.6887548170880635e+18,18.745063427734372,-250.87835388183595,143.8062774658203,-148.09823913574218,1.6887548170897492e+18,18.746749348958332,-0.2619085411230723,0.1673980752627054,-0.6236819624900818,0.7167842984199524,-0.5173044999440511,1.3801902135213215,1.137207607428233
3.8,1.6887548171416596e+18,18.798659749348957,-1.9308648904164631,-3.277990976969401,2.9211279153823853,1.6887548171416596e+18,18.798659749348957,0.8691928386688232,-12.640883445739746,3.98345152537028,1.6887548171416596e+18,18.798659749348957,2.7942117849985757,-9.345387776692707,0.9996361335118612,1.688754817150304e+18,18.807303873697915,0.4854851557562749,-2.2059362133344016,2.53000017007192,1.6887548171373356e+18,18.794335367838546,0.1422807027896245,-2.6184229850769043,2.3616559902826944,,,,,,,,,,,,1.6887548171380628e+18,18.795062988281252,-2.8352798938751222,50.75443954467774,-15.554999732971192,1.6887548171380628e+18,18.795062988281252,-257.36387939453124,144.07223510742188,-147.55899963378906,1.6887548171416596e+18,18.798659749348957,-0.2445893386999765,0.1203968847791353,-0.5843846201896667,0.76386958360672,-0.3442487219969432,1.2606515884399414,0.8729038635889689
3.85,1.6887548171935652e+18,18.850565104166662,-9.181665738423666,3.336007277170817,-2.8063533306121826,1.6887548171935652e+18,18.850565104166662,-5.148955583572388,-5.583252906799316,-1.936989903450012,1.6887548171935652e+18,18.850565104166662,4.026864131291707,-8.901755650838217,0.8066760698954264,1.688754817193565e+18,18.85056494140625,1.1974486112594604,-1.6483435034751892,2.902220845222473,1.6887548171892416e+18,18.846241617838544,1.1278608640034993,-1.4566081563631694,2.975982745488485,,,,,,,,,,,,1.688754817188061e+18,18.84506088867187,-8.823039722442626,50.01999893188477,-13.595679664611817,1.688754817188061e+18,18.84506088867187,-263.3516357421875,143.33779602050782,-145.59967651367188,1.6887548171935652e+18,18.850565104166662,-0.2122598687807718,0.0888543849190076,-0.5337124665578207,0.813366969426473,-0.198859542608261,1.1346533298492432,0.6385652422904968
3.9,1.6887548172454666e+18,18.902466796875,-5.378824949264526,8.372194449106852,-1.6238393386205037,1.6887548172454666e+18,18.902466796875,-0.0703888734181722,0.2129611968994141,-0.2841476996739705,1.6887548172454666e+18,18.902466796875,5.3025898933410645,-8.1417285601298,1.2770041624704995,1.6887548172368197e+18,18.89381982421875,-0.0429132829109827,-2.844697634379069,3.350494066874186,1.688754817241145e+18,18.89814501953125,-0.1261945764223734,-2.7236953576405845,3.2411491870880127,,,,,,,,,,,,1.6887548172380616e+18,18.895061474609378,-15.496439933776855,48.01919860839844,-13.703039932250975,1.6887548172380616e+18,18.895061474609378,-270.02503662109376,141.33699645996094,-145.70703735351563,1.6887548172454666e+18,18.902466796875,-0.1763106534878412,0.0218659649059797,-0.4761101206143697,0.860818088054657,-0.2341806838909784,0.9756304423014324,0.5282746354738871
3.95,1.6887548172973722e+18,18.95437215169271,-3.532172203063965,6.798939387003581,1.99054483572642,1.6887548172973722e+18,18.95437215169271,2.133001963297526,-1.0350952049096425,3.813162247339884,1.6887548172973722e+18,18.95437215169271,5.659328142801921,-7.816530068715413,1.7599300543467205,1.6887548172887237e+18,18.945723876953124,0.284205046792825,-1.1527027388413746,0.2005673994620641,1.688754817293052e+18,18.95005192057292,0.3693698495626449,-0.9858855952819188,-0.0781398614247639,,,,,,,,,,,,1.6887548172880625e+18,18.9450623046875,-18.731879425048827,46.73331909179687,-15.6306396484375,1.6887548172880625e+18,18.9450623046875,-273.2604736328125,140.05111694335938,-147.63463745117187,1.6887548172973722e+18,18.95437215169271,-0.1590653906265894,-0.0199317174653211,-0.457823355992635,0.8744423588116964,-0.3017534911632538,0.9179888367652892,0.5098772446314493
4.0,1.688754817349281e+18,19.006281087239586,0.1807809670766193,5.310201009114583,1.0457894404729209,1.688754817349281e+18,19.006281087239586,5.0530431270599365,-3.1082765261332193,2.433700005213419,1.688754817349281e+18,19.006281087239586,4.866416136423747,-8.400973002115885,1.325223167737325,1.6887548173406305e+18,18.99763028971354,1.1886419455210369,0.6894123355547587,-2.586047132809957,1.688754817344954e+18,19.001954182942708,1.2539027333259585,0.7477499643961588,-2.7573439280192056,,,,,,,,,,,,1.688754817338064e+18,18.9950640625,-16.050319290161134,47.66052017211914,-14.332559776306152,1.688754817338064e+18,18.9950640625,-270.57891235351565,140.97831115722656,-146.33655700683593,1.688754817349281e+18,19.006281087239586,-0.147997960448265,0.0069169549581904,-0.5002278288205465,0.8527684211730957,-0.2652072409788767,1.026878257592519,0.4931277334690094
4.05,1.6887548173925358e+18,19.049535766601565,6.340076684951782,0.3640856742858886,-0.7274494171142578,1.6887548173925358e+18,19.049535766601565,10.017850875854492,-8.710472583770752,0.1474576964974402,1.6887548173925358e+18,19.049535766601565,3.671928286552429,-9.057053565979004,0.8122196793556213,1.6887548173925366e+18,19.049536539713543,0.7214318513870239,-0.6281731029351553,-2.6102271477381387,1.688754817396862e+18,19.053862141927084,0.529416561126709,-0.917214134397606,-2.12051689128081,,,,,,,,,,,,1.6887548173880591e+18,19.045059130859375,-8.884039783477784,49.92971954345703,-11.13859977722168,1.6887548173880591e+18,19.045059130859375,-263.4126342773437,143.24751892089844,-143.1425994873047,1.6887548173925358e+18,19.049535766601565,-0.1288837045431136,0.0361538343131542,-0.5575648844242096,0.8191628754138947,-0.2218068838119506,1.1756778955459597,0.4604376405477524
4.1,1.68875481743579e+18,19.09279020182292,7.113795280456543,-16.884213129679363,-1.0083506504694622,1.68875481743579e+18,19.09279020182292,10.808180491129557,-25.91247495015462,0.2251247329016526,1.68875481743579e+18,19.09279020182292,3.688539187113444,-9.010757446289062,1.1707879702250164,1.6887548174444408e+18,19.10144091796875,0.2567670245965321,-2.9128599961598716,1.7245234648386634,1.6887548174487675e+18,19.10576749674479,0.3870340486367543,-2.7207937637964883,1.5613715449968977,,,,,,,,,,,,1.6887548174380613e+18,19.095061328125,-5.804759979248047,50.04195938110352,-11.097119903564453,1.6887548174380613e+18,19.095061328125,-260.33335571289064,143.35975952148436,-143.1011199951172,1.68875481743579e+18,19.09279020182292,-0.105517104268074,-0.0017094832534591,-0.5579586823781332,0.8227188984553019,-0.3100959658622741,1.1639812390009563,0.4600663284460703
4.15,1.6887548174876987e+18,19.144698404947917,-8.50823720296224,-0.8732137680053711,10.39897616704305,1.6887548174876987e+18,19.144698404947917,-4.610570907592773,-9.810971577962238,11.683953603108725,1.6887548174876987e+18,19.144698404947917,3.8918205897013345,-8.920253117879232,1.2222899198532104,1.688754817496347e+18,19.153346923828124,0.1545488964766264,1.1065314809481304,-0.5700900057951609,1.6887548175006728e+18,19.1576728515625,0.0867428630590439,1.1755083401997883,-0.5581781069437662,,,,,,,,,,,,1.6887548174880658e+18,19.145065673828125,-7.50787992477417,49.56371917724609,-11.394799995422364,1.6887548174880658e+18,19.145065673828125,-262.036474609375,142.8815155029297,-143.39879760742187,1.6887548174876987e+18,19.144698404947917,-0.082827940583229,-0.0212415531277656,-0.5487558046976725,0.8314898411432902,-0.308085004488627,1.141419847806295,0.3972307344277699
4.2,1.6887548175396012e+18,19.196600830078125,-0.8293130397796631,5.139426231384277,-2.656712532043457,1.6887548175396012e+18,19.196600830078125,2.775474707285563,-3.9369908968607583,-1.5072789589564006,1.6887548175396012e+18,19.196600830078125,3.5989415645599365,-9.05891259511312,1.0867462158203125,1.688754817548252e+18,19.205251627604166,0.0826195230086644,1.1284717619419098,-1.708488295475642,1.6887548175439237e+18,19.200923828125,-0.0207694182172418,0.5532148480415344,-1.480355560779571,,,,,,,,,,,,1.688754817538063e+18,19.195063085937495,-6.65143985748291,49.07815856933594,-10.692079734802244,1.688754817538063e+18,19.195063085937495,-261.18003540039064,142.39595947265624,-142.69607849121093,1.6887548175396012e+18,19.196600830078125,-0.1008965770403543,0.0006317077204585,-0.5620102485020956,0.8208513657251993,-0.2967641353607178,1.1756318012873332,0.4433088004589081
4.25,1.688754817591506e+18,19.24850594075521,-6.786991516749064,0.5601482391357422,0.2111709117889404,1.688754817591506e+18,19.24850594075521,-4.425724824269612,-8.952147801717123,0.7684948891401291,1.688754817591506e+18,19.24850594075521,2.355420549710592,-9.494791348775228,0.4946365555127461,1.6887548176001536e+18,19.25715364583333,-0.1121955762306849,4.752837022145589,-3.7457238038380942,1.6887548175871816e+18,19.24418155924479,0.2469422742724418,4.502331415812175,-3.470478137334188,,,,,,,,,,,,1.6887548175880635e+18,19.245063427734372,-1.3517599523067474,49.385599517822264,-9.581879997253418,1.6887548175880635e+18,19.245063427734372,-255.88035583496097,142.70339660644532,-141.58587951660155,1.688754817591506e+18,19.24850594075521,-0.1461852937936782,0.0827964606384435,-0.6089234749476115,0.7738607923189799,-0.2038058390220005,1.3201467196146648,0.5317618151505789
4.3,1.688754817643402e+18,19.30040193684896,-5.932063897450765,1.1981178919474285,-0.5910658339659373,1.688754817643402e+18,19.30040193684896,-5.270191828409831,-8.569694836934408,0.2099701861540476,1.688754817643402e+18,19.30040193684896,0.6560260355472565,-9.7503080368042,0.7383486330509186,1.6887548176434117e+18,19.30041137695313,-2.2485949993133545,3.97780179977417,-2.782185673713684,1.688754817639086e+18,19.296086263020833,-1.9627100626627605,3.973576625188192,-2.9969558715820312,,,,,,,,,,,,1.6887548176380626e+18,19.2950625,4.860479879379272,47.82155914306641,-12.64163990020752,1.6887548176380626e+18,19.2950625,-249.668115234375,141.13935546875,-144.64563598632813,1.688754817643402e+18,19.30040193684896,-0.2299514412879943,0.1656470000743865,-0.660611629486084,0.6941221555074056,-0.8141260544459025,1.458375096321106,1.382346272468567
4.35,1.6887548176953157e+18,19.35231559244792,-0.2639174958070119,-3.051362673441569,-1.8290271361668904,1.6887548176953157e+18,19.35231559244792,-0.5064806938171387,-12.747563362121582,-0.2111666003863017,1.6887548176953157e+18,19.35231559244792,-0.2484092166026433,-9.678695996602375,1.55517315864563,1.688754817686666e+18,19.343665934244793,-1.3199270963668823,0.2673553576072058,-1.653255860010783,1.6887548176909926e+18,19.347992838541668,-1.1205814083417256,-0.1308778723080953,-1.673058072725932,,,,,,,,,,,,1.6887548176880612e+18,19.345061181640624,7.878759860992432,45.889078521728514,-18.07307968139649,1.6887548176880612e+18,19.345061181640624,-246.64983825683595,139.20688171386718,-150.07707824707032,1.6887548176953157e+18,19.35231559244792,-0.2818631629149118,0.180873264869054,-0.690658708413442,0.6407792170842489,-1.6840880314509077,1.4092522462209065,2.353057622909546
4.4,1.6887548177472225e+18,19.404222086588543,1.3864900867144268,1.4993963241577148,-0.8471944729487101,1.6887548177472225e+18,19.404222086588543,0.2817548811435699,-8.139186223347982,0.7680960496266683,1.6887548177472225e+18,19.404222086588543,-1.1105812191963196,-9.62107785542806,1.5526031255722046,1.6887548177385705e+18,19.39557039388021,0.2122247687851389,0.2253074546655019,-1.6085100173950195,1.6887548177428908e+18,19.399890787760416,0.2478076641758283,0.4601342578728993,-1.5305737654368083,,,,,,,,,,,,1.6887548177380613e+18,19.395061279296876,12.45131950378418,44.41043930053711,-18.678199768066406,1.6887548177380613e+18,19.395061279296876,-242.0772735595703,137.72823791503907,-150.68219604492188,1.6887548177472225e+18,19.404222086588543,-0.2723508477210998,0.1920730968316395,-0.7192514737447103,0.6094720164934794,-2.170823812484741,1.3774012724558513,2.843334674835205
4.45,1.6887548177991273e+18,19.45612727864583,1.8732355038324993,1.6754619280497234,-1.4053089221318562,1.6887548177991273e+18,19.45612727864583,0.25064817070961,-7.9005020459493,0.1387837082147598,1.6887548177991273e+18,19.45612727864583,-1.6284334262212117,-9.558459281921388,1.481405218442281,1.6887548177904812e+18,19.447481201171872,0.2618066668510436,1.145830472310384,-1.2459105650583904,1.688754817794803e+18,19.45180305989583,0.2249002245565255,1.0939069191614788,-1.2705997228622437,,,,,,,,,,,,1.6887548177880617e+18,19.445061669921877,14.156879806518557,43.53691940307617,-18.79775924682617,1.6887548177880617e+18,19.445061669921877,-240.37171630859376,136.85471801757814,-150.8017547607422,1.6887548177991273e+18,19.45612727864583,-0.2856660584608713,0.228119671344757,-0.7272933721542358,0.5807215571403503,-2.3899714946746826,1.3472200632095337,-1.050242265065511
4.5,1.6887548178423816e+18,19.49938146972656,1.956030249595642,-0.7303705215454102,-1.42883038520813,1.6887548178423816e+18,19.49938146972656,-0.1585244964808225,-10.193125247955322,0.2204387895762919,1.6887548178423816e+18,19.49938146972656,-2.1204007863998413,-9.445250034332275,1.5865817070007324,1.6887548178423836e+18,19.499383707682295,-0.418595403432846,0.216348111629486,-1.2480485836664836,1.6887548178467082e+18,19.503708414713543,-0.4508185386657715,0.1309287796417872,-1.225395679473877,,,,,,,,,,,,1.688754817838064e+18,19.495063916015624,16.32115993499756,42.490159606933595,-19.288199615478515,1.688754817838064e+18,19.495063916015624,-238.20743713378903,135.8079620361328,-151.2921936035156,1.6887548178423816e+18,19.49938146972656,-0.2926077395677566,0.2440844774246215,-0.7396195828914642,0.5547386109828949,-2.491480827331543,1.2996324300765991,-3.0055763721466064
4.55,1.6887548178856369e+18,19.542636881510415,3.994296153386434,-0.3987801869710286,-1.6443629662195842,1.6887548178856369e+18,19.542636881510415,1.407577931880951,-9.710273742675785,0.1810569067796071,1.6887548178856369e+18,19.542636881510415,-2.592564264933268,-9.293988863627115,1.7627325057983398,1.6887548178942874e+18,19.551287190755207,-0.5906049013137817,-0.0545706252257029,-0.9735155502955118,1.6887548178986135e+18,19.555613525390623,-0.6031276186307272,0.0748309915264447,-0.8530732939640681,,,,,,,,,,,,1.6887548178880614e+18,19.545061328125,18.514719772338868,40.4332389831543,-20.254439926147462,1.6887548178880614e+18,19.545061328125,-236.01387634277344,133.75103454589845,-152.25844116210936,1.6887548178856369e+18,19.542636881510415,-0.2910535136858621,0.2433547526597976,-0.7562849322954813,0.5329312682151794,-2.537649075190226,1.2463501691818235,-2.959614912668864
4.6,1.6887548179375409e+18,19.594540852864583,0.8770038286844889,-4.449938138326009,-4.715604384740193,1.6887548179375409e+18,19.594540852864583,-1.774876207113266,-13.687742869059244,-2.6153550942738852,1.6887548179375409e+18,19.594540852864583,-2.6577260494232178,-9.220300356547035,2.0375618934631348,1.688754817946189e+18,19.603189290364583,0.031357754021883,0.4066326518853505,0.2725477131704489,1.6887548179505152e+18,19.607515299479164,0.1636609782775243,0.3065016369024912,0.2571742708484332,,,,,,,,,,,,1.688754817938064e+18,19.595063916015626,18.992959594726564,39.33523864746094,-21.952679061889647,1.688754817938064e+18,19.595063916015626,-235.53563537597657,132.65303649902344,-153.95667724609376,1.6887548179375409e+18,19.594540852864583,-0.307156225045522,0.2458306550979614,-0.7582199573516846,0.5198918581008911,-2.4812822341918945,1.220938404401143,-2.985225518544515
4.65,1.6887548179894444e+18,19.64644425455729,3.9941599369049072,-5.490296999613444,-2.532894492149353,1.6887548179894444e+18,19.64644425455729,1.5876378218332927,-14.863616307576498,-0.7928219238917033,1.6887548179894444e+18,19.64644425455729,-2.4123682975769043,-9.355814615885416,1.6773852109909058,1.6887548179980943e+18,19.655094563802084,1.2608258326848347,0.6101525674263636,1.665880416830381,1.6887548179937684e+18,19.650768676757817,1.3264938592910769,0.3656792044639587,1.16797436773777,1.6887548179764726e+18,19.63347265625,0.0,0.0,17.146907806396484,31.00200080871582,0.0457421243190765,0.0,332.8999938964844,-122.9173491,49.2793149,1.688754817988057e+18,19.64505703125,17.8656795501709,39.58167953491211,-20.927879333496097,1.688754817988057e+18,19.64505703125,-236.66291198730468,132.89947509765625,-152.93187866210937,1.6887548179894444e+18,19.64644425455729,-0.304892083009084,0.2623498936494191,-0.7447021206219991,0.5323867996533712,-2.526766538619995,1.263274351755778,-2.9204482237497964
4.7,1.688754818041345e+18,19.698345052083337,0.0695185661315918,-3.628651618957519,2.700957695643107,1.688754818041345e+18,19.698345052083337,-0.6927222013473511,-13.337393760681152,3.9393837451934814,1.688754818041345e+18,19.698345052083337,-0.7680867811044055,-9.691237449645996,1.1757386525472004,1.6887548180499968e+18,19.706996988932293,0.8974119325478873,0.7416922003030777,3.965228160222371,1.688754818037027e+18,19.69402726236979,1.0803151726722715,1.0910053451855977,3.945375045140585,,,,,,,,,,,,1.6887548180380626e+18,19.69506240234375,11.619279956817628,42.38767929077149,-19.341879272460936,1.6887548180380626e+18,19.69506240234375,-242.90931396484376,135.70548095703126,-151.3458740234375,1.688754818041345e+18,19.698345052083337,-0.3302654127279917,0.27491029103597,-0.6811483303705851,0.5920090476671854,-2.063967704772949,1.4159756104151409,0.856999397277832
4.75,1.6887548180932498e+18,19.750249837239583,-3.0068357785542807,-5.6425526936848955,5.248053153355916,1.6887548180932498e+18,19.750249837239583,-1.8941185871760051,-15.356337865193684,6.17806879679362,1.6887548180932498e+18,19.750249837239583,1.1068711479504902,-9.696280797322592,0.8673282663027445,1.688754818093246e+18,19.75024597167969,0.6165921092033386,0.274202138185501,3.5264487266540527,1.6887548180889262e+18,19.74592618815104,0.5802201728026072,0.2513710508743921,3.550196091334025,,,,,,,,,,,,1.6887548180880538e+18,19.74505380859375,2.5546798944473266,43.473479461669925,-18.204840087890624,1.6887548180880538e+18,19.74505380859375,-251.9739196777344,136.79127807617186,-150.208837890625,1.6887548180932498e+18,19.750249837239583,-0.3529536724090576,0.2597352067629496,-0.6132332881291708,0.6567109227180481,-0.7420518894990286,1.419869303703308,1.641079306602478
4.8,1.6887548181451543e+18,19.802154541015625,-1.954848289489746,-5.161374409993489,6.141597270965576,1.6887548181451543e+18,19.802154541015625,0.6689932936181625,-14.586846033732096,7.076772928237915,1.6887548181451543e+18,19.802154541015625,2.617995580037435,-9.407967249552408,0.8724882205327352,1.688754818136503e+18,19.793502848307295,0.0719802975654602,-1.4680109719435377,2.913929065068563,1.6887548181408287e+18,19.797828694661455,0.0128281687696775,-1.676672359307607,2.776637077331543,,,,,,,,,,,,1.688754818138055e+18,19.795054833984373,-5.399719953536987,43.43443832397461,-17.855920028686523,1.688754818138055e+18,19.795054833984373,-259.9283142089844,136.75223693847656,-149.85991821289062,1.6887548181451543e+18,19.802154541015625,-0.3583609461784363,0.2204255014657973,-0.5632098913192749,0.7108403841654459,-0.3266864518324534,1.2840177615483603,1.1794473727544148
4.85,1.6887548181970573e+18,19.85405712890625,-4.576471328735352,-1.0531970659891765,-1.7590336799621582,1.6887548181970573e+18,19.85405712890625,-0.8803593317667643,-10.112467288970947,-0.8478568096955618,1.6887548181970573e+18,19.85405712890625,3.690265973409017,-9.041765530904136,0.848489503065745,1.6887548181884078e+18,19.845407796223956,0.8146397074063619,-0.9014843801657358,2.5027658144632974,1.688754818192735e+18,19.84973486328125,0.9132944345474244,-0.7764606177806854,2.581312815348307,,,,,,,,,,,,1.6887548181880558e+18,19.8450556640625,-8.976760005950927,42.68779983520508,-17.597279357910157,1.6887548181880558e+18,19.8450556640625,-263.50535888671874,136.00559997558594,-149.60127868652344,1.6887548181970573e+18,19.85405712890625,-0.345877081155777,0.1834796766440073,-0.5264526009559631,0.7544049024581909,-0.2318688482046126,1.1716294288635254,1.0156490206718445
4.9,1.688754818248964e+18,19.905963948567702,-10.053183555603027,9.287274678548178,-2.590140183766683,1.688754818248964e+18,19.905963948567702,-5.157529840866725,0.837288498878479,-1.539183219273885,1.688754818248964e+18,19.905963948567702,4.88980754216512,-8.43248176574707,0.9882695476214092,1.6887548182403123e+18,19.897312337239583,0.3698279956976573,-2.880993207295736,3.1152091026306152,1.688754818244641e+18,19.90164103190104,0.2132428785165151,-3.04740309715271,3.170136054356893,,,,,,,,,,,,1.688754818238056e+18,19.89505615234375,-13.5127197265625,41.75327911376953,-16.47243995666504,1.688754818238056e+18,19.89505615234375,-268.04131469726565,135.07107849121093,-148.4764404296875,1.688754818248964e+18,19.905963948567702,-0.320579042037328,0.1295670370260874,-0.4810916880766551,0.8048825860023499,-0.1953291048606236,1.032478888829549,0.8684282501538595
4.95,1.688754818292219e+18,19.94921899414063,-4.297764778137207,9.382128715515137,1.356883525848389,1.688754818292219e+18,19.94921899414063,1.4368900060653689,1.5990037322044373,3.175873875617981,1.688754818292219e+18,19.94921899414063,5.728808641433716,-7.765620946884155,1.7563029527664185,1.6887548182922191e+18,19.94921931966146,-0.2891428880393505,-1.979763348897298,1.7629571159680684,1.688754818296545e+18,19.95354500325521,-0.2227112824718157,-1.830814043680827,1.4522812714179356,,,,,,,,,,,,1.6887548182880558e+18,19.945055908203123,-16.645679664611816,39.430398559570314,-18.8392391204834,1.6887548182880558e+18,19.945055908203123,-271.1742736816406,132.74819641113282,-150.8432373046875,1.688754818292219e+18,19.94921899414063,-0.3087320327758788,0.0590566210448741,-0.4507449865341186,0.8354109823703766,-0.2970499545335769,0.9102709591388702,0.8540647029876709
5.0,1.6887548183354734e+18,19.992473388671876,-3.883981386820475,5.818789482116699,0.9052423636118572,1.6887548183354734e+18,19.992473388671876,1.724028746287028,-1.9958134790261584,2.972882668177286,1.6887548183354734e+18,19.992473388671876,5.602164109547933,-7.797098636627197,2.004952907562256,1.6887548183441244e+18,20.001124186197917,0.6913976470629374,-0.2314670284589131,-1.333722472190857,1.68875481834845e+18,20.005450195312505,0.7776314616203308,-0.1085303847988446,-1.4922929406166077,,,,,,,,,,,,1.6887548183380567e+18,19.995056884765624,-15.859999465942384,39.191279602050784,-19.69567985534668,1.6887548183380567e+18,19.995056884765624,-270.3885925292969,132.5090789794922,-151.69967651367188,1.6887548183354734e+18,19.992473388671876,-0.2989721794923146,0.0418191216886043,-0.4596627751986186,0.8351534406344095,-0.3431578973929087,0.9154857198397318,0.8578860958417257
5.05,1.6887548183873774e+18,20.04437744140625,3.3433376948038735,0.7389996846516927,1.2472519079844158,1.6887548183873774e+18,20.04437744140625,8.155537128448486,-7.6767730712890625,2.8817560275395713,1.6887548183873774e+18,20.04437744140625,4.806353410085042,-8.398268063863119,1.5718167225519817,1.6887548183960292e+18,20.053029215494792,1.1308642824490864,-0.0411315957705179,-2.227367361386617,1.6887548184003584e+18,20.057358317057293,1.0730865796407063,-0.2331469208002091,-2.1412353515625,,,,,,,,,,,,1.6887548183880563e+18,20.04505634765625,-11.35576000213623,40.686998748779295,-18.04867935180664,1.6887548183880563e+18,20.04505634765625,-265.8843566894531,134.00479431152343,-150.05267639160155,1.6887548183873774e+18,20.04437744140625,-0.2804707288742065,0.0725166288514931,-0.4981037080287933,0.8170786499977112,-0.314756155014038,1.0254358649253843,0.839165985584259
5.1,1.688754818439298e+18,20.096298177083337,7.794706026713054,-7.67829958597819,-0.7508838971455892,1.688754818439298e+18,20.096298177083337,11.935798009236654,-16.45803387959798,0.8412765661875407,1.688754818439298e+18,20.096298177083337,4.13524595896403,-8.762229919433594,1.529473026593526,1.6887548184479437e+18,20.104943847656248,0.1926261764019727,-2.2269601821899414,0.0488183001677195,1.688754818443618e+18,20.100618041992185,0.1173624848015605,-2.5580745935440063,0.0328340083360672,,,,,,,,,,,,1.6887548184380608e+18,20.095060791015623,-6.146359920501709,41.78255920410156,-17.348400115966797,1.6887548184380608e+18,20.095060791015623,-260.674951171875,135.10035705566406,-149.3523956298828,1.688754818439298e+18,20.096298177083337,-0.2492055346568425,0.0671426864961782,-0.5325386921564738,0.8059167663256327,-0.3554350833098094,1.1019601424535117,0.8196228941281637
5.15,1.6887548184911974e+18,20.14819759114583,5.361023426055908,-1.6995876630147302,2.1184945503870645,1.6887548184911974e+18,20.14819759114583,9.473384221394856,-10.45543877283732,3.9158543546994538,1.6887548184911974e+18,20.14819759114583,4.106514771779378,-8.738346735636393,1.7346723079681396,1.6887548184998502e+18,20.156850260416665,0.3654501438140869,-0.5419392983118693,-0.4814127186934153,1.6887548184868705e+18,20.143870361328126,0.3648901681105296,-1.0477357109387715,-0.0481565470496813,1.688754818495526e+18,20.152526123046876,0.0,0.0,16.77320098876953,27.219999313354492,0.0495370626449584,0.0,332.8999938964844,-122.9173491,49.2793224,1.6887548184880655e+18,20.14506552734375,-4.594519853591919,41.689839935302736,-17.41915969848633,1.6887548184880655e+18,20.14506552734375,-259.12311401367185,135.00763854980468,-149.42315673828125,1.6887548184911974e+18,20.14819759114583,-0.2242146929105122,0.0384053078790505,-0.5378043452898661,0.8117742538452148,-0.4037971099217732,1.0982500314712524,0.7881882190704346
5.2,1.6887548185431048e+18,20.20010465494792,-9.502186139424644,-4.746908664703369,4.012096206347148,1.6887548185431048e+18,20.20010465494792,-5.5551371574401855,-13.602598269780476,5.682754476865132,1.6887548185431048e+18,20.20010465494792,3.941202958424886,-8.838185628255209,1.6079706350962322,1.6887548185431035e+18,20.200103515625003,-0.0821613743901253,0.9563858807086943,0.3847687374800443,1.6887548185387794e+18,20.19577921549479,-0.0028507113456726,0.7876598338286082,-0.047647476196289,,,,,,,,,,,,1.6887548185380613e+18,20.195061328125,-2.823079967498779,41.96556015014649,-16.823799514770506,1.6887548185380613e+18,20.195061328125,-257.3516784667969,135.28335571289062,-148.82779846191406,1.6887548185431048e+18,20.20010465494792,-0.2271767805020014,0.0507000225285688,-0.5437158346176147,0.8063202699025472,-0.3887614905834198,1.119517723719279,0.7947563727696737
5.25,1.6887548185950093e+18,20.25200919596354,-0.7429359753926595,4.3894584973653155,0.3442694743474324,1.6887548185950093e+18,20.25200919596354,2.8099714120229087,-4.666801810264587,1.7577276627222698,1.6887548185950093e+18,20.25200919596354,3.547061284383138,-9.038755734761557,1.3507707913716631,1.6887548185863475e+18,20.24334773763021,0.3482440834244092,1.34359809756279,-1.6814574996630351,1.688754818590685e+18,20.24768465169271,0.3694716691970825,1.6757560968399048,-1.9890281756718953,,,,,,,,,,,,1.6887548185880676e+18,20.245067578125003,-2.1618399620056152,41.87283935546875,-16.182079696655272,1.6887548185880676e+18,20.245067578125003,-256.6904296875,135.19063720703124,-148.1860778808594,1.6887548185950093e+18,20.25200919596354,-0.2370117555061975,0.0799190190931161,-0.5569245219230652,0.7915987173716227,-0.359476774930954,1.1686453024546306,0.8210096557935079
5.3,1.6887548186469148e+18,20.30391471354167,-8.103685220082602,2.3527064323425293,1.7072710394859314,1.6887548186469148e+18,20.30391471354167,-6.117450475692749,-7.223532835642497,2.592423915863037,1.6887548186469148e+18,20.30391471354167,1.9803884824117024,-9.558734575907389,0.8224654793739319,1.6887548186382636e+18,20.295263509114584,-0.3734931896130244,4.97223965326945,-3.955047051111857,1.6887548186425864e+18,20.29958634440104,-0.5148066785186529,4.916039784749349,-3.956472396850586,,,,,,,,,,,,1.6887548186380603e+18,20.29506044921875,2.1496399998664857,41.760598754882814,-16.221119689941407,1.6887548186380603e+18,20.29506044921875,-252.378955078125,135.07839965820312,-148.22511596679686,1.6887548186469148e+18,20.30391471354167,-0.2906507651011148,0.1865642368793486,-0.6001843611399332,0.7200856606165568,-0.3921897908051808,1.344342589378357,1.085671106974284
5.35,1.6887548186988188e+18,20.35581884765625,-7.953742027282715,-1.676020622253418,-1.7300251722335815,1.6887548186988188e+18,20.35581884765625,-7.497909704844157,-11.367103894551596,-0.1541376610596974,1.6887548186988188e+18,20.35581884765625,0.4499863386154175,-9.67357858022054,1.5132001241048176,1.6887548186901655e+18,20.34716560872396,-2.217898964881897,1.541467552383741,-2.64138130346934,1.6887548186944952e+18,20.351495279947915,-2.241569995880127,1.2069679150978725,-2.385886867841085,,,,,,,,,,,,1.6887548186880614e+18,20.345061474609373,6.063399934768677,39.581678771972655,-19.54195976257324,1.6887548186880614e+18,20.345061474609373,-248.46519775390624,132.89947814941405,-151.54595642089845,1.6887548186988188e+18,20.35581884765625,-0.3443292180697123,0.231736605366071,-0.6473161180814108,0.6389388839403788,-1.1975189248720806,1.4066896438598633,2.039676388104757
5.4,1.68875481874207e+18,20.39907006835938,5.794779539108276,-2.9113974571228027,-3.5497125387191772,1.68875481874207e+18,20.39907006835938,5.600401401519775,-12.521042823791504,-1.4497514367103577,1.68875481874207e+18,20.39907006835938,-0.200224170461297,-9.592140674591064,2.0372737646102905,1.688754818742074e+18,20.39907421875,-0.546520784497261,-0.40525816877683,-1.734195590019226,1.6887548187464008e+18,20.40340087890625,-0.382808896402518,-0.2606358329455058,-1.8589138587315877,,,,,,,,,,,,1.6887548187380634e+18,20.39506337890625,10.230919647216798,36.800079345703125,-23.043359375,1.6887548187380634e+18,20.39506337890625,-244.29767761230468,130.1178771972656,-155.04735717773437,1.68875481874207e+18,20.39907006835938,-0.3495128899812698,0.2206991016864776,-0.6763204336166382,0.6096100509166718,-1.6297776699066162,1.3643513917922974,2.4645204544067383
5.45,1.688754818785324e+18,20.442323974609376,1.2702940901120503,0.5555774370829264,-2.2773809830347695,1.688754818785324e+18,20.442323974609376,0.3234298527240753,-9.019944349924724,-0.2285145620505015,1.688754818785324e+18,20.442323974609376,-0.9527102907498678,-9.558017094930014,1.986179033915202,1.68875481879398e+18,20.450979817708333,0.4377867579460144,1.3141238689422607,-1.487151463826497,1.688754818798306e+18,20.45530590820313,0.4498004515965779,1.275741159915924,-1.410946011543274,,,,,,,,,,,,1.6887548187880625e+18,20.4450623046875,13.249199867248535,35.35803909301758,-23.872959518432616,1.6887548187880625e+18,20.4450623046875,-241.27939453125,128.67583923339845,-155.8769561767578,1.688754818785324e+18,20.442323974609376,-0.3489691913127899,0.2480852703253428,-0.6954109867413839,0.5769220391909281,-1.996634840965271,1.3493715127309165,2.874146064122518
5.5,1.688754818837234e+18,20.494233968098957,1.978213906288147,2.1118831634521484,-0.9474633932113647,1.688754818837234e+18,20.494233968098957,0.4530410766601562,-7.422535896301269,0.9284151792526244,1.688754818837234e+18,20.494233968098957,-1.531018853187561,-9.51691436767578,1.8131911754608152,1.6887548188458852e+18,20.502884928385416,0.2658281947175661,0.3342451006174087,-1.3949107726414998,1.6887548188502075e+18,20.50720792643229,0.2234239683020859,0.336026797691981,-1.3928745985031126,,,,,,,,,,,,1.6887548188380616e+18,20.495061376953124,14.927919960021972,34.9676399230957,-24.026679229736327,1.6887548188380616e+18,20.495061376953124,-239.60067443847657,128.28543853759766,-156.03067626953126,1.688754818837234e+18,20.494233968098957,-0.3489369253317515,0.2812349796295166,-0.7043155829111735,0.550441046555837,-2.2589966456095376,1.3318547407786052,-0.9989363352457684
5.55,1.6887548188891392e+18,20.54613916015625,2.515594800313314,0.7562491099039713,-0.5442043542861938,1.6887548188891392e+18,20.54613916015625,0.4215356012185414,-8.660622278849283,1.3774682680765789,1.6887548188891392e+18,20.54613916015625,-2.0999052127202353,-9.39936669667562,1.8589852253595989,1.6887548188977902e+18,20.554790120442707,-0.4468988378842671,0.2577851414680481,-1.1127928892771404,1.688754818893462e+18,20.550462158203125,-0.4082106947898865,0.4047745913267135,-1.1000155806541445,,,,,,,,,,,,1.6887548188880625e+18,20.545062548828124,16.5627197265625,33.96235961914063,-24.592759323120116,1.6887548188880625e+18,20.545062548828124,-237.96587524414065,127.28015747070312,-156.5967590332031,1.6887548188891392e+18,20.54613916015625,-0.3473517894744873,0.2975091834863027,-0.7184490958849589,0.5240156054496765,-2.411019484202067,1.285924792289734,-2.9146676858266196
5.6,1.68875481894104e+18,20.598039957682293,2.4347373247146606,-1.6414693196614585,-3.8388227224349976,1.68875481894104e+18,20.598039957682293,-0.0602193574110666,-10.896315892537435,-1.6219349304835002,1.68875481894104e+18,20.598039957682293,-2.500802755355835,-9.23734188079834,2.154200315475463,1.688754818949693e+18,20.606692871093752,-0.7606290380160013,-0.0089084506034851,-0.3162245651086171,1.6887548189367194e+18,20.593719482421875,-0.7693338592847189,-0.040266195933024,-0.6333145499229431,,,,,,,,,,,,1.6887548189380677e+18,20.595067529296877,18.453719329833984,32.5105598449707,-25.93719940185547,1.6887548189380677e+18,20.595067529296877,-236.0748718261719,125.82835693359377,-157.94119873046876,1.68875481894104e+18,20.598039957682293,-0.3497262895107269,0.2939013143380483,-0.7343752980232239,0.5019646286964417,-2.4263052940368652,1.231097141901652,-2.8969114621480307
5.65,1.688754818992948e+18,20.649947672526043,1.5029072761535645,-7.5181271235148115,-5.768594582875569,1.688754818992948e+18,20.649947672526043,-1.0342975457509358,-16.75075562795003,-3.507479190826416,1.688754818992948e+18,20.649947672526043,-2.543050845464071,-9.215124448140465,2.1984280745188394,1.688754818992948e+18,20.649947998046876,0.4133266843855381,-0.8175667524337769,-0.0210748463869094,1.6887548189886267e+18,20.64562638346354,0.2331978032986323,-0.5817982405424118,0.0228056336442629,1.6887548190145792e+18,20.6715791015625,0.0,0.0,16.77320098876953,24.236000061035156,0.055723913013935,0.0,332.8999938964844,-122.9173522,49.2793324,1.6887548189880614e+18,20.645061328125,19.20768013000488,31.98839874267578,-27.123040008544923,1.6887548189880614e+18,20.645061328125,-235.32091674804687,125.30619964599607,-159.12703552246094,1.688754818992948e+18,20.649947672526043,-0.3460541367530823,0.2860953112443288,-0.7394089698791504,0.5016089975833893,-2.42399795850118,1.222055157025655,-2.9169363180796304
5.7,1.688754819044855e+18,20.701855224609375,1.9057262142499287,-4.53807799021403,-0.3088506062825522,1.688754819044855e+18,20.701855224609375,-0.0719840725262959,-14.019348780314129,1.3503495852152507,1.688754819044855e+18,20.701855224609375,-1.9835562705993652,-9.463766098022464,1.5965128342310588,1.6887548190362043e+18,20.69320458984375,1.350521246592204,0.3493640273809433,1.791158705949783,1.6887548190405307e+18,20.697530924479167,1.3243049383163452,0.4029674331347148,2.0978639125823975,,,,,,,,,,,,1.6887548190380636e+18,20.69506357421875,19.297959899902345,33.64271850585938,-25.476039505004884,1.6887548190380636e+18,20.69506357421875,-235.2306396484375,126.96051788330078,-157.48004150390625,1.688754819044855e+18,20.701855224609375,-0.3385037084420522,0.2992155651251474,-0.7147675156593323,0.533381998538971,-2.4474374453226724,1.3071425358454387,-2.8910553455352783
5.75,1.6887548190967606e+18,20.753760498046876,-1.72222238779068,-2.801794687906901,3.745507955551147,1.6887548190967606e+18,20.753760498046876,-1.8901304801305137,-12.531012852986654,5.082155863444011,1.6887548190967606e+18,20.753760498046876,-0.1737541158994038,-9.711713473002115,1.2739605108896892,1.6887548190881037e+18,20.745103759765627,0.4099414820472399,-0.2458732662101587,3.8834230105082193,1.688754819092433e+18,20.749432779947917,0.3327179450231294,-0.2686279912789662,3.882150411605835,,,,,,,,,,,,1.6887548190880635e+18,20.745063427734376,13.480999946594238,38.00787887573242,-24.25359954833984,1.6887548190880635e+18,20.745063427734376,-241.04759826660157,131.32567749023437,-156.25759887695312,1.6887548190967606e+18,20.753760498046876,-0.3562450706958771,0.2785695592562356,-0.6559243400891622,0.6037555535634359,-1.6765703360239663,1.428342580795288,2.6101768811543784
5.8,1.688754819148662e+18,20.80566202799479,-3.1895786921183267,-5.428019205729167,5.377069632212321,1.688754819148662e+18,20.80566202799479,-1.577468315760295,-15.048262596130373,6.552545388539632,1.688754819148662e+18,20.80566202799479,1.606264313062032,-9.602739016215006,1.1127883990605671,1.688754819140007e+18,20.7970068359375,0.4983642399311065,-0.0121154884497324,3.5030067761739097,1.6887548191443415e+18,20.801341471354164,0.471944307287534,-0.09809477130572,3.451134125391642,,,,,,,,,,,,1.68875481913806e+18,20.79506005859375,6.322039842605591,40.41371841430664,-23.860759735107425,1.68875481913806e+18,20.79506005859375,-248.20655822753903,133.7315185546875,-155.86475830078126,1.688754819148662e+18,20.80566202799479,-0.3735583921273549,0.2489295055468877,-0.595546543598175,0.6657637556393942,-0.6260307629903158,1.3656913836797078,1.5429248412450154
5.85,1.6887548192005714e+18,20.857571289062506,-1.8303546905517576,-4.352615038553874,1.110747456550598,1.6887548192005714e+18,20.857571289062506,0.821735143661499,-13.730215708414711,2.4213370283444724,1.6887548192005714e+18,20.857571289062506,2.6462438901265464,-9.360095977783203,1.247902274131775,1.6887548191919204e+18,20.84892041015625,0.3670281916856766,-2.8707611560821533,2.1201605796813965,1.6887548191962468e+18,20.853246907552084,0.4829907914002736,-2.749810000260671,2.0979148944218955,,,,,,,,,,,,1.6887548191880635e+18,20.845063378906257,1.6006399393081665,41.719119262695315,-22.74323959350586,1.6887548191880635e+18,20.845063378906257,-252.9279541015625,135.03691711425782,-154.7472412109375,1.6887548192005714e+18,20.857571289062506,-0.3488714794317881,0.1901456167300541,-0.5717847347259521,0.7173417409261068,-0.4368310968081156,1.2644877433776855,1.2288347880045574
5.9,1.688754819243828e+18,20.900827880859374,-9.394065856933594,1.0634782314300537,-2.8176597356796265,1.688754819243828e+18,20.900827880859374,-5.754439353942871,-8.022536039352417,-1.89840567111969,1.688754819243828e+18,20.900827880859374,3.633780360221863,-9.068509578704834,0.8565666973590851,1.688754819243826e+18,20.90082568359375,1.482824484507243,-1.2590950727462769,3.0517300764719644,1.6887548192481523e+18,20.905152180989585,1.4571681022644043,-1.481806347767512,3.0937779744466147,,,,,,,,,,,,1.6887548192380613e+18,20.895061328125,-1.1785199999809266,42.81711959838867,-20.28859977722168,1.6887548192380613e+18,20.895061328125,-255.70711669921872,136.13491516113282,-152.29259643554687,1.688754819243828e+18,20.900827880859374,-0.3224628567695617,0.1686232313513755,-0.5330347120761871,0.7636635005474091,-0.228542111814022,1.175821840763092,0.9525563418865204
5.95,1.688754819287079e+18,20.94407845052083,-8.145188013712565,8.714343070983887,-1.3491310079892476,1.688754819287079e+18,20.94407845052083,-3.4771701097488403,0.132402886946996,-0.297108789285024,1.688754819287079e+18,20.94407845052083,4.662171999613444,-8.564435958862305,0.9893348018328348,1.6887548192957276e+18,20.95272745768229,0.3211624026298523,-3.401857614517212,3.063743750254313,1.6887548193000538e+18,20.957053873697916,0.2274455030759175,-3.4157039324442544,2.996701240539551,,,,,,,,,,,,1.6887548192880635e+18,20.945063720703125,-5.843799877166748,43.46859893798828,-17.243479919433593,1.6887548192880635e+18,20.945063720703125,-260.3723937988281,136.7864013671875,-149.2474792480469,1.688754819287079e+18,20.94407845052083,-0.2838758726914723,0.1126355578502018,-0.4959658682346344,0.8121840556462606,-0.202409952878952,1.0564654270807905,0.7907299200693766
6.0,1.688754819338983e+18,20.995982910156247,-3.445101499557495,8.966901938120523,1.9643927812576296,1.688754819338983e+18,20.995982910156247,2.017348885536194,0.9996017031371592,3.822933038075765,1.688754819338983e+18,20.995982910156247,5.4566043217976885,-7.949795722961426,1.7958528995513916,1.6887548193476365e+18,21.004636474609377,0.1402953863143921,-1.8077538808186848,0.5995642344156901,1.6887548193433106e+18,21.000310546875,0.0894153993576764,-1.94797283411026,0.8592583015561105,,,,,,,,,,,,1.6887548193380585e+18,20.99505864257812,-9.247599792480468,42.99523849487305,-18.229239654541015,1.6887548193380585e+18,20.99505864257812,-263.7762023925781,136.313037109375,-150.23323669433594,1.688754819338983e+18,20.995982910156247,-0.2518769949674606,0.0310773033027847,-0.466813971598943,0.8470081289609274,-0.3138645191987355,0.938500980536143,0.7380564212799072
6.05,1.6887548193908908e+18,21.047890787760416,-1.1918996175130208,5.066980520884196,1.3971956968307495,1.6887548193908908e+18,21.047890787760416,3.868595918019613,-3.1274192333221436,3.387838045756022,1.6887548193908908e+18,21.047890787760416,5.0546495119730634,-8.176895141601562,1.9279549519220989,1.6887548193995418e+18,21.056541748046875,0.9689340790112814,-0.0301360230272015,-2.3394612073898315,1.6887548193865674e+18,21.043567138671875,0.7656177977720896,-0.368708074092865,-1.7574083805084229,,,,,,,,,,,,1.688754819388065e+18,21.04506484375,-7.054039859771729,43.654039764404295,-18.212159729003908,1.688754819388065e+18,21.04506484375,-261.5826354980469,136.97183837890626,-150.21615905761718,1.6887548193908908e+18,21.047890787760416,-0.2311204572518666,0.0175318665181596,-0.4891121685504913,0.8406900962193807,-0.3610897461573283,0.9804084698359172,0.7307975093523661
6.1,1.6887548194427924e+18,21.099792724609376,1.775577704111735,0.907754103342692,1.2479814688364663,1.6887548194427924e+18,21.099792724609376,5.62811819712321,-8.000202973683676,2.8039893309275308,1.6887548194427924e+18,21.099792724609376,3.846694389979045,-8.89045238494873,1.4933204650878906,1.6887548194427963e+18,21.099796508789066,1.039921760559082,-0.5189300477504731,-2.8809932470321655,1.6887548194384742e+18,21.095474283854163,1.0338385303815203,-0.3512984116872151,-2.8958067099253335,,,,,,,,,,,,1.6887548194380613e+18,21.09506127929688,-0.9418400049209594,44.75447998046875,-16.133279609680176,1.6887548194380613e+18,21.09506127929688,-255.4704376220703,138.07227783203126,-148.13727722167968,1.6887548194427924e+18,21.099792724609376,-0.20542407532533,0.0444081636766592,-0.5469792286554972,0.8100491166114807,-0.3681509792804718,1.130940834681193,0.7323242028554281
6.15,1.688754819494698e+18,21.151698160807296,8.95016352335612,-15.913078943888346,-1.4814069668451946,1.688754819494698e+18,21.151698160807296,12.271989504496256,-25.025336265563965,0.1595215002695719,1.688754819494698e+18,21.151698160807296,3.315979798634847,-9.09475294748942,1.5782410701115923,1.688754819486053e+18,21.14305322265625,0.2563088809450467,-1.8407406012217205,0.1590794722239176,1.688754819490377e+18,21.147376953125,0.305992574741443,-1.8901697794596355,0.5603670279184977,,,,,,,,,,,,1.688754819488064e+18,21.145063720703128,4.113839864730835,44.79839935302734,-14.513119888305663,1.688754819488064e+18,21.145063720703128,-250.41475524902344,138.11619873046874,-146.51711730957032,1.688754819494698e+18,21.151698160807296,-0.1734155366818109,0.0232637686034043,-0.5727779666582743,0.8005911906560262,-0.4418284396330516,1.1823043425877888,0.72625599304835
6.2,1.6887548195466066e+18,21.20360652669271,-3.3191239833831787,-2.31257963180542,5.297772924105327,1.6887548195466066e+18,21.20360652669271,0.3379864692687988,-11.282158692677816,7.021139780680339,1.6887548195466066e+18,21.20360652669271,3.651264031728109,-8.95207436879476,1.6606790622075398,1.6887548195379558e+18,21.194955891927084,0.2554434792449077,-1.0473284473021824,0.3662136892477671,1.6887548195422822e+18,21.1992822265625,0.1711949855089188,-0.8556185613075892,0.203163613875707,1.6887548195336325e+18,21.19063232421875,0.0,0.0,16.782827377319336,23.972000122070312,0.0602978765964508,0.0,332.8999938964844,-122.917355,49.2793404,1.6887548195380598e+18,21.195059667968753,2.518079972267151,45.34983825683594,-13.222359657287598,1.6887548195380598e+18,21.195059667968753,-252.0105133056641,138.66763916015626,-145.22635498046876,1.6887548195466066e+18,21.20360652669271,-0.1437701483567555,-0.0060798567719757,-0.558630645275116,0.8168262640635172,-0.4262451926867167,1.1453731854756672,0.6257911125818888
6.25,1.6887548195985078e+18,21.255507731119796,-4.7034569183985395,6.427544752756755,-1.966167648633321,1.6887548195985078e+18,21.255507731119796,-1.2448659936587017,-2.643071969350179,-0.3866402904192607,1.6887548195985078e+18,21.255507731119796,3.452744960784912,-9.053112347920736,1.516839901606242,1.68875481958986e+18,21.246860026041663,0.2984585836529732,0.7177157700061798,-0.4911865592002868,1.688754819594183e+18,21.25118310546875,0.3516038581728935,0.9132944643497468,-0.6792312463124593,,,,,,,,,,,,1.688754819588062e+18,21.2450619140625,2.73767991065979,44.895999145507815,-12.79047966003418,1.688754819588062e+18,21.2450619140625,-251.7909149169922,138.21379699707032,-144.7944793701172,1.6887548195985078e+18,21.255507731119796,-0.1468031803766886,0.0067114261910319,-0.5664080580075582,0.8107813000679016,-0.4089179237683613,1.169705152511597,0.6308975617090861
6.3,1.6887548196504148e+18,21.307414794921876,-4.792967001597087,0.596263567606608,2.3860382636388144,1.6887548196504148e+18,21.307414794921876,-2.526222467422486,-8.91166909535726,3.335395336151123,1.6887548196504148e+18,21.307414794921876,2.2608983914057412,-9.49042797088623,0.8866696755091349,1.688754819641763e+18,21.298763020833334,0.1851939857006073,4.125325679779053,-3.4458399613698325,1.688754819646091e+18,21.30309090169271,0.0876082504789034,4.314388434092204,-3.60435938835144,,,,,,,,,,,,1.6887548196380616e+18,21.295061376953125,5.855999946594238,44.742279052734375,-12.119479751586914,1.6887548196380616e+18,21.295061376953125,-248.67259521484377,138.06007690429686,-144.12347717285155,1.6887548196504148e+18,21.307414794921876,-0.1845928678909937,0.0896178819239139,-0.6099654237429301,0.764121949672699,-0.3673430283864339,1.3135119279225669,0.7610493103663126
6.35,1.688754819693672e+18,21.350671875,-8.644376754760742,1.8022313117980957,1.0688201785087583,1.688754819693672e+18,21.350671875,-7.816155195236206,-7.940282821655273,2.085045874118805,1.688754819693672e+18,21.350671875,0.8223755657672882,-9.725009441375732,0.9535382390022278,1.6887548196936712e+18,21.3506708984375,-1.6104444066683452,3.4101552168528237,-3.123964866002401,1.6887548196979948e+18,21.35499471028646,-1.7868317365646362,3.1092023054758706,-2.9238556226094565,,,,,,,,,,,,1.6887548196880596e+18,21.345059667968748,11.343559837341308,42.58775939941406,-15.001119804382324,1.6887548196880596e+18,21.345059667968748,-243.1850341796875,135.9055603027344,-147.00511474609374,1.688754819693672e+18,21.350671875,-0.2464110329747199,0.1633968949317932,-0.6532370150089264,0.6967547535896301,-0.8036674857139587,1.435127675533295,1.393106758594513
6.4,1.6887548197369262e+18,21.393926350911457,-3.4894102414449057,-3.81103515625,-2.4680639108022056,1.6887548197369262e+18,21.393926350911457,-3.4346974889437356,-13.468400955200195,-0.6085745692253113,1.6887548197369262e+18,21.393926350911457,0.0488667463262875,-9.63986110687256,1.7968019247055054,1.688754819745574e+18,21.40257438151042,-1.330617258946101,-0.7944302161534628,-1.3427836497624714,1.688754819749903e+18,21.40690283203125,-1.1015427311261494,-1.0453940629959106,-1.3614150285720823,,,,,,,,,,,,1.6887548197380634e+18,21.3950634765625,14.722959518432615,39.52799987792969,-19.77375946044922,1.6887548197380634e+18,21.3950634765625,-239.80563354492188,132.84579772949218,-151.7777557373047,1.6887548197369262e+18,21.393926350911457,-0.2863477369149526,0.1620283027489979,-0.6827103892962137,0.6522534489631653,-1.4749514261881511,1.3884793519973757,2.12301234404246
6.45,1.6887548197888328e+18,21.445832763671877,4.293880621592204,-0.1648103396097818,-2.815620183944702,1.6887548197888328e+18,21.445832763671877,3.4767714142799377,-9.767701625823976,-0.8480561971664429,1.6887548197888328e+18,21.445832763671877,-0.8229552904764811,-9.585386594136557,1.9048765103022256,1.6887548197974802e+18,21.45447989908854,0.6218608319759369,1.034551163514455,-1.7690657377243042,1.6887548197931592e+18,21.450159301757814,0.6398813426494598,0.9782243445515632,-1.8307631611824036,,,,,,,,,,,,1.6887548197880553e+18,21.44505537109375,18.51959991455078,37.52231903076172,-20.178799438476563,1.6887548197880553e+18,21.44505537109375,-236.00899353027344,130.84011840820312,-152.18279724121095,1.6887548197888328e+18,21.445832763671877,-0.2708216210206349,0.1574451625347137,-0.7159091830253601,0.6237739523251852,-1.9435899655024211,1.362276514371236,2.5624109903971353
6.5,1.688754819840737e+18,21.497736897786456,0.8212368686993917,2.416352113087972,-0.7599286039670309,1.688754819840737e+18,21.497736897786456,-0.5774678587913513,-7.160322348276774,0.9956136345863342,1.688754819840737e+18,21.497736897786456,-1.4045507510503132,-9.55916976928711,1.6928548415501912,1.688754819849388e+18,21.50638810221354,0.2708678307632605,1.0342457592487335,-1.2420926888783772,1.688754819836413e+18,21.49341259765625,0.4707734882831573,1.4954490264256797,-1.32221782207489,,,,,,,,,,,,1.6887548198380662e+18,21.495066064453123,19.84207954406738,36.546319580078126,-20.59603958129883,1.6887548198380662e+18,21.495066064453123,-234.68651733398437,129.86412048339844,-152.60003662109375,1.688754819840737e+18,21.497736897786456,-0.2835723261038462,0.2038872192303339,-0.7252489527066549,0.593188484509786,-2.2423977851867676,1.35172434647878,2.95068081219991
6.55,1.688754819892647e+18,21.54964689127604,1.8412320613861084,0.635946273803711,-0.8082331816355387,1.688754819892647e+18,21.54964689127604,-0.0598205650846163,-8.84506893157959,0.9932208061218262,1.688754819892647e+18,21.54964689127604,-1.9068986972173056,-9.463510513305664,1.7387665907541912,1.6887548198926418e+18,21.549641845703125,-0.2623666152358054,0.171500414609909,-1.0159452557563782,1.6887548198883192e+18,21.54531917317708,-0.2211332221825917,0.1889100770155588,-1.054658850034078,,,,,,,,,,,,1.6887548198880586e+18,21.54505859375,21.83067970275879,35.59959945678711,-21.120639419555665,1.6887548198880586e+18,21.54505859375,-232.6979187011719,128.91739807128906,-153.1246368408203,1.688754819892647e+18,21.54964689127604,-0.286944568157196,0.2191699494918187,-0.7386077046394348,0.5692384044329325,-2.390495777130127,1.3120011885960896,1.034572998682658
6.6,1.6887548199445473e+18,21.601547281901045,3.5941270192464194,0.076276143391927,-1.2141348123550415,1.6887548199445473e+18,21.601547281901045,1.0693923383951187,-9.227721214294434,0.7312067051728567,1.6887548199445473e+18,21.601547281901045,-2.5305808385213218,-9.286492665608725,1.882654110590617,1.6887548199358966e+18,21.59289664713542,-0.3239622016747792,-0.1029307916760444,-1.5146912733713789,1.6887548199402222e+18,21.59722216796875,-0.3301726579666137,-0.1170825039347012,-1.5424347321192424,,,,,,,,,,,,1.688754819938064e+18,21.5950640625,24.20235939025879,33.64271926879883,-21.369519805908205,1.688754819938064e+18,21.5950640625,-230.32623901367188,126.96051940917968,-153.37351684570314,1.6887548199445473e+18,21.601547281901045,-0.2841576238473256,0.2231537202994028,-0.7589584390322367,0.5415788094202677,-2.494009335835775,1.2499374945958457,-3.045330047607422
