seconds_elapsed_rounded,accelerometer_time,accelerometer_seconds_elapsed,accelerometer_z,accelerometer_y,accelerometer_x,accelerometeruncalibrated_time,accelerometeruncalibrated_seconds_elapsed,accelerometeruncalibrated_z,accelerometeruncalibrated_y,accelerometeruncalibrated_x,gravity_time,gravity_seconds_elapsed,gravity_z,gravity_y,gravity_x,gyroscope_time,gyroscope_seconds_elapsed,gyroscope_z,gyroscope_y,gyroscope_x,gyroscopeuncalibrated_time,gyroscopeuncalibrated_seconds_elapsed,gyroscopeuncalibrated_z,gyroscopeuncalibrated_y,gyroscopeuncalibrated_x,location_time,location_seconds_elapsed,location_bearingAccuracy,location_speedAccuracy,location_verticalAccuracy,location_horizontalAccuracy,location_speed,location_bearing,location_altitude,location_longitude,location_latitude,magnetometer_time,magnetometer_seconds_elapsed,magnetometer_z,magnetometer_y,magnetometer_x,magnetometeruncalibrated_time,magnetometeruncalibrated_seconds_elapsed,magnetometeruncalibrated_z,magnetometeruncalibrated_y,magnetometeruncalibrated_x,orientation_time,orientation_seconds_elapsed,orientation_qz,orientation_qy,orientation_qx,orientation_qw,orientation_roll,orientation_pitch,orientation_yaw
0.0,1.6887548583372623e+18,59.994262288411456,6.129320939381917,-6.921419779459636,2.3955280780792236,1.6887548583372623e+18,59.994262288411456,10.014162222544352,-15.747963269551596,4.328217387199402,1.6887548583372623e+18,59.994262288411456,3.878995339075724,-8.809039433797201,1.8700019518534343,1.6887548583459103e+18,60.00291031901042,0.0589993943770726,-1.29722327987353,-1.2276864449183145,1.6887548583502377e+18,60.00723779296876,-0.036855528752009,-1.7020741800467174,-0.7228571971257528,,,,,,,,,,,,1.6887548583380626e+18,59.99506254882813,-16.528559684753418,39.95255889892578,-26.232439041137695,1.6887548583380626e+18,59.99506254882813,-271.0571533203125,133.27035827636718,-158.23643798828124,1.6887548583372623e+18,59.994262288411456,-0.6026492118835449,0.3089072505633036,-0.4542592664559682,0.5786064664522806,-0.4487969577312469,1.115536093711853,1.894991914431254
0.05,1.688754858389169e+18,60.04616870117187,9.697020530700684,-15.446988423665363,2.8431657950083413,1.688754858389169e+18,60.04616870117187,13.694323539733888,-24.084557215372723,5.341378370920817,1.688754858389169e+18,60.04616870117187,3.991456906000773,-8.62006409962972,2.4355251789093018,1.688754858397819e+18,60.05481876627604,0.0743219405412674,-2.5521440505981445,1.7535396019617715,1.6887548583934912e+18,60.0504912109375,0.1621083654463291,-3.1949779987335205,2.222327709197998,,,,,,,,,,,,1.6887548583880576e+18,60.04505747070313,-14.010479736328126,39.57679977416992,-27.91115875244141,1.6887548583880576e+18,60.04505747070313,-268.53907470703126,132.89459838867188,-159.9151611328125,1.688754858389169e+18,60.04616870117187,-0.5760860443115234,0.2524211754401524,-0.4816414912541707,0.6096573869387308,-0.5456206401189169,1.0733575423558552,1.8441791534423828
0.1,1.6887548584410708e+18,60.098070963541666,-6.4089235464731855,3.0614800453186035,0.548254489898682,1.6887548584410708e+18,60.098070963541666,-2.1411773363749185,-5.438486973444621,3.080759108066559,1.6887548584410708e+18,60.098070963541666,4.261900107065837,-8.482462247212728,2.4698170820871987,1.6887548584497257e+18,60.10672574869792,0.3923791150252024,1.8094338178634644,-0.3145956161121527,1.6887548584367462e+18,60.09374617513021,0.2281072636445363,1.0249300748109818,0.0826704303423563,,,,,,,,,,,,1.6887548584380662e+18,60.0950662109375,-14.876679801940918,39.03511962890625,-28.42599945068359,1.6887548584380662e+18,60.0950662109375,-269.4052795410156,132.35291442871093,-160.42999572753905,1.6887548584410708e+18,60.098070963541666,-0.5727235873540243,0.2356798350811004,-0.4761893649895986,0.6241594354311625,-0.5233467121918997,1.0440833965937295,1.7905810674031577
0.15,1.6887548584929748e+18,60.14997485351563,-6.906946976979573,5.202341238657634,0.597437858581543,1.6887548584929748e+18,60.14997485351563,-3.00199556350708,-3.6658042073249817,2.2540389696756997,1.6887548584929748e+18,60.14997485351563,3.8991055488586426,-8.850640932718912,1.5939137140909831,1.6887548584929807e+18,60.14998059082031,0.8529206216335297,3.754072427749634,-2.179796278476715,1.6887548584886518e+18,60.14565161132813,0.7091127336025238,3.551926851272583,-2.0425297021865845,,,,,,,,,,,,1.6887548584880584e+18,60.145058203125,-17.389879608154295,40.477159118652345,-25.52727928161621,1.6887548584880584e+18,60.145058203125,-271.91847534179686,133.79496154785156,-157.53127746582032,1.6887548584929748e+18,60.14997485351563,-0.5861313740412394,0.3093729019165039,-0.4520911375681559,0.5961138804753622,-0.3828327556451161,1.1257740656534831,1.7966129779815674
0.2,1.688754858544886e+18,60.201886230468745,-4.782180865605672,-0.2986221313476562,1.3744484980901082,1.688754858544886e+18,60.201886230468745,-2.4376879620055356,-9.77109146118164,2.4602204958597818,1.688754858544886e+18,60.201886230468745,2.3386467695236206,-9.454964637756348,1.0230846007664998,1.688754858536235e+18,60.19323478190105,-0.1385645984361568,3.168507178624471,-4.145229736963908,1.6887548585405604e+18,60.19756038411458,-0.1856012182931105,3.2001702785491943,-4.199545860290527,,,,,,,,,,,,1.688754858538061e+18,60.1950609375,-14.691239929199218,43.03671875,-22.748119354248047,1.688754858538061e+18,60.1950609375,-269.21983032226564,136.3545135498047,-154.75211486816406,1.688754858544886e+18,60.201886230468745,-0.5876933137575785,0.4145857989788055,-0.4557239810625712,0.5229756037394205,-0.4210064907868703,1.3063684701919556,2.015416741371155
0.25,1.68875485859679e+18,60.253789957682294,-6.705649534861247,1.1008435885111492,-2.125624120235443,1.68875485859679e+18,60.253789957682294,-5.942176103591919,-8.580263296763102,-0.6215356687704722,1.68875485859679e+18,60.253789957682294,0.757627268632253,-9.663602193196615,1.441401124000549,1.6887548585881395e+18,60.245139567057294,-1.9029470284779864,3.0072387059529624,-3.0195069313049316,1.688754858592463e+18,60.24946313476562,-2.0583614110946655,2.8372145891189575,-2.8717283407847085,,,,,,,,,,,,1.6887548585880622e+18,60.24506235351563,-9.860039901733398,43.93951950073242,-22.555359649658204,1.6887548585880622e+18,60.24506235351563,-264.3886291503906,137.25731811523437,-154.55935668945312,1.68875485859679e+18,60.253789957682294,-0.600196381409963,0.4925295015176137,-0.4672470192114512,0.4217784106731414,-1.0672769943873088,1.3986337582270305,0.74854842821757
0.3,1.688754858648696e+18,60.305696044921866,2.4537614981333413,-4.14247989654541,-5.629149436950684,1.688754858648696e+18,60.305696044921866,2.1230318546295166,-13.721242586771648,-3.4241291681925454,1.688754858648696e+18,60.305696044921866,-0.336575689415137,-9.56125831604004,2.1423327922821045,1.6887548586400356e+18,60.29703548177083,-1.0317514087073505,-0.657392809788386,-2.043395161628723,1.6887548586443707e+18,60.30137060546875,-0.8048658718665441,-0.7904596130053202,-2.0813196897506714,,,,,,,,,,,,1.688754858638063e+18,60.29506303710938,-6.375719976425171,42.443799591064455,-26.003079223632813,1.688754858638063e+18,60.29506303710938,-260.90431518554686,135.7615966796875,-158.0070770263672,1.688754858648696e+18,60.305696044921866,-0.5906370282173157,0.5135175983111063,-0.502932478984197,0.3663267791271209,-1.7192060152689617,1.3460375865300496,-2.7562427520751953
0.35,1.6887548587005972e+18,60.35759708658855,2.5556326309839883,2.291743755340576,-1.6499082644780476,1.6887548587005972e+18,60.35759708658855,1.2566307087739308,-7.254838784535726,0.3335993488629659,1.6887548587005972e+18,60.35759708658855,-1.3048479557037354,-9.529077847798666,1.9208201964696248,1.6887548586919468e+18,60.34894702148438,0.7224499583244324,0.95254252354304,-1.921120285987854,1.6887548586962767e+18,60.35327661132812,0.7636833588282267,1.0820968747138977,-1.8310685555140176,,,,,,,,,,,,1.688754858688065e+18,60.34506489257812,-1.5152399688959124,42.68535842895508,-26.398359298706055,1.688754858688065e+18,60.34506489257812,-256.0438293457031,136.00315551757814,-158.40235595703126,1.6887548587005972e+18,60.35759708658855,-0.5653275648752848,0.5569902261098226,-0.5055945416291555,0.3380600611368815,-2.164580980936686,1.3318779865900674,-2.2661948204040527
0.4,1.6887548587438546e+18,60.40085461425781,3.006539463996887,2.1062698364257812,0.1670882701873779,1.6887548587438546e+18,60.40085461425781,1.1895319819450378,-7.392924785614014,1.960918128490448,1.6887548587438546e+18,60.40085461425781,-1.8228535056114197,-9.481689929962158,1.7311424612998962,1.6887548587438572e+18,60.40085734049479,0.391411895553271,0.8662069241205851,-1.4852170546849568,1.6887548587481825e+18,60.405182210286455,0.3154100904551645,0.8083274165789286,-1.472541610399882,,,,,,,,,,,,1.6887548587380598e+18,60.39505981445312,1.0247999787330628,43.3124397277832,-25.239359664916993,1.6887548587380598e+18,60.39505981445312,-253.50379333496093,136.63023986816407,-157.24335632324218,1.6887548587438546e+18,60.40085461425781,-0.5547476410865784,0.5899768471717834,-0.4943530857563019,0.315820500254631,-2.3803179264068604,1.312526524066925,-1.99308180809021
0.45,1.6887548587871068e+18,60.444106770833336,2.052892565727234,1.0150953928629558,-0.8639355103174845,1.6887548587871068e+18,60.444106770833336,-0.2203390796979268,-8.373881975809732,0.9872387448946636,1.6887548587871068e+18,60.444106770833336,-2.279077688852946,-9.371472676595053,1.7884868780771892,1.6887548587957586e+18,60.452758626302085,-0.2397646109263102,0.3282891660928726,-1.1861984729766846,1.68875485880009e+18,60.45708968098958,-0.2836450984080632,0.2452623943487803,-1.2202033201853435,,,,,,,,,,,,1.6887548587880648e+18,60.44506474609375,2.7620799064636232,43.17091903686523,-25.25399894714355,1.6887548587880648e+18,60.44506474609375,-251.76651916503903,136.48871765136718,-157.25799560546875,1.6887548587871068e+18,60.444106770833336,-0.5452033480008444,0.6083823045094808,-0.4955976108709971,0.2948563694953918,-2.475565512975057,1.2720003525416057,-1.867487549781799
0.5,1.6887548588390154e+18,60.496015380859376,4.164166529973348,-2.6038942337036133,-4.096202452977498,1.6887548588390154e+18,60.496015380859376,1.2993027170499167,-11.79063351949056,-2.0600208789110184,1.6887548588390154e+18,60.496015380859376,-2.870709816614786,-9.16923459370931,1.9734942118326824,1.6887548588476654e+18,60.50466569010416,-0.6782640417416891,-0.2440915803114573,-0.6918048659960429,1.6887548588433423e+18,60.50034228515625,-0.7511351704597473,-0.4884631261229515,-0.996703028678894,,,,,,,,,,,,1.6887548588380603e+18,60.49506020507813,6.758799839019775,42.277879333496095,-26.212919998168942,1.6887548588380603e+18,60.49506020507813,-247.76979370117184,135.5956787109375,-158.2169158935547,1.6887548588390154e+18,60.496015380859376,-0.5274263223012289,0.6184831261634827,-0.5131916403770447,0.2754211127758025,-2.539158662160238,1.208728909492493,-1.8079672654469807
0.55,1.6887548588909207e+18,60.54792073567708,1.186981836954753,-7.473183631896973,-6.01438570022583,1.6887548588909207e+18,60.54792073567708,-1.6572291056315105,-16.66022713979085,-3.948356866836548,1.6887548588909207e+18,60.54792073567708,-2.8500569661458335,-9.169539133707682,2.0033413966496787,1.688754858899572e+18,60.55657202148438,0.7900014761835337,-0.2323324223980307,0.1547016352415084,1.6887548588865966e+18,60.543596761067704,0.316886360446612,-0.1946114798386891,0.3326670378446579,,,,,,,,,,,,1.6887548588880645e+18,60.54506445312499,6.492840003967285,41.86795959472656,-26.36419982910156,1.6887548588880645e+18,60.54506445312499,-248.03575439453124,135.18575439453124,-158.36819763183593,1.6887548588909207e+18,60.54792073567708,-0.527413527170817,0.6148503025372823,-0.5165351827939352,0.2773630519707997,-2.529270648956299,1.208551247914632,-1.8270711104075117
0.6,1.6887548589428232e+18,60.599822916666675,1.418310284614563,-4.286334037780762,0.1000380118687947,1.6887548589428232e+18,60.599822916666675,-1.0767701665560403,-13.673785209655762,1.5954145193099976,1.6887548589428232e+18,60.599822916666675,-2.5009264945983887,-9.369946479797363,1.432689110438029,1.688754858942821e+18,60.599821166992186,0.9444740414619446,-0.5329799354076385,1.975156366825104,1.688754858938499e+18,60.5954990234375,1.02090851465861,-0.300952951113383,1.5554156750440598,,,,,,,,,,,,1.6887548589380603e+18,60.595060351562495,6.592879772186279,43.28559875488281,-24.458559417724608,1.6887548589380603e+18,60.595060351562495,-247.9357147216797,136.60339965820313,-156.46255798339843,1.6887548589428232e+18,60.599822916666675,-0.5275823473930359,0.6165163119633993,-0.4968382716178894,0.3071541488170624,-2.6187870502471924,1.273263971010844,-1.7478916645050049
0.65,1.688754858994728e+18,60.65172802734375,-2.3091853857040405,-3.203088760375977,1.934661587079366,1.688754858994728e+18,60.65172802734375,-3.1284162203470864,-12.923435846964518,3.0791640281677246,1.688754858994728e+18,60.65172802734375,-0.8250768582026163,-9.702842394510904,1.0818150639533997,1.6887548589860813e+18,60.64308113606771,0.5264131426811218,-0.8451829751332601,3.778608719507853,1.6887548589904038e+18,60.64740388997396,0.5049310326576233,-0.8497644464174906,3.767307758331299,1.6887548589817574e+18,60.63875732421875,0.0,0.0,3.776798725128174,7.88100004196167,1.5437568426132202,99.7199935913086,333.1000061035156,-122.9164731,49.2793262,1.6887548589880648e+18,60.645064697265624,0.0585599839687347,44.60319900512695,-22.67003936767578,1.6887548589880648e+18,60.645064697265624,-254.47002868652345,137.92099609375,-154.67403869628907,1.688754858994728e+18,60.65172802734375,-0.5667686263720194,0.568267822265625,-0.4673224091529846,0.3697754442691803,-2.1555386781692505,1.427722414334615,-2.2569484313329062
0.7,1.6887548590466383e+18,60.70363810221354,-2.4603209495544434,-5.890422185262044,4.9042731920878095,1.6887548590466383e+18,60.70363810221354,-1.4378869831562042,-15.59841219584147,5.949354648590088,1.6887548590466383e+18,60.70363810221354,1.0165879726409912,-9.690485636393229,0.9823940594991049,1.6887548590379866e+18,60.69498640950521,0.0558432651062806,0.3562362392743428,3.7988692124684658,1.688754859042313e+18,60.69931298828126,0.0063122771680354,0.4777984370787938,3.900527318318685,,,,,,,,,,,,1.6887548590380652e+18,60.69506528320312,-7.873879909515381,44.49827880859375,-22.11127967834473,1.6887548590380652e+18,60.69506528320312,-262.4024719238281,137.81607666015626,-154.1152770996094,1.6887548590466383e+18,60.70363810221354,-0.6148521900177002,0.5129764576752981,-0.429107367992401,0.4169043103853861,-0.8419034481048584,1.4197936058044434,2.696347157160441
0.75,1.688754859098539e+18,60.7555390625,-3.74736213684082,-4.811723073323567,4.0662804047266645,1.688754859098539e+18,60.7555390625,-0.8612167835235596,-14.115460077921549,5.383851051330566,1.688754859098539e+18,60.7555390625,2.8802993297576904,-9.286232312520346,1.2548832098642986,1.688754859089892e+18,60.74689192708333,-0.3915646175543467,-1.245808740456899,3.548210859298706,1.6887548590942134e+18,60.75121346028646,-0.3592396726210912,-1.5898277163505554,3.346421718597412,,,,,,,,,,,,1.688754859088065e+18,60.74506494140625,-17.177599906921387,42.307159423828125,-22.323559188842772,1.688754859088065e+18,60.74506494140625,-271.70619506835936,135.6249572753906,-154.3275573730469,1.688754859098539e+18,60.7555390625,-0.6630469163258871,0.4402771989504496,-0.398021141688029,0.4553877711296081,-0.4077386260032654,1.2439432938893635,2.2324861685434976
0.8,1.6887548591504474e+18,60.807447265625,-5.165291945139567,0.795942465464274,-2.681648095448812,1.6887548591504474e+18,60.807447265625,-1.1204392512639365,-8.050651709238688,-1.2725828687349956,1.6887548591504474e+18,60.807447265625,4.0390065511067705,-8.829089482625326,1.3463778893152871,1.688754859141797e+18,60.798797363281246,0.7303912043571472,-1.0709995068609717,2.8625145753224692,1.6887548591461243e+18,60.80312459309895,0.7929539680480957,-0.7841473817825317,2.920190413792928,,,,,,,,,,,,1.6887548591380644e+18,60.79506450195313,-20.434999465942383,39.732958984375,-24.20723991394043,1.6887548591380644e+18,60.79506450195313,-274.9635925292969,133.0507568359375,-156.21123657226562,1.6887548591504474e+18,60.807447265625,-0.6679832140604655,0.3763936360677083,-0.3895840346813202,0.5098031262556711,-0.3240009645620982,1.120200792948405,2.0436750650405884
0.85,1.688754859193704e+18,60.8507041015625,-13.699695587158203,8.802530288696289,-2.7772897481918335,1.688754859193704e+18,60.8507041015625,-8.641978025436401,0.5000999569892883,-1.3040883243083954,1.688754859193704e+18,60.8507041015625,5.05187201499939,-8.284925937652588,1.410513997077942,1.6887548591936983e+18,60.85069816080729,0.3167845408121745,-2.83909805615743,3.3656129042307534,1.6887548591980257e+18,60.85502563476562,0.2031127040584882,-3.0985121726989746,3.3856188456217446,,,,,,,,,,,,1.688754859188061e+18,60.845061132812496,-25.00511970520019,37.66872024536133,-23.755839920043947,1.688754859188061e+18,60.845061132812496,-279.5337158203125,130.98651428222655,-155.75983581542968,1.688754859193704e+18,60.8507041015625,-0.6689969599246979,0.3199280500411987,-0.3733580410480499,0.5569666624069214,-0.2706890255212784,1.0054587721824646,1.9023890495300293
0.9,1.6887548592369572e+18,60.89395727539062,-4.281142155329387,10.53655242919922,-1.1841512123743694,1.6887548592369572e+18,60.89395727539062,1.4761721541484196,2.895315408706665,1.1050852139790852,1.6887548592369572e+18,60.89395727539062,5.751468340555827,-7.623732407887776,2.226548989613851,1.6887548592456056e+18,60.90260555013021,0.0321722353498141,-2.3464351892471313,1.040048986673355,1.6887548592499282e+18,60.906928222656255,0.101912684738636,-2.1337523063023887,0.7056511839230856,,,,,,,,,,,,1.6887548592380646e+18,60.89506455078125,-26.466679763793945,34.52111892700195,-27.371919631958008,1.6887548592380646e+18,60.89506455078125,-280.9952758789062,127.8389175415039,-159.37591247558595,1.6887548592369572e+18,60.89395727539062,-0.6613390445709229,0.2383162975311279,-0.3863812088966369,0.5967321197191874,-0.3680018484592438,0.8894932667414347,1.850061575571696
0.95,1.6887548592888584e+18,60.94585831705729,-3.2052215735117593,7.220941225687663,0.5361175537109375,1.6887548592888584e+18,60.94585831705729,2.264607230822245,-0.5505485981702805,3.0851460297902427,1.6887548592888584e+18,60.94585831705729,5.463982741038005,-7.753985246022542,2.4863410790761313,1.6887548592975127e+18,60.95451277669272,0.9964230060577391,0.141669824719429,-1.9871954917907717,1.68875485929319e+18,60.95019030761719,0.9601274728775024,0.0071013122797012,-1.8053358793258667,,,,,,,,,,,,1.68875485928806e+18,60.945060058593754,-23.90467948913574,34.845639038085935,-28.90423927307129,1.68875485928806e+18,60.945060058593754,-278.4332763671875,128.16343688964844,-160.90823669433593,1.6887548592888584e+18,60.94585831705729,-0.6412981748580933,0.2266839295625686,-0.4117706914742787,0.6062998572985331,-0.4260841806729634,0.9111554423967996,1.8380601406097412
1.0,1.6887548593407685e+18,60.99776831054688,6.552722930908203,2.439958095550537,0.1592650810877482,1.6887548593407685e+18,60.99776831054688,10.959725856781006,-6.12004280090332,2.1413768927256265,1.6887548593407685e+18,60.99776831054688,4.401156902313232,-8.54249636332194,1.9194244146347048,1.6887548593494188e+18,61.00641861979167,0.6186537841955821,0.5146030684312185,-2.8762590090433755,1.6887548593364436e+18,60.99344360351563,1.0653999050458272,0.6396777133146921,-3.173801263173422,,,,,,,,,,,,1.688754859338068e+18,60.99506801757813,-19.76399955749512,38.705718994140625,-26.86439971923828,1.688754859338068e+18,60.99506801757813,-274.2925964355469,132.02351989746094,-158.86839904785157,1.6887548593407685e+18,60.99776831054688,-0.6127041975657145,0.2885611852010091,-0.4376455843448639,0.5909564097722372,-0.4101688762505849,1.0579423507054646,1.8491366704305012
1.05,1.688754859392675e+18,61.04967529296875,6.30325190226237,-18.532167116800945,2.792785406112671,1.688754859392675e+18,61.04967529296875,10.315458615620932,-27.214967409769695,5.085146983464559,1.688754859392675e+18,61.04967529296875,4.006360689798991,-8.665295282999674,2.2296741803487143,1.6887548593926738e+18,61.04967370605469,-0.4110359326004982,-4.174882173538208,2.320829749107361,1.6887548593883482e+18,61.04534814453125,-0.3332778811454773,-2.997515758033842,1.404837389787038,,,,,,,,,,,,1.6887548593880632e+18,61.045063281249995,-14.732719802856446,40.643079376220705,-26.71799926757813,1.6887548593880632e+18,61.045063281249995,-269.2613159179688,133.96087646484375,-158.7219970703125,1.688754859392675e+18,61.04967529296875,-0.5926771362622579,0.2757734606663386,-0.4672771394252777,0.5941408077875773,-0.5044911404450735,1.0831267436345418,1.8756972153981528
1.1,1.6887548594445796e+18,61.101579752604174,1.171809991200765,4.7172393798828125,6.333718776702881,1.6887548594445796e+18,61.101579752604174,5.516851902008057,-3.7433714866638184,8.868398904800415,1.6887548594445796e+18,61.101579752604174,4.339195887247722,-8.443106015523275,2.471992572148641,1.6887548594359283e+18,61.092927978515625,0.7171049118041992,-0.9343183835347494,0.4529056449731191,1.6887548594402542e+18,61.097254394531255,0.6413576106230418,-0.4600833257039388,0.0829758644104003,,,,,,,,,,,,1.688754859438064e+18,61.09506401367188,-14.022679710388184,40.113599395751955,-28.006319427490233,1.688754859438064e+18,61.09506401367188,-268.55126953125,133.431396484375,-160.01031799316405,1.6887548594445796e+18,61.101579752604174,-0.5668585896492004,0.2274985313415527,-0.476032147804896,0.6326523224512736,-0.5166977445284525,1.035854419072469,1.7600980599721272
1.15,1.6887548594964774e+18,61.15347729492188,-7.528595685958862,-3.898442586263021,-3.7443325519561768,1.6887548594964774e+18,61.15347729492188,-3.1868410110473633,-12.44666544596354,-1.5270196795463562,1.6887548594964774e+18,61.15347729492188,4.335908730824788,-8.530718485514322,2.154625415802002,1.688754859487833e+18,61.1448330078125,-0.0877100668537119,1.627548615137736,-0.1095484892527263,1.6887548594921577e+18,61.14915787760416,-0.060475659246246,1.6386460463205974,-0.1542943815390269,,,,,,,,,,,,1.688754859488058e+18,61.145058007812494,-15.16703987121582,40.306359100341794,-27.005919647216796,1.688754859488058e+18,61.145058007812494,-269.6956298828125,133.62415466308593,-159.009912109375,1.6887548594964774e+18,61.15347729492188,-0.5789320468902588,0.254223475853602,-0.4623787899812062,0.6214761336644491,-0.4598753849665324,1.0536461273829143,1.7705803712209065
1.2,1.6887548595483853e+18,61.20538533528646,-4.7713108857472735,2.087119738260905,1.5369881391525269,1.6887548595483853e+18,61.20538533528646,-1.1944172779719036,-6.951349258422852,2.960519870122274,1.6887548595483853e+18,61.20538533528646,3.571047782897949,-9.02096430460612,1.360844373703003,1.6887548595397358e+18,61.19673583984375,0.789186974366506,3.085174957911174,-2.8386908372243247,1.6887548595440663e+18,61.20106632486979,0.7534004598855972,3.3618967533111572,-3.038800001144409,,,,,,,,,,,,1.6887548595380646e+18,61.195064550781254,-15.857559394836423,41.81427917480469,-24.656199264526368,1.6887548595380646e+18,61.195064550781254,-270.3861572265625,135.1320770263672,-156.6601989746094,1.6887548595483853e+18,61.20538533528646,-0.5830854177474976,0.3340149720509847,-0.4526484409968058,0.584919253985087,-0.3587974806626637,1.169131636619568,1.80620010693868
1.25,1.6887548596002908e+18,61.25729069010416,-5.846269528071086,0.3929923375447591,0.9427990118662516,1.6887548596002908e+18,61.25729069010416,-4.112863381703694,-9.219147046407064,1.9393827517827351,1.6887548596002908e+18,61.25729069010416,1.72756032148997,-9.594634691874186,0.9338963627815248,1.688754859591634e+18,61.24863395182292,-0.8316930383443832,4.611879825592041,-4.4354926745096845,1.6887548595959596e+18,61.252959879557295,-0.9957612653573354,4.543259302775065,-4.393342812856038,,,,,,,,,,,,1.6887548595880566e+18,61.2450564453125,-12.080439567565918,44.002959442138675,-22.08687973022461,1.6887548595880566e+18,61.2450564453125,-266.60902709960936,137.3207580566406,-154.09087524414062,1.6887548596002908e+18,61.25729069010416,-0.5956091086069742,0.4577962855497996,-0.4484509229660034,0.4822963873545329,-0.5288085540135702,1.3653709491093953,2.2229330937067666
1.3,1.688754859643541e+18,61.30054089355468,-7.969723224639893,-4.1884355545043945,-3.105299592018127,1.688754859643541e+18,61.30054089355468,-7.500003337860107,-13.88285779953003,-1.5155540853738785,1.688754859643541e+18,61.30054089355468,0.4638739675283432,-9.676917552947998,1.5270580649375916,1.6887548596435397e+18,61.3005399576823,-1.8365663687388103,1.8209382891654968,-2.436894178390503,1.688754859647866e+18,61.30486588541667,-1.739438811937968,1.2921326955159504,-2.289573868115743,,,,,,,,,,,,1.6887548596380564e+18,61.29505634765625,-8.281359958648682,43.8614387512207,-23.38251953125,1.6887548596380564e+18,61.29505634765625,-262.80995483398436,137.17923889160156,-155.3865203857422,1.688754859643541e+18,61.30054089355468,-0.6101774573326111,0.5170116722583771,-0.4567487388849258,0.3893327564001083,-1.2630876302719116,1.4066013097763062,-0.0246921777725219
1.35,1.6887548596867963e+18,61.34379646809896,2.421149969100952,-1.1572974522908528,-4.292586803436279,1.6887548596867963e+18,61.34379646809896,1.9766709009806316,-10.792826334635416,-2.3788645267486572,1.6887548596867963e+18,61.34379646809896,-0.4503250904381275,-9.618024190266928,1.8510348399480183,1.6887548596954458e+18,61.352445800781254,0.0238237331310907,-0.5393940409024557,-2.1061106522878013,1.6887548596997724e+18,61.35677237955729,0.1595885505278905,-0.1886046330134074,-2.0984239180882773,,,,,,,,,,,,1.6887548596880558e+18,61.345055810546874,-3.1109999418258667,43.06599884033203,-25.78591957092285,1.6887548596880558e+18,61.345055810546874,-257.63959045410155,136.38379516601563,-157.7899169921875,1.6887548596867963e+18,61.34379646809896,-0.5851932366689047,0.528790811697642,-0.4927158157030741,0.3672492603460948,-1.8001381158828735,1.3735416332880657,-2.6562910874684653
1.4,1.6887548597387028e+18,61.395702880859375,2.691830356915792,3.621356805165609,-1.212673584620158,1.6887548597387028e+18,61.395702880859375,1.4143575507526596,-5.978068510691325,0.5054837763309479,1.6887548597387028e+18,61.395702880859375,-1.2833189169565835,-9.581920623779297,1.6554699341456096,1.6887548597473482e+18,61.40434822591146,0.6410012642542521,2.205528974533081,-1.7922277053197224,1.6887548597430257e+18,61.40002551269531,0.7600690722465515,2.42429518699646,-1.792965829372406,,,,,,,,,,,,1.6887548597380588e+18,61.395058740234376,0.2464399922639131,43.70771942138672,-25.192999267578124,1.6887548597380588e+18,61.395058740234376,-254.2821533203125,137.02551879882813,-157.1969970703125,1.6887548597387028e+18,61.395702880859375,-0.5679238637288412,0.5732478698094686,-0.4858989417552948,0.3350814183553059,-2.226664145787557,1.3558171192804973,-2.162196159362793
1.45,1.688754859790606e+18,61.447606119791665,1.6511255105336506,1.9937326113382976,-1.586105227470398,1.688754859790606e+18,61.447606119791665,-0.2825524806976318,-7.492326259613037,0.1473579754432041,1.688754859790606e+18,61.447606119791665,-1.9395240147908528,-9.468554178873696,1.6707757314046223,1.6887548597992568e+18,61.45625667317708,-0.359697808821996,0.5716171531627575,-1.2245812217394512,1.6887548597862807e+18,61.443280761718746,-0.1459967990716298,0.9997827808062234,-1.4654657046000164,,,,,,,,,,,,1.688754859788056e+18,61.445056054687505,2.005679965019226,43.9273193359375,-24.61715965270996,1.688754859788056e+18,61.445056054687505,-252.52291259765624,137.2451171875,-156.62115478515625,1.688754859790606e+18,61.447606119791665,-0.5611134568850199,0.6126836538314819,-0.4723318914572398,0.2942140201727549,-2.429338057835897,1.3076749642690022,-1.86927326520284
1.5,1.68875485984251e+18,61.49951009114583,2.7082934379577637,-1.1986637115478516,-2.4429381688435874,1.68875485984251e+18,61.49951009114583,0.2723829845587412,-10.531011899312338,-0.5158526798089346,1.68875485984251e+18,61.49951009114583,-2.44175656636556,-9.31484349568685,1.8643981218338013,1.6887548598425116e+18,61.49951159667968,-0.4075998365879059,-0.3648392707109451,-1.158124178647995,1.6887548598381865e+18,61.49518660481771,-0.4467970132827759,-0.2823724523186683,-1.0952813625335691,,,,,,,,,,,,1.6887548598380572e+18,61.495057177734374,3.891799926757813,43.21727828979492,-25.48091926574707,1.6887548598380572e+18,61.495057177734374,-250.6367919921875,136.5350769042969,-157.48491516113282,1.68875485984251e+18,61.49951009114583,-0.5478446086247762,0.6229721506436666,-0.4857846001784007,0.2751372754573821,-2.4885143438975015,1.2530841827392578,-1.8057039976119995
1.55,1.6887548598944182e+18,61.55141796875,3.232816855112711,-4.021592458089192,-4.087221781412761,1.6887548598944182e+18,61.55141796875,0.4139583309491475,-13.213765144348145,-2.0051854054133096,1.6887548598944182e+18,61.55141796875,-2.824704647064209,-9.174667994181316,2.0193488597869873,1.6887548598857654e+18,61.54276546223958,-0.3553708593050638,0.3575088779131571,-0.5832744936148325,1.6887548598900923e+18,61.54709236653647,-0.3279328246911366,0.4414519568284352,-0.4270457029342651,,,,,,,,,,,,1.6887548598880563e+18,61.54505629882813,6.722199726104736,42.34620056152344,-26.208039474487304,1.6887548598880563e+18,61.54505629882813,-247.806396484375,135.66399841308595,-158.2120361328125,1.6887548598944182e+18,61.55141796875,-0.5375388860702515,0.6308948397636414,-0.4955914119879405,0.2595799267292022,-2.521274010340373,1.2098726034164429,-1.7678730090459187
1.6,1.6887548599463206e+18,61.603320556640625,2.645348230997721,-6.1941022872924805,-3.052450736363729,1.6887548599463206e+18,61.603320556640625,-0.1156531025966008,-15.433107693990072,-1.1112667520840962,1.6887548599463206e+18,61.603320556640625,-2.7668473720550537,-9.221501032511393,1.878496567408244,1.6887548599376712e+18,61.594671386718744,0.5852598200241724,0.0809396418432395,-0.0294742435216903,1.6887548599419968e+18,61.59899698893229,0.6498079101244608,0.0547233459850152,0.0583376338084539,,,,,,,,,,,,1.6887548599380567e+18,61.59505649414062,6.043879890441895,42.470639038085935,-26.703359603881836,1.6887548599380567e+18,61.59505649414062,-248.484716796875,135.78843688964844,-158.7073547363281,1.6887548599463206e+18,61.603320556640625,-0.5396326979001363,0.6368426283200582,-0.4848701059818268,0.2609334588050842,-2.545872926712036,1.2237008412679036,-1.7257120609283447
1.65,1.688754859998238e+18,61.65523795572917,1.413551648457845,-3.76364803314209,0.6043452819188436,1.688754859998238e+18,61.65523795572917,-0.2374876836935679,-13.30648676554362,2.228714903195699,1.688754859998238e+18,61.65523795572917,-1.6568854451179504,-9.525334040323893,1.5616822242736816,1.6887548599895867e+18,61.646586669921874,0.6245588262875875,0.2696970055500666,3.1626020669937134,1.688754859993913e+18,61.65091300455729,0.6263913909594218,0.2365066607793172,3.432349920272827,,,,,,,,,,,,1.6887548599880568e+18,61.645056835937496,3.7283199310302737,43.2685188293457,-25.329639434814453,1.6887548599880568e+18,61.645056835937496,-250.8002746582031,136.58631896972656,-157.33363342285156,1.688754859998238e+18,61.65523795572917,-0.5721668203671774,0.6128848195075989,-0.4562374452749888,0.2966119349002837,-2.3557018438975015,1.334578315416972,-1.917799433072408
1.7,1.688754860050135e+18,61.707134765625,-3.348107179005941,-4.7965192794799805,1.9454567035039263,1.688754860050135e+18,61.707134765625,-3.133999506632487,-14.53001626332601,3.2787651220957437,1.688754860050135e+18,61.707134765625,0.2082616637150446,-9.71599260965983,1.2706209818522136,1.6887548600414866e+18,61.69848657226563,0.5223406950632731,-0.6896668573220571,3.5996761322021484,1.6887548600458168e+18,61.70281665039062,0.4478660374879837,-0.6541857669750849,3.49129851659139,1.6887548600198625e+18,61.6768623046875,0.0,0.0,3.786339282989502,7.76200008392334,1.4852840900421145,98.31768798828124,333.1000061035156,-122.9164565,49.2793251,1.6887548600380646e+18,61.69506464843751,-4.8775599002838135,44.08347854614258,-23.85831985473633,1.6887548600380646e+18,61.69506464843751,-259.4061584472656,137.40127868652343,-155.86231689453126,1.688754860050135e+18,61.707134765625,-0.6179550091425577,0.5542245507240295,-0.4262105027834574,0.3588911394278208,-1.410285751024882,1.4326623678207395,-0.8172212441762289
1.75,1.6887548600933873e+18,61.75038720703125,-1.611502170562744,-6.539909839630127,4.411360740661621,1.6887548600933873e+18,61.75038720703125,0.1507478058338165,-16.113566398620605,5.766104459762573,1.6887548600933873e+18,61.75038720703125,1.7564039826393127,-9.55615234375,1.292056381702423,1.6887548600933952e+18,61.75039526367187,-0.3611231620113055,0.4711298147837321,4.301916519800822,1.6887548600977203e+18,61.75472013346354,-0.4105014403661092,0.442673663298289,4.370944420496623,,,,,,,,,,,,1.688754860088057e+18,61.745057177734374,-13.888479423522949,42.97571868896485,-23.58747978210449,1.688754860088057e+18,61.745057177734374,-268.4170715332031,136.29351806640625,-155.5914764404297,1.6887548600933873e+18,61.75038720703125,-0.6622952520847321,0.5039611458778381,-0.3948959410190582,0.3886197507381439,-0.6459457278251648,1.3451979756355286,2.604417085647583
1.8,1.6887548601366497e+18,61.79364990234375,-2.0729424158732095,-5.608323733011882,1.5555495421091716,1.6887548601366497e+18,61.79364990234375,1.1491530338923135,-14.75733470916748,3.1720851063728333,1.6887548601366497e+18,61.79364990234375,3.216249386469523,-9.131506284077965,1.5538481871287029,1.6887548601453066e+18,61.80230655924479,0.3099122941493988,-1.6114115913709004,2.6826656659444175,1.6887548601496246e+18,61.80662443033854,0.4537710398435592,-1.5440637121597929,2.594344695409139,,,,,,,,,,,,1.6887548601380626e+18,61.79506264648437,-21.42075996398926,39.7988395690918,-24.829439544677733,1.6887548601380626e+18,61.79506264648437,-275.94935302734376,133.11663513183595,-156.83343505859375,1.6887548601366497e+18,61.79364990234375,-0.6970879038174947,0.4384524623552957,-0.3783634801705678,0.4219957888126373,-0.4492675761381785,1.197484056154887,2.3628389040629068
1.85,1.6887548601885532e+18,61.84555314127604,-9.412397702534994,1.1091965039571126,-2.2561850547790527,1.6887548601885532e+18,61.84555314127604,-5.07876592874527,-7.601199944814046,-0.8434699575106303,1.6887548601885532e+18,61.84555314127604,4.327785650889079,-8.692891756693522,1.3500276803970337,1.6887548601972073e+18,61.85420760091146,1.1501574317614238,-1.906866821149985,2.928182601928711,1.688754860192879e+18,61.84987915039062,1.2476922869682312,-1.439045786857605,2.8817567825317383,,,,,,,,,,,,1.6887548601880614e+18,61.84506157226563,-24.800159454345703,38.06887969970703,-24.277999877929688,1.6887548601880614e+18,61.84506157226563,-279.32875366210936,131.38667907714844,-156.28199768066406,1.6887548601885532e+18,61.84555314127604,-0.7032369176546732,0.3871657152970632,-0.3590717315673828,0.4754488666852315,-0.3034885426362355,1.0892306566238403,2.138487974802653
1.9,1.688754860240457e+18,61.89745694986979,-9.898276964823404,10.096680641174316,-3.139926552772522,1.688754860240457e+18,61.89745694986979,-4.468596200148265,2.1433709065119424,-1.1868400971094768,1.688754860240457e+18,61.89745694986979,5.423834800720215,-7.935805161794026,1.8903991381327312,1.6887548602491128e+18,61.90611295572917,-0.0801251530647277,-3.3870951334635415,3.408220847447714,1.6887548602361375e+18,61.89313761393229,0.1766418690482775,-3.7401243845621743,3.5582900047302246,,,,,,,,,,,,1.6887548602380626e+18,61.89506259765625,-27.108399200439457,35.2457992553711,-26.613079452514647,1.6887548602380626e+18,61.89506259765625,-281.6369995117187,128.5635955810547,-158.61707458496093,1.688754860240457e+18,61.89745694986979,-0.6918333570162455,0.2927555938561757,-0.3694645563761393,0.5457452138264974,-0.3331032494703928,0.9433722297350564,1.9764608144760132
1.95,1.6887548602923643e+18,61.949364664713535,-4.267716805140178,9.933125019073486,0.6182905832926433,1.6887548602923643e+18,61.949364664713535,1.6943178176879885,2.613361140092214,3.4027932484944663,1.6887548602923643e+18,61.949364664713535,5.956188678741455,-7.302258968353272,2.721815268198649,1.6887548602923745e+18,61.94937463378906,0.2139555467292666,-1.9783635139465332,0.2754238843917846,1.6887548602880422e+18,61.94504223632813,0.16315192480882,-2.0471622149149575,0.7104362646738688,,,,,,,,,,,,1.688754860288066e+18,61.945066015625,-27.384119033813477,32.18359909057617,-30.35359916687012,1.688754860288066e+18,61.945066015625,-281.9127136230469,125.50139617919922,-162.35760192871095,1.6887548602923643e+18,61.949364664713535,-0.6826932827631632,0.2155802299578983,-0.3866727948188782,0.5811654925346375,-0.4281341036160787,0.8389597535133362,1.9244131644566853
2.0,1.688754860344273e+18,62.00127303059895,-0.1834357579549153,4.79183308283488,0.1423765818277994,1.688754860344273e+18,62.00127303059895,5.000002384185791,-3.1561330556869507,2.712663253148397,1.688754860344273e+18,62.00127303059895,5.177592118581136,-7.930461565653483,2.5075992743174234,1.6887548603356188e+18,61.99261873372396,1.462462306022644,0.0251472741365432,-2.576884150505066,1.6887548603399508e+18,61.99695100911458,1.5768977006276448,0.2007710337638855,-2.7530169089635215,,,,,,,,,,,,1.6887548603380623e+18,61.99506240234375,-23.51671943664551,34.43572006225586,-30.121799850463866,1.6887548603380623e+18,61.99506240234375,-278.0453186035156,127.75351409912108,-162.12579345703125,1.688754860344273e+18,62.00127303059895,-0.6512133876482645,0.2470844537019729,-0.4173826177914937,0.5831048091252645,-0.4492185513178507,0.9425764878590902,1.912425438563029
2.05,1.6887548603961784e+18,62.053178385416665,4.869278113047282,-3.151170412699381,1.68574857711792,1.6887548603961784e+18,62.053178385416665,8.805188655853271,-11.97986634572347,3.4923246701558432,1.6887548603961784e+18,62.053178385416665,3.930064598719279,-8.81119155883789,1.7438886960347493,1.6887548603875274e+18,62.04452742513021,1.4910711646080017,-0.2165008392184973,-2.8652634620666504,1.688754860391854e+18,62.048853841145835,1.3008884092171986,-0.4476624131202698,-2.632218321164449,,,,,,,,,,,,1.688754860388067e+18,62.0450671875,-18.229239463806152,39.76955947875977,-26.65455894470215,1.688754860388067e+18,62.0450671875,-272.7578369140625,133.0873596191406,-158.65856018066407,1.6887548603961784e+18,62.053178385416665,-0.6062555114428202,0.3154324491818746,-0.4468202690283456,0.5770379503568014,-0.4174120426177978,1.1161635716756184,1.883324424425761
2.1,1.6887548604480827e+18,62.10508251953125,10.01104990641276,-14.908034642537435,-0.7292377551396688,1.6887548604480827e+18,62.10508251953125,13.870195706685385,-23.716062863667805,1.3539388279120128,1.6887548604480827e+18,62.10508251953125,3.853299935658773,-8.790523529052734,2.0204891761144004,1.688754860439429e+18,62.096429199218754,0.3402519325415293,-3.140254577000936,1.409113387266795,1.6887548604437617e+18,62.100761555989585,0.3954334259033203,-3.2029701868693032,1.567531148592631,,,,,,,,,,,,1.6887548604380623e+18,62.095062304687495,-13.083279800415038,41.86307907104492,-26.583799362182617,1.6887548604380623e+18,62.095062304687495,-267.61187744140625,135.18087768554688,-158.58779602050782,1.6887548604480827e+18,62.10508251953125,-0.5722236831982931,0.2782497505346934,-0.4747922122478485,0.6074168880780538,-0.4816476901372273,1.110566775004069,1.8136651913324993
2.15,1.6887548604999864e+18,62.15698649088542,-6.821557839711507,-2.6614354451497397,5.1003661553064985,1.6887548604999864e+18,62.15698649088542,-2.820739110310873,-11.40758260091146,7.181658148765564,1.6887548604999864e+18,62.15698649088542,3.994972546895345,-8.728642463684082,2.018604358037313,1.688754860491334e+18,62.148333984375,0.2731076727310816,0.4213952223459878,0.0038178910811742,1.6887548604956575e+18,62.15265771484375,0.2404263814290364,0.7633270025253296,-0.0295251607894897,,,,,,,,,,,,1.6887548604880645e+18,62.14506455078125,-12.63431968688965,41.44339904785157,-27.32067985534668,1.6887548604880645e+18,62.14506455078125,-267.1629150390625,134.76119995117188,-159.32467956542968,1.6887548604999864e+18,62.15698649088542,-0.5598660906155905,0.2624296049276988,-0.4765246709187825,0.6248972614606222,-0.4667054712772369,1.0962570110956829,1.7493054072062175
2.2,1.6887548605432438e+18,62.20024365234375,-6.783117055892944,7.203272342681885,-0.858275294303894,1.6887548605432438e+18,62.20024365234375,-2.8268208503723145,-1.6402798984199762,0.8497511595487596,1.6887548605432438e+18,62.20024365234375,3.950450301170349,-8.826047897338867,1.6453390717506409,1.6887548605432443e+18,62.20024479166667,0.4987205664316813,2.1144591172536216,-0.978555217385292,1.68875486054757e+18,62.20456990559896,0.5402594059705734,2.1887811024983725,-1.3174836101631324,1.6887548605389202e+18,62.195920166015625,0.0,0.0,3.796729326248169,7.343999862670898,1.4274461269378662,97.42272186279295,333.1000061035156,-122.9164438,49.2793243,1.6887548605380634e+18,62.19506328125,-14.61315975189209,41.60199890136719,-25.966479110717778,1.6887548605380634e+18,62.19506328125,-269.1417541503906,134.91979370117187,-157.97047424316406,1.6887548605432438e+18,62.20024365234375,-0.569547027349472,0.2917600870132446,-0.4615486115217209,0.6142587661743164,-0.3927951157093048,1.118627429008484,1.7429946064949036
2.25,1.6887548605864983e+18,62.243498372395834,-3.845041831334432,1.2214528719584148,1.1145840287208555,1.6887548605864983e+18,62.243498372395834,-1.0307083129882812,-8.121040821075438,2.1639092365900674,1.6887548605864983e+18,62.243498372395834,2.80848757425944,-9.324989000956217,0.986637850602468,1.6887548605951396e+18,62.25213948567709,0.3527237772941589,4.1273109912872314,-4.684216499328613,1.6887548605994762e+18,62.256476074218746,0.267457162340482,4.3044618765513105,-4.784703890482585,,,,,,,,,,,,1.688754860588061e+18,62.24506088867188,-13.032040023803711,43.76139907836914,-23.14339942932129,1.688754860588061e+18,62.24506088867188,-267.5606323242188,137.07919616699218,-155.14739379882812,1.6887548605864983e+18,62.243498372395834,-0.5680661797523499,0.3767491777737935,-0.4617299238840739,0.5658353169759115,-0.3357457220554352,1.261230985323588,1.8223799467086792
2.3,1.688754860638406e+18,62.295405843098955,-7.598300615946452,2.728719393412272,-2.313750922679901,1.688754860638406e+18,62.295405843098955,-6.819145838419597,-7.026324272155762,-1.4638092120488484,1.688754860638406e+18,62.295405843098955,0.773308535416921,-9.737538973490397,0.7872543732325236,1.6887548606470546e+18,62.30405452473959,-1.9499327739079793,3.5444437662760415,-2.6758442719777427,1.6887548606427238e+18,62.29972387695312,-1.756542980670929,3.8417314291000366,-3.020041346549988,,,,,,,,,,,,1.68875486063806e+18,62.29506020507813,-7.908039855957031,44.99115905761719,-21.66231918334961,1.68875486063806e+18,62.29506020507813,-262.43663330078124,138.3089569091797,-153.66631774902345,1.688754860638406e+18,62.295405843098955,-0.574303150177002,0.4956495960553487,-0.4628067811330159,0.4571103354295094,-0.8221371670564016,1.4505664507548015,2.5434228579203286
2.35,1.6887548606903058e+18,62.34730558268229,-1.433192491531372,-4.908867835998535,-2.719770868619283,1.6887548606903058e+18,62.34730558268229,-1.4614164034525554,-14.571093877156576,-0.8875377724568049,1.6887548606903058e+18,62.34730558268229,-0.0340699752171834,-9.644721666971842,1.7695457537968953,1.6887548606989545e+18,62.35595426432292,-1.0329222058256466,-1.5271630774950609,-1.48638782898585,1.6887548606859848e+18,62.34298470052082,-1.7849991222222643,-0.5218825340270996,-1.2001974980036418,,,,,,,,,,,,1.6887548606880625e+18,62.34506240234375,-5.072759914398193,43.3563591003418,-25.741999435424805,1.6887548606880625e+18,62.34506240234375,-259.6013488769531,136.67415466308594,-157.74599609375,1.6887548606903058e+18,62.34730558268229,-0.5905143618583679,0.5124231378237406,-0.4884211122989654,0.3870409031709035,-1.5755670468012493,1.3882461388905842,-2.9078858693440757
2.4,1.688754860742215e+18,62.39921459960937,3.3048340678215027,1.6760822931925456,-3.5498417218526206,1.688754860742215e+18,62.39921459960937,2.296910345554352,-7.927421569824219,-1.6791632572809856,1.688754860742215e+18,62.39921459960937,-1.0137698252995808,-9.585999170939129,1.807990988095601,1.688754860742215e+18,62.39921459960938,0.5371032804250717,1.6847662925720217,-2.0407480597496033,1.68875486073789e+18,62.39489013671875,0.412283144891262,0.9731082916259766,-2.076432744661967,,,,,,,,,,,,1.6887548607380588e+18,62.395058740234376,0.1829999804496765,42.99524002075195,-26.569160079956056,1.6887548607380588e+18,62.395058740234376,-254.34559631347656,136.3130340576172,-158.57315673828126,1.688754860742215e+18,62.39921459960937,-0.5601297815640768,0.5350775917371114,-0.5145268440246582,0.3671311835447947,-2.077557682991028,1.357437252998352,-2.4196091492970786
2.45,1.688754860794121e+18,62.45112093098959,2.8564985593159995,2.5591770807902017,-0.7836207548777262,1.688754860794121e+18,62.45112093098959,1.1254242658615112,-6.980262438456218,0.8616155510147413,1.688754860794121e+18,62.45112093098959,-1.7369203567504885,-9.521934827168783,1.5825488964716594,1.688754860785465e+18,62.44246549479167,0.5696318546930949,1.1436415414015453,-1.726101557413737,1.6887548607897956e+18,62.446795491536456,0.5052873690923055,0.9089166124661764,-1.6842063665390017,,,,,,,,,,,,1.6887548607880617e+18,62.445061816406245,1.4322799682617189,43.76871948242187,-25.50287971496582,1.6887548607880617e+18,62.445061816406245,-253.0963165283203,137.08651428222657,-157.50687561035156,1.688754860794121e+18,62.45112093098959,-0.5497676928838094,0.5835904280344645,-0.497541477282842,0.3308873871962228,-2.3980433146158853,1.328972061475118,-2.0059409141540527
2.5,1.688754860846022e+18,62.503021809895834,2.096349557240804,0.3584556579589844,-1.0839156707127888,1.688754860846022e+18,62.503021809895834,-0.0251246293385823,-9.088737805684408,0.6472585101922353,1.688754860846022e+18,62.503021809895834,-2.127320210138957,-9.429688771565756,1.6684867938359578,1.6887548608373732e+18,62.49437320963542,-0.2172644088665644,0.9488773345947266,-0.6685920059680939,1.688754860841701e+18,62.498700927734376,-0.2402736643950144,1.0966558357079823,-0.6343326568603516,,,,,,,,,,,,1.6887548608380646e+18,62.49506455078125,3.6868400096893312,43.51007995605469,-25.275959014892575,1.6887548608380646e+18,62.49506455078125,-250.8417541503906,136.8278778076172,-157.2799560546875,1.688754860846022e+18,62.503021809895834,-0.5444621046384176,0.6011577447255453,-0.4966860910256703,0.3087894320487976,-2.476731936136882,1.2923328081766765,-1.8904448350270588
2.55,1.6887548608979305e+18,62.554930419921874,1.581315279006958,-0.9867496490478516,-1.8074626525243125,1.6887548608979305e+18,62.554930419921874,-0.9463613033294678,-10.294122378031412,0.1232303778330485,1.6887548608979305e+18,62.554930419921874,-2.533522605895996,-9.289868036905924,1.868005633354187,1.6887548608892792e+18,62.54627888997396,-0.2972877522309621,0.1996511369943618,-1.1524991194407146,1.6887548608936008e+18,62.5506006673177,-0.3231477091709773,0.0314595624804497,-1.133155067761739,,,,,,,,,,,,1.688754860888063e+18,62.54506303710938,4.182159900665283,43.136759185791014,-26.405679321289064,1.688754860888063e+18,62.54506303710938,-250.3464324951172,136.45455322265624,-158.40967712402343,1.6887548608979305e+18,62.554930419921874,-0.5399214824040731,0.6168193419774374,-0.4983313878377278,0.2821533779303232,-2.505227009455363,1.2447956403096516,-1.8234970172246296
2.6,1.6887548609498358e+18,62.6068359375,2.1905413071314492,-6.154905954996745,-6.957748254140218,1.6887548609498358e+18,62.6068359375,-0.5206383069356283,-15.396218617757162,-4.952744166056315,1.6887548609498358e+18,62.6068359375,-2.7170255978902182,-9.223808606465658,1.9423168500264485,1.688754860941185e+18,62.59818513997396,-0.2413426836331685,-0.181223360200723,-0.0899499083558718,1.6887548609455084e+18,62.602508300781246,-0.1386154989401499,-0.1825468900303046,-0.0650571485360463,,,,,,,,,,,,1.6887548609380646e+18,62.59506479492187,5.936520004272461,42.412078857421875,-26.954679107666017,1.6887548609380646e+18,62.59506479492187,-248.59207153320312,135.7298797607422,-158.95867919921875,1.6887548609498358e+18,62.6068359375,-0.5329233805338541,0.6164182821909586,-0.508130669593811,0.2789543469746907,-2.5206778844197593,1.224089503288269,-1.8218367099761963
2.65,1.6887548609930906e+18,62.65009069824218,4.200036525726318,-5.823975086212158,-1.877807319164276,1.6887548609930906e+18,62.65009069824218,1.5487544536590576,-15.149558067321776,-0.2303091883659364,1.6887548609930906e+18,62.65009069824218,-2.657128095626831,-9.308078289031982,1.584810733795166,1.6887548609930916e+18,62.650091552734374,1.0524189670880637,-0.2891937966148059,0.9218465189139048,1.6887548609974172e+18,62.65441731770833,1.062701900800069,-0.2079996189568191,1.216436316569646,,,,,,,,,,,,1.6887548609880625e+18,62.645062499999995,6.390359783172608,42.56335983276367,-26.19583930969238,1.6887548609880625e+18,62.645062499999995,-248.1382354736328,135.88115539550782,-158.19983825683593,1.6887548609930906e+18,62.65009069824218,-0.5270802080631256,0.6203435957431793,-0.5002555996179581,0.2950300872325897,-2.603964686393738,1.250604212284088,-1.7497949600219729
2.7,1.6887548610363482e+18,62.69334806315104,0.1836495796839396,-2.3527119954427085,1.5636404355367024,1.6887548610363482e+18,62.69334806315104,-1.285543978214264,-11.975479125976562,2.854836861292521,1.6887548610363482e+18,62.69334806315104,-1.475039541721344,-9.605262438456217,1.228508989016215,1.688754861044996e+18,62.701996175130205,0.4978042642275492,-0.0568613757689793,3.759621143341065,1.6887548610493225e+18,62.706322591145835,0.4370740701754887,-0.1371901618937651,3.799480040868123,1.6887548610579743e+18,62.714974609375,0.0,0.0,3.796729326248169,7.045000076293945,1.4063482284545898,97.27741241455078,333.1000061035156,-122.9164385,49.2793238,1.6887548610380636e+18,62.695063671875005,2.0007999777793883,44.55927963256836,-24.246279525756837,1.6887548610380636e+18,62.695063671875005,-252.52779235839844,137.8770782470703,-156.25027770996093,1.6887548610363482e+18,62.69334806315104,-0.5592389305432638,0.5960156917572021,-0.4682974517345428,0.3345967233181,-2.409312089284261,1.3719053268432615,-1.9469934304555256
2.75,1.6887548610882511e+18,62.74525105794271,-2.414530595143636,-5.307031949361165,3.3454044659932456,1.6887548610882511e+18,62.74525105794271,-2.0572292804718018,-15.054642995198568,4.507080793380737,1.6887548610882511e+18,62.74525105794271,0.3514552811781565,-9.730106671651203,1.0989889701207478,1.6887548610969016e+18,62.75390169270833,0.1423316001892089,-0.0939714337388674,3.6334264278411865,1.6887548610925716e+18,62.749571777343746,0.192346192896366,-0.2060906738042831,3.532710075378418,,,,,,,,,,,,1.6887548610880645e+18,62.74506450195313,-5.8999199867248535,44.59831924438477,-23.470359802246097,1.6887548610880645e+18,62.74506450195313,-260.428515625,137.9161163330078,-155.47435607910157,1.6887548610882511e+18,62.74525105794271,-0.6071616609891256,0.5400903224945068,-0.4356005688508351,0.386383722225825,-1.292217195034027,1.443894584973653,-0.9983866214752196
2.8,1.688754861140152e+18,62.79715209960938,-3.758842388788859,-6.786701202392578,5.562070369720459,1.688754861140152e+18,62.79715209960938,-1.523829201857249,-16.268004099527996,6.8297139803568525,1.688754861140152e+18,62.79715209960938,2.229167222976685,-9.463798840840658,1.20495609442393,1.688754861148807e+18,62.80580696614584,-0.4509203707178433,-1.1004228095213573,3.3482542832692466,1.6887548611358287e+18,62.79282861328125,-0.4490877650678158,-0.1198823153972625,3.7834957440694175,,,,,,,,,,,,1.6887548611380634e+18,62.7950634765625,-15.06943950653076,42.9098388671875,-23.358119583129884,1.6887548611380634e+18,62.7950634765625,-269.5980285644531,136.22763671875,-155.36211853027345,1.688754861140152e+18,62.79715209960938,-0.6595899065335592,0.4765912493069966,-0.398102194070816,0.4226438999176025,-0.5033529500166575,1.3084177573521931,2.393749475479126
2.85,1.688754861192058e+18,62.84905786132813,-1.209067742029826,-4.080467542012532,-1.7090946833292644,1.688754861192058e+18,62.84905786132813,2.2195424238840737,-13.189238548278809,-0.3332006136576335,1.688754861192058e+18,62.84905786132813,3.4227641423543296,-9.09126631418864,1.3132065931955974,1.6887548611920614e+18,62.8490615234375,1.162323832511902,-0.6015495657920837,2.5468499660491943,1.6887548611877368e+18,62.84473714192709,0.9265807792544364,-1.238732894261678,2.4666229089101157,,,,,,,,,,,,1.6887548611880653e+18,62.84506518554688,-20.261759948730468,40.39176025390625,-24.75135955810547,1.6887548611880653e+18,62.84506518554688,-274.7903564453125,133.70955810546874,-156.75535583496094,1.688754861192058e+18,62.84905786132813,-0.6727195183436075,0.4156163732210795,-0.3902283012866974,0.4711706042289734,-0.3699659903844197,1.1859838962554932,2.1724841594696045
2.9,1.6887548612439672e+18,62.900967041015626,-12.426665941874186,8.884289423624674,-2.8904001712799072,1.6887548612439672e+18,62.900967041015626,-7.868597984313965,0.2382852633794148,-1.868794520696004,1.6887548612439672e+18,62.900967041015626,4.552221775054932,-8.628499666849772,0.9589182535807292,1.68875486123532e+18,62.89232023111979,1.3560190598169963,-2.243911703427633,2.8404725392659507,1.6887548612396424e+18,62.896642333984374,1.208444168170293,-2.5879306395848594,2.9146926403045654,,,,,,,,,,,,1.6887548612380595e+18,62.895059521484384,-24.619599533081058,39.142479705810544,-22.955519104003905,1.6887548612380595e+18,62.895059521484384,-279.148193359375,132.4602813720703,-154.9595153808594,1.6887548612439672e+18,62.900967041015626,-0.6661598483721415,0.3645345369974772,-0.3663198848565419,0.5367796222368876,-0.2065374354521433,1.0756022930145264,1.9088530937830608
2.95,1.6887548612958728e+18,62.95287247721354,-5.22924788792928,10.212493578592936,-0.7036887407302856,1.6887548612958728e+18,62.95287247721354,0.274177610874176,2.3068803946177163,1.271585817138354,1.6887548612958728e+18,62.95287247721354,5.497579415639241,-7.888108730316162,1.9125871658325195,1.6887548612872212e+18,62.944221354166665,-0.4150829364856084,-3.483306328455607,2.477771242459615,1.6887548612915443e+18,62.94854427083334,-0.4319835503896077,-3.3488141695658364,2.2464569409688315,,,,,,,,,,,,1.6887548612880645e+18,62.945064550781254,-25.92987937927246,36.26571960449219,-26.344679260253905,1.6887548612880645e+18,62.945064550781254,-280.4584716796875,129.5835174560547,-158.3486755371094,1.6887548612958728e+18,62.95287247721354,-0.6566779613494873,0.2643315742413202,-0.3860596517721812,0.5909333229064941,-0.3328751424948374,0.9339272578557332,1.8445093234380088
3.0,1.6887548613477765e+18,63.004776123046874,-1.536065657933553,6.467750072479248,-0.019540786743164,1.6887548613477765e+18,63.004776123046874,3.7429727713267007,-1.4612170259157815,2.4436701933542886,1.6887548613477765e+18,63.004776123046874,5.273192405700684,-7.911462783813477,2.400523583094279,1.6887548613391268e+18,62.99612670898438,0.7499898125727972,-1.436755081017812,-0.8841765274604162,1.6887548613434534e+18,63.00045345052084,0.8989900151888529,-1.2480485637982686,-1.1427761564652126,,,,,,,,,,,,1.6887548613380608e+18,62.995060839843745,-23.611879730224608,35.633759307861325,-29.23607940673828,1.6887548613380608e+18,62.995060839843745,-278.140478515625,128.9515594482422,-161.24007873535157,1.6887548613477765e+18,63.004776123046874,-0.6326524615287781,0.2350075344244639,-0.4189992646376292,0.6072251598040262,-0.4266853829224904,0.9380565285682678,1.8304829200108843
3.05,1.688754861399683e+18,63.056683268229165,3.4660730361938477,2.922308603922526,0.8903955221176147,1.688754861399683e+18,63.056683268229165,7.680163065592448,-5.769095420837402,2.7130620876948037,1.688754861399683e+18,63.056683268229165,4.20824400583903,-8.673899332682291,1.759979208310445,1.688754861391034e+18,63.04803393554688,1.731446623802185,0.2064724589387575,-2.848108291625977,1.6887548613953587e+18,63.05235872395833,1.6353371540705364,0.2094758761425812,-2.860478321711222,,,,,,,,,,,,1.688754861388067e+18,63.04506708984375,-18.37563991546631,39.33767929077148,-26.9937198638916,1.688754861388067e+18,63.04506708984375,-272.90422973632815,132.6554748535156,-158.99772033691406,1.688754861399683e+18,63.056683268229165,-0.5902034044265747,0.2892193694909413,-0.448517362276713,0.6052625179290771,-0.3943919936815898,1.085995316505432,1.7852782011032104
3.1,1.688754861442937e+18,63.0999375,6.966877222061157,-19.466434001922607,4.34959614276886,1.688754861442937e+18,63.0999375,10.538290023803713,-28.43271541595459,6.2602221965789795,1.688754861442937e+18,63.0999375,3.565566658973694,-8.948776721954346,1.847938597202301,1.688754861442938e+18,63.09993782552083,-0.2609921675175429,-2.627535065015157,0.2203187147776285,1.688754861447261e+18,63.10426066080729,-0.2762128987039129,-2.862158179283142,0.617890199025472,,,,,,,,,,,,1.68875486143806e+18,63.09506000976562,-12.23415985107422,41.99239883422852,-26.391039276123045,1.68875486143806e+18,63.09506000976562,-266.76275024414065,135.31019592285156,-158.3950408935547,1.688754861442937e+18,63.0999375,-0.5642724633216858,0.2940079569816589,-0.4809044003486633,0.6030053496360779,-0.4763659536838531,1.1482078433036804,1.8158136010169983
3.15,1.6887548614861878e+18,63.143188069661456,5.6201566855112715,-0.9764790534973145,3.2811543146769204,1.6887548614861878e+18,63.143188069661456,9.536395390828451,-9.68215799331665,5.677769422531128,1.6887548614861878e+18,63.143188069661456,3.9103926022847495,-8.6881742477417,2.333927551905314,1.6887548614948406e+18,63.151840494791664,0.4460334380467732,-1.750485251347224,0.4050545692443847,1.6887548614991675e+18,63.15616723632812,0.4841107080380122,-1.3920600712299347,0.0889826913674672,,,,,,,,,,,,1.688754861488057e+18,63.14505717773437,-10.98487968444824,41.22135925292969,-27.757439422607423,1.688754861488057e+18,63.14505717773437,-265.5134704589844,134.5391632080078,-159.76143798828124,1.6887548614861878e+18,63.143188069661456,-0.5406341552734375,0.2336030850807825,-0.4956098298231761,0.6381431221961975,-0.537210206190745,1.087365984916687,1.73548158009847
3.2,1.6887548615380964e+18,63.19509635416667,-7.243181705474853,-5.382920742034912,-0.7802832921346029,1.6887548615380964e+18,63.19509635416667,-3.495913823445638,-14.209179401397703,1.43389896551768,1.6887548615380964e+18,63.19509635416667,3.7414217789967856,-8.808754603068033,2.151494820912679,1.6887548615467456e+18,63.203745686848954,0.1763873460392157,1.4948890606562295,-0.3444770872592926,1.688754861542425e+18,63.199425048828125,0.1278999056667089,1.6483435034751892,0.0328340083360671,,,,,,,,,,,,1.6887548615380598e+18,63.19505976562501,-10.772599601745606,41.8484390258789,-27.17671928405762,1.6887548615380598e+18,63.19505976562501,-265.3011901855469,135.1662353515625,-159.18071899414062,1.6887548615380964e+18,63.19509635416667,-0.5318148136138916,0.2440206756194432,-0.4993022779623667,0.6388926307360331,-0.5208116968472799,1.1144393682479858,1.7173943916956584
3.25,1.6887548615899996e+18,63.24699943033854,-3.923414866129557,3.922461827596029,0.6215238571166992,1.6887548615899996e+18,63.24699943033854,-0.5284150193134943,-5.171487808227539,2.156132618586222,1.6887548615899996e+18,63.24699943033854,3.3891537189483643,-9.076444943745932,1.4719213644663494,1.6887548615986542e+18,63.25565421549479,0.8112290600935618,4.416402975718181,-2.9617292086283364,1.6887548615856776e+18,63.24267765299479,0.8066475590070089,3.416518489519755,-2.0229820807774863,,,,,,,,,,,,1.6887548615880617e+18,63.24506181640625,-11.694919776916503,42.55603942871094,-25.21007957458496,1.6887548615880617e+18,63.24506181640625,-266.2235107421875,135.87383422851562,-157.21408081054688,1.6887548615899996e+18,63.24699943033854,-0.5444172620773315,0.3060586551825205,-0.4817748467127481,0.6135602394739786,-0.4027909636497497,1.1829537947972617,1.7229846715927124
3.3,1.6887548616419085e+18,63.298908447265624,-6.0073316891988116,2.6779661178588867,1.3749079704284668,1.6887548616419085e+18,63.298908447265624,-4.457230408986409,-6.971887588500977,2.2670000791549683,1.6887548616419085e+18,63.298908447265624,1.5442553758621216,-9.632349014282228,0.8294047315915426,1.6887548616505592e+18,63.30755940755208,-1.2137892643610635,4.817079544067383,-4.349971373875936,1.688754861637585e+18,63.2945849609375,-0.6314310170710087,4.860807577768962,-4.779715061187744,,,,,,,,,,,,1.6887548616380626e+18,63.2950626953125,-8.818159866333009,44.67151870727539,-22.347959899902342,1.6887548616380626e+18,63.2950626953125,-263.3467590332031,137.98931579589845,-154.35195922851562,1.6887548616419085e+18,63.298908447265624,-0.559831460316976,0.4391625920931498,-0.4764532148838043,0.5141911804676056,-0.5438093741734823,1.387088139851888,2.1228257417678833
3.35,1.688754861693814e+18,63.35081388346354,-8.779781341552734,-2.983012835184733,-2.28308234612147,1.688754861693814e+18,63.35081388346354,-8.533603032430014,-12.67179044087728,-0.6233302851517996,1.688754861693814e+18,63.35081388346354,0.2403324594100316,-9.671272913614908,1.597064693768819,1.688754861693811e+18,63.350811035156255,-2.2103395462036133,1.728595905005932,-1.2060770392417908,1.6887548616894938e+18,63.34649381510417,-2.1443915367126465,2.182825207710266,-1.6374752521514893,,,,,,,,,,,,1.6887548616880648e+18,63.34506479492188,-6.175639915466308,43.87608032226562,-24.265799713134765,1.6887548616880648e+18,63.34506479492188,-260.70423583984376,137.19387817382812,-156.2697967529297,1.688754861693814e+18,63.35081388346354,-0.5902846058209738,0.5040104786554972,-0.4830457866191864,0.4047851761182149,-1.3992592096328735,1.4045796791712444,-1.0111456712086997
3.4,1.6887548617457152e+18,63.40271500651042,7.010196050008138,-0.7568604151407877,-3.045745849609375,1.6887548617457152e+18,63.40271500651042,6.236493269602458,-10.371290842692057,-1.1335997184117634,1.6887548617457152e+18,63.40271500651042,-0.7795486748218536,-9.596925735473633,1.849458694458008,1.6887548617370675e+18,63.39406746419271,0.0729984045028686,-1.5613205830256145,-2.1943806807200112,1.688754861741395e+18,63.39839493815104,0.2524400651454925,-1.0943650404612224,-2.2827016512552896,,,,,,,,,,,,1.6887548617380603e+18,63.395060400390626,-1.9300399422645569,42.52431869506836,-26.80583953857422,1.6887548617380603e+18,63.395060400390626,-256.45863647460936,135.8421203613281,-158.8098358154297,1.6887548617457152e+18,63.40271500651042,-0.5558770497639974,0.5112621386845907,-0.527090847492218,0.389147271712621,-1.964068094889323,1.3626319964726763,-2.5964470704396567
3.45,1.6887548617976248e+18,63.45462483723958,0.2346878449122111,3.115952809651693,-1.530889054139455,1.6887548617976248e+18,63.45462483723958,-1.2574283281962078,-6.46500809987386,0.1140578867246707,1.6887548617976248e+18,63.45462483723958,-1.497962196667989,-9.563456217447916,1.5822595357894895,1.6887548617889702e+18,63.445970540364584,0.8504262169202169,2.9437087376912436,-1.6522886753082275,1.6887548617933005e+18,63.45030037434896,0.8184067209561666,2.8515189488728843,-1.632333755493164,,,,,,,,,,,,1.6887548617880632e+18,63.445063476562495,1.7079999685287477,43.0586799621582,-25.88595962524414,1.6887548617880632e+18,63.445063476562495,-252.82059326171876,136.37647399902343,-157.88995666503905,1.6887548617976248e+18,63.45462483723958,-0.5528747836748759,0.570758044719696,-0.4999702870845794,0.3436839083830516,-2.3257064819335938,1.3469854195912678,-2.1039317051569624
3.5,1.68875486184953e+18,63.50652994791667,1.6409461895624795,1.8186086018880208,-0.8993527094523112,1.68875486184953e+18,63.50652994791667,-0.6113661825656891,-7.619544665018718,0.6939185857772827,1.68875486184953e+18,63.50652994791667,-2.2581583658854165,-9.420648574829102,1.5305838982264202,1.6887548618408794e+18,63.49787939453125,0.0748819013436635,0.6355034609635671,-1.767589529355367,1.6887548618452058e+18,63.50220564778646,-0.0104356079051891,0.4956153432528178,-1.7225381930669148,1.688754861860937e+18,63.51793701171875,12.51822280883789,0.2399527579545974,3.8071134090423584,6.764999866485596,1.2493959665298462,96.47645568847656,333.1000061035156,-122.9164309,49.2793209,1.6887548618380664e+18,63.49506640625,2.786479902267456,43.8223991394043,-24.87579917907715,1.6887548618380664e+18,63.49506640625,-251.74211730957032,137.14019775390625,-156.87980041503906,1.68875486184953e+18,63.50652994791667,-0.5388953487078348,0.609964112440745,-0.4926555852095286,0.3077321251233418,-2.5437092781066895,1.2895021041234334,-1.814866542816162
3.55,1.6887548618927772e+18,63.54977722167969,3.3635114431381226,-3.0787200927734375,-1.4614066183567047,1.6887548618927772e+18,63.54977722167969,0.5458626672625542,-12.328420639038086,0.3364906907081604,1.6887548618927772e+18,63.54977722167969,-2.823494791984558,-9.232195854187012,1.735209882259369,1.6887548618927775e+18,63.54977775065104,-0.7831292351086935,-0.4562145248055458,-1.3497576713562012,1.6887548618971113e+18,63.55411116536459,-0.8005388975143433,-0.4897612233956654,-1.315956473350525,,,,,,,,,,,,1.6887548618880625e+18,63.54506245117187,5.970679855346679,42.868359375,-25.988439559936523,1.6887548618880625e+18,63.54506245117187,-248.5579162597656,136.1861572265625,-157.9924346923828,1.6887548618927772e+18,63.54977722167969,-0.5226417481899261,0.6189294457435608,-0.5104238390922546,0.2884136736392975,-2.5904895067214966,1.2268666625022888,-1.7722532749176023
3.6,1.6887548619360407e+18,63.59304069010417,5.312000672022502,-4.839383125305176,-5.539930502573649,1.6887548619360407e+18,63.59304069010417,2.228316068649292,-13.957134882609049,-3.510868946711222,1.6887548619360407e+18,63.59304069010417,-3.0895307064056396,-9.100247065226236,1.9663742780685425,1.6887548619446866e+18,63.6016865234375,-0.3422372515002886,0.6101525829484066,0.0965167085329691,1.6887548619490163e+18,63.60601652018229,-0.2385937968889872,0.6856962243715922,0.1940515240033467,,,,,,,,,,,,1.6887548619380677e+18,63.59506743164063,8.766919708251953,41.487318420410155,-27.001039505004883,1.6887548619380677e+18,63.59506743164063,-245.7616760253906,134.80512084960938,-159.00503540039062,1.6887548619360407e+18,63.59304069010417,-0.5162666241327921,0.618192712465922,-0.5244315266609192,0.2761139969031015,-2.57481320699056,1.1887823740641277,-1.7958128849665325
3.65,1.6887548619879375e+18,63.6449374186198,1.574182351430257,-4.615148226420085,-3.6821163098017378,1.6887548619879375e+18,63.6449374186198,-1.3088740507761638,-13.822140057881674,-1.771685798962911,1.6887548619879375e+18,63.6449374186198,-2.888902425765991,-9.18948745727539,1.847743074099223,1.6887548619965957e+18,63.65359562174479,0.920879364013672,-0.3488040616114933,0.9157887796560924,1.6887548619922642e+18,63.64926428222656,0.9490555226802826,-0.4990769177675247,0.4483750909566879,,,,,,,,,,,,1.6887548619880658e+18,63.645065624999994,7.388319873809815,42.0241195678711,-26.83511962890625,1.6887548619880658e+18,63.645065624999994,-247.14027709960936,135.3419219970703,-158.83911743164063,1.6887548619879375e+18,63.6449374186198,-0.5235910018285116,0.620189905166626,-0.5121579567591349,0.2807671626408894,-2.57340677579244,1.2141748666763306,-1.7805402676264446
3.7,1.68875486203985e+18,63.696850097656245,0.5807495911916097,-3.610042572021485,1.5177220106124878,1.68875486203985e+18,63.696850097656245,-1.1186445554097493,-13.171890576680502,2.9651060899098716,1.68875486203985e+18,63.696850097656245,-1.7052401304244995,-9.54434331258138,1.3846966822942095,1.6887548620485007e+18,63.70550089518229,0.8616254329681396,0.3857613901297251,3.85415244102478,1.6887548620355228e+18,63.69252303059896,0.9069821834564208,0.3889684478441874,3.470630884170532,,,,,,,,,,,,1.6887548620380646e+18,63.695064648437494,2.6303199768066405,43.88583908081055,-24.829439163208008,1.6887548620380646e+18,63.695064648437494,-251.89827575683591,137.2036376953125,-156.83343505859375,1.68875486203985e+18,63.696850097656245,-0.5545878410339355,0.5985912879308065,-0.4774531821409861,0.3245533208052317,-2.430753231048584,1.3435511986414592,-1.926220417022705
3.75,1.6887548620917555e+18,63.748755533854165,-3.4225494861602783,-5.381538073221843,3.245875517527262,1.6887548620917555e+18,63.748755533854165,-3.2773693799972534,-15.138591448465982,4.387240330378215,1.6887548620917555e+18,63.748755533854165,0.139334092537562,-9.739548683166504,1.0786773363749187,1.6887548621004063e+18,63.7574063313802,0.2904155179858207,-0.527685766418775,3.344130833943685,1.688754862087431e+18,63.74443098958333,0.4671591967344283,-0.5497278074423472,3.4934874375661216,1.6887548620787802e+18,63.7357802734375,0.0,0.0,3.8071134090423584,6.451000213623047,1.2222275733947754,95.6360092163086,333.1000061035156,-122.9164262,49.2793206,1.6887548620880625e+18,63.74506240234375,-5.287479829788208,44.38115921020508,-23.06775932312012,1.6887548620880625e+18,63.74506240234375,-259.8160827636719,137.69895935058594,-155.07175903320314,1.6887548620917555e+18,63.748755533854165,-0.602576752503713,0.5492527286211649,-0.4366408189137776,0.3794824679692586,-1.4423678914705913,1.4513256947199504,-0.8377064863840739
3.8,1.688754862143656e+18,63.800655924479166,-2.2880586783091226,-5.162757873535156,6.1494371096293134,1.688754862143656e+18,63.800655924479166,-0.4279164274533589,-14.734004974365234,7.3308108647664385,1.688754862143656e+18,63.800655924479166,1.8542962471644084,-9.553742408752443,1.1186863978703816,1.688754862143661e+18,63.80066088867187,-0.2448042500764131,-0.5579490587115288,3.830048680305481,1.6887548621393354e+18,63.79633553059896,-0.1944587702552477,-0.5054909996688366,3.7067812283833823,,,,,,,,,,,,1.6887548621380662e+18,63.79506611328125,-13.00763988494873,43.336839294433595,-23.487439346313472,1.6887548621380662e+18,63.79506611328125,-267.53623657226564,136.654638671875,-155.49143676757814,1.688754862143656e+18,63.800655924479166,-0.6447194814682007,0.4880714615186055,-0.4080498019854228,0.422902911901474,-0.5607375601927439,1.3466148376464844,2.436519304911295
3.85,1.6887548621955628e+18,63.85256274414062,-0.9829736550649008,-4.258502006530762,0.1780386765797933,1.6887548621955628e+18,63.85256274414062,2.309073885281881,-13.397413889567057,1.708475410938263,1.6887548621955628e+18,63.85256274414062,3.2862014770507812,-9.121407190958658,1.4677493174870808,1.6887548621869156e+18,63.843915445963546,-0.1142317950725555,-1.6329955259958904,2.8031588395436606,1.688754862191242e+18,63.84824186197917,0.0183259546756744,-1.456659068663915,2.6872471968332925,,,,,,,,,,,,1.6887548621880622e+18,63.84506245117187,-18.756279754638673,40.71383895874023,-24.692799758911132,1.6887548621880622e+18,63.84506245117187,-273.2848754882813,134.0316375732422,-156.69679565429686,1.6887548621955628e+18,63.85256274414062,-0.6700724562009176,0.4144181907176971,-0.4003215034802754,0.46757839123408,-0.4203306535879771,1.1943999528884888,2.2120381196339927
3.9,1.6887548622474744e+18,63.9044746907552,-11.99373467763265,5.114796320597331,-2.5567427476247153,1.6887548622474744e+18,63.9044746907552,-7.772286732991536,-3.675375541051229,-1.291326602300008,1.6887548622474744e+18,63.9044746907552,4.2156022389729815,-8.772667249043783,1.2027287483215332,1.6887548622388196e+18,63.895819824218755,1.1276063720385234,-1.133307735125224,2.213317553202311,1.6887548622431457e+18,63.900145589192704,1.0746137698491414,-1.4678074071804683,2.225229342778524,,,,,,,,,,,,1.688754862238063e+18,63.895063134765635,-22.247919464111327,39.225439453125,-24.16819953918457,1.688754862238063e+18,63.895063134765635,-276.776513671875,132.5432342529297,-156.1721954345703,1.6887548622474744e+18,63.9044746907552,-0.6695019602775574,0.3745313286781311,-0.3798834880193074,0.516369511683782,-0.2773675521214803,1.1067870457967122,2.0000873804092407
3.95,1.688754862299377e+18,63.956377115885424,-6.507961908976237,12.114221254984535,-1.771461566289266,1.688754862299377e+18,63.956377115885424,-1.3603196342786152,3.963511308034261,0.1601197297374407,1.688754862299377e+18,63.956377115885424,5.141796429951985,-8.13320541381836,1.86889390150706,1.6887548622907318e+18,63.94773160807292,-0.3435099025567372,-2.9274699687957764,2.800359010696411,1.688754862295052e+18,63.95205192057292,-0.4093815311789512,-2.782796621322632,2.67757511138916,,,,,,,,,,,,1.6887548622880635e+18,63.945063427734375,-23.887599182128906,37.49059906005859,-25.568759155273437,1.6887548622880635e+18,63.945063427734375,-278.4161865234375,130.8083984375,-157.5727569580078,1.688754862299377e+18,63.956377115885424,-0.6626380085945129,0.2893762687842051,-0.3915994167327881,0.5684932470321655,-0.3464584747950236,0.9778576095898946,1.908608118693034
4.0,1.6887548623426312e+18,63.99963122558593,-3.903855085372925,7.9816200733184814,0.0957467555999755,1.6887548623426312e+18,63.99963122558593,1.380060464143753,0.0637089014053344,2.5980072021484375,1.6887548623426312e+18,63.99963122558593,5.278069496154785,-7.9004065990448,2.439573049545288,1.688754862342625e+18,63.99962483723959,0.2905682375033696,-1.4094697038332622,-0.4555018544197082,1.6887548623469586e+18,64.00395857747397,0.4276056637366612,-1.2557353377342224,-0.7188356816768646,,,,,,,,,,,,1.6887548623380657e+18,63.99506572265625,-23.885159301757813,35.25555953979492,-28.58703956604004,1.6887548623380657e+18,63.99506572265625,-278.41375122070315,128.57335815429687,-160.59103698730468,1.6887548623426312e+18,63.99963122558593,-0.654923677444458,0.2484293207526206,-0.4110273718833923,0.5834105610847473,-0.4323378205299377,0.935735046863556,1.907230794429779
4.05,1.6887548623858831e+18,64.04288297526041,1.022541840871175,5.65593687693278,0.3464710315068562,1.6887548623858831e+18,64.04288297526041,5.58704137802124,-2.7595227559407554,2.5842483838399253,1.6887548623858831e+18,64.04288297526041,4.558653513590495,-8.397955258687338,2.175089955329895,1.688754862394537e+18,64.05153694661459,1.55531378587087,-0.0315613696972529,-2.9866729577382407,1.6887548623988634e+18,64.05586344401041,1.522581617037455,0.0277943685650825,-3.0977485179901123,,,,,,,,,,,,1.6887548623880604e+18,64.04506040039062,-20.30811958312988,37.19779968261719,-28.333279037475585,1.6887548623880604e+18,64.04506040039062,-274.83671875,130.51559753417968,-160.3372772216797,1.6887548623858831e+18,64.04288297526041,-0.6262463927268982,0.2777607440948486,-0.4356886744499206,0.5833727121353149,-0.4438102841377258,1.028776745001475,1.8950988054275513
4.1,1.688754862437788e+18,64.09478808593751,6.7461888790130615,-14.848954677581789,1.4502344926198325,1.688754862437788e+18,64.09478808593751,10.341779390970864,-23.817159175872803,3.3026934464772544,1.688754862437788e+18,64.09478808593751,3.5897446473439536,-8.950700441996256,1.789771556854248,1.6887548624464425e+18,64.1034423014323,-0.0259617716073989,-2.2639683286348977,0.8039495944976807,1.688754862442118e+18,64.0991181640625,-0.1251510083675384,-1.2263883352279663,0.4867069125175476,,,,,,,,,,,,1.688754862438063e+18,64.0950630859375,-14.073919677734375,41.31895980834961,-26.156799697875975,1.688754862438063e+18,64.0950630859375,-268.6025085449219,134.63675231933593,-158.16080017089843,1.688754862437788e+18,64.09478808593751,-0.5936357378959656,0.3196246027946471,-0.4630291561285655,0.5751781264940897,-0.4610125720500946,1.1489391724268596,1.9038883050282795
4.15,1.6887548624896955e+18,64.14669555664062,7.638096968332927,-3.801674207051595,5.223487377166748,1.6887548624896955e+18,64.14669555664062,11.74277687072754,-12.3788693745931,7.763513088226318,1.6887548624896955e+18,64.14669555664062,4.098833719889323,-8.559690793355307,2.4773381551106772,1.688754862498348e+18,64.15534790039062,0.0468839108943939,-1.6297376155853271,1.1256719728310902,1.6887548624853678e+18,64.14236783854166,0.0796161020795504,-3.3120095133781433,1.8884899417559309,,,,,,,,,,,,1.6887548624880625e+18,64.14506245117187,-12.65871982574463,40.19411926269531,-28.672439575195312,1.6887548624880625e+18,64.14506245117187,-267.18732299804685,133.5119201660156,-160.6764373779297,1.6887548624896955e+18,64.14669555664062,-0.567033569018046,0.2379762331644694,-0.4836323658625285,0.6225675940513611,-0.5424760977427164,1.0600947539011638,1.800586462020874
4.2,1.6887548625416026e+18,64.19860237630208,-7.811971505482991,0.8519816398620605,-1.065962553024292,1.6887548625416026e+18,64.19860237630208,-3.5509488383928933,-7.625327507654826,1.5577274908622103,1.6887548625416026e+18,64.19860237630208,4.255176703135173,-8.45980453491211,2.5610026518503823,1.6887548625502454e+18,64.2072451985677,-0.1366810997327169,1.1767809589703877,-0.3480913837750752,1.6887548625372746e+18,64.1942744954427,-0.2861394683519999,0.8431976636250814,-0.0009671971201896,,,,,,,,,,,,1.688754862538065e+18,64.19506484375,-13.161359977722167,39.51823959350586,-28.691959381103516,1.688754862538065e+18,64.19506484375,-267.68995361328126,132.8360382080078,-160.69595642089843,1.6887548625416026e+18,64.19860237630208,-0.5712581276893616,0.2296196470657984,-0.4796150922775268,0.6251851320266724,-0.540760358174642,1.0393832921981812,1.7952515681584675
4.25,1.688754862593508e+18,64.2505078938802,-3.833937962849935,1.6432647705078125,-0.8931231300036112,1.688754862593508e+18,64.2505078938802,-0.0660019715627034,-7.227121988932292,1.0350951949755351,1.688754862593508e+18,64.2505078938802,3.762089967727661,-8.852882067362467,1.8655309279759724,1.6887548625935078e+18,64.25050793457032,1.0716103613376615,3.3896912336349487,-2.6740626096725464,1.6887548625891832e+18,64.2461835123698,0.8433503806591034,3.1338914235432944,-2.523331642150879,1.6887548626151373e+18,64.27213720703125,0.0,0.0,3.816711187362671,6.072000026702881,1.2156715393066406,94.76012420654295,333.1000061035156,-122.91642,49.2793194,1.6887548625880653e+18,64.245065234375,-13.581039810180664,40.69187927246094,-26.737519836425783,1.6887548625880653e+18,64.245065234375,-268.10963134765626,134.00967407226562,-158.74151611328125,1.688754862593508e+18,64.2505078938802,-0.579586386680603,0.2962981462478637,-0.4681156277656555,0.5966381827990214,-0.4555349449316661,1.1270713806152344,1.8320302963256836
4.3,1.6887548626454088e+18,64.30240893554686,-6.8635304768880205,1.3972798983256025,0.718156615893046,1.6887548626454088e+18,64.30240893554686,-4.817350149154663,-8.13818915685018,1.8759729862213137,1.6887548626454088e+18,64.30240893554686,2.040334184964498,-9.517964363098145,1.0951289733250935,1.688754862636759e+18,64.29375911458334,0.0286597659190495,4.142582734425862,-4.403218428293864,1.6887548626410865e+18,64.29808666992187,-0.1095994052787621,4.129703521728516,-4.327725807825725,,,,,,,,,,,,1.6887548626380634e+18,64.29506337890625,-10.391959762573242,43.32463912963867,-23.49475975036621,1.6887548626380634e+18,64.29506337890625,-264.920556640625,136.6424346923828,-155.4987548828125,1.6887548626454088e+18,64.30240893554686,-0.5830018520355225,0.4219086170196533,-0.4655500253041585,0.5134871900081635,-0.5072238147258759,1.330896258354187,2.1039170026779175
4.35,1.6887548626973194e+18,64.35431941731771,-5.61685045560201,-3.830660820007324,-3.0602734088897705,1.6887548626973194e+18,64.35431941731771,-4.864209572474162,-13.503894488016764,-1.4604194164276123,1.6887548626973194e+18,64.35431941731771,0.7467948993047079,-9.655729293823242,1.5371665954589844,1.6887548626886684e+18,64.34566813151041,-1.8428786595662432,3.1825060844421387,-2.224160393079122,1.6887548626929915e+18,64.34999161783854,-1.8520925045013428,2.899930000305176,-2.0325523217519126,,,,,,,,,,,,1.6887548626880596e+18,64.34505966796874,-7.0198798179626465,43.70283889770508,-24.019359970092772,1.6887548626880596e+18,64.34505966796874,-261.54847412109376,137.02063598632813,-156.0233581542969,1.6887548626973194e+18,64.35431941731771,-0.60483318567276,0.4933096865812937,-0.4671337008476257,0.4147441784540812,-1.103157659371694,1.3938570022583008,2.8915584882100425
4.4,1.6887548627492206e+18,64.4062206217448,3.8820998668670654,0.137275536855062,-3.0333754221598306,1.6887548627492206e+18,64.4062206217448,3.676771322886149,-9.51107104619344,-1.1453644434611003,1.6887548627492206e+18,64.4062206217448,-0.2111745327711105,-9.630841890970864,1.8253235816955569,1.6887548627405734e+18,64.39757364908854,-0.1149953715503216,-0.914414366086324,-2.1393009424209595,1.6887548627448998e+18,64.40189982096354,0.0273871247967084,-0.8487972617149353,-2.210517724355062,,,,,,,,,,,,1.6887548627380626e+18,64.39506254882812,-5.001999950408935,42.49259948730469,-26.359319305419923,1.6887548627380626e+18,64.39506254882812,-259.5305969238281,135.81039733886718,-158.36331787109376,1.6887548627492206e+18,64.4062206217448,-0.5859306255976359,0.5153525869051615,-0.4946946700414021,0.3822050392627716,-1.683499773343404,1.3798545996348064,-2.8029964764912925
4.45,1.6887548627924787e+18,64.44947863769531,0.1606456190347671,3.933606624603271,-2.263831317424774,1.6887548627924787e+18,64.44947863769531,-0.7926224768161774,-5.707779407501221,-0.563509738072753,1.6887548627924787e+18,64.44947863769531,-0.959114134311676,-9.623881340026855,1.6376341581344604,1.6887548627924795e+18,64.44947949218749,0.5998696684837341,1.954819679260254,-1.7889697551727295,1.6887548627968028e+18,64.4538026529948,0.597171684106191,2.020844062169393,-1.7492125829060872,,,,,,,,,,,,1.6887548627880625e+18,64.44506245117188,-0.1732400000095367,43.000119018554685,-25.861559677124024,1.6887548627880625e+18,64.44506245117188,-254.70183410644532,136.3179168701172,-157.8655578613281,1.6887548627924787e+18,64.44947863769531,-0.5703088641166687,0.5543617606163025,-0.4910873174667358,0.3551172614097595,-2.0981136560440063,1.3763481974601746,-2.333550453186035
4.5,1.688754862835728e+18,64.49272794596355,1.041886528333028,2.5964725812276206,-0.4194138447443644,1.688754862835728e+18,64.49272794596355,-0.5302096058924991,-6.978069146474202,1.1758729219436646,1.688754862835728e+18,64.49272794596355,-1.577942172686259,-9.557037035624186,1.5325993696848552,1.6887548628443812e+18,64.50138110351563,0.1870265739659468,0.8659524023532867,-1.9215784470240276,1.6887548628487045e+18,64.50570442708333,0.1376482993364334,0.7415394981702169,-1.9300287167231245,,,,,,,,,,,,1.6887548628380626e+18,64.4950626953125,1.6396799564361573,43.89315948486328,-24.890439987182617,1.6887548628380626e+18,64.4950626953125,-252.888916015625,137.2109588623047,-156.89443969726562,1.688754862835728e+18,64.49272794596355,-0.5621804992357889,0.5929113229115804,-0.4780048628648122,0.3219998280207316,-2.364291191101074,1.34456201394399,-1.9887574911117551
4.55,1.688754862887639e+18,64.54463899739584,3.3598926067352295,-0.1234041849772135,-0.1260785659154256,1.688754862887639e+18,64.54463899739584,0.9555338422457376,-9.513463973999023,1.5304094552993774,1.688754862887639e+18,64.54463899739584,-2.4102048873901367,-9.372555096944174,1.5938006242116292,1.6887548628962895e+18,64.55328955078126,-0.3721696535746256,0.0471893378222982,-1.471676190694173,1.688754862900616e+18,64.55761588541667,-0.4269948055346806,0.064191756149133,-1.3946562608083088,,,,,,,,,,,,1.6887548628880625e+18,64.54506259765625,5.006879997253418,43.42223968505859,-24.75867919921875,1.6887548628880625e+18,64.54506259765625,-249.52171630859377,136.7400360107422,-156.76267700195314,1.688754862887639e+18,64.54463899739584,-0.5398169159889221,0.6206811269124349,-0.487137883901596,0.2931518654028575,-2.556037664413452,1.272361119588216,-1.76944100856781
4.6,1.6887548629395438e+18,64.59654394531249,3.219857613245646,-2.3666299184163413,-4.5309722026189165,1.6887548629395438e+18,64.59654394531249,0.4540381034215291,-11.592228889465332,-2.5336003626386323,1.6887548629395438e+18,64.59654394531249,-2.7716654936472573,-9.208094278971354,1.9346845547358196,1.6887548629481912e+18,64.60519124348959,-0.7717264294624329,0.9977974891662598,-0.0372627923885981,1.688754862943873e+18,64.60087316894531,-0.8646034002304077,1.092150717973709,-0.0610865205526352,,,,,,,,,,,,1.6887548629380654e+18,64.59506533203125,7.434679794311523,42.49503936767578,-26.01527976989746,1.6887548629380654e+18,64.59506533203125,-247.0939147949219,135.81283569335938,-158.01927490234374,1.6887548629395438e+18,64.59654394531249,-0.5358564058939616,0.6274823943773905,-0.4972823758920033,0.2678534885247548,-2.5330801010131836,1.2194193601608276,-1.7720534404118855
4.65,1.6887548629914427e+18,64.64844262695313,0.0672073364257812,-8.409879366556803,-6.97760804494222,1.6887548629914427e+18,64.64844262695313,-2.6666014194488525,-17.614165623982746,-4.838486909866333,1.6887548629914427e+18,64.64844262695313,-2.739654779434204,-9.186782519022625,2.076433618863424,1.6887548630000937e+18,64.6570936686198,0.7799731120467186,-0.4840089132388432,-0.2727513213952382,1.6887548629871178e+18,64.64411800130209,0.2954042454560597,0.0920370339105526,-0.3055853247642517,,,,,,,,,,,,1.688754862988063e+18,64.64506298828124,6.092679882049561,41.79963912963867,-27.308479690551756,1.688754862988063e+18,64.64506298828124,-248.4359130859375,135.11743774414063,-159.3124755859375,1.6887548629914427e+18,64.64844262695313,-0.543129543463389,0.6304635008176168,-0.4918127457300822,0.2561038831869761,-2.4931089878082275,1.21310027440389,-1.7832571268081665
4.7,1.6887548630433546e+18,64.70035457356771,3.1926490863164267,-5.865033467610677,-0.1406760613123575,1.6887548630433546e+18,64.70035457356771,0.9559326569239298,-15.3130677541097,1.348754366238912,1.6887548630433546e+18,64.70035457356771,-2.242562413215637,-9.430529912312826,1.4267430305480957,1.6887548630433495e+18,64.70034936523437,1.1151344776153564,-0.3434589803218841,2.921004891395569,1.6887548630390303e+18,64.6960301920573,1.1636982957522075,-0.5166902045408884,2.408539871374766,,,,,,,,,,,,1.6887548630380616e+18,64.69506152343749,5.868199825286865,42.699998474121095,-25.32475929260254,1.6887548630380616e+18,64.69506152343749,-248.6603973388672,136.0178009033203,-157.32876281738282,1.6887548630433546e+18,64.70035457356771,-0.5450770457585653,0.6241004467010498,-0.4736137092113495,0.2974173227945964,-2.5667062600453696,1.2964327732721963,-1.7408751646677654
4.75,1.68875486309525e+18,64.75225,-1.8730645179748535,-2.7180398305257163,2.514526049296061,1.68875486309525e+18,64.75225,-2.211765686670939,-12.46660582224528,3.670390526453654,1.68875486309525e+18,64.75225,-0.3445472071568171,-9.731061299641928,1.0931771596272786,1.6887548630866022e+18,64.74360205078125,0.4922555635372798,-0.0984002059946457,3.901189088821411,1.6887548630909253e+18,64.74792529296876,0.4084143359214067,-0.1112283791104952,3.813835302988688,,,,,,,,,,,,1.6887548630880584e+18,64.74505834960937,-2.574199986457825,44.24695892333985,-23.353239440917967,1.6887548630880584e+18,64.74505834960937,-257.10279846191406,137.56475830078125,-155.35723571777345,1.68875486309525e+18,64.75225,-0.5974748333295187,0.5739667812983195,-0.433090070883433,0.3541368146737416,-1.8253568013509112,1.4455426534016926,-2.4996279080708823
4.8,1.6887548631471578e+18,64.80415795898438,-2.727431058883667,-6.220008850097656,6.152584075927734,1.6887548631471578e+18,64.80415795898438,-1.2989038825035095,-15.86919911702474,7.282156944274902,1.6887548631471578e+18,64.80415795898438,1.422681252161662,-9.631686210632324,1.0668854316075642,1.6887548631385057e+18,64.79550569661458,0.1185078596075375,-0.0330376277367273,3.6879462401072183,1.688754863142832e+18,64.79983178710937,0.0984511191491037,-0.0883209419747194,3.803297917048136,1.6887548631341809e+18,64.79118090820313,0.0,0.0,3.816711187362671,5.673999786376953,1.2094327211380005,94.89317321777344,333.1000061035156,-122.9164185,49.2793183,1.6887548631380567e+18,64.79505649414062,-10.814079666137696,43.619879150390624,-23.099479293823244,1.6887548631380567e+18,64.79505649414062,-265.3426818847656,136.93767700195312,-155.10347900390624,1.6887548631471578e+18,64.80415795898438,-0.6465092698733012,0.5177366932233175,-0.3983808557192485,0.3929987947146098,-0.6856202085812887,1.3848137458165486,2.633204698562622
4.85,1.688754863199062e+18,64.85606201171875,-1.1981468200683594,-5.428937911987305,1.484499176343282,1.688754863199062e+18,64.85606201171875,1.8237295150756836,-14.68654727935791,2.828715125719706,1.688754863199062e+18,64.85606201171875,3.016030232111613,-9.240104993184408,1.2815285126368203,1.688754863190412e+18,64.84741202799479,0.1185587619741757,-2.0531689723332724,3.1676925818125405,1.688754863194737e+18,64.85173706054688,0.2470949788888295,-2.0067941347757974,3.0620129108428955,,,,,,,,,,,,1.688754863188056e+18,64.84505615234374,-17.343519592285155,41.035919189453125,-23.968119430541993,1.688754863188056e+18,64.84505615234374,-271.872119140625,134.35372009277344,-155.97211608886718,1.688754863199062e+18,64.85606201171875,-0.6742496887842814,0.4414923091729482,-0.3882841368516286,0.4461600184440613,-0.4036783675352732,1.2293493747711182,2.260888417561849
4.9,1.6887548632423153e+18,64.89931518554687,-9.593546867370604,2.203780174255371,-2.4820120334625244,1.6887548632423153e+18,64.89931518554687,-5.537888765335083,-6.695117950439453,-1.4653047919273376,1.6887548632423153e+18,64.89931518554687,4.049811601638794,-8.881393432617188,0.9540199041366576,1.6887548632423163e+18,64.89931632486979,1.353830099105835,-1.187114804983139,2.906038761138916,1.6887548632466424e+18,64.90364241536459,1.328122854232788,-1.417309174935023,2.912147363026937,,,,,,,,,,,,1.688754863238056e+18,64.89505585937499,-21.34511909484863,39.73783874511719,-23.450839614868165,1.688754863238056e+18,64.89505585937499,-275.8737060546875,133.05563659667968,-155.45484008789063,1.6887548632423153e+18,64.89931518554687,-0.6780539751052856,0.4003076255321502,-0.364679217338562,0.4967979192733764,-0.2314663603901863,1.1320672631263733,2.0249162912368774
4.95,1.6887548632855729e+18,64.94257283528646,-11.105631828308104,9.363677660624186,-2.3488100369771323,1.6887548632855729e+18,64.94257283528646,-6.070790608723958,1.014357328414917,-1.1345967054367063,1.6887548632855729e+18,64.94257283528646,5.028995354970296,-8.331815719604492,1.151525894800822,1.6887548632942226e+18,64.95122265625001,0.4250094977517922,-3.2706743081410727,3.384753386179606,1.6887548632985498e+18,64.9555498046875,0.3220277950167656,-3.2728123664855957,3.3518685499827066,,,,,,,,,,,,1.688754863288059e+18,64.94505888671874,-24.35851974487305,37.995679473876955,-24.153559494018555,1.688754863288059e+18,64.94505888671874,-278.887109375,131.3134765625,-156.15755920410157,1.6887548632855729e+18,64.94257283528646,-0.6683794458707174,0.3323585093021393,-0.3635612924893697,0.5563105146090189,-0.2232532103856404,1.0157105724016826,1.8778742551803589
5.0,1.688754863337476e+18,64.99447599283855,-4.12718653678894,11.125466028849283,1.35801895459493,1.688754863337476e+18,64.99447599283855,1.7393826643625896,3.484946846961975,3.352344512939453,1.688754863337476e+18,64.99447599283855,5.86072317759196,-7.623014609018962,1.9316381216049197,1.688754863346125e+18,65.00312508138022,0.2422589698495964,-2.028581698735555,0.4245004554589589,1.688754863350453e+18,65.00745288085938,0.3050253689289093,-1.816764195760091,0.0793615778287251,,,,,,,,,,,,1.688754863338057e+18,64.99505693359376,-25.322319412231444,34.952999114990234,-27.38899955749512,1.688754863338057e+18,64.99505693359376,-279.8509155273438,128.2707962036133,-159.39299621582032,1.688754863337476e+18,64.99447599283855,-0.6585580110549927,0.2456570367018381,-0.3747375110785166,0.6043237249056498,-0.3175168434778849,0.8895147641499838,1.8087993462880452
5.05,1.6887548633893788e+18,65.04637882486979,-0.5258119106292725,6.817228317260742,1.0296998818715413,1.6887548633893788e+18,65.04637882486979,4.874977350234985,-1.136590739091237,3.0975089073181152,1.6887548633893788e+18,65.04637882486979,5.3949432373046875,-7.936314741770427,2.0051216284434,1.6887548633980324e+18,65.05503247070313,1.1305588881174724,0.5695300363004208,-2.5663467248280845,1.6887548633937083e+18,65.05070861816407,1.058476746082306,0.6399577260017395,-2.3826799392700195,,,,,,,,,,,,1.6887548633880602e+18,65.04506005859375,-22.235719680786133,36.44627990722656,-28.08195915222168,1.6887548633880602e+18,65.04506005859375,-276.7643188476562,129.76407470703126,-160.0859588623047,1.6887548633893788e+18,65.04637882486979,-0.6367668509483337,0.2521860698858896,-0.4010855555534362,0.6080498099327087,-0.3545434375603993,0.9427769382794698,1.7988250255584717
5.1,1.6887548634412905e+18,65.09829052734375,5.4853644371032715,-1.287823994954427,0.5921343564987183,1.6887548634412905e+18,65.09829052734375,9.650652249654136,-10.052048683166504,2.1579271952311196,1.6887548634412905e+18,65.09829052734375,4.159441709518433,-8.746720314025879,1.5031054417292278,1.688754863449943e+18,65.10694311523439,0.2250020330150922,-1.1100439429283142,-2.145765978222092,1.688754863436966e+18,65.09396614583333,0.7333437452713648,-0.3415245711803436,-3.1254920959472656,,,,,,,,,,,,1.6887548634380603e+18,65.095060546875,-17.219079399108885,40.399078369140625,-25.30035972595215,1.6887548634380603e+18,65.095060546875,-271.7476745605469,133.71687927246094,-157.30435791015626,1.6887548634412905e+18,65.09829052734375,-0.6016472776730856,0.3130445381005605,-0.4351906577746073,0.5917567412058512,-0.348024586836497,1.1019256114959717,1.8033655881881712
5.15,1.6887548634932012e+18,65.15020133463541,7.440694014231364,-13.244073232014976,0.2396318117777506,1.6887548634932012e+18,65.15020133463541,11.482358614603678,-21.962721824645996,2.3417758494615555,1.6887548634932012e+18,65.15020133463541,4.035818576812744,-8.701143582661947,2.039456605911255,1.6887548634931994e+18,65.15019946289063,0.1540907640010118,-3.96054482460022,2.383290708065033,1.6887548634888742e+18,65.1458740234375,-0.0196495056152343,-3.4325536092122397,1.8017470439275105,,,,,,,,,,,,1.688754863488067e+18,65.14506713867188,-12.400079727172852,40.887080383300784,-26.603319549560545,1.688754863488067e+18,65.14506713867188,-266.9286804199219,134.2048767089844,-158.60731506347656,1.6887548634932012e+18,65.15020133463541,-0.5721218387285868,0.2689755707979201,-0.4701110323270162,0.615080992380778,-0.4660009642442067,1.0909266471862793,1.7845148642857869
5.2,1.6887548635451123e+18,65.20211222330728,-8.949807008107504,-5.697524865468343,7.935089747111003,1.6887548635451123e+18,65.20211222330728,-4.994020144144694,-14.434104124704996,10.13041337331136,1.6887548635451123e+18,65.20211222330728,3.949940840403239,-8.719075202941895,2.1326356331507363,1.688754863536455e+18,65.19345499674479,0.6231334606806437,0.0600684185822804,-0.8916596372922262,1.688754863540784e+18,65.19778377278647,0.6117815375328064,0.4989750186602275,-1.007876768708229,,,,,,,,,,,,1.6887548635380646e+18,65.19506459960937,-11.272799682617189,41.187199401855466,-28.072199249267577,1.6887548635380646e+18,65.19506459960937,-265.8013977050781,134.50499877929687,-160.0761962890625,1.6887548635451123e+18,65.20211222330728,-0.5490705966949463,0.2498603016138076,-0.485461413860321,0.6325315634409586,-0.4935336311658223,1.0947689215342205,1.734389026959737
5.25,1.688754863597012e+18,65.25401188151041,-1.781293551127116,4.580373128255208,-3.415615638097127,1.688754863597012e+18,65.25401188151041,2.141975146485492,-4.288137435913086,-1.768694798151652,1.688754863597012e+18,65.25401188151041,3.9174226919809976,-8.851006189982096,1.5842334429423015,1.6887548635883604e+18,65.24536067708334,0.1717549463113149,1.9408715963363647,-0.1201368470986684,1.6887548635926843e+18,65.24968457031251,0.2394591768582662,2.000787337621053,-0.2405282109975814,,,,,,,,,,,,1.6887548635880627e+18,65.24506279296875,-12.060919570922852,41.911878204345705,-26.354439163208006,1.6887548635880627e+18,65.24506279296875,-266.5895202636719,135.22967834472655,-158.35843505859376,1.688754863597012e+18,65.25401188151041,-0.5646439989407858,0.2927224040031433,-0.4627170066038767,0.617319385210673,-0.3824654718240102,1.1246960163116455,1.724347472190857
5.3,1.6887548636489178e+18,65.30591772460939,-5.743971188863118,4.253326574961345,1.4355281988779705,1.6887548636489178e+18,65.30591772460939,-3.219742178916931,-5.184648513793945,2.29790727297465,1.6887548636489178e+18,65.30591772460939,2.518382986386617,-9.420470555623371,0.7996916770935059,1.6887548636402665e+18,65.29726635742186,0.1500183244546254,4.765563408533732,-4.384027083714803,1.6887548636445898e+18,65.30158984375,-0.0627664017180601,4.923319339752197,-4.6700648466746015,1.6887548636532454e+18,65.31024536132813,0.0,0.0,3.827101707458496,5.46999979019165,1.2018287181854248,94.76496124267578,333.1000061035156,-122.9164127,49.2793174,1.688754863638063e+18,65.2950630859375,-11.951119995117187,43.258759307861325,-23.71923942565918,1.688754863638063e+18,65.2950630859375,-266.47971801757814,136.57655639648436,-155.72323913574218,1.6887548636489178e+18,65.30591772460939,-0.5743613243103027,0.4054157038529714,-0.453195850054423,0.5454450448354086,-0.3194357355435689,1.2964425086975098,1.8707879384358723
5.35,1.6887548636921672e+18,65.34916699218749,-11.256139278411863,0.6296162605285645,-0.5700856447219849,1.6887548636921672e+18,65.34916699218749,-10.54008436203003,-9.099306106567385,0.6484549939632416,1.6887548636921672e+18,65.34916699218749,0.7102089822292328,-9.711417675018312,1.155853271484375,1.6887548636921723e+18,65.34917236328126,-2.4224371115366616,3.524641513824463,-3.2234850327173867,1.688754863696499e+18,65.35349894205729,-2.540537635485331,3.131346106529236,-2.7666594982147217,,,,,,,,,,,,1.6887548636880635e+18,65.34506391601562,-7.266319847106933,43.98587875366211,-24.126719665527343,1.6887548636880635e+18,65.34506391601562,-261.7949157714844,137.30367431640624,-156.1307159423828,1.6887548636921672e+18,65.34916699218749,-0.5904833674430847,0.4980361759662628,-0.4641321152448654,0.432847112417221,-1.0047522485256195,1.4291969537734983,2.767900228500366
5.4,1.6887548637354232e+18,65.39242333984375,-1.2029879887898762,-5.009848912556966,-3.559225161870321,1.6887548637354232e+18,65.39242333984375,-0.9940184752146404,-14.616357803344728,-1.4520445714394252,1.6887548637354232e+18,65.39242333984375,0.2031235098838806,-9.589004516601562,2.0444931586583457,1.6887548637440717e+18,65.40107185872397,-0.6894123554229736,-1.1101457476615906,-1.782402979830901,1.6887548637484024e+18,65.40540250651041,-0.3968078823139269,-1.0599021116892495,-2.0751092781623206,,,,,,,,,,,,1.6887548637380623e+18,65.3950625,-4.745800018310547,41.75327987670899,-28.07707977294922,1.6887548637380623e+18,65.3950625,-259.2743896484375,135.07107849121093,-160.0810791015625,1.6887548637354232e+18,65.39242333984375,-0.6016819675763448,0.4974862833817799,-0.4916459619998932,0.3854048947493235,-1.4654684861501055,1.3589022954305012,-3.0230795542399087
5.45,1.688754863787331e+18,65.4443311360677,3.8904470602671304,1.8254718780517576,-3.620615561803182,1.688754863787331e+18,65.4443311360677,2.8227330446243286,-7.754739443461101,-1.6685949563980105,1.688754863787331e+18,65.4443311360677,-1.0735601385434468,-9.56270662943522,1.889333168665568,1.6887548637959836e+18,65.45298372395833,0.9820676843325296,2.2201387882232666,-2.159408609072367,1.6887548638003098e+18,65.45730981445313,1.00558598836263,2.3063217401504517,-1.9189822276433308,,,,,,,,,,,,1.6887548637880655e+18,65.44506572265625,0.6221999764442444,42.229078674316405,-28.059999465942383,1.6887548637880655e+18,65.44506572265625,-253.906396484375,135.5468780517578,-160.06399841308593,1.688754863787331e+18,65.4443311360677,-0.566256026426951,0.5437069336573283,-0.5083319346110026,0.353150208791097,-2.08474862575531,1.346410870552063,-2.376878023147583
5.5,1.688754863839238e+18,65.49623779296876,3.1442858378092446,1.869796911875407,-0.8499611616134644,1.688754863839238e+18,65.49623779296876,1.5365909337997437,-7.695517063140869,0.7784649630387622,1.688754863839238e+18,65.49623779296876,-1.6135409673055012,-9.54780928293864,1.5657387177149455,1.688754863847888e+18,65.50488842773437,0.3571016465624173,1.2483031153678894,-1.225955645243327,1.688754863843564e+18,65.50056420898437,0.4518111944198608,1.035263866186142,-1.254640817642212,,,,,,,,,,,,1.6887548638380585e+18,65.49505854492187,1.4542399764060974,43.22215957641602,-26.81559944152832,1.6887548638380585e+18,65.49505854492187,-253.07435607910156,136.53995666503906,-158.81959533691406,1.688754863839238e+18,65.49623779296876,-0.5611305634180704,0.5923512975374857,-0.4806596040725708,0.3210667073726654,-2.3694456418355307,1.339857856432597,-1.9869314034779864
5.55,1.688754863891142e+18,65.54814208984375,-0.2424936691919962,0.8639980951944987,-0.9408391118049622,1.688754863891142e+18,65.54814208984375,-2.3120648860931396,-8.594022115071615,0.7896314462025961,1.688754863891142e+18,65.54814208984375,-2.075417240460714,-9.440515518188477,1.6677831411361694,1.6887548638997932e+18,65.55679313151042,-0.248062198360761,0.464003066221873,-1.2470304767290752,1.6887548638868186e+18,65.54381868489584,-0.1514945824940998,1.1727085585395494,-1.1627310911814372,,,,,,,,,,,,1.6887548638880668e+18,65.54506674804688,2.1081599473953245,43.22215957641602,-26.688719940185543,1.6887548638880668e+18,65.54506674804688,-252.42043762207032,136.5399597167969,-158.69271850585938,1.688754863891142e+18,65.54814208984375,-0.5585964719454447,0.6200323899586996,-0.4701938529809316,0.2869359354178111,-2.4638463656107583,1.2964893579483032,-1.819737195968628
5.6,1.6887548639430497e+18,65.60004947916667,5.068256815274556,-2.1559972763061523,-1.8639213641484575,1.6887548639430497e+18,65.60004947916667,2.3417757749557495,-11.417153676350912,0.0151545206705729,1.6887548639430497e+18,65.60004947916667,-2.7323270638783774,-9.243651707967125,1.816388487815857,1.688754863943043e+18,65.60004296875,-0.6645450294017792,-0.8730791509151459,-1.2150110006332395,1.6887548639387205e+18,65.5957206217448,-0.6229298313458761,-0.7836891946693262,-1.2115494012832642,,,,,,,,,,,,1.6887548639380572e+18,65.59505712890625,5.424119901657105,42.35595855712891,-27.25235939025879,1.6887548639380572e+18,65.59505712890625,-249.1044738769531,135.67376098632812,-159.25635375976563,1.6887548639430497e+18,65.60004947916667,-0.535438617070516,0.6293861071268717,-0.4928186138470967,0.2724371751149495,-2.5548089345296225,1.2303293943405151,-1.749315619468689
5.65,1.6887548639949537e+18,65.65195369466146,0.0741291046142578,-6.363011995951335,-6.164431730906169,1.6887548639949537e+18,65.65195369466146,-2.689731995264689,-15.57169246673584,-4.080759604771932,1.6887548639949537e+18,65.65195369466146,-2.769707123438517,-9.191176414489746,2.020984689394633,1.6887548639862996e+18,65.64329956054688,-0.0852157026529312,1.012101908524831,-0.0463748599092165,1.6887548639906296e+18,65.64762955729167,0.0356338104854027,0.9637417197227478,-0.0754418646295865,,,,,,,,,,,,1.6887548639880635e+18,65.64506352539063,5.914559841156006,41.582479095458986,-28.196639251708984,1.6887548639880635e+18,65.64506352539063,-248.6140350341797,134.90027770996093,-160.20063171386718,1.6887548639949537e+18,65.65195369466146,-0.5416096051534017,0.6334212422370911,-0.4895898401737213,0.2563154896100362,-2.5113980770111084,1.2143266995747883,-1.761421839396159
5.7,1.688754864046857e+18,65.70385668945312,3.5216665267944336,-5.756948788960774,-0.981698195139567,1.688754864046857e+18,65.70385668945312,0.9774680336316428,-15.102898279825846,0.6937191685040792,1.688754864046857e+18,65.70385668945312,-2.550044536590576,-9.328445116678871,1.6127299865086873,1.6887548640382085e+18,65.69520841471353,0.8155051072438558,-0.6383032947778702,0.9818132023016612,1.6887548640425308e+18,65.69953076171875,0.7862344781557719,-0.6343835592269897,1.3449216534694035,,,,,,,,,,,,1.6887548640380646e+18,65.69506469726562,5.963359928131103,42.28275909423828,-27.381679153442384,1.6887548640380646e+18,65.69506469726562,-248.565234375,135.60055541992188,-159.38567810058595,1.688754864046857e+18,65.70385668945312,-0.5413825511932373,0.6345472931861877,-0.4764491418997447,0.2773447434107462,-2.57567564646403,1.258470058441162,-1.705960710843404
5.75,1.6887548640987617e+18,65.75576188151042,-1.7503090302149455,-3.3235839207967124,0.1928901274998983,1.6887548640987617e+18,65.75576188151042,-2.499502658843994,-13.02931785583496,1.4807584285736084,1.6887548640987617e+18,65.75576188151042,-0.7550396720568339,-9.688229242960611,1.2251809040705364,1.68875486409011e+18,65.74711010742188,0.7698429425557455,-0.1190169217685858,4.119726181030273,1.688754864094439e+18,65.75143880208333,0.7903069059054056,-0.1751147111256917,4.095444202423096,,,,,,,,,,,,1.6887548640880625e+18,65.74506240234375,0.0292799651622772,43.7174789428711,-26.00551986694336,1.6887548640880625e+18,65.74506240234375,-254.4993133544922,137.0352813720703,-158.0095184326172,1.6887548640987617e+18,65.75576188151042,-0.5896134972572327,0.5863701701164246,-0.4405256907145182,0.3370434045791626,-2.0510168075561523,1.4181321461995442,-2.2589820623397827
5.8,1.6887548641506696e+18,65.80766967773438,-2.7820281187693277,-4.698154131571452,3.638328790664673,1.6887548641506696e+18,65.80766967773438,-1.8582261602083845,-14.422738711039225,4.68913467725118,1.6887548641506696e+18,65.80766967773438,0.9179559747378032,-9.707079887390137,0.9881185293197632,1.6887548641420155e+18,65.7990157063802,0.2762128959099452,-0.1860593756039937,3.170848846435547,1.688754864146342e+18,65.80334212239583,0.1694132884343465,-0.0781398514906565,3.1639765898386636,,,,,,,,,,,,1.6887548641380654e+18,65.79506533203126,-7.549360084533691,44.076158905029295,-24.522000122070313,1.6887548641380654e+18,65.79506533203126,-262.0779541015625,137.39396057128906,-156.5259979248047,1.6887548641506696e+18,65.80766967773438,-0.6292628049850464,0.5339516997337341,-0.4093822141488393,0.3883726894855499,-0.8681572874387106,1.428844412167867,2.8074593544006348
5.85,1.6887548641939098e+18,65.85090991210937,-5.392223238945007,-7.1650710105896,6.61398983001709,1.6887548641939098e+18,65.85090991210937,-3.0346972942352295,-16.63131332397461,7.834998607635498,1.6887548641939098e+18,65.85090991210937,2.351679801940918,-9.44873857498169,1.1583210825920105,1.6887548641939249e+18,65.85092480468751,-0.1218676169713338,-1.5125532845656078,3.509573539098104,1.6887548641982474e+18,65.85524755859375,-0.0491237491369246,-1.758171963505447,3.4863606293996177,1.6887548641722995e+18,65.82929956054687,0.0,0.0,3.827101707458496,5.270999908447266,1.198755979537964,95.31765747070312,333.1000061035156,-122.9164095,49.279316,1.688754864188064e+18,65.84506401367187,-15.425679588317871,42.46575927734375,-25.1197998046875,1.688754864188064e+18,65.84506401367187,-269.9542663574219,135.78355712890624,-157.12379760742186,1.6887548641939098e+18,65.85090991210937,-0.6674312949180603,0.4788952767848968,-0.3877621293067932,0.4177388250827789,-0.4590184688568115,1.299752652645111,2.375527501106262
5.9,1.6887548642371756e+18,65.89417545572917,-1.3043170770009354,-1.6848077774047854,-0.2961440086364746,1.6887548642371756e+18,65.89417545572917,2.204986095428467,-10.779865264892578,0.941376343369484,1.6887548642371756e+18,65.89417545572917,3.503457228342692,-9.077552795410156,1.1748329401016235,1.68875486424583e+18,65.902830078125,0.9621636867523192,-0.4966843326886495,2.9137254556020102,1.6887548642501542e+18,65.90715429687499,1.0220284660657246,-0.4294891556104024,2.861547311147054,,,,,,,,,,,,1.6887548642380646e+18,65.89506469726562,-20.82295913696289,40.07943954467773,-25.61023941040039,1.6887548642380646e+18,65.89506469726562,-275.3515563964844,133.3972381591797,-157.6142364501953,1.6887548642371756e+18,65.89417545572917,-0.677290658156077,0.4206956128279368,-0.3793668051560719,0.4689116477966308,-0.3282183359066645,1.1830913225809734,2.154203176498413
5.95,1.6887548642890844e+18,65.94608455403646,-12.141639709472656,6.059213161468506,-1.454753041267395,1.6887548642890844e+18,65.94608455403646,-7.50309419631958,-2.537588357925415,-0.3710869261994957,1.6887548642890844e+18,65.94608455403646,4.632699489593506,-8.579297065734863,1.0209787289301555,1.688754864297731e+18,65.95473160807292,0.8389215966065725,-3.226132074991862,3.128393570582072,1.6887548642934108e+18,65.95041088867188,0.9395871162414552,-3.344563603401184,2.988887310028076,,,,,,,,,,,,1.6887548642880604e+18,65.94506044921874,-25.078319549560547,38.6984001159668,-25.510200119018556,1.6887548642880604e+18,65.94506044921874,-279.6069091796875,132.01619567871094,-157.51419982910156,1.6887548642890844e+18,65.94608455403646,-0.6767295996348063,0.3649248480796814,-0.3604234158992767,0.5272118051846822,-0.2159256339073181,1.0651810963948567,1.9457976818084717
6.0,1.68875486434099e+18,65.99798982747394,-4.951096693674724,11.900058110555014,-0.3432289361953733,1.68875486434099e+18,65.99798982747394,0.7204390366872152,4.067997852961223,1.4380863904953003,1.68875486434099e+18,65.99798982747394,5.665689786275228,-7.814555644989014,1.71862788995107,1.6887548643496417e+18,66.0066415201823,-0.0560977968076864,-2.530407468477885,1.398270562291145,1.6887548643366584e+18,65.99365836588542,-0.0007126778364181,-2.9231937726338706,2.437555968761444,,,,,,,,,,,,1.688754864338062e+18,65.99506220703125,-26.36907958984375,35.724039459228514,-28.384519958496092,1.688754864338062e+18,65.99506220703125,-280.8976806640625,129.04183959960938,-160.38851928710938,1.68875486434099e+18,65.99798982747394,-0.6663045287132263,0.271120677391688,-0.3701466023921966,0.587316632270813,-0.2930450141429901,0.9216275811195374,1.842509110768636
6.05,1.6887548643928822e+18,66.04988240559895,-2.115887006123861,7.017756303151448,0.7503607273101807,1.6887548643928822e+18,66.04988240559895,3.2991042137145996,-0.8921240170796713,2.9587252140045166,1.6887548643928822e+18,66.04988240559895,5.40914519627889,-7.892375787099202,2.145677089691162,1.6887548643928952e+18,66.04989514160155,0.7040985524654388,-0.509385280776769,-1.797394573688507,1.688754864388569e+18,66.04556941731771,0.6093380848566691,-0.7361944367488226,-1.511789659659068,,,,,,,,,,,,1.6887548643880625e+18,66.04506254882813,-23.743639373779295,35.99000015258789,-30.2974796295166,1.6887548643880625e+18,66.04506254882813,-278.2722412109375,129.30779724121095,-162.30147705078124,1.6887548643928822e+18,66.04988240559895,-0.6467830141385397,0.2510653684536615,-0.4010782341162363,0.5979569951693217,-0.377151221036911,0.9350035190582277,1.8413771788279216
6.1,1.6887548644448008e+18,66.1018006998698,5.3024187088012695,2.170041879018148,0.1665094296137492,1.6887548644448008e+18,66.1018006998698,9.60040314992269,-6.504090627034505,1.8707884550094604,1.6887548644448008e+18,66.1018006998698,4.292138417561849,-8.656627972920736,1.6415916283925374,1.6887548644361418e+18,66.0931416015625,1.2139419714609785,0.2718859314918518,-3.0327423413594565,1.6887548644404777e+18,66.09747778320313,1.1418089469273884,0.177710880835851,-3.0078495343526206,,,,,,,,,,,,1.6887548644380585e+18,66.09505869140625,-18.365880012512207,39.54019927978515,-28.36499938964844,1.6887548644380585e+18,66.09505869140625,-272.894482421875,132.85799865722657,-160.368994140625,1.6887548644448008e+18,66.1018006998698,-0.6133362253506979,0.308471918106079,-0.4306839406490326,0.5854078729947408,-0.3644973238309224,1.0823429425557454,1.8380693197250368
6.15,1.6887548644967066e+18,66.15370646158854,7.093792915344238,-15.690190633138023,-0.1897505521774292,1.6887548644967066e+18,66.15370646158854,11.089934984842936,-24.432114601135257,1.893520340323448,1.6887548644967066e+18,66.15370646158854,3.990295886993408,-8.724419275919596,2.020583470662435,1.6887548644880556e+18,66.14505533854167,-0.2282599781950315,-3.2935309410095215,1.063160061836243,1.688754864492378e+18,66.14937784830728,-0.2255110874151189,-3.4834080934524536,1.4678583194812138,,,,,,,,,,,,1.6887548644880655e+18,66.14506557617187,-13.305319595336917,41.19695892333984,-28.906679153442383,1.6887548644880655e+18,66.14506557617187,-267.83391723632815,134.51475830078124,-160.91067810058593,1.6887548644967066e+18,66.15370646158854,-0.5830591917037964,0.2803707023461659,-0.4656869967778523,0.6027904351552328,-0.4656592011451721,1.0963619550069172,1.8247379064559937
6.2,1.688754864548611e+18,66.20561140950521,-4.050067663192749,-1.7764355341593423,7.506116469701131,1.688754864548611e+18,66.20561140950521,0.2464605172475179,-10.326625188191732,9.800004323323568,1.688754864548611e+18,66.20561140950521,4.290681838989258,-8.532685279846191,2.2312001387278237,1.688754864539961e+18,66.19696142578125,0.7383324603239695,-0.5475388765335083,0.2758057018121083,1.688754864544287e+18,66.20128719075521,0.7992153565088908,-0.1120428422776361,-0.0065668274958928,,,,,,,,,,,,1.688754864538064e+18,66.19506391601563,-12.470839881896971,40.48203964233399,-30.2877197265625,1.688754864538064e+18,66.19506391601563,-266.9994384765625,133.79983825683593,-162.29171447753907,1.688754864548611e+18,66.20561140950521,-0.5598498781522115,0.237951452533404,-0.4735923210779826,0.6367930372556051,-0.4781176447868347,1.054613471031189,1.7241390148798623
6.25,1.6887548646005194e+18,66.25751936848958,-3.9748010635375977,1.633116881052653,-3.40669846534729,1.6887548646005194e+18,66.25751936848958,0.2650051514307658,-7.094918727874756,-1.8013967076937358,1.6887548646005194e+18,66.25751936848958,4.233960151672363,-8.710530916849772,1.5426143805185957,1.688754864591869e+18,66.24886857096354,0.5953390796979269,1.965204397837321,-0.240324596563975,1.68875486459619e+18,66.25319010416666,0.589484969774882,2.0010927518208823,-0.3097595795989036,,,,,,,,,,,,1.6887548645880632e+18,66.24506323242187,-14.000719833374024,41.71423950195312,-28.242999649047853,1.6887548645880632e+18,66.24506323242187,-268.52931518554686,135.03203735351562,-160.2469940185547,1.6887548646005194e+18,66.25751936848958,-0.565526564915975,0.2815151313940683,-0.452119638522466,0.6294593811035156,-0.3476301332314809,1.0925157070159912,1.6763541301091511
6.3,1.6887548646437663e+18,66.30076611328126,-2.4667375087738037,2.002817153930664,2.1223134994506836,1.6887548646437663e+18,66.30076611328126,1.093220829963684,-7.116852760314941,2.99431836605072,1.6887548646437663e+18,66.30076611328126,3.5541123151779175,-9.102165222167969,0.8093174397945404,1.6887548646437714e+18,66.30077156575521,0.4166100944081942,3.797494649887085,-3.145395994186402,1.688754864648097e+18,66.30509724934895,0.3339905738830567,4.025296608606975,-3.3263649145762124,,,,,,,,,,,,1.6887548646380582e+18,66.29505830078125,-14.64243984222412,43.16359939575195,-25.393079376220705,1.6887548646380582e+18,66.29505830078125,-269.17103881835936,136.481396484375,-157.39707946777344,1.6887548646437663e+18,66.30076611328126,-0.5694693326950073,0.3518650084733963,-0.4408973604440689,0.5974440574645996,-0.2212628796696662,1.1893401741981506,1.6726759672164917
6.35,1.6887548646870223e+18,66.3440224609375,-7.4890062014261884,0.5913651784261068,1.4000624418258667,1.6887548646870223e+18,66.3440224609375,-5.484748204549153,-9.004590352376303,1.8540387550989788,1.6887548646870223e+18,66.3440224609375,1.9984119335810344,-9.578450838724772,0.3912888964017232,1.6887548646956695e+18,66.35266951497395,-0.8924232125282288,3.8012617429097495,-4.155919869740804,1.688754864699995e+18,66.35699495442708,-1.0365364948908489,3.6450839042663574,-4.113770167032878,1.6887548646913508e+18,66.34835083007812,0.0,0.0,3.567587375640869,5.429999828338623,1.1954796314239502,95.86541748046876,333.1000061035156,-122.9164039,49.2793149,1.6887548646880604e+18,66.34506044921875,-11.502159690856931,45.3059196472168,-23.118999099731447,1.6887548646880604e+18,66.34506044921875,-266.0307556152344,138.62371826171875,-155.122998046875,1.6887548646870223e+18,66.3440224609375,-0.579305092493693,0.4542075594266255,-0.4366946220397949,0.5154260396957397,-0.2073121219873428,1.3605369329452517,1.8598652680714924
6.4,1.6887548647389286e+18,66.39592846679687,-6.263501326243083,-2.770327885945638,-3.481743335723877,1.6887548647389286e+18,66.39592846679687,-5.95473845799764,-12.541581153869627,-2.478565533955892,1.6887548647389286e+18,66.39592846679687,0.3029169707248608,-9.753748575846354,0.9404903848965964,1.6887548647475825e+18,66.40458251953125,-1.6522886753082275,1.2120075225830078,-1.853059728940328,1.6887548647432653e+18,66.40026525878906,-1.9017761945724487,1.9351447224617004,-1.9029216170310976,,,,,,,,,,,,1.6887548647380603e+18,66.3950603515625,-6.993039894104004,45.27663955688477,-24.46831932067871,1.6887548647380603e+18,66.3950603515625,-261.521630859375,138.5944366455078,-156.47231750488282,1.6887548647389286e+18,66.39592846679687,-0.5855745275815328,0.5268281300862631,-0.4546349545319875,0.4150986075401305,-1.2132851481437683,1.4648003578186035,-1.161057392756144
6.45,1.688754864790836e+18,66.44783577473959,5.04312785466512,0.1496543884277343,-1.4119321703910828,1.688754864790836e+18,66.44783577473959,4.497709035873413,-9.562317530314129,0.0215354065100352,1.688754864790836e+18,66.44783577473959,-0.5512647926807404,-9.694467226664225,1.3707801898320515,1.688754864799488e+18,66.45648787434897,-0.0042251447836558,-0.440942923227946,-1.8718438148498535,1.6887548647865126e+18,66.44351245117188,-0.330274482568105,-1.1793771830465023,-1.6972890694936116,,,,,,,,,,,,1.6887548647880668e+18,66.44506674804687,-3.2159199714660645,44.10299911499023,-27.08155975341797,1.6887548647880668e+18,66.44506674804687,-257.74452209472656,137.4207977294922,-159.08555603027344,1.688754864790836e+18,66.44783577473959,-0.5669666727383932,0.5362587372461954,-0.4900825520356496,0.3880385955174764,-1.9401826858520508,1.417974551518758,-2.545957644780477
6.5,1.6887548648427364e+18,66.49973616536458,0.7973338762919108,3.529133955637614,-2.1425352096557617,1.6887548648427364e+18,66.49973616536458,-0.4889334440231323,-6.122834364573161,-0.7670990526676179,1.6887548648427364e+18,66.49973616536458,-1.2921133041381836,-9.63446362813314,1.3127487897872925,1.6887548648427446e+18,66.49974450683594,0.3070361465215683,2.555936574935913,-1.4446199536323547,1.6887548648384177e+18,66.49541764322917,0.316733623544375,2.3136521577835083,-1.5276212294896443,,,,,,,,,,,,1.6887548648380603e+18,66.49506030273437,0.2049599885940551,44.049319458007815,-27.07423973083496,1.6887548648380603e+18,66.49506030273437,-254.3236389160156,137.36711730957032,-159.07823486328124,1.6887548648427364e+18,66.49973616536458,-0.5566428701082865,0.5753929615020752,-0.4840704301993051,0.352577139933904,-2.3448522885640464,1.382168213526408,-2.069653431574503
6.55,1.6887548648946463e+18,66.5516465657552,0.4719708363215129,1.2607162793477376,-0.5025684634844462,1.6887548648946463e+18,66.5516465657552,-1.4773685733477275,-8.26520840326945,0.951745182275772,1.6887548648946463e+18,66.5516465657552,-1.9551854530970256,-9.50841999053955,1.391626238822937,1.6887548648859968e+18,66.54299666341146,-0.0447458798686663,1.093041571478049,-1.6793194611867268,1.6887548648903196e+18,66.54731966145833,-0.0775798857212066,0.8307767609755198,-1.742085854212443,,,,,,,,,,,,1.6887548648880632e+18,66.54506313476563,0.6051199764013291,44.49583892822265,-27.10839958190918,1.6887548648880632e+18,66.54506313476563,-253.92347412109376,137.81363525390626,-159.11239624023438,1.6887548648946463e+18,66.5516465657552,-0.5519922971725464,0.6135836839675903,-0.472109576066335,0.3094253242015838,-2.518299102783203,1.3237788279851277,-1.80461053053538
6.6,1.6887548649465495e+18,66.60354956054688,7.558005889256795,-0.6678279240926107,-0.4770933787027994,1.6887548649465495e+18,66.60354956054688,4.738785982131958,-9.9651091893514,1.038086215655009,1.6887548649465495e+18,66.60354956054688,-2.825065851211548,-9.279776573181154,1.4524921973546343,1.688754864937904e+18,66.59490380859374,-0.3386738797028859,-0.7166467408339182,-1.66252068678538,1.6887548649422323e+18,66.59923209635417,-0.4048000474770863,-0.5578217705090841,-1.508938908576965,,,,,,,,,,,,1.6887548649380623e+18,66.59506215820313,5.363119792938233,43.83947906494141,-27.242599487304688,1.6887548649380623e+18,66.59506215820313,-249.1654754638672,137.15728149414062,-159.24659729003906,1.6887548649465495e+18,66.60354956054688,-0.5201698541641235,0.6302781303723654,-0.4964963396390279,0.2925335069497426,-2.666670799255371,1.241470456123352,-1.6772548357645671
