,seconds_elapsed_rounded,accelerometer_time,accelerometer_seconds_elapsed,accelerometer_z,accelerometer_y,accelerometer_x,accelerometeruncalibrated_time,accelerometeruncalibrated_seconds_elapsed,accelerometeruncalibrated_z,accelerometeruncalibrated_y,accelerometeruncalibrated_x,gravity_time,gravity_seconds_elapsed,gravity_z,gravity_y,gravity_x,gyroscope_time,gyroscope_seconds_elapsed,gyroscope_z,gyroscope_y,gyroscope_x,gyroscopeuncalibrated_time,gyroscopeuncalibrated_seconds_elapsed,gyroscopeuncalibrated_z,gyroscopeuncalibrated_y,gyroscopeuncalibrated_x,location_time,location_seconds_elapsed,location_bearingAccuracy,location_speedAccuracy,location_verticalAccuracy,location_horizontalAccuracy,location_speed,location_bearing,location_altitude,location_longitude,location_latitude,magnetometer_time,magnetometer_seconds_elapsed,magnetometer_z,magnetometer_y,magnetometer_x,magnetometeruncalibrated_time,magnetometeruncalibrated_seconds_elapsed,magnetometeruncalibrated_z,magnetometeruncalibrated_y,magnetometeruncalibrated_x,orientation_time,orientation_seconds_elapsed,orientation_qz,orientation_qy,orientation_qx,orientation_qw,orientation_roll,orientation_pitch,orientation_yaw,totalacceleration_time,totalacceleration_seconds_elapsed,totalacceleration_z,totalacceleration_y,totalacceleration_x
0,0.0,,,,,,,,,,,,,,,,1.6887019423945964e+18,0.042596435546875,1.9141463041305544,1.7313448190689087,0.3408628106117248,,,,,,,,,,,,,,,,,,,,,,,,,,,,,,,,,,,,,,,,
1,0.1,1.6887019424854449e+18,0.13344482421875,0.2576103210449219,-1.638603687286377,0.7333431839942932,1.6887019424594857e+18,0.10748579101562501,8.680442810058594,4.107997894287109,-1.3617553293704987,1.6887019424854449e+18,0.13344482421875,8.481712341308594,4.645341873168945,-1.648473620414734,1.6887019424474678e+18,0.09546773274739584,2.1095213492711387,0.7357617318630219,0.07819075323641297,1.6887019424474678e+18,0.09546773274739584,2.1253783901532493,0.710003579656283,0.07676539694269498,,,,,,,,,,,,1.6887019424521938e+18,0.100193896484375,-39.23885955810547,-28.385739707946776,22.85791931152344,1.6887019424521938e+18,0.100193896484375,-293.7796569824219,67.07925872802734,-110.35387802124023,1.6887019424854449e+18,0.13344482421875,0.7928378582000732,0.2503619492053985,0.070849172770977,0.5510965585708618,0.1870135366916656,-0.495057612657547,-1.8793518543243408,1.6887019424594857e+18,0.10748579101562501,8.67446060180664,4.1253458023071286,-1.4245669186115264
2,0.2,1.688701942545998e+18,0.19399820963541667,0.22385946909586588,-1.2049929300944011,1.2955050965150197,1.6887019425546499e+18,0.2026501057942708,8.609575271606445,3.473281741142273,-0.5446662430961927,1.688701942545998e+18,0.19399820963541667,8.440986474355062,4.669358412424724,-1.779030203819275,1.688701942545998e+18,0.19399820963541667,1.0859656929969788,0.8773552079995474,0.06643160060048103,1.688701942545998e+18,0.19399820963541667,1.0849984685579936,0.8818857967853546,0.06884960519770783,,,,,,,,,,,,1.688701942552194e+18,0.200193994140625,-38.07741851806641,-30.74155921936035,21.667199516296385,1.688701942552194e+18,0.200193994140625,-292.6182159423828,64.72343826293945,-111.54459762573242,1.688701942545998e+18,0.19399820963541667,0.8135905067125956,0.25785741706689197,0.05536401520172751,0.517762487133344,0.20266998559236524,-0.4975271075963974,-1.956457257270813,1.6887019425546499e+18,0.2026501057942708,8.603593031565348,3.4906297524770102,-0.6074778412779173
3,0.30000000000000004,1.6887019426498184e+18,0.29781868489583335,1.5475023587544758,-1.0924136638641357,0.4752262830734253,1.6887019426584696e+18,0.306469482421875,9.725727399190268,4.273282170295715,-1.5601203838984172,1.6887019426498184e+18,0.29781868489583335,8.073276201883951,5.17592207590739,-2.056757867336273,1.6887019426498184e+18,0.29781868489583335,0.43587779253721237,0.9005681152145067,0.12186761448780692,1.6887019426498184e+18,0.29781868489583335,0.43488513802488643,0.9050223107139269,0.12426016479730607,,,,,,,,,,,,1.688701942652198e+18,0.300197900390625,-35.288499450683595,-33.90013885498047,21.750159645080565,1.688701942652198e+18,0.300197900390625,-289.829296875,61.56485824584961,-111.46163787841797,1.6887019426498184e+18,0.29781868489583335,0.8270472685496012,0.2933217138051986,0.045224480330944034,0.47712724407513935,0.24408482263485587,-0.5569273034731547,-2.0249747037887573,1.6887019426584696e+18,0.306469482421875,9.719745318094889,4.290630062421163,-1.6229319870471954
4,0.4,1.6887019427536302e+18,0.4016304117838541,-1.57334566116333,-1.2747438351313274,1.166645884513855,1.6887019427536338e+18,0.4016337402343749,6.119404697418213,3.705285882949829,-1.7389838337898254,1.6887019427536302e+18,0.4016304117838541,7.796714862187703,5.1647326946258545,-2.950969179471334,1.6887019427536302e+18,0.4016304117838541,0.6356052855650584,1.1937070439259212,-0.1534798964858055,1.6887019427536302e+18,0.4016304117838541,0.6345871786276499,1.1981358180443447,-0.1510618875424067,,,,,,,,,,,,1.6887019427521976e+18,0.40019760742187505,-32.30193920135498,-34.84686012268067,24.883119583129883,1.6887019427521976e+18,0.40019760742187505,-286.8427337646484,60.61813926696777,-108.32867736816407,1.6887019427536302e+18,0.4016304117838541,0.8457946181297302,0.3186700642108917,-0.014381927205249648,0.427130122979482,0.35657518605391186,-0.5552658041318258,-2.1035909255345664,1.6887019427536338e+18,0.4016337402343749,6.113422632217407,3.7226338148117066,-1.801795446872711
5,0.5,1.6887019428574472e+18,0.5054471435546876,0.6962362925211588,-2.7012906074523926,1.960629681746165,1.6887019428487946e+18,0.4967947591145834,8.669395764668783,2.031606137752533,-0.7064808811992407,1.6887019428574472e+18,0.5054471435546876,8.404203176498413,4.3198924859364825,-2.578053116798401,1.6887019428574472e+18,0.5054471435546876,-0.5223915974299113,-1.2501611709594727,-1.430773655573527,1.6887019428574472e+18,0.5054471435546876,-0.5234097068508466,-1.2456814845403035,-1.428381085395813,,,,,,,,,,,,1.6887019428521958e+18,0.5001960205078125,-35.89605941772461,-31.850540351867675,23.570399475097656,1.6887019428521958e+18,0.5001960205078125,-290.4368530273438,63.61445922851563,-109.64139785766602,1.6887019428574472e+18,0.5054471435546876,0.862603614727656,0.26463560263315833,-0.01822670921683305,0.4297465831041336,0.2932505284746488,-0.45706679423650104,-2.1477373441060386,1.6887019428487946e+18,0.4967947591145834,8.663413921991983,2.04895410935084,-0.7692924759661158
6,0.6000000000000001,1.6887019429526113e+18,0.60061123046875,-0.5596824645996095,-2.8206849575042723,1.2263505935668946,1.688701942952614e+18,0.6006139729817709,8.535696744918823,0.533001239101092,0.09022935635099809,1.6887019429526113e+18,0.60061123046875,9.10997200012207,3.3734638690948486,-1.2204836368560792,1.6887019429526113e+18,0.60061123046875,-0.39889501528814436,-2.271227478981018,-1.1640342772006989,1.6887019429526113e+18,0.60061123046875,-0.39987238636240363,-2.266798758506775,-1.1616518676280976,,,,,,,,,,,,1.6887019429521976e+18,0.6001977783203125,-42.548719024658205,-26.478879547119142,18.528139686584474,1.6887019429521976e+18,0.6001977783203125,-297.0895111083984,68.98611907958984,-114.68365783691407,1.6887019429526113e+18,0.60061123046875,0.8597094535827636,0.18302475512027735,0.03107956070452924,0.47465792298316956,0.1289021879434585,-0.35195671916008,-2.1088544368743896,1.688701942952614e+18,0.6006139729817709,8.529714822769165,0.5503492106993993,0.027417760963241267
7,0.7000000000000001,1.6887019430477714e+18,0.6957716064453124,-0.05140542984008791,-2.733506759007772,1.162847047050794,1.6887019430564262e+18,0.7044261881510416,9.697312513987224,-1.2392827173074086,1.3866407225529354,1.6887019430477714e+18,0.6957716064453124,9.63489596048991,1.6920875410238903,0.19819500794013342,1.6887019430477714e+18,0.6957716064453124,-0.3058907700081666,-1.4483614961306255,-1.9762762983640034,1.6887019430477714e+18,0.6957716064453124,-0.3068579745789369,-1.4438818097114563,-1.9738583167394002,,,,,,,,,,,,1.6887019430521976e+18,0.7001975830078125,-48.930538940429685,-17.952299880981446,11.644899845123291,1.6887019430521976e+18,0.7001975830078125,-303.47132873535156,77.51269836425782,-121.56689834594727,1.6887019430477714e+18,0.6957716064453124,0.8638651669025421,0.06934603334714963,0.05375678154329453,0.49459410707155865,-0.024796839182575515,-0.17438260465860367,-2.102533459663391,1.6887019430564262e+18,0.7044261881510416,9.691330591837565,-1.2219347755114238,1.3238291144371033
8,0.8,1.6887019431515873e+18,0.7995874837239584,0.2063471476236979,-3.094580372174581,-2.1582794984181723,1.688701943151584e+18,0.79958408203125,9.855916786193848,-3.3053256034851075,-1.0198210179805756,1.6887019431515873e+18,0.7995874837239584,9.732876141866049,-0.13826566274898747,1.1024710436662037,1.6887019431515873e+18,0.7995874837239584,-0.5561928103367487,-0.15974125638604164,-1.8567758202552795,1.6887019431515873e+18,0.7995874837239584,-0.5572363783915838,-0.1552361324429512,-1.8543578187624614,1.688701943151893e+18,0.79989306640625,0.0,0.0,0.9968845248222352,12.359000205993652,1.1944242715835571,249.01461791992188,41.80000305175781,-122.7540396,49.1905408,1.688701943152197e+18,0.8001970703125,-52.78329849243164,-8.242319869995118,6.944239807128906,1.688701943152197e+18,0.8001970703125,-307.3240966796875,87.2226776123047,-126.26755752563477,1.6887019431515873e+18,0.7995874837239584,0.8464125196139017,-0.03643246322947862,0.046009448667367246,0.528512199719747,-0.11731573566794391,0.013017109750459584,-2.0243889490763345,1.688701943151584e+18,0.79958408203125,9.849934577941895,-3.287977600097656,-1.0826326131820678
9,0.9,1.6887019432554017e+18,0.9034016927083334,-0.3312689463297526,-2.335029125213623,-3.0552070140838623,1.6887019432467528e+18,0.8947528889973958,9.307780901590982,-4.19840665658315,-3.066701352596283,1.6887019432554017e+18,0.9034016927083334,9.534101168314615,-2.013569990793864,-0.35045312500248355,1.6887019432554017e+18,0.9034016927083334,-0.7952192823092142,3.1144455869992576,-1.9310977657636006,1.6887019432554017e+18,0.9034016927083334,-0.7961864868799845,3.1189252138137817,-1.9287051955858867,,,,,,,,,,,,1.6887019432521953e+18,0.9001953857421874,-50.949638748168944,2.0654599487781526,14.26301965713501,1.6887019432521953e+18,0.9001953857421874,-305.4904327392578,97.53045883178712,-118.94877624511719,1.6887019432554017e+18,0.9034016927083334,0.8190763394037882,-0.07479190205534295,-0.07120134184757869,0.5612343549728394,0.033442181224624334,0.2056213393807411,-1.9462379614512126,1.6887019432467528e+18,0.8947528889973958,9.301798661549887,-4.181058764457703,-3.129512886206309
10,1.0,1.6887019433505723e+18,0.9985722167968751,0.09213552474975586,-1.3113004684448242,-3.3195986270904543,1.6887019433505661e+18,0.9985662027994792,8.296015659968058,-5.212165911992391,-6.730212450027466,1.6887019433505723e+18,0.9985722167968751,8.191593360900878,-3.8907784461975097,-3.5702904224395753,1.6887019433505723e+18,0.9985722167968751,-0.4985576719045639,4.223430633544922,-2.209255266189575,1.6887019433505723e+18,0.9985722167968751,-0.4995350569486618,4.227951145172119,-2.206872844696045,,,,,,,,,,,,1.6887019433521956e+18,1.0001957031250002,-38.351919174194336,12.303699779510499,31.902999114990234,1.6887019433521956e+18,1.0001957031250002,-292.89271545410156,107.7686981201172,-101.3087989807129,1.6887019433505723e+18,0.9985722167968751,0.7613761782646179,-0.04896026849746698,-0.2753474771976471,0.5818988680839539,0.4088487267494202,0.40692147612571716,-1.9251315593719482,1.6887019433505661e+18,0.9985662027994792,8.29003381729126,-5.194817940394084,-6.793024063110352
11,1.1,1.6887019434457285e+18,1.0937286376953124,2.2610929807027182,1.1274112065633137,-2.2606967290242515,1.6887019434543839e+18,1.1023839518229168,7.803293863932292,-4.056233127911885,-8.256334781646729,1.6887019434457285e+18,1.0937286376953124,5.599066575368245,-5.2952524820963545,-5.986042658487956,1.6887019434457285e+18,1.0937286376953124,0.18269961327314377,3.1060970624287925,-1.853339691956838,1.6887019434457285e+18,1.0937286376953124,0.1817324080814918,3.1105513175328574,-1.850972592830658,,,,,,,,,,,,1.6887019434521974e+18,1.1001974121093752,-20.897379302978514,18.617199325561522,42.78661956787109,1.6887019434521974e+18,1.1001974121093752,-275.43817443847655,114.08219909667969,-90.42517776489258,1.6887019434457285e+18,1.0937286376953124,0.6932366490364075,-0.023571707618733184,-0.45837853848934174,0.553244431813558,0.8157277206579844,0.5695054630438486,-2.0492040316263833,1.6887019434543839e+18,1.1023839518229168,7.797311703364055,-4.038885196050008,-8.319146315256754
12,1.2000000000000002,1.6887019435495424e+18,1.1975425211588542,4.489298025767009,2.1389954487482705,-1.1589816411336262,1.6887019435581965e+18,1.2061966959635415,8.056234995524088,-3.4423744678497314,-8.259824434916178,1.6887019435495424e+18,1.1975425211588542,3.305856784184774,-5.647115707397461,-7.2918455600738525,1.6887019435495424e+18,1.1975425211588542,0.599895124634107,1.4958308041095734,-0.8327620550990105,1.6887019435495424e+18,1.1975425211588542,0.5989279200633367,1.5002595881621044,-0.8304203798373541,,,,,,,,,,,,1.6887019435521956e+18,1.2001956298828125,-7.5749797344207765,18.737979698181153,46.93827934265137,1.6887019435521956e+18,1.2001956298828125,-262.1157745361328,114.202978515625,-86.27351760864258,1.6887019435495424e+18,1.1975425211588542,0.6440596580505371,0.0031823009582391663,-0.5735364754994711,0.5055606265862783,1.139213542143504,0.6131791273752848,-2.2110147873560586,1.6887019435581965e+18,1.2061966959635415,8.050252993901571,-3.425026535987854,-8.322635809580484
13,1.3,1.688701943653361e+18,1.3013608805338541,2.6504772305488586,1.3294300238291423,0.6297469933827718,1.6887019436533627e+18,1.30136259765625,4.678685998916626,-3.9261434078216553,-7.4611798286437985,1.688701943653361e+18,1.3013608805338541,2.230618158976237,-5.082316001256307,-8.080673217773438,1.688701943653361e+18,1.3013608805338541,0.6926957269509634,1.5421547492345173,1.033278574546178,1.688701943653361e+18,1.3013608805338541,0.6917285323143005,1.5466089844703674,1.0356965760389965,1.6887019436709727e+18,1.31897265625,0.0,0.0,0.9923006892204284,12.366000175476074,1.1918460130691528,247.8046722412109,41.80000305175781,-122.7540438,49.1905399,1.6887019436521948e+18,1.30019462890625,-0.6978400066494942,15.855119800567627,48.5206184387207,1.6887019436521948e+18,1.30019462890625,-255.23863525390624,111.32011795043945,-84.69117813110351,1.688701943653361e+18,1.3013608805338541,0.6118715902169546,0.07114720965425168,-0.6150384942690531,0.49135781824588776,1.295696496963501,0.5445827891429266,-2.204398234685262,1.6887019436533627e+18,1.30136259765625,4.672704029083252,-3.908795404434204,-7.523991489410401
14,1.4000000000000001,1.6887019437571738e+18,1.4051737060546874,-2.452080229918162,-0.8281901280085245,-0.2397713661193848,1.6887019437485284e+18,1.3965284830729168,-0.5625127280751864,-4.630710085233052,-8.639984130859375,1.6887019437571738e+18,1.4051737060546874,1.9085469643274944,-4.188504934310913,-8.660108725229898,1.6887019437571738e+18,1.4051737060546874,0.9056840638319651,-0.06225735694169998,-0.17570011783391237,1.6887019437571738e+18,1.4051737060546874,0.9047423501809438,-0.05780313163995741,-0.1732821116844813,,,,,,,,,,,,1.688701943752197e+18,1.4001970703125,2.799899899959564,11.439939785003663,50.23227882385254,1.688701943752197e+18,1.4001970703125,-251.74089660644532,106.90493774414062,-82.97951889038086,1.6887019437571738e+18,1.4051737060546874,0.6084739168485006,0.1356989778578281,-0.6180980503559113,0.4786328673362732,1.348869303862254,0.4407820651928584,-2.162984331448873,1.6887019437485284e+18,1.3965284830729168,-0.5684947917858759,-4.613362034161885,-8.702795584996542
15,1.5,1.6887019438523372e+18,1.50033720703125,2.0860082149505614,-5.161056900024414,1.6095876693725586,1.6887019438523395e+18,1.5003395182291666,3.596013605594635,-8.597710927327475,-7.4744800726572675,1.6887019438523372e+18,1.50033720703125,1.7772202968597413,-3.5790496349334715,-8.956625747680665,1.6887019438523372e+18,1.50033720703125,0.6750671744346619,0.3855476021766663,-0.5293147385120391,1.6887019438523372e+18,1.50033720703125,0.67405925989151,0.39000690877437594,-0.5269323587417603,,,,,,,,,,,,1.6887019438521953e+18,1.500195263671875,3.3732999324798585,7.023539781570435,51.329058456420896,1.6887019438521953e+18,1.500195263671875,-251.16749572753906,102.4885383605957,-81.88274002075195,1.6887019438523372e+18,1.50033720703125,0.6318039298057556,0.1441306442022323,-0.6215897083282471,0.4399249792098999,1.3699788808822633,0.3733088791370392,-2.2312691688537596,1.6887019438523395e+18,1.5003395182291666,3.5900315841039023,-8.580362876256308,-7.537291606267293
16,1.6,1.6887019439475018e+18,1.5955017903645834,-0.37046100695927936,-3.162192225456238,-2.368771553039551,1.688701943956152e+18,1.6041520182291666,1.196311630308628,-6.598906358083089,-11.826426188151041,1.6887019439475018e+18,1.5955017903645834,1.7526515126228333,-3.422998070716858,-9.023433049519857,1.6887019439475018e+18,1.5955017903645834,0.12408200465142727,-0.5324199696381887,-0.5586617241303126,1.6887019439475018e+18,1.5955017903645834,0.12303843535482883,-0.5279911905527115,-0.5562691688537598,,,,,,,,,,,,1.6887019439521943e+18,1.6001944335937501,2.26553995013237,4.79825987815857,51.66699867248535,1.6887019439521943e+18,1.6001944335937501,-252.27525634765624,100.26325836181641,-81.54479904174805,1.6887019439475018e+18,1.5955017903645834,0.6494528651237488,0.1284182506302992,-0.6260169049104055,0.4118845860163371,1.3741774360338848,0.3565607617298762,-2.3046565850575766,1.688701943956152e+18,1.6041520182291666,1.1903295616308849,-6.581558545430501,-11.889238039652506
17,1.7000000000000002,1.6887019440513188e+18,1.69931884765625,0.14855623245239247,0.9635331233342489,1.6325947443644206,1.688701944051318e+18,1.69931806640625,2.506362056732178,-1.3593624904751778,-7.3055267333984375,1.6887019440513188e+18,1.69931884765625,1.9425079623858135,-2.7271860043207803,-9.212932904561361,1.6887019440513188e+18,1.69931884765625,1.3770429889361064,-0.34081190824508667,-0.5424228856960932,1.6887019440513188e+18,1.69931884765625,1.3760757744312286,-0.33638312729696435,-0.5400048693021139,,,,,,,,,,,,1.6887019440521943e+18,1.70019423828125,1.0235799672082067,0.7393200010061264,52.34531860351562,1.6887019440521943e+18,1.70019423828125,-253.5172134399414,96.20431671142578,-80.86647872924804,1.6887019440513188e+18,1.69931884765625,0.6804137130578359,0.13215740894277886,-0.6175265312194824,0.37102560698986053,1.3584645589192708,0.28235315531492233,-2.3716638485590615,1.688701944051318e+18,1.69931806640625,2.500380039215088,-1.3420145630836486,-7.368338394165039
18,1.8,1.688701944155133e+18,1.8031328938802085,-0.4686066508293152,3.216171662012736,5.001428683598836,1.688701944146481e+18,1.7944807535807292,1.6814564242959023,1.0992029085755348,-4.15244464079539,1.688701944155133e+18,1.8031328938802085,2.288583993911743,-2.2407405376434326,-9.267707188924154,1.688701944155133e+18,1.8031328938802085,-0.49900053938229877,-0.5067127148310343,-0.5913684666156769,1.688701944155133e+18,1.8031328938802085,-0.49994229276974994,-0.5022584994633993,-0.5889759014050165,,,,,,,,,,,,1.688701944152195e+18,1.80019501953125,-1.420079955458641,-2.7632999420166016,52.17085914611816,1.688701944152195e+18,1.80019501953125,-255.96087646484375,92.70169830322266,-81.04093780517579,1.688701944155133e+18,1.8031328938802085,0.7127845486005148,0.1216689323385556,-0.6051680346330007,0.3325651337703069,1.3241581718126934,0.2313061306873957,-2.4488826990127563,1.688701944146481e+18,1.7944807535807292,1.6754743804534276,1.1165508901079495,-4.215256174405416
19,1.9000000000000001,1.6887019442502968e+18,1.8982968750000002,0.028902316093444846,-2.638600969314575,1.2401602745056153,1.6887019442502991e+18,1.8982991536458333,2.0590238769849143,-6.874180714289348,-7.245167891184489,1.6887019442502968e+18,1.8982968750000002,2.122141981124878,-4.225772094726563,-8.553578948974609,1.6887019442502968e+18,1.8982968750000002,-3.4367889404296874,0.573510828614235,-0.201066292822361,1.6887019442502968e+18,1.8982968750000002,-3.4377663135528564,0.5780006855726242,-0.19862283617258072,,,,,,,,,,,,1.688701944252195e+18,1.9001950927734375,-1.3285799711942672,7.778719866275788,50.62389869689942,1.688701944252195e+18,1.9001950927734375,-255.86937866210937,103.24371871948242,-82.58789825439453,1.6887019442502968e+18,1.8982968750000002,0.6707784056663513,0.047699633799493255,-0.6218920946121216,0.39883856773376464,1.3229292154312133,0.4477660238742828,-2.419646644592285,1.6887019442502991e+18,1.8982991536458333,2.0530418356259665,-6.8568326234817505,-7.307979345321655
20,2.0,1.6887019443454543e+18,1.9934542643229165,-0.863500714302063,-4.517929156621297,-2.482123295466105,1.6887019443541146e+18,2.002114461263021,0.7975078721841177,-10.280762513478598,-9.53848910331726,1.6887019443454543e+18,1.9934542643229165,1.602719823519389,-6.167462587356567,-7.454746643702189,1.6887019443454543e+18,1.9934542643229165,-0.8176940356691679,0.04520402833198509,-0.4425973246494929,1.6887019443454543e+18,1.9934542643229165,-0.8186867013573647,0.049709152430296,-0.44015386203924817,,,,,,,,,,,,1.688701944352197e+18,2.0001970458984375,1.2029199600219727,19.765219688415527,47.133479309082034,1.688701944352197e+18,2.0001970458984375,-253.33787231445314,115.23021926879883,-86.0783187866211,1.6887019443454543e+18,1.9934542643229165,0.6096551716327667,-0.029340959154069382,-0.6444136202335358,0.4604349037011464,1.353491723537445,0.6806590457757314,-2.402190605799357,1.6887019443541146e+18,2.002114461263021,0.79152579108874,-10.26341446240743,-9.601300477981567
21,2.1,1.688701944449275e+18,2.0972748616536454,-1.3473552465438843,2.5663833220799765,1.7251194318135579,1.6887019444579264e+18,2.1059261474609374,-1.1290134464701016,-3.1553354263305664,-5.984349807103475,1.688701944449275e+18,2.0972748616536454,1.7215691606203716,-6.239010016123454,-7.352016846338908,1.688701944449275e+18,2.0972748616536454,-1.203989937591056,-0.7583892097075781,0.5451463318119446,1.688701944449275e+18,2.0972748616536454,-1.2049825927242637,-0.7539349533617496,0.5475388864676157,,,,,,,,,,,,1.6887019444521946e+18,2.1001944580078122,0.1891000092029571,20.26053943634033,46.41733894348145,1.6887019444521946e+18,2.1001944580078122,-254.35169525146483,115.725537109375,-86.7944580078125,1.688701944449275e+18,2.0972748616536454,0.6111398537953695,-0.03505120705813163,-0.6391573548316956,0.464714452624321,1.3334925572077434,0.6903573373953501,-2.3925525347391763,1.6887019444579264e+18,2.1059261474609374,-1.134995569785436,-3.137987514336904,-6.047161261240642
22,2.2,1.6887019445530888e+18,2.2010887451171874,0.5234175622463226,6.138124068578084,2.0188400944073996,1.6887019445530906e+18,2.201090673828125,2.6294727444648744,-2.559482717514038,-0.8049455195665359,1.6887019445530888e+18,2.2010887451171874,2.137038787206014,-8.802475134531656,-3.0839208563168845,1.6887019445530888e+18,2.2010887451171874,-6.762049198150635,-1.209156868358453,-2.417499214410782,1.6887019445530888e+18,2.2010887451171874,-6.763067245483398,-1.204702613254388,-2.415132130185763,,,,,,,,,,,,1.6887019445521948e+18,2.200194921875,-4.893419939279556,38.462939453125,30.277959251403807,1.6887019445521948e+18,2.200194921875,-259.43421173095703,133.92793655395508,-102.93383865356445,1.6887019445530888e+18,2.2010887451171874,0.5289819488922755,-0.24739160885413483,-0.5660311082998911,0.5711144109567007,0.8209904357790947,1.160065899292628,-2.0187000830968223,1.6887019445530906e+18,2.201090673828125,2.6234907865524293,-2.5421347618103027,-0.8677571028470993
23,2.3000000000000003,1.6887019446569042e+18,2.304904052734375,-2.331041634082794,-8.20245631535848,9.17127858599027,1.6887019446482555e+18,2.2962553304036457,-0.904786080121994,-16.064613342285156,11.270593345165253,1.6887019446569042e+18,2.304904052734375,1.1025629142920177,-9.177355607350668,3.036926915248235,1.6887019446569042e+18,2.304904052734375,-3.664631466070811,0.3841578761736552,0.4571562608083089,1.6887019446569042e+18,2.304904052734375,-3.665547877550125,0.38866300384203595,0.4595233928412199,,,,,,,,,,,,1.6887019446521943e+18,2.3001943115234376,0.9076799660921097,48.86709899902344,-0.799100065231323,1.6887019446521943e+18,2.3001943115234376,-253.63311462402345,144.33209686279298,-134.01089630126953,1.6887019446569042e+18,2.304904052734375,0.29384611050287884,-0.44087608655293775,-0.49597199261188507,0.6847746868928274,-1.1624286274115245,1.2274891535441081,0.04939913656562563,1.6887019446482555e+18,2.2962553304036457,-0.9107680916786194,-16.047265966733296,11.207781970500946
24,2.4000000000000004,1.6887019447520653e+18,2.4000654296875,1.9349136233329773,3.244526767730713,0.23330097198486327,1.6887019447520663e+18,2.4000662434895834,2.5815564890702567,-6.935895522435506,4.620141704877217,1.6887019447520653e+18,2.4000654296875,0.9368488788604736,-9.080703735351562,3.586366319656372,1.6887019447520653e+18,2.4000654296875,0.2942537810653448,-2.679529845714569,0.4850880801677704,1.6887019447520653e+18,2.4000654296875,0.2933069508522749,-2.6750094413757326,0.48750101327896117,,,,,,,,,,,,1.688701944752196e+18,2.4001961669921874,-0.8869399877265096,49.45513916015625,-4.424939966201782,1.688701944752196e+18,2.4001961669921874,-255.427734375,144.92013702392578,-137.6367385864258,1.6887019447520653e+18,2.4000654296875,0.3342192769050598,-0.5026139736175537,-0.4440880358219147,0.6611466646194458,-1.3081033945083618,1.1796627521514893,0.01197511547361502,1.6887019447520663e+18,2.4000662434895834,2.575574465095997,-6.918547471364339,4.557330052057902
25,2.5,1.6887019448472317e+18,2.4952314453125,0.04632577300071714,0.20055707295735678,1.34340500831604,1.6887019448558794e+18,2.503879475911458,0.995713310316205,-8.919744650522867,5.052943468093872,1.6887019448472317e+18,2.4952314453125,1.256004273891449,-9.016655604044596,3.6531322797139487,1.6887019448472317e+18,2.4952314453125,-0.01753692546238504,1.4298319419225056,-0.3570761978626251,1.6887019448472317e+18,2.4952314453125,-0.018529578306091348,1.434337039788564,-0.35468363761901855,,,,,,,,,,,,1.688701944852196e+18,2.50019619140625,-2.9194599270820616,49.42463836669922,-4.650639867782592,1.688701944852196e+18,2.50019619140625,-257.46025390625,144.88963928222657,-137.86243743896483,1.6887019448472317e+18,2.4952314453125,0.34464600682258606,-0.5007321834564209,-0.4280618230501811,0.6683214604854584,-1.2335655291875203,1.1626388033231099,-0.08015789402027924,1.6887019448558794e+18,2.503879475911458,0.9897312863419453,-8.902396996816,4.990131934483846
26,2.6,1.6887019449510444e+18,2.5990443522135416,-1.3105063637097676,0.18077007929484046,0.45111266771952313,1.6887019449510497e+18,2.59904990234375,-0.4435096740722656,-9.01890754699707,3.824209213256836,1.6887019449510444e+18,2.5990443522135416,0.8682692646980286,-9.168354352315268,3.3778268098831177,1.6887019449510444e+18,2.5990443522135416,0.06948592172314723,0.8666650677720705,-0.6558147395650545,1.6887019449510444e+18,2.5990443522135416,0.06854417268186806,0.871170200407505,-0.6533967331051826,,,,,,,,,,,,1.6887019449521964e+18,2.60019638671875,1.4176399782299995,49.496619033813474,-3.6319398641586305,1.6887019449521964e+18,2.60019638671875,-253.12315216064454,144.96161804199218,-136.84373931884767,1.6887019449510444e+18,2.5990443522135416,0.29212708274523413,-0.46460894743601483,-0.4877767165501912,0.6787216265996298,-1.3108726342519124,1.204582651456197,0.15989932790398595,1.6887019449510497e+18,2.59904990234375,-0.44949172139167787,-9.001559257507324,3.7613975524902346
27,2.7,1.688701945054861e+18,2.70286083984375,-0.45137907067934674,0.1737208366394043,0.5746407508850098,1.6887019450462113e+18,2.6942112630208332,0.2875375185782711,-9.01755158106486,4.033900141716003,1.688701945054861e+18,2.70286083984375,0.902063637971878,-9.140068531036377,3.4466219743092856,1.688701945054861e+18,2.70286083984375,-0.11033753802378969,-0.3119230618079503,0.199854747702678,1.688701945054861e+18,2.70286083984375,-0.1113301925361156,-0.3074688368166486,0.20227275633563593,,,,,,,,,,,,1.688701945052198e+18,2.700197900390625,1.5737999618053435,49.43927917480469,-4.140679955482483,1.688701945052198e+18,2.700197900390625,-252.9669937133789,144.90427856445314,-137.35247955322265,1.688701945054861e+18,2.70286083984375,0.28819420933723444,-0.46438294649124146,-0.4863344629605611,0.6817073921362559,-1.306247313817342,1.1965513229370117,0.16151663164297733,1.6887019450462113e+18,2.6942112630208332,0.28155546480168897,-9.000203450520834,3.9710886478424072
28,2.8000000000000003,1.6887019451586752e+18,2.806675252278646,0.7133051455020905,0.15836636225382483,0.7062968413035074,1.6887019451500257e+18,2.7980256347656254,1.5571293433507283,-8.932805697123209,4.354339043299357,1.6887019451586752e+18,2.806675252278646,0.9234218597412109,-9.095900853474935,3.5561423301696777,1.6887019451586752e+18,2.806675252278646,-0.10662143677473063,0.19568050544088086,0.023492859443649636,1.6887019451586752e+18,2.806675252278646,-0.10766499986251192,0.20016018114984035,0.02585996144140758,,,,,,,,,,,,1.6887019451521958e+18,2.80019580078125,1.2870999872684479,49.521018981933594,-4.459100008010864,1.6887019451521958e+18,2.80019580078125,-253.25369415283203,144.98601837158202,-137.6708984375,1.6887019451586752e+18,2.806675252278646,0.2883160561323166,-0.46959995726744325,-0.4802357355753581,0.682427316904068,-1.3086451490720112,1.1843483050664265,0.15325710425774253,1.6887019451500257e+18,2.7980256347656254,1.5511472821235657,-8.915457884470621,4.291527311007182
29,2.9000000000000004,1.6887019452538404e+18,2.9018404296875,2.5907138109207155,-0.3526773452758789,-0.04864029884338379,1.688701945253839e+18,2.9018392333984373,3.8385860125223794,-9.411569595336914,3.5971103509267173,1.6887019452538404e+18,2.9018404296875,1.3542295694351196,-9.035764503479005,3.5650173664093017,1.6887019452538404e+18,2.9018404296875,0.010598511248826997,0.7577783226966858,0.573571914434433,1.6887019452538404e+18,2.9018404296875,0.00959058478474618,0.7622071146965027,0.5759542942047119,,,,,,,,,,,,1.6887019452521938e+18,2.90019375,-0.20862001180648804,49.41731910705566,-4.776299953460693,1.6887019452521938e+18,2.90019375,-254.7494140625,144.88231506347657,-137.98809814453125,1.6887019452538404e+18,2.9018404296875,0.28021024465560906,-0.45011098980903624,-0.475922691822052,0.7015813708305358,-1.2011266946792603,1.1681728839874268,0.09081470593810076,1.688701945253839e+18,2.9018392333984373,3.8326040506362915,-9.394221782684328,3.5342987378438315
30,3.0,1.6887019453490012e+18,2.9970010986328126,-1.354010323683421,0.11670915285746257,0.31587962309519446,1.6887019453576517e+18,3.0056517740885416,0.37896325687567395,-8.762117783228556,3.6143586238225303,1.6887019453490012e+18,2.9970010986328126,2.0947249929110208,-8.987244447072348,3.3235283692677817,1.6887019453490012e+18,2.9970010986328126,0.13383039335409797,0.8329402282834053,0.2656245722124974,1.6887019453490012e+18,2.9970010986328126,0.13291409735878304,0.8374453336000443,0.26806802954524755,,,,,,,,,,,,1.6887019453521953e+18,3.0001953125,-3.2866799354553224,49.45757904052734,-4.208999967575073,1.6887019453521953e+18,3.0001953125,-257.8274749755859,144.92257690429688,-137.4207977294922,1.6887019453490012e+18,2.9970010986328126,0.2723325391610463,-0.40887832641601557,-0.47341009477774304,0.7309709986050924,-1.0022473633289337,1.1553433934847515,-0.027251046073312534,1.6887019453576517e+18,3.0056517740885416,0.37298122793436067,-8.744769732157389,3.551547050476074
31,3.1,1.6887019454528172e+18,3.1008173014322917,0.6958591540654501,-0.3377229372660319,-0.4739228884379069,1.688701945452819e+18,3.1008189453124997,3.0890143632888796,-9.510034370422364,2.7300909996032714,1.6887019454528172e+18,3.1008173014322917,2.172672986984253,-9.036900361378988,3.137856920560201,1.6887019454528172e+18,3.1008173014322917,0.28328875948985416,-0.43536874155203503,0.06297002608577411,1.6887019454528172e+18,3.1008173014322917,0.28232155243555707,-0.4309145212173462,0.06541348504833878,,,,,,,,,,,,1.6887019454521946e+18,3.1001945556640624,-3.8161599397659303,49.53321914672851,-3.1268599033355713,1.6887019454521946e+18,3.1001945556640624,-258.35695495605466,144.9982177734375,-136.33865661621093,1.6887019454528172e+18,3.1008173014322917,0.28227322796980536,-0.403202623128891,-0.4742625405391057,0.729908804098765,-0.9591647287209829,1.1680992444356282,-0.07583412217597162,1.688701945452819e+18,3.1008189453124997,3.0830323696136475,-9.492686462402343,2.6672794342041017
32,3.2,1.6887019455566303e+18,3.2046303304036456,0.8525819778442383,0.6127556959788004,0.4004758596420288,1.6887019455479775e+18,3.1959773763020833,3.1915268898010254,-8.678269227345785,3.2287153402964273,1.6887019455566303e+18,3.2046303304036456,2.2174458106358848,-9.141615867614746,2.7800087134043374,1.6887019455566303e+18,3.2046303304036456,0.45840345819791156,-0.07691811614980298,0.24070635810494423,1.6887019455566303e+18,3.2046303304036456,0.4574617048104604,-0.07243843873341875,0.24309891462326047,,,,,,,,,,,,1.6887019455521935e+18,3.200193676757812,-4.207779955863953,49.43195915222168,-1.0626199811697006,1.6887019455521935e+18,3.200193676757812,-258.7485717773437,144.89695892333984,-134.2744171142578,1.6887019455566303e+18,3.2046303304036456,0.30571266015370685,-0.39851347108681995,-0.47584687173366547,0.7219622433185577,-0.891550213098526,1.196339984734853,-0.17144032319386796,1.6887019455479775e+18,3.1959773763020833,3.1855448484420776,-8.660921335220337,3.1659037669499717
33,3.3000000000000003,1.6887019456517957e+18,3.29979580078125,-0.28814642429351806,1.135843563079834,0.8747792720794678,1.6887019456517957e+18,3.2997956136067708,2.351147631804148,-8.046564102172852,3.4772698084513345,1.6887019456517957e+18,3.29979580078125,2.564215660095215,-9.108332633972168,2.586323595046997,1.6887019456517957e+18,3.29979580078125,0.11893546432256692,-0.3118772506713867,0.524458360671997,1.6887019456517957e+18,3.29979580078125,0.11792753562331193,-0.3074179351329803,0.5268407344818116,,,,,,,,,,,,1.6887019456521966e+18,3.3001964599609375,-6.5733599185943605,49.14037971496582,0.27327999100089073,1.6887019456521966e+18,3.3001964599609375,-261.11415710449216,144.60537567138672,-132.93851776123046,1.6887019456517957e+18,3.29979580078125,0.32734566330909726,-0.39171207547187803,-0.4627926111221313,0.7246868133544921,-0.7859261751174926,1.1869448661804198,-0.30303717255592344,1.6887019456517957e+18,3.2997956136067708,2.345165570576986,-8.029216130574545,3.4144581953684487
34,3.4000000000000004,1.6887019457469545e+18,3.3949544677734376,0.0699634949366252,0.7091453870137533,0.8017126719156901,1.688701945755609e+18,3.4036092529296873,3.0962127844492593,-8.215258200963339,3.6262230475743613,1.6887019457469545e+18,3.3949544677734376,2.958289623260498,-8.96921189626058,2.649160901705424,1.6887019457469545e+18,3.3949544677734376,0.02949970091382657,-0.29461521655321116,0.5518403897682825,1.6887019457469545e+18,3.3949544677734376,0.028507044694075917,-0.29013554006814957,0.5542074839274088,,,,,,,,,,,,1.6887019457521958e+18,3.4001958984375,-9.742919921875,48.92809867858887,0.1134599968791008,1.6887019457521958e+18,3.4001958984375,-264.2837188720703,144.39309692382812,-133.09833679199218,1.6887019457469545e+18,3.3949544677734376,0.3468378484249115,-0.39433105786641437,-0.43827979266643524,0.7294051845868429,-0.727953722079595,1.1504323879877727,-0.40319588283697766,1.688701945755609e+18,3.4036092529296873,3.0902307828267417,-8.197909990946451,3.5634114344914756
35,3.5,1.6887019458507707e+18,3.498770792643229,1.3246326446533203,0.5897863705952963,1.2058823903401692,1.6887019458507735e+18,3.498773486328125,4.588237476348877,-8.349993705749512,4.121158456802368,1.6887019458507707e+18,3.498770792643229,3.1954455375671387,-8.858327547709147,2.7483812173207602,1.6887019458507707e+18,3.498770792643229,-0.022347487354030166,-0.181783319140474,0.042455139259497315,1.6887019458507707e+18,3.498770792643229,-0.023340142642458248,-0.17732909445961312,0.04484769670913615,,,,,,,,,,,,1.6887019458521938e+18,3.50019384765625,-11.28499984741211,48.49865875244141,0.10247999653220177,1.6887019458521938e+18,3.50019384765625,-265.82579650878904,143.96365661621093,-133.10931854248048,1.6887019458507707e+18,3.498770792643229,0.3582363128662109,-0.39812496304512024,-0.4208405315876007,0.7321520149707794,-0.7080197433630625,1.1232048273086548,-0.45314303040504456,1.6887019458507735e+18,3.498773486328125,4.582255554199219,-8.33264617919922,4.058346796035766
36,3.6,1.68870194595459e+18,3.6025899658203127,1.5716536045074463,-1.0947400728861492,-0.0013689200083414714,1.688701945945937e+18,3.5939369303385416,4.287240346272786,-9.515159130096436,2.5386851032574973,1.68870194595459e+18,3.6025899658203127,2.7406479120254517,-8.961040178934732,2.8862402041753135,1.68870194595459e+18,3.6025899658203127,-0.18941913009621195,-0.8064439287409186,-0.7119888961315155,1.68870194595459e+18,3.6025899658203127,-0.19038633513264355,-0.8020151499658823,-0.7095963358879089,,,,,,,,,,,,1.6887019459521969e+18,3.6001969238281246,-8.289899730682373,48.71703834533692,0.389180001616478,1.6887019459521969e+18,3.6001969238281246,-262.8306945800781,144.18203430175782,-132.82261810302734,1.68870194595459e+18,3.6025899658203127,0.35267092784245807,-0.4167373478412628,-0.43000266949335736,0.7188314994176229,-0.8099262515703837,1.148520012696584,-0.3702907860279083,1.688701945945937e+18,3.5939369303385416,4.281258185704549,-9.49781092007955,2.4758734901746116
37,3.7,1.688701946058404e+18,3.7064040934244793,-0.8619714180628458,1.4911176363627117,2.0260695616404214,1.688701946049753e+18,3.6977531738281253,1.7417754319806893,-8.450452526410421,5.456233819325765,1.688701946058404e+18,3.7064040934244793,2.0500441590944924,-9.065141995747885,3.1353729963302612,1.688701946058404e+18,3.7064040934244793,0.1846594698727131,0.7533495227495829,-0.42231150964895886,1.688701946058404e+18,3.7064040934244793,0.18366681411862373,0.757854700088501,-0.4198934982220332,,,,,,,,,,,,1.6887019460521981e+18,3.7001981933593755,-5.08373990058899,49.29897880554199,-1.2260999590158463,1.6887019460521981e+18,3.7001981933593755,-259.6245361328125,144.76397705078125,-134.43789672851562,1.688701946058404e+18,3.7064040934244793,0.3490805427233378,-0.45007366438706714,-0.4372056821982066,0.6957118709882101,-0.9866597950458527,1.1757143537203472,-0.24206269035736716,1.688701946049753e+18,3.6977531738281253,1.7357934080064297,-8.433104713757833,5.39342216650645
38,3.8000000000000003,1.688701946153564e+18,3.80156396484375,-3.153423881530762,0.9904895782470703,3.634717321395874,1.688701946153567e+18,3.8015667724609377,-1.5126627087593079,-7.819345633188884,6.238088607788086,1.688701946153564e+18,3.80156396484375,1.7201395750045776,-9.212669563293456,2.8869252681732176,1.688701946153564e+18,3.80156396484375,-0.4564690668135881,1.522367811203003,-1.4344337582588196,1.688701946153564e+18,3.80156396484375,-0.457476994022727,1.526827096939087,-1.432081925868988,,,,,,,,,,,,1.6887019461521956e+18,3.8001955322265624,-1.961759939789772,49.62349891662598,-0.9101199820637703,1.6887019461521956e+18,3.8001955322265624,-256.50255584716797,145.08849487304687,-134.12191772460938,1.688701946153564e+18,3.80156396484375,0.29333286285400384,-0.4110297679901123,-0.4914489686489105,0.7090445280075073,-1.0283711433410645,1.2174916982650756,-0.03286354094743728,1.688701946153567e+18,3.8015667724609377,-1.5186447501182556,-7.801997661590576,6.17527707417806
39,3.9000000000000004,1.6887019462487278e+18,3.8967277018229165,-2.6388555765151978,1.2006189823150635,0.07319406668345134,1.6887019462573814e+18,3.9053813069661456,-2.3938196500142417,-8.262815316518148,3.520739436149597,1.6887019462487278e+18,3.8967277018229165,0.247365303337574,-9.157694180806478,3.457739313443502,1.6887019462487278e+18,3.8967277018229165,-0.8763625621795654,-0.8746317711969217,-1.5421802401542664,1.6887019462487278e+18,3.8967277018229165,-0.8773806591828665,-0.8701521002997955,-1.539813111225764,,,,,,,,,,,,1.6887019462521933e+18,3.900193115234375,7.321219778060913,48.91467933654785,-4.238279986381531,1.6887019462521933e+18,3.900193115234375,-247.21957550048828,144.37967681884766,-137.45007781982423,1.6887019462487278e+18,3.8967277018229165,0.22756295899550116,-0.4408680150906245,-0.5392369627952576,0.6797521015008291,-1.4816237290700276,1.203543206055959,0.4784194827079773,1.6887019462573814e+18,3.9053813069661456,-2.399801711241404,-8.24546750386556,3.457927862803141
40,4.0,1.6887019463525404e+18,4.000540445963542,1.6297421058019002,-1.8434289296468098,-1.7330563465754192,1.6887019463525432e+18,4.000543212890625,1.4970694780349731,-10.889018058776855,2.4983460664749146,1.6887019463525404e+18,4.000540445963542,-1.1494463781515758,-8.768881956736246,4.236172755559285,1.6887019463525404e+18,4.000540445963542,-0.4841361517707507,0.4521420896053314,-1.1688651740550995,1.6887019463525404e+18,4.000540445963542,-0.48515426367521286,0.45662180085976917,-1.1664726436138153,,,,,,,,,,,,1.6887019463521953e+18,4.000195458984375,13.92507963180542,47.16153907775879,-7.800679922103882,1.6887019463521953e+18,4.000195458984375,-240.61571655273437,142.62653656005858,-141.0124771118164,1.6887019463525404e+18,4.000540445963542,0.1946726987759272,-0.5073513835668564,-0.5471091568470001,0.6360808312892914,-1.826579789320628,1.1061747471491497,0.7556557953357697,1.6887019463525432e+18,4.000543212890625,1.4910874128341676,-10.871670150756836,2.4355345010757445
41,4.1000000000000005,1.6887019464563581e+18,4.104358072916667,1.3496077259381611,-0.8644628524780273,-1.313849687576294,1.6887019464477048e+18,4.095704833984375,-1.2082757353782654,-9.214361190795898,2.8612176179885864,1.6887019464563581e+18,4.104358072916667,-1.9704091548919678,-8.532792409261068,4.397325277328491,1.6887019464563581e+18,4.104358072916667,-0.08569930369655289,-0.519846315185229,-1.286354919274648,1.6887019464563581e+18,4.104358072916667,-0.08671741249660651,-0.5153920948505403,-1.2839369376500447,,,,,,,,,,,,1.688701946452195e+18,4.1001950439453125,19.23695945739746,44.94723968505859,-9.496479892730713,1.688701946452195e+18,4.1001950439453125,-235.3038360595703,140.41223907470703,-142.7082763671875,1.6887019464563581e+18,4.104358072916667,0.14011854678392408,-0.49833259483178455,-0.5918316741784414,0.6174048086007436,-1.9827715754508972,1.055661678314209,1.011173168818156,1.6887019464477048e+18,4.095704833984375,-1.2142577767372131,-9.197013219197592,2.798406104246775
42,4.2,1.6887019465515205e+18,4.1995204589843755,2.5336903810501097,-2.5621723175048827,-0.3946381092071533,1.6887019465515254e+18,4.199525309244792,0.16590236624081925,-10.90179967880249,4.026721676190694,1.6887019465515205e+18,4.1995204589843755,-2.793175554275513,-8.340447616577148,4.342321491241455,1.6887019465515205e+18,4.1995204589843755,0.21328360438346858,1.2444241344928741,-0.4722599271684885,1.6887019465515205e+18,4.1995204589843755,0.2123367607593536,1.2489445567131043,-0.4698469966650009,,,,,,,,,,,,1.6887019465521966e+18,4.2001967529296875,25.011219596862794,42.75367889404297,-9.132919883728027,1.6887019465521966e+18,4.2001967529296875,-229.52957611083986,138.2186767578125,-142.34471740722657,1.6887019465515205e+18,4.1995204589843755,0.1172112569212913,-0.5017818689346314,-0.6235695481300354,0.5876085758209229,-2.1364670276641844,1.0175110578536988,1.1915329456329347,1.6887019465515254e+18,4.199525309244792,0.1599203199148178,-10.884451707204184,3.9639101028442383
43,4.3,1.6887019466466834e+18,4.294683349609375,3.042136232058207,-3.2621189753214517,-1.9131133159001668,1.6887019466553372e+18,4.303337117513021,0.686341310540835,-11.934402306874594,2.49371999502182,1.6887019466466834e+18,4.294683349609375,-2.1431962052981057,-8.490471522013346,4.391204754511516,1.6887019466466834e+18,4.294683349609375,0.5751041645805041,1.6263268788655598,0.756607518841823,1.6887019466466834e+18,4.294683349609375,0.5741115187605222,1.6308065553506215,0.7590000775332252,,,,,,,,,,,,1.6887019466521948e+18,4.300194897460938,23.120219421386718,42.96839866638184,-10.923879718780517,1.6887019466521948e+18,4.300194897460938,-231.4205764770508,138.4333969116211,-144.13567810058595,1.6887019466466834e+18,4.294683349609375,0.08796786268552141,-0.4523141036430995,-0.6343852678934733,0.6197737952073415,-2.0140399734179177,1.0480297803878784,1.2003210385640461,1.6887019466553372e+18,4.303337117513021,0.6803592666983604,-11.917054494222006,2.4309083819389343
44,4.4,1.6887019467505006e+18,4.398500651041667,-0.507792462905248,-2.8501121203104653,2.2184731165568032,1.6887019467505016e+18,4.398501708984375,-0.47377887964248655,-11.967941856384277,5.595137262344361,1.6887019467505006e+18,4.398500651041667,0.11231507733464241,-9.175659020741781,3.384146054585775,1.6887019467505006e+18,4.398500651041667,1.634064535299937,0.14113533496856692,2.235435942808787,1.6887019467505006e+18,4.398500651041667,1.6331227819124858,0.14561500151952114,2.2378793954849243,,,,,,,,,,,,1.6887019467521938e+18,4.400193798828125,11.87913999557495,47.555599212646484,-7.385879850387573,1.6887019467521938e+18,4.400193798828125,-242.66165771484376,143.02059631347657,-140.5976760864258,1.6887019467505006e+18,4.398500651041667,0.14358374848961825,-0.37014319996039075,-0.5959537923336029,0.6967540383338928,-1.5064323941866558,1.2119088967641194,0.7499850789705912,1.6887019467505016e+18,4.398501708984375,-0.47976094484329224,-11.950593757629395,5.532325553894043
45,4.5,1.688701946854317e+18,4.502317097981771,-2.3974514404932656,1.219532569249471,4.52009920279185,1.6887019468456612e+18,4.493661214192708,-0.4088735779126485,-8.93579657872518,6.854439973831177,1.688701946854317e+18,4.502317097981771,1.668474515279134,-9.496149381001791,1.7378541827201843,1.688701946854317e+18,4.502317097981771,1.4241814017295837,1.519349140425523,0.7234935313463211,1.688701946854317e+18,4.502317097981771,1.4231887658437092,1.5238288367787998,0.7258860915899277,,,,,,,,,,,,1.6887019468521935e+18,4.5001936035156245,4.224859952926636,49.460018920898435,0.3696599990129471,1.6887019468521935e+18,4.5001936035156245,-250.31593322753906,144.92501831054688,-132.842138671875,1.688701946854317e+18,4.502317097981771,0.18431250751018521,-0.26438530782858527,-0.585365225871404,0.7433060010274252,-0.7833360234896342,1.315847357114156,0.1319276801271674,1.6887019468456612e+18,4.493661214192708,-0.41485561927159625,-8.91844892501831,6.791628360748291
46,4.6000000000000005,1.6887019469581258e+18,4.606125651041666,-4.152785162130992,5.473362366358439,1.9277111291885376,1.6887019469494804e+18,4.597480387369791,-1.9855443090200424,-4.071088671684265,2.923231601715088,1.6887019469581258e+18,4.606125651041666,2.397785743077596,-9.451771895090738,1.0577584207057953,1.6887019469581258e+18,4.606125651041666,0.22474750236142427,-1.1504883368810017,0.7300603116552035,1.6887019469581258e+18,4.606125651041666,0.22375484826625325,-1.1460086454947789,0.7324783230821291,,,,,,,,,,,,1.6887019469521935e+18,4.600193408203125,-0.7210199892520904,49.56981887817383,5.008099865913391,1.6887019469521935e+18,4.600193408203125,-255.26181335449218,145.0348159790039,-128.2036979675293,1.6887019469581258e+18,4.606125651041666,0.2282399013638496,-0.24120151499907172,-0.5637420018513998,0.7559272746245066,-0.4100835422674815,1.2974326411883037,-0.27349719901879627,1.6887019469494804e+18,4.597480387369791,-1.991526332994302,-4.053740660349528,2.860420068105062
47,4.7,1.6887019470532915e+18,4.701291650390624,2.4261972188949583,1.406048583984375,2.1205318450927733,1.6887019470532923e+18,4.701292277018229,4.80548569560051,-7.947959780693054,3.5606197913487754,1.6887019470532915e+18,4.701291650390624,2.6299730777740478,-9.329006385803222,1.5004115581512452,1.6887019470532915e+18,4.701291650390624,-0.2037541031837463,-1.1403632402420043,0.606467017531395,1.6887019470532915e+18,4.701291650390624,-0.20470094084739682,-1.1359039425849915,0.6088493824005127,,,,,,,,,,,,1.6887019470521943e+18,4.700194140624999,-3.712459921836853,49.62105941772461,4.686019802093506,1.6887019470521943e+18,4.700194140624999,-258.2532562255859,145.0860565185547,-128.52577896118163,1.6887019470532915e+18,4.701291650390624,0.2602522879838943,-0.2851732969284057,-0.5319188475608826,0.7534577488899231,-0.5131229341030121,1.2541593313217163,-0.2895280361175537,1.6887019470532923e+18,4.701292277018229,4.799503763516744,-7.930611888567607,3.4978081385294595
48,4.800000000000001,1.6887019471484572e+18,4.796457397460937,2.0410744746526084,-0.8424890836079916,-1.4656114478905995,1.6887019471571105e+18,4.805110392252604,4.809972325960795,-9.784052213033041,0.7437690254300833,1.6887019471484572e+18,4.796457397460937,2.9671396811803183,-9.131237347920736,2.0037218928337097,1.6887019471484572e+18,4.796457397460937,-0.2224058533708254,-1.1950305700302124,-0.00929024318854014,1.6887019471484572e+18,4.796457397460937,-0.2233985140919685,-1.1905509134133656,-0.00687222679456075,,,,,,,,,,,,1.688701947152194e+18,4.80019404296875,-6.943019914627075,49.36973915100098,2.7254799604415894,1.688701947152194e+18,4.80019404296875,-261.4838165283203,144.8347396850586,-130.48631744384767,1.6887019471484572e+18,4.796457397460937,0.2883514662583669,-0.32377375662326807,-0.49227650960286456,0.7545857826868693,-0.5908411939938863,1.1939889192581177,-0.32189351816972095,1.6887019471571105e+18,4.805110392252604,4.803990284601848,-9.766704559326172,0.680957435319821
49,4.9,1.688701947252273e+18,4.900272908528646,1.4534231821695964,-5.138745148976644,5.585683623949687,1.6887019472522737e+18,4.9002737792968745,4.20095911026001,-15.570336532592773,8.819465589523315,1.688701947252273e+18,4.900272908528646,2.271240989367167,-9.202979723612467,2.518431862195333,1.688701947252273e+18,4.900272908528646,-0.07416922350724538,0.7915031214555105,-0.5303328434626261,1.688701947252273e+18,4.900272908528646,-0.07518733044465382,0.7959574063618978,-0.5279402832190195,1.6887019472958397e+18,4.94383984375,0.0,0.0,1.0274708271026611,12.562000274658203,1.223947048187256,253.79693603515625,41.80000305175781,-122.7541146,49.1905538,1.6887019472521946e+18,4.9001946533203125,-3.9052199602127073,49.656439208984374,0.6221999980509281,1.6887019472521946e+18,4.9001946533203125,-258.4460144042969,145.1214385986328,-132.5895980834961,1.688701947252273e+18,4.900272908528646,0.2896857311328252,-0.37219227850437164,-0.49393229683240253,0.7300580441951752,-0.8318923711776733,1.2148466507593791,-0.1595625728368759,1.6887019472522737e+18,4.9002737792968745,4.194977021217346,-15.552987861633301,8.756654262542725
50,5.0,1.6887019473560873e+18,5.004087320963541,-5.115650018056233,6.273580869038899,1.974462668100993,1.6887019473474345e+18,4.995434448242187,-2.9283164143562317,-3.0195427437623343,3.6688950061798096,1.6887019473560873e+18,5.004087320963541,2.195445716381073,-9.42676575978597,1.5719244678815205,1.6887019473560873e+18,5.004087320963541,0.1156062384446462,2.1024709368745484,-0.8076402147610983,1.6887019473560873e+18,5.004087320963541,0.1146390438079834,2.106925167143345,-0.8052476644515991,,,,,,,,,,,,1.6887019473521946e+18,5.000194702148438,-0.7429800167679786,49.77599868774414,3.527019941806793,1.6887019473521946e+18,5.000194702148438,-255.28377532958984,145.24099578857422,-129.68477935791014,1.6887019473560873e+18,5.004087320963541,0.21960522482792533,-0.26968107620875037,-0.5597823063532511,0.751509557167689,-0.6142905354499817,1.2892112731933594,-0.1000783803562323,1.6887019473474345e+18,4.995434448242187,-2.9342984358469644,-3.002194861570994,3.6060834328333535
51,5.1000000000000005,1.688701947451248e+18,5.099248193359375,-3.6143349170684815,0.7545324325561522,2.732517862319946,1.688701947451249e+18,5.099249064127604,-2.137189428011576,-8.35204784075419,5.118945558865865,1.688701947451248e+18,5.099248193359375,1.4062545776367188,-9.38995304107666,2.4358638763427733,1.688701947451248e+18,5.099248193359375,-1.2006556391716003,-1.9438342928886414,-0.42067236006259917,1.688701947451248e+18,5.099248193359375,-1.20166357755661,-1.939374953508377,-0.4182594299316406,,,,,,,,,,,,1.6887019474521969e+18,5.1001968017578125,3.256179916858673,49.80893821716309,-0.046360015869140625,1.6887019474521969e+18,5.1001968017578125,-251.28461303710938,145.27393493652343,-133.2581558227539,1.688701947451248e+18,5.099248193359375,0.18281212151050563,-0.31195143461227415,-0.5733808636665344,0.7345221400260925,-1.0316660046577453,1.2761967658996582,0.30830028057098385,1.688701947451249e+18,5.099249064127604,-2.1431714495023093,-8.334699789683023,5.05613390604655
52,5.2,1.6887019475464128e+18,5.194412801106771,-1.027818833788236,-0.013791402180989584,-0.018558939297993998,1.688701947555063e+18,5.20306298828125,-0.8084749449044466,-9.572387297948202,3.6631123622258506,1.6887019475464128e+18,5.194412801106771,0.1279544314990441,-9.100313345591227,3.6075183550516763,1.6887019475464128e+18,5.194412801106771,-1.0053314765294392,-3.40956978003184,-0.6085999657710394,1.6887019475464128e+18,5.194412801106771,-1.0063750445842743,-3.405141035715739,-0.6061819394429525,,,,,,,,,,,,1.688701947552195e+18,5.200195092773438,6.874699831008911,48.92809944152832,-4.675039887428284,1.688701947552195e+18,5.200195092773438,-247.6660949707031,144.39309844970703,-137.8868392944336,1.6887019475464128e+18,5.194412801106771,0.22040700664122895,-0.44840627412001294,-0.5375277797381083,0.6771247486273447,-1.5171369711558025,1.1882629593213399,0.5102290858825048,1.688701947555063e+18,5.20306298828125,-0.8144570086151361,-9.555039405822754,3.6003007888793945
53,5.300000000000001,1.6887019476502252e+18,5.298225138346354,7.438899517059326,-2.9062565167744956,0.7120244105656942,1.688701947650227e+18,5.298226953125,6.17743067741394,-11.223175621032714,4.940460968017578,1.6887019476502252e+18,5.298225138346354,-2.659399429957072,-8.416224002838135,4.150714159011841,1.6887019476502252e+18,5.298225138346354,0.2991712559014559,2.2380576034386954,-4.282648901144664,1.6887019476502252e+18,5.298225138346354,0.2981531545519829,2.2425627211729684,-4.2802309195200605,,,,,,,,,,,,1.6887019476521958e+18,5.300195751953125,20.50209951400757,44.7410587310791,-6.408659982681274,1.6887019476521958e+18,5.300195751953125,-234.0386962890625,140.2060546875,-139.620458984375,1.6887019476502252e+18,5.298225138346354,0.177369096626838,-0.5432706922292709,-0.5796288152535757,0.5735162297884623,-2.1174686352411904,1.036727249622345,1.0017835398515065,1.688701947650227e+18,5.298226953125,6.171448397636413,-11.205827903747558,4.877649307250977
54,5.4,1.6887019477540393e+18,5.402039306640625,0.7662516236305237,-4.399030844370524,-4.1205127239227295,1.6887019477453898e+18,5.393389933268229,-2.6174489160378775,-12.109776178995768,1.6799608593185742,1.6887019477540393e+18,5.402039306640625,-2.6514604489008584,-7.881575743357341,5.19561243057251,1.6887019477540393e+18,5.402039306640625,0.2117411606013775,2.0248656223217645,0.2752456851303578,1.6887019477540393e+18,5.402039306640625,0.2107739672064781,2.029370685418447,0.27761278798182804,,,,,,,,,,,,1.688701947752194e+18,5.400194165039062,26.969319534301757,39.10099906921387,-16.406559658050536,1.688701947752194e+18,5.400194165039062,-227.57147674560548,134.5659973144531,-149.61835632324218,1.6887019477540393e+18,5.402039306640625,-0.019581591089566516,-0.41612301270167035,-0.6785343786080679,0.6043592691421509,-2.038728495438894,0.9347082873185476,1.439187506834666,1.6887019477453898e+18,5.393389933268229,-2.623430907726288,-12.09242836634318,1.6171493058403332
55,5.5,1.6887019478578596e+18,5.505859700520833,0.1867072780927023,-4.369845072428386,-0.7765458424886069,1.688701947849208e+18,5.497208129882812,-0.49421760439872736,-13.26610771814982,2.964906687537829,1.6887019478578596e+18,5.505859700520833,-0.8290441036224365,-8.750542481740316,4.243172128995259,1.6887019478578596e+18,5.505859700520833,1.9218329787254333,-0.21853703632950783,2.833167552947998,1.6887019478578596e+18,5.505859700520833,1.9208912253379822,-0.21408281102776527,2.835585594177246,,,,,,,,,,,,1.6887019478521928e+18,5.500192846679687,18.40125961303711,44.39213905334473,-12.811219692230225,1.6887019478521928e+18,5.500192846679687,-236.13953552246093,139.85713958740234,-146.02301940917968,1.6887019478578596e+18,5.505859700520833,0.06175399230172233,-0.3787168661753337,-0.6298706730206808,0.6731855769952139,-1.7349242369333904,1.1083166897296906,1.0831565757592518,1.688701947849208e+18,5.497208129882812,-0.5001996060212455,-13.248760064442953,2.9020950396855674
56,5.6000000000000005,1.688701947953018e+18,5.60101796875,1.2215964674949646,-2.160381031036377,7.5423095703125,1.688701947953021e+18,5.601021118164063,1.6487545520067215,-11.331610520680746,9.552247762680054,1.688701947953018e+18,5.60101796875,1.072419023513794,-9.412707710266114,2.473571538925171,1.688701947953018e+18,5.60101796875,1.8914220333099365,1.5256359189748765,1.2264035940170288,1.688701947953018e+18,5.60101796875,1.8904141426086425,1.5301564007997512,1.228816533088684,,,,,,,,,,,,1.6887019479521964e+18,5.600196362304688,6.95643982887268,49.168439102172854,-3.273259973526001,1.6887019479521964e+18,5.600196362304688,-247.58435668945313,144.63343811035156,-136.48505859375,1.688701947953018e+18,5.60101796875,0.15886617898941033,-0.30271693468093874,-0.5926804184913635,0.7283564805984497,-1.1325767159461975,1.285967803001404,0.4601951241493225,1.688701947953021e+18,5.601021118164063,1.6427724411090214,-11.314262469609579,9.489436070124308
57,5.7,1.6887019480481833e+18,5.696183349609375,-5.50101653734843,5.497397502263387,2.8972624142964682,1.6887019480568384e+18,5.70483837890625,-3.5195429921150208,-3.7388850450515747,3.5931222836176553,1.6887019480481833e+18,5.696183349609375,2.0548898180325827,-9.52485990524292,1.067769040664037,1.6887019480481833e+18,5.696183349609375,1.098182996114095,0.01041013995806376,1.040481686592102,1.6887019480481833e+18,5.696183349609375,1.0972157915433247,0.014915311088164573,1.0428996880849202,,,,,,,,,,,,1.688701948052197e+18,5.700197119140625,1.717759944498539,49.46245803833008,4.285859954357147,1.688701948052197e+18,5.700197119140625,-252.82303009033203,144.92745971679688,-128.9259407043457,1.6887019480481833e+18,5.696183349609375,0.18258763849735257,-0.21388278653224302,-0.5899936258792877,0.7565520803133646,-0.4792495270570119,1.327521800994873,-0.09344930884738763,1.6887019480568384e+18,5.70483837890625,-3.5255250334739685,-3.7215371131896973,3.5303106705347695
58,5.800000000000001,1.6887019481519974e+18,5.799997436523437,-3.818178097407023,7.555477619171143,1.950670878092448,1.6887019481519974e+18,5.79999736328125,-0.9677771091461181,-1.6121642351150514,3.0644879817962645,1.6887019481519974e+18,5.799997436523437,2.647127151489258,-9.386528333028158,1.0352972050507863,1.6887019481519974e+18,5.799997436523437,-0.20115283007423082,-1.35069939494133,0.10478883236646654,1.6887019481519974e+18,5.799997436523437,-0.202094583461682,-1.3462451895078023,0.10720683634281158,,,,,,,,,,,,1.6887019481521946e+18,5.800194604492187,-3.1768799304962156,49.46123847961426,6.40987982749939,1.6887019481521946e+18,5.800194604492187,-257.71767272949216,144.92623901367188,-126.8019172668457,1.6887019481519974e+18,5.799997436523437,0.23001744349797562,-0.2361026008923848,-0.5547298789024353,0.7636833687623342,-0.36883798738320667,1.2735547423362732,-0.31082924952109653,1.6887019481519974e+18,5.79999736328125,-0.9737591862678527,-1.5948163270950317,3.0016763687133787
59,5.9,1.6887019482558124e+18,5.903812337239583,10.07859969139099,-6.349841833114624,-0.7686178088188171,1.6887019482471626e+18,5.895162434895833,12.140484451626739,-15.359229485193888,1.9720847010612488,1.6887019482558124e+18,5.903812337239583,2.786148269971212,-9.08689832687378,2.3832991123199463,1.6887019482558124e+18,5.903812337239583,-0.5855143225441376,-2.3498713225126266,0.9299150705337524,1.6887019482558124e+18,5.903812337239583,-0.5865324509019653,-2.345417102177938,0.932307630777359,,,,,,,,,,,,1.6887019482521969e+18,5.900196899414063,-7.128459835052491,49.37461929321289,1.9422399640083312,1.6887019482521969e+18,5.900196899414063,-261.66925659179685,144.83961486816406,-131.26955871582032,1.6887019482558124e+18,5.903812337239583,0.28045858442783356,-0.3430158694585164,-0.4875134329001109,0.7510179579257965,-0.7018939057985941,1.1852180361747742,-0.23114676028490064,1.6887019482471626e+18,5.895162434895833,12.1345021892339,-15.34188143412272,1.909273087978363
60,6.0,1.688701948350976e+18,5.998976025390625,-3.6837400913238527,-3.7821269989013677,7.036873483657837,1.6887019483509732e+18,5.9989731445312495,-0.41724844773610426,-11.694920778274536,8.456235229969025,1.688701948350976e+18,5.998976025390625,2.358252477645874,-9.17281723022461,2.54255690574646,1.688701948350976e+18,5.998976025390625,0.17623462602496145,1.5995506152510643,-1.3961935997009278,1.688701948350976e+18,5.998976025390625,0.17525724023580552,1.6040099620819093,-1.3937501430511474,1.6887019483426268e+18,5.990626708984375,0.0,0.0,0.987500011920929,13.008999824523926,0.44574174284935,268.771728515625,41.70000076293945,-122.7541229,49.1905642,1.6887019483521948e+18,6.000194824218751,-4.849499917030334,49.74061965942383,1.4652199804782868,1.6887019483521948e+18,6.000194824218751,-259.3902923583984,145.20561676025392,-131.74657745361327,1.688701948350976e+18,5.998976025390625,0.2762044042348861,-0.36144559979438784,-0.4975022614002228,0.738049852848053,-0.8199611186981202,1.207507348060608,-0.13300955817103383,1.6887019483509732e+18,5.9989731445312495,-0.42323046922683716,-11.67757256825765,8.393423736095428
61,6.1000000000000005,1.6887019484461315e+18,6.094131429036459,-4.100500504175822,5.0483278433481855,2.3873825669288635,1.688701948454785e+18,6.102785115559896,-2.728017210960388,-4.918347239494324,4.434797724088033,1.6887019484461315e+18,6.094131429036459,1.487175722916921,-9.499718825022379,1.9091543952624004,1.6887019484461315e+18,6.094131429036459,-0.26195937891801196,1.864869788909952,-1.3296245833237965,1.6887019484461315e+18,6.094131429036459,-0.2629520247379939,1.8693494312465193,-1.3272065818309784,,,,,,,,,,,,1.6887019484521905e+18,6.100190502929687,3.0646399676799776,49.47831916809082,2.964599978923798,1.6887019484521905e+18,6.100190502929687,-251.47615661621094,144.94331817626954,-130.24719696044923,1.6887019484461315e+18,6.094131429036459,0.19733675817648566,-0.2886309226353963,-0.5824924210707346,0.7330554326375326,-0.9054545362790426,1.3186327815055847,0.19767087077101067,1.688701948454785e+18,6.102785115559896,-2.7339992920557656,-4.900999287764232,4.371986071268718
62,6.2,1.6887019485499553e+18,6.197955322265625,-2.6712138454119363,2.14930526415507,0.8002068599065145,1.6887019485586076e+18,6.20660762532552,-1.740579088528951,-6.892027139663696,3.6455649534861245,1.6887019485499553e+18,6.197955322265625,0.701757808526357,-9.275074005126953,3.0816738605499268,1.6887019485499553e+18,6.197955322265625,-1.304731806119283,-2.451682229836782,0.1512400545179844,1.6887019485499553e+18,6.197955322265625,-1.3057245016098022,-2.4472280045350394,0.15363260855277378,,,,,,,,,,,,1.6887019485521956e+18,6.200195532226562,5.785239887237549,49.270918655395505,-2.3216599404811857,1.6887019485521956e+18,6.200195532226562,-248.75555419921875,144.7359191894531,-135.53345794677733,1.6887019485499553e+18,6.197955322265625,0.1690577814976374,-0.3574606329202652,-0.5774995684623718,0.7127424677213033,-1.3302042881647747,1.240868369738261,0.5550303359826406,1.6887019485586076e+18,6.20660762532552,-1.7465611298878987,-6.874679247538249,3.582753380139669
63,6.300000000000001,1.6887019486537697e+18,6.301769775390625,2.3034622073173523,-1.4689531326293945,-0.705447236696879,1.6887019486537715e+18,6.301771484375,1.1716456271708011,-10.526744651794434,3.5806198596954344,1.6887019486537697e+18,6.301769775390625,-0.8791979948679606,-8.808761278788248,4.152332703272502,1.6887019486537697e+18,6.301769775390625,-0.8440885146458944,-3.377397576967875,-1.3938163022200267,1.6887019486537697e+18,6.301769775390625,-0.8450811505317688,-3.3729179302851358,-1.3913983119030793,,,,,,,,,,,,1.6887019486521964e+18,6.300196435546875,9.10241985321045,48.56819877624512,-6.1573399066925045,1.6887019486521964e+18,6.300196435546875,-245.4383743286133,144.03319549560547,-139.3691390991211,1.6887019486537697e+18,6.301769775390625,0.21751259764035535,-0.5136387447516123,-0.527290960152944,0.6385039786497752,-1.7633345325787861,1.1160320043563843,0.642675002415975,1.6887019486537715e+18,6.301771484375,1.1656634962186216,-10.50939655303955,3.5178082466125487
64,6.4,1.6887019487575828e+18,6.405582845052083,5.823576291402181,-3.2923527558644614,-1.1796153386433919,1.688701948748935e+18,6.396934895833334,3.1190442641576133,-11.15204906463623,3.9160536924997964,1.6887019487575828e+18,6.405582845052083,-3.3930304050445557,-7.806299130121867,4.833480040232341,1.6887019487575828e+18,6.405582845052083,0.48398345336318016,4.798601011435191,-3.505730152130127,1.6887019487575828e+18,6.405582845052083,0.48301625065505505,4.803080643216769,-3.5033122102419534,,,,,,,,,,,,1.6887019487521953e+18,6.40019541015625,25.606579399108888,41.784999465942384,-10.33461971282959,1.6887019487521953e+18,6.40019541015625,-228.93421478271483,137.2499984741211,-143.54641723632812,1.6887019487575828e+18,6.405582845052083,0.0871652436132232,-0.5326235940059026,-0.6199060877164205,0.560603270928065,-2.182069500287374,0.9226879080136617,1.216491460800171,1.688701948748935e+18,6.396934895833334,3.113062302271525,-11.134701093037924,3.853242119153341
65,6.5,1.6887019488527496e+18,6.500749462890624,-0.062007474899291995,-5.835970497131347,-4.952516365051269,1.6887019488527493e+18,6.500749348958333,-1.5229318638642628,-13.365111033121744,0.7998009671767553,1.6887019488527496e+18,6.500749462890624,-2.310100865364075,-7.7350057601928714,5.551324844360352,1.6887019488527496e+18,6.500749462890624,0.6323371648788452,-0.10088440179824829,1.5313781172037124,1.6887019488527496e+18,6.500749462890624,0.6313292145729065,-0.09636399745941167,1.5337298810482025,1.6887019488617078e+18,6.509707763671875,0.0,0.0,0.9888490438461304,12.984000205993652,0.1904105991125106,271.8530578613281,41.70000076293945,-122.7541458,49.1905922,1.6887019488521969e+18,6.50019697265625,24.895319557189943,39.87935943603516,-17.9205792427063,1.6887019488521969e+18,6.50019697265625,-229.64547424316407,135.34435424804687,-151.13237762451172,1.6887019488527496e+18,6.500749462890624,-0.0239951683208346,-0.43176100254058836,-0.6558803915977478,0.6178518414497376,-1.959878969192505,0.9108086466789246,1.3404608488082885,1.6887019488527493e+18,6.500749348958333,-1.5289140045642853,-13.347763061523438,0.7369893689950308
66,6.6000000000000005,1.6887019489479104e+18,6.595910278320313,-0.23911652962366747,-6.409810860951741,2.058067282040914,1.6887019489565601e+18,6.604559895833333,-1.240977664788564,-15.457733949025473,6.6474606196085615,1.6887019489479104e+18,6.595910278320313,-0.47530409693717957,-8.97189458211263,3.7852299213409424,1.6887019489479104e+18,6.595910278320313,2.4994569619496665,-0.8199084078272184,2.9283098379770913,1.6887019489479104e+18,6.595910278320313,2.498464306195577,-0.8154287412762642,2.930676897366842,,,,,,,,,,,,1.6887019489521946e+18,6.600194750976563,13.297999620437622,46.872399139404294,-7.826299810409546,1.6887019489521946e+18,6.600194750976563,-241.2427963256836,142.3373992919922,-141.03809509277343,1.6887019489479104e+18,6.595910278320313,0.11925255879759784,-0.39073804020881653,-0.6079600552717844,0.6780362029870352,-1.6539189616839092,1.1629779140154521,0.8991340100765228,1.6887019489565601e+18,6.604559895833333,-1.2469596862792969,-15.440386136372885,6.584649085998535
67,6.7,1.6887019490517245e+18,6.699724527994792,-1.4410578111807506,1.6616148153940837,7.392882029215495,1.6887019490517266e+18,6.6997265624999995,0.4733003258705139,-7.524350261688232,9.537073040008545,1.6887019490517245e+18,6.699724527994792,1.6990204552809398,-9.442718187967936,1.9163188338279724,1.6887019490517245e+18,6.699724527994792,1.4735087752342224,0.8560003737608591,1.801288902759552,1.6887019490517245e+18,6.699724527994792,1.472516119480133,0.860429123044014,1.8036305109659831,,,,,,,,,,,,1.688701949052198e+18,6.700197973632813,1.2187800161540507,49.591778945922854,2.33019996881485,1.688701949052198e+18,6.700197973632813,-253.32201538085937,145.05677642822266,-130.88159942626953,1.6887019490517245e+18,6.699724527994792,0.23721056183179215,-0.316089595357577,-0.5582053065299988,0.7285664776961008,-0.8454931974411011,1.295604666074117,0.03332856670022013,1.6887019490517266e+18,6.6997265624999995,0.4673182606697083,-7.507002639770508,9.47426176071167
68,6.800000000000001,1.6887019491555356e+18,6.803535725911458,-7.354797601699829,8.449137051900228,1.9549956917762756,1.6887019491468905e+18,6.794890625,-4.006980895996094,-0.7417750308911005,3.3128629525502524,1.6887019491555356e+18,6.803535725911458,3.281751275062561,-9.184973080952963,0.9847111205259959,1.6887019491555356e+18,6.803535725911458,0.3528255919615428,-0.2669226688643297,1.2710323929786682,1.6887019491555356e+18,6.803535725911458,0.35185836255550385,-0.26246842866142583,1.273424968123436,,,,,,,,,,,,1.688701949152195e+18,6.800195190429688,-6.895439887046814,48.76095886230469,8.00807991027832,1.688701949152195e+18,6.800195190429688,-261.4362335205078,144.2259552001953,-125.20371780395507,1.6887019491555356e+18,6.803535725911458,0.2722191363573074,-0.2481574987371762,-0.5196887850761414,0.7705609500408173,-0.29152642935514445,1.2119938731193542,-0.4752476066350937,1.6887019491468905e+18,6.794890625,-4.012962977091472,-0.7244270344575247,3.2500513394673667
69,6.9,1.6887019492507034e+18,6.898703466796874,4.275243425369263,3.032348155975342,-0.02571864128112795,1.6887019492507034e+18,6.898703491210938,6.607380828509728,-7.336693187554677,1.8600207964579265,1.6887019492507034e+18,6.898703466796874,3.028624153137207,-9.133769989013672,1.8134009838104248,1.6887019492507034e+18,6.898703466796874,-0.7373754382133484,-2.8093692541122435,-0.786580640077591,1.6887019492507034e+18,6.898703466796874,-0.7382917284965516,-2.8048794269561768,-0.7841982662677764,,,,,,,,,,,,1.6887019492521969e+18,6.900196850585937,-9.325679826736451,48.730459213256836,5.681539869308471,1.6887019492521969e+18,6.900196850585937,-263.86647338867186,144.1954574584961,-127.53025588989257,1.6887019492507034e+18,6.898703466796874,0.29958111047744745,-0.31934828162193296,-0.49125576615333555,0.7516615629196167,-0.5429522156715393,1.196502184867859,-0.3809908777475357,1.6887019492507034e+18,6.898703491210938,6.6013988591730595,-7.319345414638519,1.7972092231114705
70,7.0,1.6887019493458655e+18,6.993865315755208,6.40703668196996,-6.719776074091594,1.6725305716196697,1.6887019493545165e+18,7.0025164388020835,8.206384718418121,-14.930216312408447,6.109673817952474,1.6887019493458655e+18,6.993865315755208,3.001677950223287,-8.873294989267984,2.9042656421661377,1.6887019493458655e+18,6.993865315755208,0.1569669172167778,-1.3560190473993619,0.627155011985451,1.6887019493458655e+18,6.993865315755208,0.15602517127990725,-1.3515647873282433,0.6295984496052066,1.6887019493807836e+18,7.02878369140625,0.0,0.0,0.999229371547699,12.81700038909912,0.1502257734537124,275.1965026855469,41.70000076293945,-122.7541589,49.1906066,1.6887019493521992e+18,7.000199169921875,-13.659119796752929,48.3095588684082,0.75517997443676,1.6887019493521992e+18,7.000199169921875,-268.1999176025391,143.7745559692383,-132.4566177368164,1.6887019493458655e+18,6.993865315755208,0.36942807336648303,-0.41809414823849994,-0.4136337886253993,0.7189948260784149,-0.7664374311765035,1.1297955910364788,-0.4487283080816269,1.6887019493545165e+18,7.0025164388020835,8.200402572751045,-14.91286826133728,6.0468623240788775
71,7.1000000000000005,1.6887019494496817e+18,7.097681640625001,-3.9117931524912515,1.723350127538045,5.968122561772664,1.688701949458333e+18,7.106333089192709,-3.176870902379354,-6.114160339037578,7.0462643305460615,1.6887019494496817e+18,7.097681640625001,2.500462849934896,-9.263974825541178,2.0028923551241555,1.6887019494496817e+18,7.097681640625001,0.3575852441911896,4.183714310328166,-1.1716650029023488,1.6887019494496817e+18,7.097681640625001,0.3566180436561504,4.188193917274475,-1.1692724525928497,,,,,,,,,,,,1.6887019494521958e+18,7.100195898437501,-6.916179752349853,49.247738647460935,4.795819926261902,1.6887019494521958e+18,7.100195898437501,-261.45697326660155,144.71273956298828,-128.4159797668457,1.6887019494496817e+18,7.097681640625001,0.31591264903545374,-0.3538844088713328,-0.49424194792906445,0.7256982823212942,-0.6638192534446716,1.2374864021937053,-0.3407432784636815,1.688701949458333e+18,7.106333089192709,-3.1828529040018716,-6.096812427043915,6.983452955881755
72,7.2,1.68870194955349e+18,7.201489868164063,-5.014962832132976,1.8104419708251953,3.3296815951665244,1.6887019495534986e+18,7.201498583984375,-3.379503059387207,-8.156773376464844,5.94078049659729,1.68870194955349e+18,7.201489868164063,1.6365331013997395,-9.394237041473389,2.2187002897262573,1.68870194955349e+18,7.201489868164063,-1.383711576461792,-0.5045238186915716,-1.0458776553471882,1.68870194955349e+18,7.201489868164063,-1.3846788207689922,-0.5000949998696645,-1.0435105711221695,,,,,,,,,,,,1.6887019495521953e+18,7.2001953125,0.20252000391483307,49.72353897094727,3.0524398759007454,1.6887019495521953e+18,7.2001953125,-254.33827514648436,145.18853759765625,-130.15935897827148,1.68870194955349e+18,7.201489868164063,0.22212866445382431,-0.323469340801239,-0.5577563345432281,0.7305909593900045,-0.920227567354838,1.2804655035336812,0.11901344421009223,1.6887019495534986e+18,7.201498583984375,-3.385485076904297,-8.139425468444824,5.877968788146973
73,7.300000000000001,1.688701949657308e+18,7.305307779947917,-1.8385136326154072,0.6549928188323975,-0.83576500415802,1.6887019496486577e+18,7.29665771484375,-1.6055839856465657,-7.919445196787517,3.0381868282953897,1.688701949657308e+18,7.305307779947917,0.24552829811970392,-9.01964553197225,3.796708106994629,1.688701949657308e+18,7.305307779947917,-1.3590224881966908,-2.742097775141398,-0.5991060882806778,1.688701949657308e+18,7.305307779947917,-1.3600914577643077,-2.737618009249369,-0.5966626380880674,,,,,,,,,,,,1.6887019496521969e+18,7.300197045898438,4.106519889831543,49.47831916809082,-3.5148199021816255,1.6887019496521969e+18,7.300197045898438,-250.43427581787108,144.9433166503906,-136.72661895751952,1.688701949657308e+18,7.305307779947917,0.22472548981507615,-0.4583786576986313,-0.5245457490285238,0.6796691914399465,-1.4918002684911091,1.1697064240773518,0.4594806283712387,1.6887019496486577e+18,7.29665771484375,-1.6115660270055134,-7.902097463607788,2.975375254948934
74,7.4,1.688701949752472e+18,7.40047197265625,6.798130762577057,-3.0069868087768556,-1.4366479873657227,1.6887019497524718e+18,7.400472045898437,3.568296800057093,-11.217452685038248,3.1191440423329673,1.688701949752472e+18,7.40047197265625,-2.0904751062393188,-8.422413063049316,4.478887271881104,1.688701949752472e+18,7.40047197265625,-0.6255565553903579,-1.9923369884490967,-3.3033148765563967,1.688701949752472e+18,7.40047197265625,-0.6265950232744217,-1.987816572189331,-3.3009325504302978,,,,,,,,,,,,1.6887019497521953e+18,7.4001953125,12.933219385147094,47.39211921691894,-7.484699821472168,1.6887019497521953e+18,7.4001953125,-241.60757446289062,142.85711822509765,-140.69649810791014,1.688701949752472e+18,7.40047197265625,0.22339072227478024,-0.5860893607139588,-0.5112783193588257,0.5853582501411438,-1.9925962209701538,1.0353829622268678,0.7206408381462097,1.6887019497524718e+18,7.400472045898437,3.5623148679733276,-11.20010503133138,3.0563324292500815
75,7.5,1.688701949847639e+18,7.495638956705729,2.6655421257019043,-4.12229339281718,-2.6607338587443032,1.6887019498562895e+18,7.5042893473307295,-1.3063814441363018,-11.691929817199707,2.907977414006988,1.688701949847639e+18,7.495638956705729,-3.6117674907048545,-7.12541135152181,5.637030919392903,1.688701949847639e+18,7.495638956705729,0.6042220803598563,5.207906360427539,-2.9393563074991107,1.688701949847639e+18,7.495638956705729,0.6032803369065126,5.212334891160329,-2.9369383361190557,1.6887019498998536e+18,7.547853515625,0.0,0.0,0.999229371547699,12.685999870300291,0.1166995242238044,280.6675109863281,41.70000076293945,-122.7541757,49.1906229,1.6887019498521976e+18,7.500197753906249,29.27145938873291,38.15183944702149,-15.884399700164796,1.6887019498521976e+18,7.500197753906249,-225.2693344116211,133.61683807373046,-149.0961944580078,1.688701949847639e+18,7.495638956705729,0.010126262127111348,-0.5261768102645874,-0.6349318325519562,0.5570041239261627,-2.142935315767924,0.8145811955134074,1.2978464762369792,1.6887019498562895e+18,7.5042893473307295,-1.3123634854952495,-11.67458168665568,2.8451658487319946
76,7.6000000000000005,1.6887019499514504e+18,7.599450398763021,0.9447779059410096,-6.546107769012451,-3.8497528235117593,1.6887019499514537e+18,7.599453662109374,-0.47772703170776376,-14.594782447814941,1.5617953300476075,1.6887019499514504e+18,7.599450398763021,-1.7841238379478455,-7.872685829798381,5.485371192296346,1.6887019499514504e+18,7.599450398763021,1.9345083981752396,-0.7221445242563883,3.026150027910868,1.6887019499514504e+18,7.599450398763021,1.9335666845242183,-0.717690313855807,3.028542637825012,,,,,,,,,,,,1.688701949952198e+18,7.600197827148437,21.44027967453003,41.711799240112306,-17.611919593811034,1.688701949952198e+18,7.600197827148437,-233.10051422119142,137.17679595947266,-150.82371673583984,1.6887019499514504e+18,7.599450398763021,0.011648096299419814,-0.4490441729625066,-0.6231647233168284,0.6375159323215485,-1.8750982483228047,0.9383679330348969,1.1751116414864857,1.6887019499514537e+18,7.599453662109374,-0.4837090492248535,-14.577434539794922,1.4989837646484374
77,7.7,1.6887019500552614e+18,7.703261637369792,0.004686810076236718,-5.5723263422648115,6.09686021010081,1.6887019500466168e+18,7.694617024739583,0.2517448961734772,-15.03679625193278,8.724729855855307,1.6887019500552614e+18,7.703261637369792,0.3800954570372899,-9.239986737569174,3.1604962746302285,1.6887019500552614e+18,7.703261637369792,2.146351416905721,-0.34923676153024036,2.418364644050598,1.6887019500552614e+18,7.703261637369792,2.145358761151632,-0.344757088770469,2.4208080768585205,,,,,,,,,,,,1.688701950052196e+18,7.700196264648437,7.607919788360595,48.87807922363281,-3.9515799462795256,1.688701950052196e+18,7.700196264648437,-246.93287353515626,144.34307861328125,-137.1633773803711,1.6887019500552614e+18,7.703261637369792,0.20042768865823743,-0.39689333240191144,-0.5671922961870829,0.6915776133537292,-1.415624459584554,1.2321175734202068,0.5296178857485453,1.6887019500466168e+18,7.694617024739583,0.24576282501220695,-15.019448598225912,8.66191824277242
78,7.800000000000001,1.6887019501504297e+18,7.7984295898437495,-3.6543802499771116,6.201221466064453,4.671353721618653,1.6887019501504335e+18,7.798433430989583,-2.0252252419789634,-3.7664025028546653,6.5101726452509565,1.6887019501504297e+18,7.7984295898437495,1.7700488328933717,-9.508663749694824,1.5916247844696045,1.6887019501504297e+18,7.7984295898437495,1.3960408687591552,0.8038070380687714,1.0294606685638428,1.6887019501504297e+18,7.7984295898437495,1.3950635194778442,0.8082969009876251,1.0318430185317993,,,,,,,,,,,,1.6887019501521974e+18,7.800197412109375,0.4660400031134486,49.79185943603515,4.821439909934997,1.6887019501521974e+18,7.800197412109375,-254.0747528076172,145.2568572998047,-128.39035873413087,1.6887019501504297e+18,7.7984295898437495,0.25715789496898644,-0.3100426435470581,-0.5597353458404541,0.7238972783088684,-0.7262026071548462,1.323168110847473,-0.1059473542496562,1.6887019501504335e+18,7.798433430989583,-2.0312073131402335,-3.749054570992788,6.447360992431641
79,7.9,1.6887019502455928e+18,7.8935927734375,-5.57704512278239,7.893294970194499,1.4088122049967449,1.6887019502542438e+18,7.902243774414063,-2.6675983915726342,-1.6267205874125164,2.644766926765442,1.6887019502455928e+18,7.8935927734375,2.6239396731058755,-9.370407263437906,1.2203262249628704,1.6887019502455928e+18,7.8935927734375,0.06085745617747307,-1.2669090777635574,0.6455827504396439,1.6887019502455928e+18,7.8935927734375,0.05986479918162028,-1.262429376443227,0.6480007618665695,,,,,,,,,,,,1.688701950252195e+18,7.900194970703124,-5.932859897613525,49.02569847106933,8.375299787521362,1.688701950252195e+18,7.900194970703124,-260.47365112304686,144.4906982421875,-124.83649673461915,1.6887019502455928e+18,7.8935927734375,0.30495668450991303,-0.301067183415095,-0.5242883165677389,0.7353728115558624,-0.43018583456675213,1.2708497047424316,-0.4666959245999654,1.6887019502542438e+18,7.902243774414063,-2.6735805744926133,-1.6093726356824238,2.581955353418986
80,8.0,1.6887019503494083e+18,7.9974082031250004,9.48738145828247,-5.016326427459717,1.30693914492925,1.6887019503580577e+18,8.006057657877603,12.48505049943924,-15.038292050361633,4.009174267450969,1.6887019503494083e+18,7.9974082031250004,2.1778645316759744,-9.190403461456299,2.56447301308314,1.6887019503494083e+18,7.9974082031250004,-0.8532260258992513,-4.245360811551412,1.0149780462185543,1.6887019503494083e+18,7.9974082031250004,-0.8542187114556631,-4.2409065167109175,1.0173706610997517,,,,,,,,,,,,1.6887019503521966e+18,8.000196557617187,-7.677459859848023,49.20259895324707,3.415999895334244,1.6887019503521966e+18,8.000196557617187,-262.2182556152344,144.66759796142577,-129.79579849243163,1.6887019503494083e+18,7.9974082031250004,0.35456425944964093,-0.417979637781779,-0.4568842500448227,0.6954851647218069,-0.8491091628869375,1.2187211712201436,-0.3328371668855349,1.6887019503580577e+18,8.006057657877603,12.479068557421366,-15.020944197972616,3.9463628133138022
81,8.1,1.6887019504532196e+18,8.101219767252603,-2.5135828256607056,-2.4699780146280923,5.732542832692464,1.6887019504532242e+18,8.10122421875,-0.7439285397529602,-12.204950714111328,9.626923656463623,1.6887019504532196e+18,8.101219767252603,2.1937785148620605,-9.047916412353516,3.0780537525812783,1.6887019504532196e+18,8.101219767252603,0.25213462207466364,2.344246218601863,-0.9076948563257853,1.6887019504532196e+18,8.101219767252603,0.2511165207251906,2.3487259298563004,-0.9053023010492325,1.68870195041893e+18,8.066929931640624,0.0,0.0,1.009628415107727,12.753999710083008,0.1101142615079879,282.87603759765625,41.70000076293945,-122.7541833,49.1906286,1.6887019504521966e+18,8.100196508789063,-11.359419870376588,48.84391899108887,0.08174000531435013,1.6887019504521966e+18,8.100196508789063,-265.90021057128905,144.3089157104492,-133.13005676269532,1.6887019504532196e+18,8.101219767252603,0.3967326879501342,-0.4700835148493449,-0.4068974703550339,0.673693964878718,-0.9444212317466736,1.1768956979115803,-0.4078947951396306,1.6887019504532242e+18,8.10122421875,-0.749910643696785,-12.18760280609131,9.564112186431885
82,8.200000000000001,1.6887019505570353e+18,8.20503535970052,-3.5385486284891763,5.867357015609741,0.7436317801475525,1.6887019505483876e+18,8.196387451171875,-2.0053847432136536,-3.2615169684092202,3.3409785628318787,1.6887019505570353e+18,8.20503535970052,1.5211363633473713,-9.354440371195475,2.5081390142440796,1.6887019505570353e+18,8.20503535970052,-0.3440189342945814,1.7194838921229045,-1.5175674359003704,1.6887019505570353e+18,8.20503535970052,-0.3450370530287425,1.72393806775411,-1.515123963356018,,,,,,,,,,,,1.6887019505521953e+18,8.200195263671876,-3.0426799088716505,49.6576587677002,3.453819918632507,1.6887019505521953e+18,8.200195263671876,-257.5834732055664,145.1226577758789,-129.7579788208008,1.6887019505570353e+18,8.20503535970052,0.30743332207202906,-0.4057367940743764,-0.5080570677916209,0.6940614382425944,-1.0275624295075734,1.2695081035296123,-0.0433953114164372,1.6887019505483876e+18,8.196387451171875,-2.011366864045461,-3.2441689372062683,3.2781670689582825
83,8.3,1.6887019506522e+18,8.30019990234375,-3.361414337158203,0.8985470771789551,0.9177329063415527,1.6887019506521981e+18,8.300198364257811,-2.4717857837677006,-8.20439068476359,4.239284118016561,1.6887019506522e+18,8.30019990234375,0.8146299123764038,-9.208902549743652,3.270189809799194,1.6887019506522e+18,8.30019990234375,-1.0853242993354797,-0.66062021702528,-0.135153940320015,1.6887019506522e+18,8.30019990234375,-1.0863322019577026,-0.6561609014868737,-0.13277155607938768,,,,,,,,,,,,1.688701950652195e+18,8.300195092773437,2.0666799902915955,49.99559898376465,-0.6917399883270263,1.688701950652195e+18,8.300195092773437,-252.47411499023437,145.4605972290039,-133.9035385131836,1.6887019506522e+18,8.30019990234375,0.2490810841321945,-0.42758541107177733,-0.5255986332893372,0.6917785167694092,-1.3263018608093262,1.223951268196106,0.3116221189498901,1.6887019506521981e+18,8.300198364257811,-2.4777677853902182,-8.187042554219564,4.176472544670105
84,8.4,1.688701950747364e+18,8.395363932291666,-0.7609504411617914,-1.0046924750010173,-1.448455532391866,1.688701950756013e+18,8.404013020833334,-1.0108678688605626,-10.236196358998617,2.7563323179880777,1.688701950747364e+18,8.395363932291666,-0.31349028926342726,-8.835235118865967,4.192947904268901,1.688701950747364e+18,8.395363932291666,-0.8881216843922933,-2.8690304358800254,-0.9943613610230386,1.688701950747364e+18,8.395363932291666,-0.8891398211320242,-2.8645252784093223,-0.9919688009346525,,,,,,,,,,,,1.688701950752196e+18,8.400196044921875,4.694559907913208,49.51247863769531,-5.304559898376465,1.688701950752196e+18,8.400196044921875,-249.8462356567383,144.97747802734375,-138.516357421875,1.688701950747364e+18,8.395363932291666,0.2611520042022069,-0.5281954308350881,-0.4854433486859004,0.6439144213994344,-1.6388079325358074,1.1251782178878784,0.41852155327796936,1.688701950756013e+18,8.404013020833334,-1.016849935054779,-10.21884830792745,2.693520704905192
85,8.5,1.6887019508511762e+18,8.49917626953125,9.329837163289389,-4.248487710952759,0.7802678346633911,1.688701950851178e+18,8.49917802734375,7.616115063428879,-11.94844036102295,5.477529907226563,1.6887019508511762e+18,8.49917626953125,-3.3257102370262146,-7.8899452686309814,4.663029273351033,1.6887019508511762e+18,8.49917626953125,0.1760055348277092,2.8129325906435647,-4.6196175416310625,1.6887019508511762e+18,8.49917626953125,0.17506379137436548,2.817412336667379,-4.617250402768453,,,,,,,,,,,,1.688701950852194e+18,8.500194140625,19.809139728546143,44.766679000854495,-7.973919820785523,1.688701950852194e+18,8.500194140625,-234.73165588378907,140.23167724609374,-141.18571929931642,1.6887019508511762e+18,8.49917626953125,0.19106948375701902,-0.6233241359392802,-0.5272908508777618,0.53558016816775,-2.183983544508616,0.942113975683848,0.8787542184193929,1.688701950851178e+18,8.49917802734375,7.610133039951324,-11.931092262268066,5.414718246459961
86,8.6,1.6887019509549934e+18,8.602993286132813,0.2579973538716634,-5.039410750071208,-5.712560653686523,1.6887019509463432e+18,8.594343139648437,-3.329911768436432,-12.172787348429361,0.8782655696074168,1.6887019509549934e+18,8.602993286132813,-2.4442034165064492,-7.459341843922933,5.86552635828654,1.6887019509549934e+18,8.602993286132813,0.7054475490003824,1.3952672034502032,1.229391763607661,1.6887019509549934e+18,8.602993286132813,0.7044803503279885,1.3997467160224915,1.2317843635876973,1.6887019509380035e+18,8.58600341796875,0.0,0.0,1.009628415107727,12.880000114440918,0.1020518019795417,285.51092529296875,41.70000076293945,-122.7541961,49.1906364,1.6887019509521964e+18,8.600196362304688,25.0929594039917,39.65609893798828,-18.417119407653807,1.6887019509521964e+18,8.600196362304688,-229.44783477783204,135.12109832763673,-151.62891845703126,1.6887019509549934e+18,8.602993286132813,0.00099795920929565,-0.48822470506032306,-0.6215316355228424,0.6116520961125692,-1.9656923015912373,0.8656309048334757,1.21050359805425,1.6887019509463432e+18,8.594343139648437,-3.3358938694000244,-12.155439217885336,0.8154540210962296
87,8.700000000000001,1.6887019510501537e+18,8.698153662109375,-0.31780898571014415,-4.753335571289062,-0.7645610332489013,1.6887019510501583e+18,8.698158528645834,-0.5862415571076175,-14.051352500915527,3.8858442505200705,1.6887019510501537e+18,8.698153662109375,-0.7268809877336025,-8.67227668762207,4.4307286739349365,1.6887019510501537e+18,8.698153662109375,2.7279104232788085,-0.7142236307263374,2.9043588161468508,1.6887019510501537e+18,8.698153662109375,2.726933002471924,-0.7097643330693245,2.9068023204803466,,,,,,,,,,,,1.688701951052197e+18,8.700197119140626,14.16907958984375,46.3319393157959,-10.955599975585937,1.688701951052197e+18,8.700197119140626,-240.37171783447266,141.79693756103515,-144.16739959716796,1.6887019510501537e+18,8.698153662109375,0.12864178121089934,-0.44971529841423036,-0.5780201435089112,0.6666011929512023,-1.715886378288269,1.0912835240364074,0.8461974263191223,1.6887019510501583e+18,8.698158528645834,-0.5922235413454472,-14.0340043703715,3.823032716910044
88,8.8,1.6887019511453194e+18,8.793319376627604,-0.08101215958595283,-1.6924079259236653,7.232841412226359,1.6887019511539732e+18,8.801973307291666,0.8571290075778961,-10.075677593549093,9.606185913085938,1.6887019511453194e+18,8.793319376627604,0.9060737639665604,-9.410132726033527,2.544455329577128,1.6887019511453194e+18,8.793319376627604,1.7312684853871663,0.39423715074857074,1.3885475993156433,1.6887019511453194e+18,8.793319376627604,1.7302503387133281,0.39871681729952496,1.3909401694933574,,,,,,,,,,,,1.6887019511521953e+18,8.800195336914062,3.092699921131134,49.86017951965332,1.4945000186562538,1.6887019511521953e+18,8.800195336914062,-251.4480941772461,145.32517700195314,-131.71729583740233,1.6887019511453194e+18,8.793319376627604,0.25198742498954135,-0.38634901245435077,-0.5512639284133911,0.694460948308309,-1.2055615087350209,1.2871543566385906,0.2584561826661229,1.6887019511539732e+18,8.801973307291666,0.8511469587683678,-10.058329621950785,9.543374300003052
89,8.9,1.6887019512491305e+18,8.897130411783854,-5.391745090484619,7.326396067937215,1.8586257298787434,1.688701951257785e+18,8.905785115559896,-3.5457643469174704,-2.0708883007367453,3.074378331502279,1.6887019512491305e+18,8.897130411783854,1.9886891047159831,-9.493738174438477,1.4431949059168498,1.6887019512491305e+18,8.897130411783854,0.6988807494441668,-0.2619339233885209,0.9312131702899933,1.6887019512491305e+18,8.897130411783854,0.697913554807504,-0.2574287857860326,0.9335802594820658,,,,,,,,,,,,1.6887019512521956e+18,8.900195629882813,-2.3814399421215056,49.51613922119141,7.550579929351807,1.6887019512521956e+18,8.900195629882813,-256.9222381591797,144.98113555908202,-125.66121826171874,1.6887019512491305e+18,8.897130411783854,0.2976714372634887,-0.3261253784100215,-0.5411107540130615,0.7155234316984812,-0.6259525318940481,1.318867266178131,-0.2955881208181381,1.688701951257785e+18,8.905785115559896,-3.551746388276418,-2.053540309270223,3.011566678682963
90,9.0,1.6887019513529505e+18,9.00095048014323,-0.5571790933609009,5.084545850753784,1.2047309676806133,1.6887019513529495e+18,9.000949609375,-0.2525624454021454,-3.3219557285308836,3.16869535446167,1.6887019513529505e+18,9.00095048014323,2.0329887866973877,-9.399745305379232,1.8829320867856343,1.6887019513529505e+18,9.00095048014323,-0.7612653647859892,-2.1843013564745584,-0.1650099717080593,1.6887019513529505e+18,9.00095048014323,-0.7622580180565516,-2.179847220579783,-0.1626174170523882,,,,,,,,,,,,1.6887019513521966e+18,9.00019677734375,-5.441199779510498,49.31849899291992,7.001579761505127,1.6887019513521966e+18,9.00019677734375,-259.98199768066405,144.78349914550782,-126.2102165222168,1.6887019513529505e+18,9.00095048014323,0.33397923906644184,-0.37557896971702576,-0.5047485927740732,0.7009361783663431,-0.7369550267855326,1.2839487393697102,-0.3269554128249486,1.6887019513529495e+18,9.000949609375,-0.2585444897413254,-3.304607653617859,3.1058837890625
91,9.1,1.6887019514567631e+18,9.104763061523437,9.771439462900162,-6.728730996449788,-0.01636028289794922,1.6887019514481114e+18,9.096111572265626,12.917453368504843,-16.209678490956623,2.856531778971354,1.6887019514567631e+18,9.104763061523437,1.9440560738245647,-9.095247745513916,3.1126972834269204,1.6887019514567631e+18,9.104763061523437,-0.1305978981157144,-1.9559650520483653,0.6188574135303497,1.6887019514567631e+18,9.104763061523437,-0.1315905476609866,-1.9514599194129307,0.6212499340375266,1.6887019514570785e+18,9.10507861328125,0.0,0.0,1.0200637578964231,13.003000259399414,0.1007278934121131,286.1741027832031,41.70000076293945,-122.7542029,49.1906396,1.6887019514521943e+18,9.10019453125,-9.641659784317017,49.05741882324219,1.1882799789309502,1.6887019514521943e+18,9.10019453125,-264.1824584960938,144.5224182128906,-132.02351989746094,1.6887019514567631e+18,9.104763061523437,0.39580139021078736,-0.480545108517011,-0.41192107896010083,0.6646098097165426,-1.0083818236986797,1.1913143992424011,-0.3581572324037552,1.6887019514481114e+18,9.096111572265626,12.911471525828043,-16.192330201466877,2.7937202056248984
92,9.200000000000001,1.6887019515519258e+18,9.199925732421876,-3.4179527282714846,0.10520563125610352,5.462363624572754,1.688701951551926e+18,9.199925862630208,-1.7019948065280914,-8.65424132347107,7.732306559880574,1.6887019515519258e+18,9.199925732421876,1.6093541383743286,-9.269081306457519,2.7685917377471925,1.6887019515519258e+18,9.199925732421876,0.4783074915409088,3.2614400148391725,-1.006095051765442,1.6887019515519258e+18,9.199925732421876,0.4773301064968109,3.2659298896789553,-1.0037127017974854,,,,,,,,,,,,1.6887019515521943e+18,9.200194409179687,-6.700239825248718,49.58079948425293,2.3082399547100065,1.6887019515521943e+18,9.200194409179687,-261.24103393554685,145.0457962036133,-130.90355682373047,1.6887019515519258e+18,9.199925732421876,0.3708069086074829,-0.46006288528442385,-0.4534490704536438,0.6656109690666199,-1.0373543739318847,1.243800449371338,-0.2401465237140655,1.688701951551926e+18,9.199925862630208,-1.7079768528540928,-8.636893133322397,7.669495026270549
93,9.3,1.688701951647089e+18,9.295089029947915,-3.00847061475118,2.572864611943563,2.4685502847035727,1.6887019516557414e+18,9.303741414388021,-1.9068802793820698,-7.355836133162181,5.33469835917155,1.688701951647089e+18,9.295089029947915,1.0436006685098012,-9.381783962249756,2.6354647080103555,1.688701951647089e+18,9.295089029947915,-0.787608922769626,0.6551784214874109,-1.0396162966887157,1.688701951647089e+18,9.295089029947915,-0.7886524970332781,0.6596581091483433,-1.0371982951958973,,,,,,,,,,,,1.6887019516521956e+18,9.300195629882811,-0.2720600128173828,49.794298553466795,3.368419900536537,1.6887019516521956e+18,9.300195629882811,-254.81285705566407,145.2592971801758,-129.84337768554687,1.688701951647089e+18,9.295089029947915,0.30205802122751874,-0.42419155438741046,-0.5181678036848704,0.6780464847882589,-1.1883255044619243,1.2824377218882244,0.09706276158491768,1.6887019516557414e+18,9.303741414388021,-1.9128623008728027,-7.338488062222798,5.271886825561523
94,9.4,1.6887019517509025e+18,9.398902587890626,-1.8991365631421406,2.3012030919392905,-0.8727516730626425,1.6887019517509059e+18,9.39890576171875,-1.737189245223999,-6.46636381149292,2.7555745124816893,1.6887019517509025e+18,9.398902587890626,0.16427675262093544,-9.067250887552897,3.7114614248275757,1.6887019517509025e+18,9.398902587890626,-1.1490375300248463,-1.6731089701255162,-0.32307136058807373,1.6887019517509025e+18,9.398902587890626,-1.15005561709404,-1.6686547895272572,-0.32070424904425937,,,,,,,,,,,,1.6887019517521953e+18,9.400195239257812,3.6721998929977415,49.80039939880371,-2.3460599072277546,1.6887019517521953e+18,9.400195239257812,-250.86859588623048,145.26539764404296,-135.55785675048827,1.6887019517509025e+18,9.398902587890626,0.2652311424414317,-0.48560094833374023,-0.5064372420310974,0.6604713499546051,-1.5273998578389485,1.187565803527832,0.38371115426222485,1.6887019517509059e+18,9.39890576171875,-1.743171262741089,-6.449015998840332,2.6927628993988035
95,9.5,1.6887019518547182e+18,9.502718505859375,1.01360222697258,-2.5685653686523438,-1.9850539366404216,1.6887019518460654e+18,9.494065388997397,-0.735294446349144,-10.731211185455322,2.57856551806132,1.6887019518547182e+18,9.502718505859375,-1.6679031749566395,-8.519618034362793,4.496246099472046,1.6887019518547182e+18,9.502718505859375,-0.798553595940272,-2.4848725398381553,-1.7074701686700184,1.6887019518547182e+18,9.502718505859375,-0.7994953294595083,-2.480443755785624,-1.7050776382287343,,,,,,,,,,,,1.6887019518521964e+18,9.5001962890625,9.097539901733398,48.49987907409668,-6.6624198913574215,1.6887019518521964e+18,9.5001962890625,-245.44325408935546,143.96487884521486,-139.87421569824218,1.6887019518547182e+18,9.502718505859375,0.2667718877394994,-0.6034386157989502,-0.4695852945248286,0.584847887357076,-1.9221849242846172,1.0583881537119548,0.5419300049543381,1.6887019518460654e+18,9.494065388997397,-0.7412765125433604,-10.713863531748453,2.515753904978434
96,9.600000000000001,1.6887019519585354e+18,9.606535400390625,6.671328544616699,-5.100272258122762,-0.6987069845199585,1.688701951949876e+18,9.597875895182291,2.973182042439779,-12.446466445922852,4.887140949567159,1.6887019519585354e+18,9.606535400390625,-3.626026670138041,-7.212936798731486,5.478893041610718,1.6887019519585354e+18,9.606535400390625,0.8323038841287295,5.519905631740888,-3.891924281915029,1.6887019519585354e+18,9.606535400390625,0.8312857958177725,5.524359916647275,-3.8894808093706765,,,,,,,,,,,,1.688701951952194e+18,9.60019423828125,25.352819442749023,41.46291923522949,-12.515979623794555,1.688701951952194e+18,9.60019423828125,-229.18797607421874,136.92791900634765,-145.72777709960937,1.6887019519585354e+18,9.606535400390625,0.08582010818645357,-0.5962132612864176,-0.5693791707356771,0.5438548773527145,-2.1664831837018332,0.8302681545416514,1.069204678138097,1.688701951949876e+18,9.597875895182291,2.9671996434529615,-12.429118156433105,4.824329177538554
97,9.700000000000001,1.6887019520536986e+18,9.70169853515625,2.677782082557678,-6.227759742736817,-6.16829252243042,1.6887019520536978e+18,9.701698079427084,0.018444647391637165,-13.202797730763754,-0.23110678295294443,1.6887019520536986e+18,9.70169853515625,-2.142251992225647,-7.52471227645874,5.887618923187256,1.6887019520536986e+18,9.70169853515625,0.9405186742544174,-0.8723155736923218,2.600056266784668,1.6887019520536986e+18,9.70169853515625,0.9394802033901215,-0.867825698852539,2.6024691820144654,1.6887019520536952e+18,9.7016953125,0.0,0.0,1.0200637578964231,13.213000297546388,0.0993964821100235,0.0,41.70000076293945,-122.7542158,49.1906442,1.6887019520521958e+18,9.700195703125,22.053939628601075,41.37995834350586,-17.79003963470459,1.6887019520521958e+18,9.700195703125,-232.48685607910156,136.84495697021484,-151.00183868408203,1.6887019520536986e+18,9.70169853515625,0.03654047707095738,-0.5145564317703247,-0.5874588370323182,0.6221889376640319,-1.9207693815231324,0.8771722912788391,1.0661706328392029,1.6887019520536978e+18,9.701698079427084,0.012462620933850607,-13.185449759165445,-0.293918381134669
98,9.8,1.6887019521488579e+18,9.796857747395833,-0.3569132188955943,-5.665795008341472,3.0324332316716514,1.688701952157512e+18,9.805511962890625,-0.4421737045049667,-15.055041790008545,7.758926788965861,1.6887019521488579e+18,9.796857747395833,-0.3648852656284968,-9.004543781280518,3.75901997089386,1.6887019521488579e+18,9.796857747395833,2.644104778766632,-0.7218391050895056,2.4746405879656472,1.6887019521488579e+18,9.796857747395833,2.6431121230125427,-0.7174103061358134,2.4770585695902505,,,,,,,,,,,,1.6887019521521956e+18,9.800195532226564,10.002779817581176,48.349819564819335,-5.597359922528267,1.6887019521521956e+18,9.800195532226564,-244.53801727294922,143.8148178100586,-138.8091583251953,1.6887019521488579e+18,9.796857747395833,0.20147780949870742,-0.45733651518821716,-0.5562841792901357,0.6616990466912588,-1.6452450553576152,1.172090212504069,0.6539224137862524,1.688701952157512e+18,9.805511962890625,-0.44815573841333395,-15.037693977355957,7.6961153745651245
99,9.9,1.6887019522526758e+18,9.900675699869792,-1.1464667816956837,3.547339677810669,5.887686014175415,1.6887019522526756e+18,9.900675390625,-0.105762755870819,-5.505765151977539,7.631190013885498,1.6887019522526758e+18,9.900675699869792,0.9700324634710947,-9.574304421742758,1.8332790732383728,1.6887019522526758e+18,9.900675699869792,1.6507106125354767,0.9112073282400767,0.7370598216851553,1.6887019522526758e+18,9.900675699869792,1.6496924956639607,0.9156615535418192,0.7394523819287618,,,,,,,,,,,,1.6887019522521987e+18,9.900198779296876,2.934099954366684,49.46001930236817,4.51155993938446,1.6887019522521987e+18,9.900198779296876,-251.60669403076173,144.92501831054688,-128.70023727416992,1.6887019522526758e+18,9.900675699869792,0.28937472403049463,-0.3723338345686595,-0.5590613881746928,0.6814038753509521,-1.0583042800426483,1.3573776483535767,0.0781941668440898,1.6887019522526756e+18,9.900675390625,-0.11174483001232147,-5.488417387008667,7.568378257751465
100,10.0,1.6887019523564905e+18,10.004490397135418,-4.2141537467638654,8.55342435836792,1.927424967288971,1.6887019523478362e+18,9.995835937499999,-2.7337998151779175,-1.1232308248678844,3.2805598974227905,1.6887019523564905e+18,10.004490397135418,1.6574589411417644,-9.592849731445312,1.200218141078949,1.6887019523564905e+18,10.004490397135418,0.13192143912116686,-1.0148253291845322,0.6031530847152075,1.6887019523564905e+18,10.004490397135418,0.13100514064232507,-1.0103456390400727,0.6055456325411797,,,,,,,,,,,,1.6887019523521987e+18,10.0001986328125,-1.8556199640035629,48.896379470825195,10.146739673614501,1.6887019523521987e+18,10.0001986328125,-256.3964157104492,144.36137847900392,-123.06505813598633,1.6887019523564905e+18,10.004490397135418,0.3333085179328918,-0.34900280833244324,-0.5431737999121348,0.6867374877134959,-0.6164973974227905,1.3660539587338765,-0.39651816089948017,1.6887019523478362e+18,9.995835937499999,-2.739781958361467,-1.105882853269577,3.217748244603475
101,10.100000000000001,1.6887019524516536e+18,10.099653662109375,8.961476755142211,-1.6914029121398926,-0.9507466316223144,1.6887019524516529e+18,10.09965311686198,10.759327133496603,-11.838789314031601,1.503589967886607,1.6887019524516536e+18,10.099653662109375,1.3165500164031982,-9.461626625061035,2.1635532855987547,1.6887019524516536e+18,10.099653662109375,-1.355082392692566,-3.610702300071716,0.4288273751735687,1.6887019524516536e+18,10.099653662109375,-1.3560902953147889,-3.6062429428100584,0.4312097907066345,,,,,,,,,,,,1.688701952452198e+18,10.100197729492187,-4.0308799028396605,49.40633926391602,6.669739890098572,1.688701952452198e+18,10.100197729492187,-258.57167358398436,144.8713363647461,-126.54205856323242,1.6887019524516536e+18,10.099653662109375,0.36600290536880487,-0.43594391345977784,-0.49163638353347777,0.6563374042510987,-1.0022736668586731,1.3153461694717408,-0.2175537869334221,1.6887019524516529e+18,10.09965311686198,10.753345069785913,-11.82144101460775,1.4407783448696136
102,10.200000000000001,1.6887019525468132e+18,10.194813232421875,0.08013383547465036,-7.081236998240153,2.9528650840123496,1.688701952555468e+18,10.203468058268228,-0.09690935413042705,-15.088042894999186,7.027919381856918,1.6887019525468132e+18,10.194813232421875,1.351907213528951,-9.18142588933309,3.1768729289372764,1.6887019525468132e+18,10.194813232421875,-0.39072467169413966,0.35330919424692797,0.12370021144549052,1.6887019525468132e+18,10.194813232421875,-0.3917173268273473,0.3577888955672581,0.12611821542183557,1.688701952572754e+18,10.22075390625,0.0,0.0,1.0303902626037598,13.38599967956543,0.1003335118293762,285.55389404296875,41.70000076293945,-122.7542231,49.1906463,1.688701952552195e+18,10.200195043945312,-7.6689197540283205,49.55151901245117,1.1492399841547012,1.688701952552195e+18,10.200195043945312,-262.2097137451172,145.01651763916016,-132.06255798339845,1.6887019525468132e+18,10.194813232421875,0.4027608186006546,-0.5099081844091415,-0.4146307061115901,0.6369404296080271,-1.1641273101170857,1.2199328740437825,-0.265452355146408,1.688701952555468e+18,10.203468058268228,-0.1028913557529449,-15.07069476445516,6.965107907851537
103,10.3,1.688701952650629e+18,10.29862910970052,-3.221394101778666,4.360846042633057,2.319729963938395,1.6887019526506314e+18,10.298631494140626,-1.3203595519065856,-4.0603807926177975,4.509872579574585,1.688701952650629e+18,10.29862910970052,1.82352348168691,-9.21891705195109,2.8035271565119424,1.688701952650629e+18,10.29862910970052,0.237244779864947,2.1085541049639382,-0.6890050992369652,1.688701952650629e+18,10.29862910970052,0.23625213404496512,2.1130083203315735,-0.6866379876931509,,,,,,,,,,,,1.6887019526521966e+18,10.300196582031251,-7.189459800720215,49.44049911499023,3.085379952192307,1.6887019526521966e+18,10.300196582031251,-261.7302520751953,144.90549926757814,-130.1264190673828,1.688701952650629e+18,10.29862910970052,0.3603395124276479,-0.4462328453858693,-0.4575363099575043,0.678826093673706,-0.9883813957373301,1.2331065734227498,-0.24624400958418843,1.6887019526506314e+18,10.298631494140626,-1.3263415932655334,-4.0430327415466305,4.447060823440552
104,10.4,1.6887019527544453e+18,10.402445434570312,-1.8242903153101604,3.1949737866719565,0.8977663516998291,1.6887019527457966e+18,10.393796712239583,-1.1085747927427292,-6.108676751454671,4.405684987703959,1.6887019527544453e+18,10.402445434570312,0.5990020483732224,-9.23809003829956,3.200365742047628,1.6887019527544453e+18,10.402445434570312,-0.8252789378166199,0.5541056816776594,-1.9092083772023518,1.6887019527544453e+18,10.402445434570312,-0.8262716035048167,0.558534470697244,-1.9068158666292827,,,,,,,,,,,,1.688701952752195e+18,10.40019521484375,1.4444799721240997,49.85529899597168,1.5493999660015105,1.688701952752195e+18,10.40019521484375,-253.0963150024414,145.32029571533204,-131.6623962402344,1.6887019527544453e+18,10.402445434570312,0.27789732565482456,-0.45064660410086316,-0.519059752424558,0.6702879071235657,-1.3951840202013652,1.2394636273384094,0.2959943072249492,1.6887019527457966e+18,10.393796712239583,-1.1145568390687306,-6.091328859329224,4.342873414357503
105,10.5,1.6887019528582607e+18,10.506260904947917,-1.2984907031059265,-0.586554765701294,-0.8716006676355997,1.68870195284961e+18,10.49761027018229,-2.395614206790924,-8.991629282633463,3.330509980519613,1.6887019528582607e+18,10.506260904947917,-1.1224112908045452,-8.796243985493978,4.148795207341512,1.6887019528582607e+18,10.506260904947917,-1.4596879482269287,-1.9023871024449666,-0.9776389201482137,1.6887019528582607e+18,10.506260904947917,-1.4606551726659138,-1.8978565434614818,-0.9752209186553955,,,,,,,,,,,,1.6887019528521969e+18,10.500196948242188,10.044259786605835,49.00495872497559,-3.375739949941635,1.6887019528521969e+18,10.500196948242188,-244.4965362548828,144.46995544433594,-136.58753814697266,1.6887019528582607e+18,10.506260904947917,0.22972701986630753,-0.5287583023309708,-0.5286253690719604,0.6217161218325297,-1.8453862865765889,1.1231949130694072,0.6791931291421255,1.68870195284961e+18,10.49761027018229,-2.4015963474909463,-8.974281072616577,3.2676984866460166
106,10.600000000000001,1.6887019529534213e+18,10.6014212890625,13.089101409912109,-5.373281669616699,-0.5407090663909913,1.6887019529534236e+18,10.601423502604167,6.631707658370336,-12.976775646209717,4.6258247296015425,1.6887019529534213e+18,10.6014212890625,-3.5200674057006838,-7.684314155578614,4.84827299118042,1.6887019529534213e+18,10.6014212890625,-1.2395372271537781,-1.099801731109619,-3.7381592869758604,1.6887019529534213e+18,10.6014212890625,-1.240575684607029,-1.0953424453735354,-3.735715901851654,,,,,,,,,,,,1.688701952952197e+18,10.600197143554688,20.021419715881347,44.93625907897949,-8.078839778900146,1.688701952952197e+18,10.600197143554688,-234.51937561035157,140.40125427246093,-141.29063873291017,1.6887019529534213e+18,10.6014212890625,0.20542930662631984,-0.6590805530548096,-0.4955620110034943,0.5230558395385743,-2.2002483367919923,0.9118610620498657,0.7926674365997315,1.6887019529534236e+18,10.601423502604167,6.625725835561752,-12.95942751566569,4.563013076782227
107,10.700000000000001,1.6887019530485844e+18,10.696584431966146,-1.1420412460962932,-6.3770805199941,-5.499706466992696,1.688701953057238e+18,10.705238118489584,-2.6390841007232666,-13.503994146982828,0.3587239881356557,1.6887019530485844e+18,10.696584431966146,-3.06390647093455,-6.8942545255025225,6.223559935887654,1.6887019530485844e+18,10.696584431966146,0.914058027168115,3.7230965088432035,0.1556179225444793,1.6887019530485844e+18,10.696584431966146,0.913039930164814,3.7275760623936853,0.15803593397140503,1.688701953091832e+18,10.73983203125,0.0,0.0,1.0303902626037598,13.62399959564209,0.1023207604885101,283.7445678710937,41.70000076293945,-122.7542372,49.1906494,1.6887019530521974e+18,10.700197607421874,25.50287971496582,39.56703872680664,-17.77539978027344,1.6887019530521974e+18,10.700197607421874,-229.0379150390625,135.03203735351562,-150.98719940185546,1.6887019530485844e+18,10.696584431966146,0.027074501694490483,-0.5689082940419515,-0.5782049397627512,0.5817217230796814,-2.0372332334518433,0.7830475668112437,1.0872843861579895,1.688701953057238e+18,10.705238118489584,-2.645065943400065,-13.486646175384521,0.29591241478919983
108,10.8,1.6887019531524006e+18,10.800400838216147,-0.5912440220514932,-6.182372411092122,-0.40030165513356525,1.6887019531523973e+18,10.800397314453125,-2.3414966106414794,-14.04216022491455,4.181218385696411,1.6887019531524006e+18,10.800400838216147,-1.0632567703723907,-8.43632141749064,4.7558614412943525,1.6887019531524006e+18,10.800400838216147,2.992043395837148,-1.14880841349562,2.7434722185134888,1.6887019531524006e+18,10.800400838216147,2.9910252690315247,-1.1443287916481495,2.7459156115849814,,,,,,,,,,,,1.688701953152195e+18,10.80019501953125,14.743699645996093,46.18065910339355,-10.622539901733399,1.688701953152195e+18,10.80019501953125,-239.7970932006836,141.6456558227539,-143.83433837890624,1.6887019531524006e+18,10.800400838216147,0.1379085735728343,-0.4896104633808136,-0.562386949857076,0.6483576595783234,-1.78713063398997,1.0493249595165253,0.831582655509313,1.6887019531523973e+18,10.800397314453125,-2.347478652000427,-14.024811744689941,4.118406677246094
109,10.9,1.6887019532562158e+18,10.9042158203125,0.5969183842341105,-0.21926124890645346,7.5222483078638716,1.688701953247564e+18,10.895564005533855,1.3362917453050613,-10.971291144688925,10.606585264205933,1.6887019532562158e+18,10.9042158203125,0.5732081383466721,-9.400925477345785,2.6573418378829956,1.6887019532562158e+18,10.9042158203125,1.7290286421775818,0.8685994545618693,1.308218816916148,1.6887019532562158e+18,10.9042158203125,1.7280359665552776,0.8730282336473465,1.3105859259764354,,,,,,,,,,,,1.688701953252197e+18,10.900197314453125,4.298059940338135,49.696699142456055,1.511580002680421,1.688701953252197e+18,10.900197314453125,-250.24273529052735,145.1616973876953,-131.7002182006836,1.6887019532562158e+18,10.9042158203125,0.2829928894837697,-0.42685799300670624,-0.5382646024227142,0.6681680281956991,-1.341097315152486,1.2909401257832844,0.2773026886085669,1.688701953247564e+18,10.895564005533855,1.3303097039461136,-10.953943610191345,10.543773571650187
110,11.0,1.6887019533513777e+18,10.999377685546873,-6.073035621643067,9.207322883605958,1.620478343963623,1.688701953351379e+18,10.999378987630209,-4.045066734155019,-0.49232325702905655,3.2175488471984863,1.6887019533513777e+18,10.999377685546873,1.6561408758163452,-9.552809906005859,1.4485605478286743,1.6887019533513777e+18,10.999377685546873,1.054994821548462,-0.43380595445632936,1.4379767656326294,1.6887019533513777e+18,10.999377685546873,1.0539257884025575,-0.42931610345840454,1.4403897047042846,,,,,,,,,,,,1.6887019533521958e+18,11.00019599609375,-1.4639999954029919,49.1696590423584,9.15731987953186,1.6887019533521958e+18,11.00019599609375,-256.00479583740236,144.63465881347656,-124.05447845458984,1.6887019533513777e+18,10.999377685546873,0.32700968980789186,-0.35756771564483636,-0.5388830184936524,0.6886857509613037,-0.7191986203193664,1.3508507490158081,-0.2982440307736397,1.688701953351379e+18,10.999378987630209,-4.051048715909322,-0.4749753028154373,3.1547372738520303
111,11.100000000000001,1.6887019534465403e+18,11.09454024251302,-3.7251712878545127,7.25494400660197,0.4204225738843282,1.6887019534551918e+18,11.10319169108073,4.36889519294103,-5.126024445635267,2.0547367135683694,1.6887019534465403e+18,11.09454024251302,2.02630345026652,-9.438637097676596,1.6570704976717632,1.6887019534465403e+18,11.09454024251302,-0.7107926080934703,-2.673171818256378,-0.5059491408367952,1.6887019534465403e+18,11.09454024251302,-0.7117343771581847,-2.668692131837209,-0.503556610395511,,,,,,,,,,,,1.6887019534521958e+18,11.100195971679687,-6.868599843978882,48.57795867919922,10.117459774017334,1.6887019534521958e+18,11.100195971679687,-261.4093963623047,144.04295501708984,-123.09433822631836,1.6887019534465403e+18,11.09454024251302,0.37545860310395557,-0.3920758267243703,-0.49417876700560254,0.6777073343594869,-0.6705161730448405,1.3054219086964924,-0.48921148975690204,1.6887019534551918e+18,11.10319169108073,4.362913191318512,-5.108676294796169,1.9919251203536987
112,11.200000000000001,1.6887019535503542e+18,11.198354125976563,12.625226219495138,-10.094329357147217,3.4405205647150674,1.6887019535503544e+18,11.1983544921875,12.290374851226806,-19.10908145904541,6.829115772247315,1.6887019535503542e+18,11.198354125976563,1.3624533414840698,-9.112302780151367,3.3533254067103067,1.6887019535503542e+18,11.198354125976563,-0.315460999806722,-1.817553199827671,0.5536729569236437,1.6887019535503542e+18,11.198354125976563,-0.3164536456267039,-1.8130735084414482,0.5560401380062103,,,,,,,,,,,,1.6887019535521958e+18,11.200195874023438,-11.114199829101562,48.81829948425293,0.6539200112223625,1.6887019535521958e+18,11.200195874023438,-265.6549926757813,144.2832992553711,-132.55787811279296,1.6887019535503542e+18,11.198354125976563,0.44918684661388397,-0.5440051853656769,-0.3663345625003179,0.6057319839795431,-1.1761877536773682,1.2041163245836894,-0.4162348409493764,1.6887019535503544e+18,11.1983544921875,12.28439245223999,-19.091733932495117,6.766304206848145
113,11.3,1.6887019536541714e+18,11.302171264648436,-3.500321904818217,3.9677151838938394,3.5874969959259033,1.6887019536455155e+18,11.29351554361979,-2.4732813239097595,-6.1859449942906695,6.991129835446675,1.6887019536541714e+18,11.302171264648436,1.0060400267442067,-9.350412527720133,2.7755414247512817,1.6887019536541714e+18,11.302171264648436,0.17967074612776437,2.815045197804769,-1.4084007143974304,1.6887019536541714e+18,11.302171264648436,0.17862717745204768,2.8194739818573,-1.405957281589508,1.6887019536109176e+18,11.258917724609375,0.0,0.0,1.040002465248108,13.770000457763672,0.1039034649729728,282.74371337890625,41.70000076293945,-122.7542447,49.1906508,1.6887019536521948e+18,11.30019501953125,-4.899519956111908,49.55761909484863,4.620139956474304,1.6887019536521948e+18,11.30019501953125,-259.4403106689453,145.02261657714843,-128.5916603088379,1.6887019536541714e+18,11.302171264648436,0.3857802748680115,-0.4913328488667806,-0.45695661008358,0.6319226920604706,-1.227954347928365,1.2787882486979167,-0.12835160344062993,1.6887019536455155e+18,11.29351554361979,-2.4792633851369223,-6.168597141901652,6.928318381309509
114,11.4,1.6887019537579817e+18,11.405981608072915,-3.0377767086029053,1.33578356107076,1.5331918795903523,1.6887019537493327e+18,11.397332478841145,-2.647458851337433,-7.693423350652059,5.138885736465454,1.6887019537579817e+18,11.405981608072915,0.3295366118351618,-9.178401947021486,3.4283503691355386,1.6887019537579817e+18,11.405981608072915,-1.2235885461171467,1.2305625826120377,-0.3998622090245287,1.6887019537579817e+18,11.405981608072915,-1.224581201871236,1.2350168476502101,-0.3974951102087895,,,,,,,,,,,,1.6887019537521964e+18,11.400196264648438,2.6547199547290803,49.869938659667966,1.7140999555587768,1.6887019537521964e+18,11.400196264648438,-251.88607330322264,145.3349365234375,-131.49769897460936,1.6887019537579817e+18,11.405981608072915,0.2887321611245473,-0.48018379509449005,-0.5068885833024979,0.6545148193836212,-1.496718943119049,1.227000852425893,0.32722152272860205,1.6887019537493327e+18,11.397332478841145,-2.6534409125645957,-7.676075458526611,5.076074083646138
115,11.5,1.6887019538531464e+18,11.50114638671875,-1.9240589618682862,1.4147906303405762,-2.0720292568206786,1.6887019538531474e+18,11.501147460937501,-1.8226329684257507,-7.499106089274089,2.542872587839762,1.6887019538531464e+18,11.50114638671875,0.09488207399845121,-8.70341091156006,4.500748825073242,1.6887019538531464e+18,11.50114638671875,-1.265101933479309,-1.4520571947097778,-0.5963571786880493,1.6887019538531464e+18,11.50114638671875,-1.2660487651824952,-1.447536826133728,-0.5939748138189316,,,,,,,,,,,,1.688701953852197e+18,11.500197119140626,3.15369998216629,49.596659088134764,-4.280979919433594,1.688701953852197e+18,11.500197119140626,-251.38709411621093,145.06165466308593,-137.4927764892578,1.6887019538531464e+18,11.50114638671875,0.2552237391471862,-0.5224533617496491,-0.4748106777667999,0.6600745439529419,-1.5615476846694947,1.1058165550231933,0.35990137457847593,1.6887019538531474e+18,11.501147460937501,-1.8286149700482686,-7.48175835609436,2.4800609747568765
116,11.600000000000001,1.6887019539483105e+18,11.596310668945312,7.034822742144267,-5.0520094235738116,-1.598617434501648,1.688701953956963e+18,11.60496317545573,7.808477918306987,-13.204193751017252,3.945764501889547,1.6887019539483105e+18,11.596310668945312,-2.644355297088623,-7.89569616317749,5.02087680498759,1.6887019539483105e+18,11.596310668945312,-1.094110573331515,-3.2141946951548257,-3.2659656405448914,1.6887019539483105e+18,11.596310668945312,-1.0951286653677623,-3.2097151279449463,-3.263572951157888,,,,,,,,,,,,1.6887019539521956e+18,11.600195678710937,14.08855972290039,46.99561882019043,-8.593679714202882,1.6887019539521956e+18,11.600195678710937,-240.45223693847657,142.4606170654297,-141.80547790527345,1.6887019539483105e+18,11.596310668945312,0.23061369856198624,-0.6489045023918152,-0.46233413616816205,0.5538900196552277,-2.052763263384501,0.9486213525136312,0.6248552401860555,1.688701953956963e+18,11.60496317545573,7.802496055761973,-13.186845779418945,3.8829529682795205
117,11.700000000000001,1.6887019540521267e+18,11.700126586914061,1.6563814481099446,-6.089894374211629,-4.029108206431071,1.688701954052123e+18,11.7001228515625,-6.016632787883281,-12.341939735412598,2.5672593891620634,1.6887019540521267e+18,11.700126586914061,-3.5256383816401162,-6.456116517384847,6.422653118769328,1.6887019540521267e+18,11.700126586914061,0.7886524850813051,4.529591182867686,-1.0057132989168167,1.6887019540521267e+18,11.700126586914061,0.7876598173752427,4.5340709288914995,-1.0033207436402638,,,,,,,,,,,,1.688701954052195e+18,11.700195092773438,27.429259490966796,38.66179847717285,-17.22762002944946,1.688701954052195e+18,11.700195092773438,-227.11153564453124,134.12679748535157,-150.43941802978514,1.6887019540521267e+18,11.700126586914061,0.0334299236856168,-0.6144819657007853,-0.5508403480052948,0.5583202143510183,-2.085647185643514,0.7228488127390543,1.0276394585768382,1.688701954052123e+18,11.7001228515625,-6.022614976018668,-12.324591827392577,2.5044478058815
