seconds_elapsed_rounded,accelerometer_time,accelerometer_seconds_elapsed,accelerometer_z,accelerometer_y,accelerometer_x,accelerometeruncalibrated_time,accelerometeruncalibrated_seconds_elapsed,accelerometeruncalibrated_z,accelerometeruncalibrated_y,accelerometeruncalibrated_x,gravity_time,gravity_seconds_elapsed,gravity_z,gravity_y,gravity_x,gyroscope_time,gyroscope_seconds_elapsed,gyroscope_z,gyroscope_y,gyroscope_x,gyroscopeuncalibrated_time,gyroscopeuncalibrated_seconds_elapsed,gyroscopeuncalibrated_z,gyroscopeuncalibrated_y,gyroscopeuncalibrated_x,location_time,location_seconds_elapsed,location_altitude,location_speedAccuracy,location_bearingAccuracy,location_latitude,location_altitudeAboveMeanSeaLevel,location_bearing,location_horizontalAccuracy,location_verticalAccuracy,location_longitude,location_speed,magnetometer_time,magnetometer_seconds_elapsed,magnetometer_z,magnetometer_y,magnetometer_x,magnetometeruncalibrated_time,magnetometeruncalibrated_seconds_elapsed,magnetometeruncalibrated_z,magnetometeruncalibrated_y,magnetometeruncalibrated_x,orientation_time,orientation_seconds_elapsed,orientation_yaw,orientation_qx,orientation_qz,orientation_roll,orientation_qw,orientation_qy,orientation_pitch
0.0,1.6904262776595835e+18,89.99758374023438,-2.442289311559647,-0.6233737737458943,0.6155840843307973,1.6904262776608374e+18,89.99883750000001,-0.015625,0.867071533203125,-0.1205535888671875,1.6904262776595835e+18,89.99758374023438,2.3960810733881592,9.288229235826137,-2.0316347439084947,1.6904262776595835e+18,89.99758374023438,-0.5594732999801636,-1.0473374843597412,-0.9989515900611876,1.6904262776658473e+18,90.003847265625,-0.5500355899333954,-0.9995766639709472,-0.952255630493164,,,,,,,,,,,,,1.6904262776595835e+18,89.99758374023438,-21.868772506713867,29.447574615478516,-45.05017700195312,1.690426277658066e+18,89.99606591796875,25.017233276367183,62.169351196289064,73.25770874023438,1.6904262776595835e+18,89.99758374023438,0.1811862716348112,0.1313512510084374,-0.5701613835834541,-2.4371678451524685,-0.2295646152829397,0.7777145777750671,-1.244566086245657
0.05,1.690426277709682e+18,90.04768198242188,-3.035282121697664,-1.1011199977040291,1.7439898268802465,1.6904262777109356e+18,90.0489357421875,-0.0186309814453125,0.805535888671875,-0.0325042724609375,1.690426277709682e+18,90.04768198242188,2.8596373855000734,9.134863083836436,-2.129755510920733,1.690426277709682e+18,90.04768198242188,-0.375906765460968,-0.9517949104309082,-0.5398711264133453,1.6904262777159455e+18,90.05394560546874,-0.3425310373306274,-0.9568958282470704,-0.4708837330341339,,,,,,,,,,,,,1.690426277709682e+18,90.04768198242188,-18.31571273803711,29.91119842529297,-46.472373962402344,1.6904262777100764e+18,90.04807646484376,29.229452514648436,62.6992919921875,71.55738220214843,1.690426277709682e+18,90.04768198242188,0.1638663334181111,0.1128567594870018,-0.5548429423612479,-2.5010983654269756,-0.215222117435631,0.7956277038633607,-1.1986202557258956
0.1,1.69042627775978e+18,90.09777998046874,-3.317477716504931,-1.692380957161188,1.882663465876877,1.6904262777610337e+18,90.099033984375,-0.0213775634765625,0.751123046875,-0.0161895751953125,1.69042627775978e+18,90.09777998046874,3.0725505944100022,9.074512601578832,-2.093263458634466,1.69042627775978e+18,90.09777998046874,-0.1210780009627341,-0.9855310797691346,0.0912658855319023,1.6904262777660436e+18,90.1040435546875,-0.0896829636301844,-0.9653748750686646,0.1712887674570083,,,,,,,,,,,,,1.69042627775978e+18,90.09777998046874,-14.97641372680664,30.35305328369141,-47.97239227294922,1.6904262777620856e+18,90.1000857421875,32.264834594726565,63.0806884765625,70.1705810546875,1.69042627775978e+18,90.09777998046874,0.1720865721246181,0.0953283228972864,-0.5514767645532123,-2.5435436108945924,-0.1979601555807161,0.8047018945992301,-1.181940388099415
0.15,1.6904262778098785e+18,90.1478783203125,-2.3634517755576967,-2.051682471098304,2.273118739812225,1.690426277811132e+18,90.14913203125,0.1027618408203125,0.71990966796875,0.0356414794921875,1.6904262778098785e+18,90.1478783203125,2.999321282904744,9.12840353243351,-1.9598972491700948,1.6904262778098785e+18,90.1478783203125,0.1430431798100471,-0.638587749004364,0.51623455286026,1.6904262778161418e+18,90.15414189453124,0.1712158516049384,-0.5643246710300446,0.5240926861763,,,,,,,,,,,,,1.6904262778098785e+18,90.1478783203125,-13.122712707519533,30.939208984375,-48.83143310546875,1.6904262778140943e+18,90.15209428710938,33.54328918457031,63.82703247070312,69.4698699951172,1.6904262778098785e+18,90.1478783203125,0.1968554212288536,0.0821401618853342,-0.5604320624426367,-2.562859847402152,-0.1815609927097939,0.8038458201929288,-1.1967707591280583
0.2,1.6904262778599764e+18,90.19797626953124,-0.0499499673700332,-0.8435165247440336,1.0527463105139137,1.69042627786123e+18,90.199230078125,0.311151123046875,0.89183349609375,-0.1076568603515625,1.6904262778599764e+18,90.19797626953124,2.803581385565996,9.218493903916478,-1.823529490576088,1.6904262778599764e+18,90.19797626953124,0.1552244737744331,-0.0456640906631946,0.4663248598575592,1.69042627786624e+18,90.20423994140626,0.1382975831627845,0.0346345206926343,0.4696858465671539,,,,,,,,,,,,,1.6904262778599764e+18,90.19797626953124,-13.052603912353517,32.053443145751956,-49.25870361328125,1.6904262778661018e+18,90.20410170898438,33.21016235351563,65.02837524414062,69.14638977050781,1.6904262778599764e+18,90.19797626953124,0.2134019322791612,0.0787172095420433,-0.571963028815083,-2.5648435446651994,-0.1729363192650197,0.7979617123158708,-1.2227635247083313
0.25,1.6904262779100746e+18,90.24807456054688,2.2121052051490544,0.1174424887889623,-0.374443816524297,1.6904262779113285e+18,90.24932827148436,0.520831298828125,0.95457763671875,-0.256060791015625,1.6904262779100746e+18,90.24807456054688,2.553942315613925,9.296109292325378,-1.795241553724706,1.6904262779100746e+18,90.24807456054688,0.0861029535531997,0.1644438356161117,0.5862481236457825,1.6904262779163382e+18,90.25433818359376,0.090165527164936,0.1033023111522197,0.6082052707672119,,,,,,,,,,,,,1.6904262779100746e+18,90.24807456054688,-14.445195388793945,33.108794403076175,-49.49449462890625,1.6904262779129073e+18,90.25090740966796,31.67159652709961,65.94709396362305,68.94123077392578,1.6904262779100746e+18,90.24807456054688,0.243672467947262,0.0807959844529665,-0.5822218187705948,-2.528594439850976,-0.1754737282993909,0.7897336479753606,-1.2467837801218038
0.3,1.6904262779601723e+18,90.29817250976562,3.594129004284143,0.0978152958726883,-1.8317547949294744,1.6904262779614264e+18,90.29942651367188,0.6091278076171875,0.9901153564453123,-0.3589202880859375,1.6904262779601723e+18,90.29817250976562,2.2928238787224893,9.37218002318859,-1.7529336839926242,1.6904262779601723e+18,90.29817250976562,-0.0278385965153574,-0.3081352412700653,0.4134872019290924,1.6904262779664364e+18,90.304436328125,-0.0696924749761819,-0.3057512819766997,0.3240884298458695,,,,,,,,,,,,,1.6904262779601723e+18,90.29817250976562,-15.7416748046875,33.96555709838867,-49.96755828857422,1.6904262779597128e+18,90.29771279296877,30.644320678710937,66.80240478515626,68.30587463378906,1.6904262779601723e+18,90.29817250976562,0.2916207082290659,0.0777601287715382,-0.5941401348857873,-2.4887324153251824,-0.1734565334656362,0.7815681235716117,-1.272054793615634
0.35,1.690426278010271e+18,90.3482708984375,3.251665374031812,1.1003902805769443,-0.5360334608495235,1.6904262780115246e+18,90.34952456054688,0.511785888671875,1.0580078125,-0.19871826171875,1.690426278010271e+18,90.3482708984375,2.263318441227078,9.369034477091432,-1.8077102824145552,1.690426278010271e+18,90.3482708984375,-0.2755254864692688,-0.2471599131822586,-0.0059136129915714,1.6904262780165345e+18,90.35453461914062,-0.2689699441194534,-0.2570385605096817,0.0359173631295562,1.690426277999333e+18,90.3373330078125,76.48711552005261,6.121012670178996,180.0,49.280052728167256,95.66854442935436,53.9366784840441,31.295724126852363,1.1797827129140634,-122.96813208567475,0.7926062661239774,1.690426278010271e+18,90.3482708984375,-15.722098922729492,34.75078811645508,-51.1775634765625,1.6904262780117207e+18,90.349720703125,30.87230529785156,67.56527709960938,66.80496215820312,1.690426278010271e+18,90.3482708984375,0.3278589270181855,0.0696443377972846,-0.5960968113867976,-2.467699948485581,-0.1710883338301292,0.7813707703662753,-1.2709430807159854
0.4,1.690426278060369e+18,90.3983689453125,0.9284644772242008,1.2580367694604395,2.196917572889328,1.6904262780616228e+18,90.39962275390624,0.3158416748046875,1.1277191162109377,0.0720428466796875,1.690426278060369e+18,90.3983689453125,2.1978540061827005,9.376108594809176,-1.851015229586065,1.690426278060369e+18,90.3983689453125,0.0635927274823188,-0.1279629006981849,0.3310386955738068,1.6904262780666324e+18,90.40463256835938,0.131539543904364,-0.0206458911299705,0.3233175069093704,,,,,,,,,,,,,1.690426278060369e+18,90.3983689453125,-15.559786605834962,35.368981170654294,-52.87012634277344,1.690426278063729e+18,90.40172880859376,30.848291015625,68.32940673828125,65.2385986328125,1.690426278060369e+18,90.3983689453125,0.3692265876833474,0.0617719941779826,-0.5996191736607237,-2.441571157212132,-0.1684995999259334,0.7798977821558537,-1.2734122294630186
0.45,1.690426278110467e+18,90.4484671875,1.8185072200477124,3.983798885382414,1.9625592495340107,1.690426278111721e+18,90.44972094726562,0.376910400390625,1.3350341796875,-0.052264404296875,1.690426278110467e+18,90.4484671875,2.1032252898438273,9.413286641985176,-1.7709931307485696,1.690426278110467e+18,90.4484671875,0.2219881623983383,0.558093273639679,-0.1082326515112072,1.6904262781167306e+18,90.4547307128906,0.1836581386625766,0.6803929686546326,-0.1488161087036132,,,,,,,,,,,,,1.690426278110467e+18,90.4484671875,-16.56887893676758,37.13269119262695,-53.75355987548828,1.6904262781157366e+18,90.45373657226564,29.47205810546875,70.39891052246094,64.59353942871094,1.690426278110467e+18,90.4484671875,0.3567306889833592,0.0690221012915407,-0.6032176319297593,-2.441751206832824,-0.169970874282506,0.7761815118135494,-1.2866060647749358
0.5,1.6904262781605652e+18,90.49856528320312,-3.725463444886058,-2.796295554019809,0.1045730995698273,1.6904262781618191e+18,90.49981909179688,-0.291851806640625,0.58853759765625,-0.118353271484375,1.6904262781605652e+18,90.49856528320312,1.9859863900290429,9.43032896220088,-1.8116387663568552,1.6904262781605652e+18,90.49856528320312,0.2941841311752796,1.7254177570343017,0.4532972745597362,1.690426278166829e+18,90.50482895507812,0.3827636316418647,1.7755606651306153,0.5724257051944732,,,,,,,,,,,,,1.6904262781605652e+18,90.49856528320312,-19.567633056640624,39.032257843017575,-54.011285400390626,1.6904262781625452e+18,90.50054504394532,25.923725128173828,71.9568099975586,64.46834182739258,1.6904262781605652e+18,90.49856528320312,0.3386373505494257,0.0894735565150518,-0.6021442806580362,-2.4012180631303357,-0.1899586795576179,0.7701680504069254,-1.292980874834589
0.55,1.6904262782106637e+18,90.54866352539062,-4.630456387177706,-0.8085049494999647,0.5998273031070829,1.6904262782119173e+18,90.54991733398438,-0.3191986083984375,0.9723175048828124,-0.183868408203125,1.6904262782106637e+18,90.54866352539062,1.502850961926281,9.542014144185185,-1.6843706399588283,1.6904262782106637e+18,90.54866352539062,0.6192064821720124,0.965311074256897,0.8968946933746338,1.6904262782169272e+18,90.5549271484375,0.5649300634860992,0.8195844531059265,0.9659035563468932,,,,,,,,,,,,,1.6904262782106637e+18,90.54866352539062,-25.632305526733397,40.88252334594726,-53.137812805175784,1.6904262782093512e+18,90.54735102539064,20.39246520996094,73.67714233398438,65.41087646484375,1.6904262782106637e+18,90.54866352539062,0.3671461329056183,0.1192861101627026,-0.6149997384065797,-2.2976522153049665,-0.2124136905736534,0.7498817688179781,-1.3384191058628427
0.6,1.690426278260761e+18,90.5987615234375,-4.713839369976521,-0.1092404776328801,-1.696377830164581,1.6904262782620155e+18,90.60001538085938,-0.317681884765625,0.95386962890625,-0.2875946044921875,1.690426278260761e+18,90.5987615234375,0.8257754816744477,9.642891282620427,-1.5619809917043148,1.690426278260761e+18,90.5987615234375,0.0522764731198549,0.5693687796592712,1.6936772346496582,1.6904262782620155e+18,90.60001544189451,0.0327800503000617,0.5580424293875694,1.7470374703407288,,,,,,,,,,,,,1.690426278260761e+18,90.5987615234375,-29.48647994995117,41.29533157348633,-53.15142974853516,1.690426278261359e+18,90.599358984375,15.606439208984376,73.58073120117187,65.16122131347656,1.690426278260761e+18,90.5987615234375,0.5897240238895896,0.1278034483420812,-0.6389764631013957,-2.0490748873898164,-0.2225211709334832,0.7250459670793294,-1.388173968761652
0.65,1.6904262783108598e+18,90.648859765625,0.73612161652565,0.0946663595485687,0.9859939983899892,1.6904262783121137e+18,90.65011352539062,0.0857818603515625,1.0150787353515625,-0.047314453125,1.6904262783108598e+18,90.648859765625,0.0111686547390906,9.672598555524347,-1.6039674036231637,1.6904262783108598e+18,90.648859765625,-0.1280248284339904,1.4470460295677186,1.1883573412895203,1.6904262783071035e+18,90.64510375976562,-0.1192469254136085,1.3698267221450806,1.2489154100418092,,,,,,,,,,,,,1.6904262783108598e+18,90.648859765625,-35.1541389465332,39.510572052001955,-53.48662567138672,1.690426278313366e+18,90.651366015625,9.492330932617188,71.60581970214844,65.09246215820312,1.6904262783108598e+18,90.648859765625,1.0194068681355846,0.1332225398882189,-0.662833074540982,-1.578888581173121,-0.2449216615651578,0.6947955198063875,-1.4052735898119268
0.7,1.690426278360958e+18,90.69895786132813,0.3232465963460505,0.2020021141517162,0.8185782490336895,1.6904262783622116e+18,90.7002115234375,-0.034918212890625,0.9822479248046876,-0.09774169921875,1.690426278360958e+18,90.69895786132813,-0.5462963500581681,9.649598437495824,-1.6560998295988143,1.690426278360958e+18,90.69895786132813,-0.1613821282982825,1.9989416122436523,0.5307283341884613,1.690426278357202e+18,90.695201953125,-0.1712892994284629,2.032782554626465,0.5681519210338593,,,,,,,,,,,,,1.690426278360958e+18,90.69895786132813,-42.02554626464844,37.83203659057617,-52.24440002441406,1.6904262783653737e+18,90.7033736816406,2.5984466552734373,70.25036926269532,66.77190246582032,1.690426278360958e+18,90.69895786132813,1.2535942167178802,0.1563957274688707,-0.6691673391532378,-1.253813632433617,-0.2827464045420039,0.6690181282675913,-1.391647582325528
0.75,1.690426278411056e+18,90.74905610351564,0.4694883471224457,-0.5774115316116809,-0.4161895223289727,1.69042627841231e+18,90.75030991210936,-0.0681610107421875,0.9242462158203124,-0.26220703125,1.690426278411056e+18,90.74905610351564,-0.8504057581880688,9.634257309787868,-1.619929352030158,1.690426278411056e+18,90.74905610351564,0.0573905520141124,1.070493543148041,0.2845351487398148,1.6904262784073e+18,90.74530014648435,0.060854189377278,1.1130597114562988,0.2833941608667373,,,,,,,,,,,,,1.690426278411056e+18,90.74905610351564,-47.2832763671875,37.607384490966794,-50.889112854003905,1.690426278412182e+18,90.7501819458008,-1.4312667846679688,70.29096603393555,67.6932144165039,1.690426278411056e+18,90.74905610351564,1.3457431495003702,0.1784309965231414,-0.6688215392244475,-1.0875113528683802,-0.3098607828387002,0.6517425427816343,-1.3830167324352112
0.8,1.6904262784611543e+18,90.79915439453126,-0.8230718048997968,-0.4643362396693229,-1.5642459263485669,1.6904262784624082e+18,90.80040805664063,-0.1905517578125,0.931829833984375,-0.26602783203125,1.6904262784611543e+18,90.79915439453126,-1.136043836212456,9.610755204360483,-1.5818546482753753,1.6904262784611543e+18,90.79915439453126,-0.0876267638057469,1.039491093158722,0.5717991828918457,1.6904262784573983e+18,90.79539833984376,-0.092230861634016,1.0653918385505676,0.5564702212810516,,,,,,,,,,,,,1.6904262784611543e+18,90.79915439453126,-50.67908401489258,37.16916885375976,-50.58951873779297,1.690426278458989e+18,90.79698911132812,-4.480184936523438,69.74733276367188,67.87751770019531,1.6904262784611543e+18,90.79915439453126,1.4325991666666114,0.1923433509511061,-0.6703676604524718,-0.9492919733933932,-0.329379452088815,0.6364312969454404,-1.3706732193341762
0.85,1.6904262785112522e+18,90.84925239257812,0.2522445762753486,-0.3984316304159164,0.8114983737753331,1.6904262785125064e+18,90.85050620117188,-0.1331878662109375,0.9370452880859376,-0.0656707763671875,1.6904262785112522e+18,90.84925239257812,-1.4883409074410796,9.573820552099344,-1.511981749138981,1.6904262785112522e+18,90.84925239257812,0.2032197408378123,0.6067705869674682,0.6263442039489746,1.6904262785074962e+18,90.84549633789064,0.1793975591659545,0.6213515400886536,0.6186635494232178,,,,,,,,,,,,,1.6904262785112522e+18,90.84925239257812,-53.55143356323242,36.31627426147461,-50.9457290649414,1.690426278510996e+18,90.84899575195314,-7.529559326171875,68.81643676757812,67.43795776367188,1.6904262785112522e+18,90.84925239257812,1.550174230115737,0.2013404431360199,-0.6762370008296555,-0.7941184798838604,-0.3443486258838514,0.6193148361239176,-1.352492101262092
0.9,1.690426278561351e+18,90.8993505859375,-0.2828332497367262,-0.472114940072894,0.5948297724676876,1.6904262785626043e+18,90.90060434570312,-0.2282745361328125,0.913629150390625,-0.0582794189453125,1.690426278561351e+18,90.8993505859375,-1.8938252620735765,9.53261234339833,-1.2991140452581642,1.690426278561351e+18,90.8993505859375,0.4408287107944488,0.7954365372657776,0.8970826745033265,1.6904262785575946e+18,90.89559458007813,0.4205590963363647,0.7853119254112244,0.8772002458572388,,,,,,,,,,,,,1.690426278561351e+18,90.8993505859375,-55.83678970336914,35.74177474975586,-51.087136840820314,1.690426278563001e+18,90.90100126953124,-10.23660888671875,68.19232482910157,67.4740203857422,1.690426278561351e+18,90.8993505859375,1.711938553607094,0.2111551719503536,-0.6870568839418475,-0.6030808627509392,-0.3528317822659635,0.5989933052378891,-1.333940058381604
0.95,1.6904262786114486e+18,90.94944863281248,0.6448048596659303,0.0978587843012809,-0.1578637702829391,1.6904262786127027e+18,90.9507025390625,-0.16513671875,0.9989501953125,-0.1673370361328125,1.6904262786114486e+18,90.94944863281248,-2.4024180505508186,9.459913953125476,-0.9351191274208576,1.6904262786114486e+18,90.94944863281248,0.6963717818260193,0.6603874444961548,0.9744288563728332,1.6904262786076923e+18,90.945692578125,0.6961835265159607,0.6897313475608826,0.9880106091499328,,,,,,,,,,,,,1.6904262786114486e+18,90.94944863281248,-59.15788879394531,34.94251327514648,-50.462913513183594,1.690426278615008e+18,90.953008203125,-13.416839599609377,67.47890625,68.18939208984375,1.6904262786114486e+18,90.94944863281248,1.9092130540684624,0.2245063147635035,-0.702461072094168,-0.3733383667092387,-0.3591858437907346,0.5718696101103238,-1.3042440837218623
1.0,1.6904262786615468e+18,90.99954677734377,1.7071570860105751,0.9013017742365598,-2.819417135697007,1.6904262786628006e+18,91.00080063476562,-0.108197021484375,1.076019287109375,-0.34998779296875,1.6904262786615468e+18,90.99954677734377,-2.798434085805416,9.37996842665553,-0.5862150011792033,1.6904262786615468e+18,90.99954677734377,0.4082447826862335,0.4362845420837402,0.5572409093379974,1.6904262786577907e+18,90.99579077148437,0.4419191420078278,0.4538082420825958,0.5966395854949951,,,,,,,,,,,,,1.6904262786615468e+18,90.99954677734377,-61.20521240234375,35.00852737426758,-50.42939453125,1.6904262786618127e+18,90.99981286621092,-14.971065521240234,67.71453857421875,67.90944290161133,1.6904262786615468e+18,90.99954677734377,2.0540096823024294,0.2352171727538921,-0.7158724891695346,-0.2071526605968262,-0.3608327312376059,0.5495137391087299,-1.2747978983810555
1.05,1.690426278711645e+18,91.04964497070311,2.501653968424201,2.1294473802065843,-1.9399272341655192,1.6904262787128988e+18,91.050898828125,-0.026092529296875,1.1518157958984374,-0.199468994140625,1.690426278711645e+18,91.04964497070311,-2.9522129102492327,9.342160147978069,-0.4216232962676882,1.690426278711645e+18,91.04964497070311,0.041945044696331,0.6118137896060943,0.0498986259102821,1.690426278707889e+18,91.04588896484374,0.0576008185744285,0.5909729719161987,0.0889364223927259,,,,,,,,,,,,,1.690426278711645e+18,91.04964497070311,-60.6466667175293,35.77312393188477,-51.8689208984375,1.6904262787086195e+18,91.04661943359376,-14.039266967773438,68.50848999023438,66.48130493164062,1.690426278711645e+18,91.04964497070311,2.0972276612094776,0.243860258270839,-0.7189739337511425,-0.1418826827264891,-0.3655016380612233,0.5385142195469246,-1.2617887288958969
1.1,1.690426278761743e+18,91.09974326171876,2.404348258734941,0.8086172946071624,-1.149735961910896,1.690426278762997e+18,91.10099692382812,-0.05164794921875,1.042803955078125,-0.1899810791015625,1.690426278761743e+18,91.09974326171876,-2.901354595862627,9.362610230810642,-0.3020479345956631,1.690426278761743e+18,91.09974326171876,0.085842091962695,0.6875704288482666,-0.2785471111536025,1.690426278757987e+18,91.09598720703124,0.0763177803717553,0.7142819046974183,-0.259509915113449,,,,,,,,,,,,,1.690426278761743e+18,91.09974326171876,-58.414605712890626,37.612335968017575,-53.08146667480469,1.6904262787606246e+18,91.09862470703123,-11.466790771484376,70.59280090332031,65.25867919921875,1.690426278761743e+18,91.09974326171876,2.100430308557172,0.2582098136710177,-0.7130518350841537,-0.1035739997308944,-0.3734670688969689,0.5342076911665341,-1.2687428251982689
1.15,1.6904262788118413e+18,91.14984135742188,2.175959949699938,2.149000455747246,-4.559280617975294,1.6904262788130952e+18,91.15109516601562,-0.03253173828125,1.1873992919921874,-0.50435791015625,1.6904262788118413e+18,91.14984135742188,-2.71672026371479,9.419272730657458,-0.2453733022663741,1.6904262788118413e+18,91.14984135742188,-0.1710786506533622,-0.1899787656962872,-0.5875395655632019,1.6904262788080852e+18,91.1460853515625,-0.1296451286412775,-0.0899534359574318,-0.5356326341629029,,,,,,,,,,,,,1.6904262788118413e+18,91.14984135742188,-53.96710357666016,39.9825798034668,-54.15687866210938,1.690426278812631e+18,91.15063115234376,-5.183441162109375,73.26739196777343,63.83116455078125,1.6904262788118413e+18,91.14984135742188,2.0971446283167454,0.2680618691995818,-0.7057246000477445,-0.0904464785465557,-0.3747818446752268,0.5381588318199763,-1.2888815785606027
1.2,1.6904262788619397e+18,91.199939453125,3.355623907286822,1.977382023230195,-3.818645498774051,1.690426278863193e+18,91.201193359375,0.1158599853515625,1.1603179931640626,-0.42099609375,1.6904262788619397e+18,91.199939453125,-2.123118937063515,9.55348281437397,-0.5449365183340013,1.6904262788619397e+18,91.199939453125,-0.7456267297267913,-1.173513376712799,-1.9377763748168944,1.6904262788581834e+18,91.19618359375,-0.6966427862644196,-1.1143261790275574,-1.836885118484497,,,,,,,,,,,,,1.6904262788619397e+18,91.199939453125,-42.900146484375,42.13007736206055,-56.251668548583986,1.6904262788646405e+18,91.20264047851563,7.82608642578125,75.25028991699219,61.62115478515625,1.6904262788619397e+18,91.199939453125,1.958732241003993,0.2603642959659548,-0.6894395730323783,-0.2611202601676286,-0.3644736762840829,0.5689930471515775,-1.3443127109149668
1.25,1.6904262789120376e+18,91.25003764648436,1.2672097883796691,0.3832214356112479,0.9732748459095508,1.6904262789132915e+18,91.25129140625,-0.004327392578125,1.052294921875,0.0534149169921875,1.6904262789120376e+18,91.25003764648436,-0.886621433911845,9.693254506966472,-1.1105523543726652,1.6904262789120376e+18,91.25003764648436,-1.072352123260498,-1.2003934979438782,-2.7808371067047117,1.6904262789082816e+18,91.24628159179689,-1.0644675016403198,-1.2397562980651855,-2.7604471683502196,,,,,,,,,,,,,1.6904262789120376e+18,91.25003764648436,-26.69594078063965,42.8140266418457,-57.52634658813477,1.6904262789114476e+18,91.24944744873048,22.736324310302734,75.3988037109375,60.91786575317383,1.6904262789120376e+18,91.25003764648436,1.3559136307463795,0.2456939760072717,-0.6522960662440093,-0.920077739145032,-0.3457112004204666,0.6277723649451601,-1.4191252686411668
1.3,1.6904262789621358e+18,91.30013579101562,-2.582089441142082,3.71807874146223,1.6729917815583946,1.6904262789633897e+18,91.30138959960937,-0.212249755859375,1.3730560302734376,-0.0228973388671875,1.6904262789621358e+18,91.30013579101562,0.4604677747086505,9.651592007852791,-1.6337566557221113,1.6904262789621358e+18,91.30013579101562,-0.9776471853256226,-0.4298777371644974,-2.4338779926300047,1.6904262789583798e+18,91.29637978515623,-0.989115869998932,-0.4748845428228378,-2.471124792098999,,,,,,,,,,,,,1.6904262789621358e+18,91.30013579101562,-13.31168327331543,41.01314010620117,-56.31974639892578,1.6904262789582536e+18,91.29625346679686,34.021609497070315,73.44952697753907,62.309634399414065,1.6904262789621358e+18,91.30013579101562,0.4834434832921228,0.2380878014123685,-0.6046655753321584,-1.823657055309652,-0.3327451036013699,0.6830961580402553,-1.3940860833669233
1.35,1.690426279012234e+18,91.350233984375,-2.708974384215325,1.7829285416662692,1.987141405283064,1.690426279013488e+18,91.35148774414064,-0.106134033203125,1.1169647216796874,-0.016552734375,1.690426279012234e+18,91.350233984375,1.5643665862796454,9.460721294759512,-2.0301770632199942,1.690426279012234e+18,91.350233984375,-0.7584925293922424,-0.695968496799469,-1.9999391794204713,1.690426279008478e+18,91.34647797851564,-0.7766228675842285,-0.6245300203561783,-2.0361013889312742,1.6904262789993275e+18,91.33732763671875,76.21745930053294,4.402519268341764,180.0,49.28002395243831,95.3988882098347,53.93664036574965,30.377660323796356,1.196491934775347,-122.96817990885638,0.1963086300381058,1.690426279012234e+18,91.350233984375,-5.215218353271484,38.069670867919925,-54.02151336669922,1.6904262790102615e+18,91.34826142578126,41.85981750488281,70.4667236328125,64.63681335449219,1.690426279012234e+18,91.350233984375,0.098800802675846,0.2350851314062282,-0.5607406860342697,-2.220564361373127,-0.3250748099772796,0.7241353073390626,-1.305610858708394
1.4,1.690426279062332e+18,91.40033193359376,-2.5999689428342876,0.7424470786070823,-0.0923225729013979,1.690426279063586e+18,91.4015859375,0.0162384033203125,0.9757843017578124,-0.2675933837890625,1.690426279062332e+18,91.40033193359376,2.4992627185995877,9.213721399591568,-2.228466820398122,1.690426279062332e+18,91.40033193359376,-0.6066879749298095,-1.3139481782913207,-1.5364423990249634,1.690426279058576e+18,91.3965759765625,-0.6139814972877502,-1.2828220844268798,-1.5588083267211914,,,,,,,,,,,,,1.690426279062332e+18,91.40033193359376,0.9083786010742188,35.71464309692383,-51.834222412109376,1.6904262790622674e+18,91.40026723632812,48.966043090820314,67.79606323242187,67.229541015625,1.690426279062332e+18,91.40033193359376,-0.0441640640005567,0.2220358541398436,-0.5291257150483075,-2.410912905707002,-0.3041202922897091,0.7602692605609211,-1.2219406814414968
1.45,1.6904262791124303e+18,91.45043032226565,-3.800106101094484,-1.0684449902617932,0.412045934331268,1.690426279113684e+18,91.451683984375,-0.08426513671875,0.7836273193359375,-0.1561614990234375,1.6904262791124303e+18,91.45043032226565,3.2815224306699635,8.95853679511547,-2.259412022986114,1.6904262791124303e+18,91.45043032226565,-0.4846985518932342,-1.6245043992996215,-1.087364959716797,1.6904262791086743e+18,91.44667436523436,-0.4799578726291656,-1.5741052865982057,-1.142221212387085,,,,,,,,,,,,,1.6904262791124303e+18,91.45043032226565,6.7535865783691404,33.41697463989258,-49.37684020996094,1.6904262791142733e+18,91.45227324218747,54.80415649414063,65.34089050292968,69.84895629882813,1.6904262791124303e+18,91.45043032226565,-0.1025177400231957,0.2029758286590031,-0.5065433759337654,-2.53744804169981,-0.2756745560375203,0.79120715792477,-1.152154296660555
1.5,1.6904262791625285e+18,91.50052841796874,-4.468491567477583,-1.7195348046422003,1.7899195111452042,1.6904262791637824e+18,91.50178237304688,-0.054608154296875,0.704486083984375,-0.0149505615234375,1.6904262791625285e+18,91.50052841796874,3.761335114864707,8.784914504656195,-2.20028570492208,1.6904262791625285e+18,91.50052841796874,-0.5498326182365417,-1.5772263765335084,-0.199016984924674,1.6904262791587722e+18,91.49677236328124,-0.5593972027301788,-1.6091700553894044,-0.2678864106535911,,,,,,,,,,,,,1.6904262791625285e+18,91.50052841796874,11.72663345336914,30.998333740234376,-46.95213623046875,1.6904262791610783e+18,91.49907849121094,58.87979888916016,63.24413299560547,71.88399124145508,1.6904262791625285e+18,91.50052841796874,-0.0913704712084213,0.1752107430713514,-0.4979732250101299,-2.6121391395227143,-0.2453421658757567,0.8130110123097953,-1.110298844077149
1.55,1.6904262792126264e+18,91.5506265625,-4.3321995921465755,-2.811186716777086,2.4773870745563507,1.6904262792138803e+18,91.55188037109374,-0.06375732421875,0.5986175537109375,0.0386932373046875,1.6904262792126264e+18,91.5506265625,3.7799468763542174,8.790614995933174,-2.145071767222285,1.6904262792126264e+18,91.5506265625,-0.2651237711310386,-0.8373268783092499,0.7479752719402313,1.6904262792088704e+18,91.54687055664064,-0.2889186769723892,-0.9048272967338562,0.6769863426685333,,,,,,,,,,,,,1.6904262792126264e+18,91.5506265625,14.273789215087891,29.542277526855468,-45.20226440429688,1.690426279207881e+18,91.54588090820312,60.87372741699219,62.12709045410156,73.3914581298828,1.6904262792126264e+18,91.5506265625,-0.0360267312043162,0.1494868040411301,-0.5061482546593179,-2.62533442399704,-0.2259559974497654,0.8187440721180053,-1.1116221653583631
1.6,1.6904262792627246e+18,91.60072470703123,-2.929773524069488,-3.0890409506052725,2.706683584477454,1.6904262792639785e+18,91.601978515625,0.098828125,0.6167755126953125,0.0459320068359375,1.6904262792627246e+18,91.60072470703123,3.292315218197703,8.990838293070198,-2.1096593853184578,1.6904262792627246e+18,91.60072470703123,0.1848084356635809,0.1716090269386768,1.4898916006088256,1.6904262792589688e+18,91.59696875,0.1496634736657142,0.1157865166664123,1.460291314125061,,,,,,,,,,,,,1.6904262792627246e+18,91.60072470703123,13.317494964599607,29.78218994140625,-44.269264221191406,1.6904262792598828e+18,91.59788276367188,59.615057373046874,62.48216247558594,74.25003967285156,1.6904262792627246e+18,91.60072470703123,0.0415761500469282,0.137827801899852,-0.5307732672549604,-2.5706448521506817,-0.224363112192959,0.8054973911266889,-1.1604530148128531
1.65,1.690426279312823e+18,91.65082299804688,2.093142374925017,-0.0081773443323374,1.046749349734485,1.690426279314077e+18,91.65207680664062,0.567626953125,1.0719085693359376,-0.1500701904296875,1.690426279312823e+18,91.65082299804688,2.571899471039176,9.250962458227276,-1.9833609515093265,1.690426279312823e+18,91.65082299804688,0.4699607253074646,0.1108189761638641,1.3627438306808473,1.690426279309067e+18,91.6470669921875,0.4720256507396698,0.2115453729405999,1.4034458637237548,,,,,,,,,,,,,1.690426279312823e+18,91.65082299804688,10.013591766357422,30.886734771728516,-43.499656677246094,1.6904262793118835e+18,91.64988334960938,56.170721435546874,63.65804748535156,75.11410827636719,1.690426279312823e+18,91.65082299804688,0.1180914955490728,0.1410853493099783,-0.5617464832235235,-2.483512125207546,-0.2307411575256912,0.781783047769439,-1.2330892102042597
1.7,1.6904262793629212e+18,91.70092119140624,7.342558694155216,3.548627833016515,-2.7611611707267163,1.690426279364175e+18,91.702175,0.9872833251953124,1.297454833984375,-0.5026275634765625,1.6904262793629212e+18,91.70092119140624,2.208540030787289,9.394007239593268,-1.7438284403865036,1.6904262793629212e+18,91.70092119140624,0.16811946304515,-1.0080053091049197,0.2566524401307106,1.6904262793591652e+18,91.69716513671877,0.2179934188723563,-0.9814183235168455,0.3679286517202854,,,,,,,,,,,,,1.6904262793629212e+18,91.70092119140624,9.116320037841795,31.556171417236328,-42.082209777832034,1.6904262793638858e+18,91.70188583984375,55.858392333984376,64.19175415039062,76.9633056640625,1.6904262793629212e+18,91.70092119140624,0.1586766865848463,0.1350915728128219,-0.5831313274116168,-2.4734347104135717,-0.2175006075180471,0.7709347342554128,-1.2797228482713203
1.75,1.6904262794130194e+18,91.7510193359375,4.099412638987302,0.9016130905950068,-3.755276019408405,1.690426279414273e+18,91.75227299804688,0.5424957275390625,0.94576416015625,-0.5064178466796875,1.6904262794130194e+18,91.7510193359375,2.4337351844172175,9.338776701471804,-1.7384591099861264,1.6904262794130194e+18,91.7510193359375,-0.502641212940216,-0.9219895482063294,-0.5002480342984199,1.6904262794092634e+18,91.74726337890624,-0.4931991159915924,-0.9399687767028808,-0.5324979931116104,,,,,,,,,,,,,1.6904262794130194e+18,91.7510193359375,10.83820343017578,30.55701065063477,-40.21714477539062,1.6904262794158886e+18,91.75388872070312,57.91236877441406,62.614260864257815,78.74132995605468,1.6904262794130194e+18,91.7510193359375,0.1602424551974901,0.1178509266177501,-0.5792468050731351,-2.5210249468822825,-0.2009109269330802,0.7811163721564839,-1.2608431186616806
1.8,1.6904262794631176e+18,91.80111748046876,-1.3824726534941791,1.0872379535371064,2.515722533526122,1.6904262794643717e+18,91.80237128906248,0.181658935546875,1.2069976806640623,0.192791748046875,1.6904262794631176e+18,91.80111748046876,2.5079274665096403,9.30784777781844,-1.800723930658549,1.6904262794631176e+18,91.80111748046876,0.1787052343599498,0.0878861755132675,0.167804330587387,1.6904262794593615e+18,91.79736147460936,0.1159770920872688,0.0832347495481371,0.1848662033677101,,,,,,,,,,,,,1.6904262794631176e+18,91.80111748046876,11.657788848876953,28.94244842529297,-38.577001953125,1.6904262794626908e+18,91.80069091796877,57.95634078979492,61.46760559082031,80.14484405517578,1.6904262794631176e+18,91.80111748046876,0.1839483680318256,0.1076700472721219,-0.5776176457346824,-2.5188539589686716,-0.1961799477315118,0.7850287403572882,-1.250509625661122
1.85,1.6904262795132155e+18,91.851215625,1.314269762622714,4.353739048424958,1.3289398884274066,1.6904262795144696e+18,91.85246948242188,0.245513916015625,1.2410797119140624,-0.1401336669921875,1.6904262795132155e+18,91.851215625,2.598633690255582,9.321192061846851,-1.5891896088863908,1.6904262795132155e+18,91.851215625,0.3884963572025299,-0.3609513878822327,-0.2726667284965515,1.6904262795094597e+18,91.84745961914062,0.3997650861740112,-0.4341160908341407,-0.3031480043428018,,,,,,,,,,,,,1.6904262795132155e+18,91.851215625,11.597795104980468,28.893357849121095,-36.25222473144531,1.6904262795094948e+18,91.84749482421876,58.15088806152344,61.54765625,82.42863464355469,1.6904262795132155e+18,91.851215625,0.1216666082201714,0.1114758712589592,-0.5773999546206822,-2.5926172777153935,-0.1846482808429561,0.7874403233437157,-1.2548347380790368
1.9,1.6904262795633137e+18,91.90131376953126,-7.129832707606553,-3.964349971642494,0.426107046779096,1.6904262795645678e+18,91.90256767578124,-0.4878448486328125,0.610540771484375,-0.0937530517578125,1.6904262795633137e+18,91.90131376953126,2.457727879066616,9.379974856396316,-1.4586663677629828,1.6904262795633137e+18,91.90131376953126,0.5806851804256439,1.3188241839408874,0.6790449976921081,1.690426279559558e+18,91.89755786132812,0.5610710382461548,1.2969497203826903,0.6286761403083801,,,,,,,,,,,,,1.6904262795633137e+18,91.90131376953126,10.084233856201172,29.40233383178711,-34.28372650146484,1.6904262795615007e+18,91.8995005859375,56.2812744140625,62.102447509765625,84.30353698730468,1.6904262795633137e+18,91.90131376953126,0.0769677256532593,0.1277540887190251,-0.5816395073741797,-2.605369170983458,-0.19061817354348,0.7803124383217582,-1.275015635224624
1.95,1.690426279613412e+18,91.951412109375,-4.595401791122556,1.0741468843913078,-2.1321601462966204,1.690426279614666e+18,91.95266582031248,-0.2382293701171875,1.0664886474609374,-0.3885223388671875,1.690426279613412e+18,91.951412109375,1.9794069531865417,9.511156532202364,-1.3286584411375224,1.690426279613412e+18,91.951412109375,0.1157535851001739,-0.1784351825714111,1.1801588535308838,1.690426279609656e+18,91.9476561035156,0.1842747718095779,-0.0727281615138053,1.1177664756774903,,,,,,,,,,,,,1.690426279613412e+18,91.951412109375,7.328980255126953,29.96913070678711,-33.129295349121094,1.6904262796135076e+18,91.9515076171875,53.31261596679688,62.66928405761719,85.62761840820312,1.690426279613412e+18,91.951412109375,0.0986598445867388,0.1424323175287754,-0.5989152735653771,-2.5487656966179353,-0.2008324474076325,0.7619752843995078,-1.325101144958212
2.0,1.6904262796635105e+18,92.00151025390626,-1.96402435365051,-0.605192454175949,-0.0392682097752391,1.6904262796647642e+18,92.0027640625,-0.0201904296875,0.9292877197265624,-0.0681976318359375,1.6904262796635105e+18,92.00151025390626,1.265665788421109,9.621816228983402,-1.3917759623426198,1.6904262796635105e+18,92.00151025390626,-0.2707864671945571,0.103180066961795,1.6051938772201535,1.6904262796597542e+18,91.99775424804687,-0.2775737673044204,0.0365160331130027,1.6328572034835815,,,,,,,,,,,,,1.6904262796635105e+18,92.00151025390626,4.958167266845703,29.957977294921875,-32.46117401123047,1.6904262796655127e+18,92.00351259765624,50.59432373046875,62.50602722167969,86.10497131347657,1.6904262796635105e+18,92.00151025390626,0.3606073161136597,0.1287379080828392,-0.6272085984760333,-2.302286175647464,-0.2049471680854381,0.7401995246727917,-1.3767379076937352
2.05,1.6904262797136084e+18,92.0516083984375,0.0337526027719676,0.1987076318770646,2.042470259986371,1.6904262797148623e+18,92.05286220703124,0.0507843017578125,1.0055633544921876,0.038812255859375,1.6904262797136084e+18,92.0516083984375,0.5842508322732896,9.671388244499564,-1.504702581142336,1.6904262797136084e+18,92.0516083984375,-0.1058905407786369,1.289088499546051,1.0346017360687256,1.6904262797098524e+18,92.04785244140626,-0.1124013230204581,1.2303856372833253,1.0592456817626954,,,,,,,,,,,,,1.6904262797136084e+18,92.0516083984375,1.588242340087891,29.557405853271483,-32.068276977539064,1.6904262797123151e+18,92.05031512451173,47.35962677001953,62.14551544189453,86.4517822265625,1.6904262797136084e+18,92.0516083984375,0.6947438263762952,0.1296281458840236,-0.6478700866378085,-1.9388625269741564,-0.2244826288858071,0.7161867233989971,-1.404558675149093
2.1,1.6904262797637066e+18,92.101706640625,0.1651317592984438,-0.1211852993530034,0.8432885319809615,1.6904262797649605e+18,92.10296044921876,0.0355316162109375,0.9662017822265624,-0.1157318115234375,1.6904262797637066e+18,92.101706640625,0.0271526060569833,9.687965752908587,-1.5142036629721525,1.6904262797637066e+18,92.101706640625,0.1666820108890532,1.2567933559417723,0.8036328315734863,1.6904262797599506e+18,92.09795063476562,0.1555676486343145,1.3154276132583618,0.831598949432373,,,,,,,,,,,,,1.6904262797637066e+18,92.101706640625,-2.299885559082031,29.183165740966796,-31.509291076660155,1.6904262797591194e+18,92.09711943359376,43.88942260742188,61.806375122070314,87.03084106445313,1.6904262797637066e+18,92.101706640625,0.9799598613942326,0.1474737767681652,-0.6595834222261607,-1.5870470375333003,-0.2520258369828311,0.6925076910015534,-1.4150868465740052
2.15,1.6904262798138043e+18,92.1518046875,0.3183618199791759,-0.6798233907204866,-1.7986037528602778,1.6904262798150587e+18,92.15305869140624,-0.0460784912109375,0.918328857421875,-0.322412109375,1.6904262798138043e+18,92.1518046875,-0.3594523132781311,9.69201742483914,-1.4481131757578254,1.6904262798138043e+18,92.1518046875,0.027514611557126,0.7085352420806885,0.5942285895347595,1.6904262798100485e+18,92.14804863281248,0.0395976912928745,0.7173977017402648,0.5901447653770446,,,,,,,,,,,,,1.6904262798138043e+18,92.1518046875,-4.9701904296875,28.859932708740235,-30.49949493408203,1.6904262798111227e+18,92.14912294921876,41.343606567382814,61.468484497070314,88.05286865234375,1.6904262798138043e+18,92.1518046875,1.1953226904448535,0.1605743233036593,-0.6680854719893036,-1.328213842084359,-0.2682711544301434,0.6751793394892188,-1.4177578327489129
2.2,1.690426279863903e+18,92.20190307617187,-0.3678246468063443,-0.3573358837264775,-0.1562914794649184,1.6904262798651566e+18,92.20315668945312,-0.1002288818359375,0.9494842529296876,-0.1386566162109375,1.690426279863903e+18,92.20190307617187,-0.7314130735085159,9.678112584318518,-1.3985928612028062,1.690426279863903e+18,92.20190307617187,0.1761391639709472,0.5139723479747772,0.7385340213775635,1.690426279860147e+18,92.19814702148436,0.1562153793871402,0.5507011711597443,0.7333064675331116,,,,,,,,,,,,,1.690426279863903e+18,92.20190307617187,-7.062894439697265,28.406260681152343,-29.515219116210936,1.6904262798631265e+18,92.20112622070312,39.08561401367187,60.9650390625,89.14709167480468,1.690426279863903e+18,92.20190307617187,1.4033504000287322,0.168021822314683,-0.6770691354226633,-1.090123894937944,-0.2808070939867357,0.6591288619246474,-1.4087325301968805
2.25,1.690426279914001e+18,92.25200102539064,0.1231189269901811,-0.6698425625497102,0.0422279655897617,1.6904262799152548e+18,92.25325483398436,-0.1140380859375,0.909326171875,-0.1093292236328125,1.690426279914001e+18,92.25200102539064,-1.130838347297758,9.66204489590168,-1.23202648060441,1.690426279914001e+18,92.25200102539064,0.421557879447937,0.4386910319328308,0.8251818656921387,1.690426279910245e+18,92.24824506835938,0.4040023267269134,0.4339782893657684,0.810220742225647,,,,,,,,,,,,,1.690426279914001e+18,92.25200102539064,-8.68115005493164,28.075513458251955,-28.376377868652344,1.6904262799151288e+18,92.25312895507813,37.23409118652344,60.64756469726562,90.5184600830078,1.690426279914001e+18,92.25200102539064,1.6456748302726545,0.1748074733754851,-0.6898746417012669,-0.8297778242985737,-0.2858540617378826,0.6416777422759824,-1.3988900015568282
2.3,1.690426279964099e+18,92.30209921875,-0.0292116275675594,-0.486436544700861,0.6107290309020131,1.6904262799653532e+18,92.30335302734376,-0.1771240234375,0.948974609375,-0.0402130126953125,1.690426279964099e+18,92.30209921875,-1.629611109576076,9.624415364018082,-0.9194612765269726,1.690426279964099e+18,92.30209921875,0.7455502867698669,0.5747490525245667,1.1215753555297852,1.6904262799603433e+18,92.2983432128906,0.7215096116065979,0.5702153444290161,1.1072525262832642,,,,,,,,,,,,,1.690426279964099e+18,92.30209921875,-10.800305938720705,27.851000213623045,-26.634292602539062,1.6904262799619338e+18,92.2999338989258,35.326263427734375,60.467811584472656,92.19440460205078,1.690426279964099e+18,92.30209921875,1.9370056645841136,0.1856408039873476,-0.7071275832677659,-0.5180132352917761,-0.2881398496917588,0.6183639616331104,-1.3779106303142996
2.35,1.6904262800141975e+18,92.3521974609375,0.7402261292350292,0.3154595665055513,-1.7180773431494083,1.6904262800154514e+18,92.35345141601564,-0.1232330322265625,1.021868896484375,-0.2571533203125,1.6904262800141975e+18,92.3521974609375,-2.1802187469621,9.54745417250812,-0.4797098887139186,1.6904262800141975e+18,92.3521974609375,0.6934486150741577,0.609432578086853,0.9838135242462158,1.6904262800104417e+18,92.34844140625,0.7283118009567261,0.6232012152671814,1.0177996039390564,1.6904262799993185e+18,92.33731860351564,76.025165816769,3.712181252409776,180.0,49.280005447381285,95.20659472607076,53.93663196550089,28.188299070024986,1.1918982484098044,-122.96818429181516,0.1326363267945803,1.6904262800141975e+18,92.3521974609375,-13.444393157958984,27.770494079589845,-24.377604675292968,1.6904262800087383e+18,92.34673837890624,32.82596130371094,60.40425109863281,94.28228759765624,1.6904262800141975e+18,92.3521974609375,2.2104255320770454,0.2007282048194019,-0.7265612490104255,-0.2197230122821383,-0.2885245559962596,0.5903193542170442,-1.3406541063153097
2.4,1.6904262800642957e+18,92.40229565429688,2.3216584896712003,1.5492721121960875,-2.734797830649316,1.6904262800655496e+18,92.40354956054688,-0.0179901123046875,1.1341033935546876,-0.30499267578125,1.6904262800642957e+18,92.40229565429688,-2.4976921082819996,9.480844629855753,-0.2054015619447081,1.6904262800642957e+18,92.40229565429688,0.1566343121230601,0.6550581693649292,0.2562860883772373,1.6904262800605396e+18,92.39853964843748,0.1963852252811193,0.645659065246582,0.3092291146516799,,,,,,,,,,,,,1.6904262800642957e+18,92.40229565429688,-15.181511306762696,27.32434997558594,-22.28485565185547,1.6904262800607424e+18,92.39874252929688,31.2009033203125,59.908984375,96.32550354003908,1.6904262800642957e+18,92.40229565429688,2.32055435189486,0.2134028048273504,-0.7358969329440956,-0.0822848404621445,-0.2929120102592731,0.5719190840858009,-1.3123262131398188
2.45,1.6904262801143936e+18,92.45239365234376,2.765843600228429,1.283713062508702,-2.958309648915231,1.6904262801156475e+18,92.45364765625,0.0388946533203125,1.1156829833984374,-0.3547576904296875,1.6904262801143936e+18,92.45239365234376,-2.4846446152430772,9.48585480078101,-0.1127925221716984,1.6904262801143936e+18,92.45239365234376,-0.0131544467061757,0.5425199270248413,-0.3307185657322407,1.6904262801106376e+18,92.4486376953125,-0.0171947509050369,0.5975359499454498,-0.2857532382942735,,,,,,,,,,,,,1.6904262801143936e+18,92.45239365234376,-16.089850616455077,26.877665710449214,-20.635029602050786,1.6904262801127473e+18,92.450747265625,30.357540893554688,59.498565673828125,97.9869598388672,1.6904262801143936e+18,92.45239365234376,2.323644259573837,0.2264342646271653,-0.731721049373337,-0.0452308374557073,-0.3020882337236754,0.5674784580670841,-1.3143613490694384
2.5,1.690426280164492e+18,92.50249208984374,2.1964086881321667,2.2119355768966673,-6.151568339007496,1.6904262801657457e+18,92.50374565429686,-0.0010650634765625,1.1883636474609376,-0.64647216796875,1.690426280164492e+18,92.50249208984374,-2.189375691529363,9.556941664204,-0.1442245346823613,1.690426280164492e+18,92.50249208984374,-0.2230386286973952,-0.7547445707023144,-0.9611819624900818,1.690426280160736e+18,92.49873608398435,-0.1907872065901756,-0.6051459282636642,-0.8980210542678833,,,,,,,,,,,,,1.690426280164492e+18,92.50249208984374,-15.776145553588869,26.70556640625,-19.16700439453125,1.69042628016475e+18,92.50275009765626,31.099484252929688,59.356640625,99.64210205078126,1.690426280164492e+18,92.50249208984374,2.300797927088726,0.2301125057548144,-0.7223161131899626,-0.0674638369715271,-0.2997723131760264,0.5791076357579924,-1.345033349716188
2.55,1.69042628021459e+18,92.55259003906252,3.1297834122645853,1.9934964733982088,-2.516565808643326,1.690426280215844e+18,92.553844140625,0.2135498046875,1.1825897216796877,-0.1772918701171875,1.69042628021459e+18,92.55259003906252,-1.398805685622841,9.687663905804753,-0.4784307721561938,1.69042628021459e+18,92.55259003906252,-0.5481655716896057,-1.993040037155151,-2.385601782798767,1.690426280210834e+18,92.548833984375,-0.5363897323608399,-1.9812582969665529,-2.2438899278640747,,,,,,,,,,,,,1.69042628021459e+18,92.55259003906252,-13.256114196777345,27.13783721923828,-18.41217041015625,1.6904262802115553e+18,92.54955535888672,33.91455078125,59.9774169921875,100.0992431640625,1.69042628021459e+18,92.55259003906252,2.0813550098653897,0.2077734178809545,-0.7038185537379648,-0.3607206624757403,-0.2752998511187055,0.620619504151835,-1.4175224846075951
2.6,1.6904262802646884e+18,92.6026884765625,-0.9517734858453272,1.5761064600121977,1.4804649425950644,1.690426280265942e+18,92.60394204101564,-0.1603057861328125,1.1986724853515625,0.023931884765625,1.6904262802646884e+18,92.6026884765625,0.1220929540764633,9.756399120761154,-0.86581331680879,1.6904262802646884e+18,92.6026884765625,-0.7932328343391418,-1.1128161251544952,-3.1626463413238524,1.6904262802609324e+18,92.598932421875,-0.765774929523468,-1.221665549278259,-3.2009806632995605,,,,,,,,,,,,,1.6904262802646884e+18,92.6026884765625,-8.526947021484375,28.48576889038086,-18.04277801513672,1.6904262802583616e+18,92.59636147460938,38.33619384765625,61.24924011230469,100.46989135742189,1.6904262802646884e+18,92.6026884765625,0.879895987000854,0.1872200343130381,-0.658655699437837,-1.640733286307982,-0.2442860990717025,0.6861762241711028,-1.4709347077804895
2.65,1.6904262803147863e+18,92.65278647460936,-3.1682246112442014,3.986073026246428,0.068511956820637,1.6904262803160404e+18,92.65404038085936,-0.146002197265625,1.349041748046875,-0.127667236328125,1.6904262803147863e+18,92.65278647460936,1.4892605941823125,9.597550270350576,-1.3076609097161145,1.6904262803147863e+18,92.65278647460936,-1.010821270942688,-0.0618116274476051,-2.384496879577637,1.6904262803110303e+18,92.64903056640624,-1.0021692872047423,-0.0491944428533316,-2.435306119918823,,,,,,,,,,,,,1.6904262803147863e+18,92.65278647460936,-4.747931671142578,30.114440155029296,-17.664669799804688,1.690426280310364e+18,92.64836401367188,41.98152160644531,62.8894775390625,100.83393249511718,1.6904262803147863e+18,92.65278647460936,0.1256285333405946,0.1803033114900496,-0.6057392204191093,-2.4111358115165937,-0.238632565000608,0.737079909466957,-1.3668379570242135
2.7,1.6904262803648847e+18,92.70288466796876,-3.841603355869948,0.8777131595695018,-0.2163134604205191,1.6904262803661384e+18,92.70413842773438,-0.1419189453125,1.0056915283203125,-0.2569000244140625,1.6904262803648847e+18,92.70288466796876,2.4888197966489196,9.32760157817602,-1.7035070098443328,1.6904262803648847e+18,92.70288466796876,-0.95895676612854,-1.2868127346038818,-1.5778448581695557,1.6904262803611287e+18,92.69912866210936,-0.9516087174415588,-1.176257860660553,-1.642273736000061,,,,,,,,,,,,,1.6904262803648847e+18,92.70288466796876,-1.97857666015625,31.9936897277832,-17.551898193359374,1.6904262803623685e+18,92.70036845703126,44.74363708496094,64.78961486816407,100.91199645996092,1.6904262803648847e+18,92.70288466796876,0.0244290226399928,0.1651387927866891,-0.5646451853680691,-2.5394572213520217,-0.2327617416062451,0.7742546466596194,-1.2579861691158
2.75,1.690426280414983e+18,92.7529828125,-3.873674844461083,-0.1856269672209024,-2.2748744097600877,1.6904262804162368e+18,92.75423662109374,-0.0636444091796875,0.881048583984375,-0.4086334228515625,1.690426280414983e+18,92.7529828125,3.2031783772733804,9.059197426642775,-1.950292999226749,1.690426280414983e+18,92.7529828125,-1.2175424337387084,-1.9700016975402832,-0.8670411825180053,1.690426280411227e+18,92.74922680664062,-1.1936421394348145,-1.9364496231079105,-0.9158034205436708,,,,,,,,,,,,,1.690426280414983e+18,92.7529828125,0.8888526916503906,33.6804801940918,-17.971246337890626,1.6904262804143724e+18,92.75237226562498,47.789581298828125,66.600390625,100.33912963867188,1.690426280414983e+18,92.7529828125,0.0575409415879637,0.1270210235222814,-0.5411356762249417,-2.594313733293933,-0.2092307300322934,0.8043355759967161,-1.1782981011879237
2.8,1.690426280465081e+18,92.8030810546875,-4.837548868657946,-1.1856035183167457,0.1826388036425411,1.6904262804663347e+18,92.804334765625,-0.123724365234375,0.7619110107421875,-0.165032958984375,1.690426280465081e+18,92.8030810546875,3.6452955955153703,8.834627857565284,-2.194935313030928,1.690426280465081e+18,92.8030810546875,-1.4109307765960692,-2.1007585525512695,-0.1212183289229869,1.690426280461325e+18,92.79932504882814,-1.4083784341812131,-2.0883585929870607,-0.1777116175740957,,,,,,,,,,,,,1.690426280465081e+18,92.8030810546875,2.807364654541016,35.147814178466795,-19.18541259765625,1.6904262804611763e+18,92.7991763305664,49.61393737792969,68.07306289672852,98.95108795166016,1.690426280465081e+18,92.8030810546875,0.1640345622110099,0.0749948888628233,-0.529398991874278,-2.5997157246900096,-0.1839226306728856,0.8245986171621471,-1.1219407298353794
2.85,1.6904262805151793e+18,92.85317919921876,-4.762117487837672,-2.020985368826389,2.110635332291573,1.6904262805164332e+18,92.8544330078125,-0.09766845703125,0.6657623291015625,-0.0075225830078125,1.6904262805151793e+18,92.85317919921876,3.785702137332261,8.730676017085909,-2.369209053136259,1.6904262805151793e+18,92.85317919921876,-1.1228187561035157,-2.067553687095642,0.5951523959636689,1.6904262805114232e+18,92.84942319335936,-1.154305350780487,-2.0864030838012697,0.5403856337070465,,,,,,,,,,,,,1.6904262805151793e+18,92.85317919921876,4.000393676757812,36.41665420532227,-21.240982055664062,1.6904262805079803e+18,92.84598051757813,50.522219848632815,69.16166687011719,97.07800598144532,1.6904262805151793e+18,92.85317919921876,0.3029048790565191,0.0186466525617621,-0.5312766943675603,-2.582408192304044,-0.1570261584044233,0.832129216189087,-1.0979658237645595
2.9,1.6904262805652772e+18,92.90327734375,-4.074630664430261,-2.2401659967941048,3.513208846015334,1.690426280566531e+18,92.90453115234376,-0.0331939697265625,0.691802978515625,0.1468017578125,1.6904262805652772e+18,92.90327734375,3.5682272026908395,8.802941978064775,-2.434920156418085,1.6904262805652772e+18,92.90327734375,-0.5457552552223206,-1.121219801902771,1.2781221866607666,1.6904262805615214e+18,92.899521484375,-0.6018684923648834,-1.211670207977295,1.2377404928207398,,,,,,,,,,,,,1.6904262805652772e+18,92.90327734375,3.386621856689453,37.63990249633789,-22.861056518554687,1.6904262805599828e+18,92.89798286132812,49.7506591796875,70.38030700683593,95.4978271484375,1.6904262805652772e+18,92.90327734375,0.4411364838173144,-0.0249896029722726,-0.5478295671832942,-2.5423785600993147,-0.1337341836370523,0.8253540148818118,-1.114527638206353
2.95,1.6904262806153756e+18,92.9533755859375,-1.824514293055832,-1.6144037497025727,4.450338538767099,1.6904262806166295e+18,92.95462939453124,0.1511993408203125,0.76126708984375,0.1795928955078125,1.6904262806153756e+18,92.9533755859375,3.0099135209721326,9.01649693355739,-2.403236235065907,1.6904262806153756e+18,92.9533755859375,0.24786819210276,0.1315602362155914,1.384600567817688,1.6904262806116196e+18,92.94961953125,0.2063493385910987,0.0498199172317981,1.3926223039627077,,,,,,,,,,,,,1.6904262806153756e+18,92.9533755859375,0.2614868164062499,39.41689529418945,-23.45936279296875,1.690426280611985e+18,92.94998496093748,46.43604431152344,72.20876770019531,95.01642456054688,1.6904262806153756e+18,92.9533755859375,0.5514381021429969,-0.0387644412208734,-0.5753781677988786,-2.466835015150663,-0.1241355560672411,0.807419655520562,-1.1669844912331426
3.0,1.6904262806654738e+18,93.00347377929688,1.6751308394137028,0.5010203658485413,0.8889568765090405,1.6904262806667277e+18,93.00472758789064,0.53079833984375,1.0665863037109375,-0.242828369140625,1.6904262806654738e+18,93.00347377929688,2.34404518120259,9.238382962639331,-2.300218986635953,1.6904262806654738e+18,93.00347377929688,0.2755735933780669,0.0618249297142028,1.3362282514572144,1.6904262806617178e+18,92.9997177734375,0.2944504857063293,0.1942185223102569,1.3523378372192385,,,,,,,,,,,,,1.6904262806654738e+18,93.00347377929688,-4.249272155761719,41.3150032043457,-23.018382263183593,1.6904262806639872e+18,93.00198725585938,41.87236022949219,74.11868286132812,95.48323059082033,1.6904262806654738e+18,93.00347377929688,0.6427372175856421,-0.0312993892469147,-0.6039668734528524,-2.364149523489195,-0.1250897190162497,0.7864457960166958,-1.229078335345849
3.05,1.690426280715572e+18,93.053571875,6.296078341394365,2.9257631778365374,-5.108897958375811,1.6904262807168256e+18,93.05482553710937,0.8059783935546875,1.238580322265625,-0.826806640625,1.690426280715572e+18,93.053571875,1.941142396721989,9.352809084668754,-2.218915235877037,1.690426280715572e+18,93.053571875,-0.3561829522252083,-0.6148513723164797,0.4314765632152557,1.690426280711816e+18,93.049816015625,-0.2618325144052505,-0.6746399149298667,0.53780956864357,,,,,,,,,,,,,1.690426280715572e+18,93.053571875,-6.832119750976562,42.8694465637207,-23.091757202148436,1.6904262807159898e+18,93.05398974609376,39.143304443359376,75.9997772216797,95.02066345214844,1.690426280715572e+18,93.053571875,0.7500667429708598,-0.0415880281436829,-0.6231230789669638,-2.2895223524861725,-0.1128430395084684,0.7727961586442591,-1.2654014629028554
3.1,1.69042628076567e+18,93.10367016601565,3.1397118672740456,-0.4468741158324479,-3.476623270226717,1.690426280766924e+18,93.10492397460936,0.43389892578125,0.8233917236328125,-0.489288330078125,1.69042628076567e+18,93.10367016601565,1.96685107228294,9.259003024437428,-2.56104440270409,1.69042628076567e+18,93.10367016601565,-0.8785693287849426,-0.2405980572104454,0.0143644399940967,1.690426280761914e+18,93.09991416015626,-0.9139098882675172,-0.2098526773042976,-0.0441018909215927,,,,,,,,,,,,,1.69042628076567e+18,93.10367016601565,-7.552175903320313,44.63354263305664,-25.578659057617188,1.690426280762791e+18,93.100791015625,38.993865966796875,77.6373062133789,92.26994705200195,1.69042628076567e+18,93.10367016601565,0.829817949979129,-0.0606833255844484,-0.6206750332230453,-2.2262377098832022,-0.1203012474691246,0.7723743478540367,-1.2351760720490117
3.15,1.6904262808157683e+18,93.15376840820312,0.4148128271482884,1.976326493601799,2.6487179807558654,1.6904262808120123e+18,93.15001257324218,0.2320938110351562,1.21844482421875,0.0282859802246093,1.6904262808157683e+18,93.15376840820312,1.8056299982352555,9.233925164899825,-2.7635798054018617,1.6904262808157683e+18,93.15376840820312,0.0109331548213958,0.2998320624232292,0.5044519275426864,1.6904262808120123e+18,93.15001235351563,-0.0605983100831508,0.2102206081151962,0.5374395966529846,,,,,,,,,,,,,1.6904262808157683e+18,93.15376840820312,-7.857142639160156,46.65584487915039,-28.598957824707032,1.690426280809592e+18,93.1475919433594,38.55430908203125,79.47587890625,89.69670104980469,1.6904262808157683e+18,93.15376840820312,0.9196922270327392,-0.0733595593218348,-0.6265466515237932,-2.1492580667207677,-0.1239600371470675,0.7659433186924642,-1.227376330456122
3.2,1.6904262808658665e+18,93.20386655273435,1.688526093750894,7.953327136445641,3.750856332496107,1.6904262808571008e+18,93.19510058593752,0.3556396484375,1.7820037841796874,0.1151641845703125,1.6904262808658665e+18,93.20386655273435,1.7663368293753263,9.264873494679929,-2.6840598108676077,1.6904262808658665e+18,93.20386655273435,0.2779147088527679,0.3642572827637195,-0.611193785071373,1.6904262808621105e+18,93.20011059570314,0.2889376372098922,0.3706018678843975,-0.5726091306656599,,,,,,,,,,,,,1.6904262808658665e+18,93.20386655273435,-7.588920593261719,49.37790603637696,-29.477850341796874,1.690426280861593e+18,93.19959301757812,39.056884765625,82.2362274169922,88.94721374511718,1.6904262808658665e+18,93.20386655273435,0.8934524505410145,-0.0616393577263635,-0.6272866799488274,-2.1526204855725717,-0.1282161633371052,0.7656623241945646,-1.2368569542992849
3.25,1.690426280915965e+18,93.25396459960938,-7.0353012557101255,-7.163832124746442,4.213240210601687,1.690426280907199e+18,93.24519892578124,-0.523089599609375,0.2234771728515625,0.1632720947265625,1.690426280915965e+18,93.25396459960938,1.7194252360139786,9.30047648917198,-2.5863800656211375,1.690426280915965e+18,93.25396459960938,0.5907744705677033,1.3889286279678346,0.657118409126997,1.6904262809122086e+18,93.25020859375,0.5602887630462646,1.3675711512565614,0.538570836186409,,,,,,,,,,,,,1.690426280915965e+18,93.25396459960938,-6.628109741210937,51.613162994384766,-29.607623291015624,1.6904262809135946e+18,93.25159458007812,39.72953186035157,84.43262023925782,88.90383605957031,1.690426280915965e+18,93.25396459960938,0.8429657046169552,-0.0401784940787729,-0.626766180425447,-2.1562680999369506,-0.1394593313891834,0.7654730145415651,-1.2483513461575604
3.3,1.6904262809660628e+18,93.30406293945312,-7.805410949651003,2.562588154240846,-1.3332791451276838,1.6904262809572972e+18,93.29529697265625,-0.7060546875,1.2089447021484374,-0.3700897216796875,1.6904262809660628e+18,93.30406293945312,0.9776265383130311,9.448163543385864,-2.4227144333525,1.6904262809660628e+18,93.30406293945312,0.3678776383399963,1.2410550355911254,1.7408078908920288,1.6904262809623068e+18,93.30030693359376,0.4105815172195434,1.205545330047607,1.6658002138137815,,,,,,,,,,,,,1.6904262809660628e+18,93.30406293945312,-10.196570587158202,53.143541717529295,-28.580825805664062,1.6904262809655956e+18,93.30359545898436,35.14378967285156,85.86854858398438,90.07259826660156,1.6904262809660628e+18,93.30406293945312,0.9907542286230946,-0.0138705489147009,-0.6528094148081036,-1.9497264264489025,-0.1545408239222226,0.7413070037059363,-1.299918314847408
3.35,1.6904262810161608e+18,93.3541609375,4.296446083267926,0.2618601951694488,0.2607002407054604,1.6904262810073953e+18,93.34539545898436,0.427642822265625,1.0022369384765626,-0.233685302734375,1.6904262810161608e+18,93.3541609375,0.0106627231874456,9.504447857570051,-2.4083888539756835,1.6904262810161608e+18,93.3541609375,-0.1057888887822627,1.590919041633606,1.0491861760616303,1.690426281012405e+18,93.35040493164064,-0.0923941664397716,1.6055978059768676,1.1862271547317504,1.6904262809993124e+18,93.3373125,76.82975031156093,5.277190707765901,180.0,49.280031624099834,96.01117922086269,53.936627923126665,28.60702078779016,1.1851525054248804,-122.96820415575456,0.6778672944151712,1.6904262810161608e+18,93.3541609375,-15.84191665649414,53.18382949829102,-27.83278198242187,1.690426281012396e+18,93.35039587402343,29.531963348388672,85.80070877075195,90.76922225952148,1.6904262810161608e+18,93.3541609375,1.2985024649252588,0.0068000869959693,-0.6832771177184249,-1.5756644341200652,-0.1802673430695274,0.7074043513312473,-1.321901101268929
3.4,1.6904262810662597e+18,93.40425942382812,-2.760448222071342,-0.73968766767025,2.6281891043725607,1.6904262810574935e+18,93.395493359375,-0.3156768798828125,0.89290771484375,0.031707763671875,1.6904262810662597e+18,93.40425942382812,-0.4816300942672044,9.498155830140709,-2.3878111992406845,1.6904262810662597e+18,93.40425942382812,0.1097623854875563,2.2966745138168334,0.4830911517143249,1.6904262810625032e+18,93.40050336914062,0.0964346062391996,2.2512574434280395,0.467473554611206,,,,,,,,,,,,,1.6904262810662597e+18,93.40425942382812,-19.885772705078125,53.346089935302736,-27.17401580810547,1.6904262810591992e+18,93.39719912109376,26.311676025390625,86.01570129394531,91.38757629394532,1.6904262810662597e+18,93.40425942382812,1.4132052912420587,0.0358454231757956,-0.6921426500019019,-1.3717366284793526,-0.2129965361409559,0.6884721633384923,-1.3193049636491558
3.45,1.6904262811163576e+18,93.45435756835938,0.813296056234017,-0.1967436383277177,-0.989223861769736,1.6904262811075917e+18,93.4455916015625,-0.023162841796875,0.9475982666015624,-0.326275634765625,1.6904262811163576e+18,93.45435756835938,-0.9510823763890563,9.495672664248945,-2.255787256617695,1.6904262811163576e+18,93.45435756835938,0.0601285941898822,1.8026564598083497,0.2849647164344787,1.6904262811126016e+18,93.45060166015624,0.0841685118153691,1.8622820615768432,0.3201247990131378,,,,,,,,,,,,,1.6904262811163576e+18,93.45435756835938,-23.53260612487793,53.65445175170898,-25.316236877441405,1.690426281111204e+18,93.44920405273436,22.708883666992183,86.32378234863282,93.2964080810547,1.6904262811163576e+18,93.45435756835938,1.5092209956325295,0.0723393036180371,-0.6978608707776358,-1.1718723226950882,-0.2478194538003752,0.6679680518222075,-1.3182897973700085
3.5,1.6904262811664556e+18,93.50445556640624,-0.1758882626298815,-0.1763485005527734,-1.6383210994803905,1.69042628115769e+18,93.49568994140624,-0.142034912109375,0.9477142333984376,-0.3962890625,1.6904262811664556e+18,93.50445556640624,-1.2545873596589263,9.46854383430481,-2.2210122666084766,1.6904262811664556e+18,93.50445556640624,-0.2556463092565536,1.485770297050476,0.3729683250188827,1.6904262811626995e+18,93.50069956054688,-0.2477990955114364,1.5222927570343017,0.349402105808258,,,,,,,,,,,,,1.6904262811664556e+18,93.50445556640624,-25.807655334472656,54.1344352722168,-24.313145446777344,1.6904262811632092e+18,93.50120913085937,20.488311767578125,86.79579467773438,94.20467834472656,1.6904262811664556e+18,93.50445556640624,1.5430179750573192,0.0973223465380892,-0.6977943508501895,-1.0573270837739124,-0.2774434258613257,0.6530782081472172,-1.307513807851659
3.55,1.690426281216554e+18,93.55455395507812,-0.1125201422776281,-0.8209677745187282,1.471400001773238,1.690426281207788e+18,93.54578798828126,-0.179052734375,0.87855224609375,-0.080419921875,1.690426281216554e+18,93.55455395507812,-1.6187569180238246,9.41941418495476,-2.193760540937036,1.690426281216554e+18,93.55455395507812,0.1081289734691381,0.850261640548706,0.5749575376510621,1.690426281212798e+18,93.55079790039062,0.0720728619024157,0.8871385216712951,0.5679603695869446,,,,,,,,,,,,,1.690426281216554e+18,93.55455395507812,-27.809387969970704,54.14132919311523,-23.98394927978516,1.6904262812152128e+18,93.55321274414064,18.541665649414064,86.80581970214844,94.51142272949218,1.690426281216554e+18,93.55455395507812,1.6088110529854596,0.1122471297617405,-0.7019380647662403,-0.9355680725082058,-0.299663954840853,0.6362650915214034,-1.288863246187328
3.6,1.690426281266652e+18,93.60465205078124,0.2973409953604639,-0.0587052869468927,1.7971747429704668,1.6904262812578862e+18,93.595886328125,-0.1705474853515625,0.9489654541015624,-0.0118194580078125,1.690426281266652e+18,93.60465205078124,-2.008147602241486,9.395134197796583,-1.9601899192802603,1.690426281266652e+18,93.60465205078124,0.5914673805236816,0.723082709312439,0.8099620461463928,1.690426281262896e+18,93.60089599609375,0.5515926897525787,0.7572416305541992,0.7756571054458619,,,,,,,,,,,,,1.690426281266652e+18,93.60465205078124,-29.461563491821288,54.182125091552734,-23.101284790039063,1.6904262812620196e+18,93.60001953125,16.57384490966797,86.79931640625,95.68927383422852,1.690426281266652e+18,93.60465205078124,1.7361616759185967,0.1266699661546724,-0.7124151452825931,-0.7737795759686309,-0.3079493124667298,0.6176626207508453,-1.2800840839388317
3.65,1.6904262813167506e+18,93.65475043945312,1.08899923489511,0.3307727540671825,-1.7840721295173467,1.6904262813079844e+18,93.645984375,-0.1477325439453125,0.987774658203125,-0.33621826171875,1.6904262813167506e+18,93.65475043945312,-2.4873924526464934,9.353922715772985,-1.568408715890348,1.6904262813167506e+18,93.65475043945312,0.6820139348506927,0.4192606002092361,0.8835308074951171,1.6904262813129946e+18,93.65099443359377,0.7148470282554626,0.3973447471857071,0.9158615827560423,,,,,,,,,,,,,1.6904262813167506e+18,93.65475043945312,-32.06370620727539,54.20194320678711,-20.98729553222656,1.690426281308825e+18,93.646825390625,14.218106079101563,86.83330078125,97.64934997558592,1.6904262813167506e+18,93.65475043945312,1.9311798707852823,0.1390578435033998,-0.730498180007902,-0.5634837884664976,-0.3052347824575683,0.5948064476088339,-1.265801026240037
3.7,1.6904262813668485e+18,93.70484833984376,2.501245270718932,0.1738038429582118,-2.2623199609351157,1.6904262813580826e+18,93.6960826171875,-0.0246856689453125,0.9674072265625,-0.3580902099609375,1.6904262813668485e+18,93.70484833984376,-2.7780448517015577,9.319265477698446,-1.2646384035217015,1.6904262813668485e+18,93.70484833984376,0.2270859718322753,0.7480319499969482,0.1443775723222642,1.6904262813630922e+18,93.70109233398438,0.2700246680527925,0.7610361576080322,0.1901356970192864,,,,,,,,,,,,,1.6904262813668485e+18,93.70484833984376,-33.80393753051758,54.36820755004883,-19.489103698730467,1.690426281360831e+18,93.69883081054688,12.608010864257812,87.06017761230468,99.06533813476562,1.6904262813668485e+18,93.70484833984376,2.0394522319992037,0.154042649594938,-0.7392937365917902,-0.4271862275252683,-0.3083539548977669,0.5784478349438366,-1.2542004508954625
3.75,1.6904262814169464e+18,93.75494653320312,1.3537093249899148,1.224533143787384,-2.553194829021394,1.6904262814081807e+18,93.74618076171876,-0.1535308837890625,1.0687255859375,-0.3903289794921875,1.6904262814169464e+18,93.75494653320312,-2.827220795185268,9.310312940436004,-1.2223115076021105,1.6904262814169464e+18,93.75494653320312,-0.4771346986293793,0.7539833009243011,-0.1304198272526264,1.690426281413191e+18,93.75119057617188,-0.4404178619384765,0.7783550500869751,-0.0928997434675693,,,,,,,,,,,,,1.6904262814169464e+18,93.75494653320312,-33.5284309387207,55.071747589111325,-19.4660400390625,1.6904262814128364e+18,93.75083637695312,13.0083251953125,87.76330871582032,98.94152526855468,1.6904262814169464e+18,93.75494653320312,2.0191997974213183,0.166162300639721,-0.7351431229481176,-0.4080363116322457,-0.3219852119364534,0.572918313197193,-1.2512836462308856
3.8,1.690426281462035e+18,93.80003491210935,2.1742687963556495,2.9458731273815033,-1.5480225651394577,1.690426281458279e+18,93.79627890625,-0.0457366943359375,1.2630889892578123,-0.288824462890625,1.690426281462035e+18,93.80003491210935,-2.672599280146137,9.326467605710029,-1.4251643933642657,1.690426281462035e+18,93.80003491210935,-0.8697831332683563,0.3238307014107704,-0.8398856073617936,1.6904262814632886e+18,93.801288671875,-0.8835166931152344,0.3173898339271545,-0.8664075374603272,,,,,,,,,,,,,1.690426281462035e+18,93.80003491210935,-31.906911849975582,55.59456825256348,-21.508081436157227,1.6904262814648458e+18,93.802845703125,15.211322021484374,88.30896606445313,96.31736450195312,1.690426281462035e+18,93.80003491210935,1.907027769727692,0.1700157990803429,-0.7225526154889308,-0.4903092858413711,-0.3378554017478067,0.5786336484558092,-1.2565885187731007
3.85,1.6904262815071232e+18,93.84512319335936,4.317302175005078,3.642202422579527,3.210404675265103,1.690426281508377e+18,93.84637719726564,0.341998291015625,1.3268951416015624,0.303643798828125,1.6904262815071232e+18,93.84512319335936,-2.0753120022976397,9.404850120646952,-1.818834727662504,1.6904262815071232e+18,93.84512319335936,-0.8065298438072205,0.0256246846169233,-2.2693674325942994,1.6904262815133868e+18,93.85138681640623,-0.6689751803874969,0.0131321529159322,-2.578601431846619,,,,,,,,,,,,,1.6904262815071232e+18,93.84512319335936,-27.907077407836915,56.02341537475586,-24.841990661621093,1.690426281511652e+18,93.84965216064452,20.64855575561523,88.99311828613281,92.5666275024414,1.6904262815071232e+18,93.84512319335936,1.6536064233765888,0.1708784961234049,-0.6950576957028161,-0.7251998606965815,-0.3500935672050751,0.6040201124764087,-1.2839742667666838
3.9,1.6904262815572214e+18,93.89522143554689,1.1316004761636256,2.9534053349041938,6.5781275134682655,1.6904262815584753e+18,93.89647509765624,-0.1434173583984375,1.277392578125,0.367120361328125,1.6904262815572214e+18,93.89522143554689,-0.5347857075444422,9.586046178135277,-1.9336455527736245,1.6904262815572214e+18,93.89522143554689,0.177723104506731,0.1529481882229447,-3.667026948928833,1.6904262815634852e+18,93.90148525390624,0.2171379670500755,0.1891366854310035,-3.5890810966491697,,,,,,,,,,,,,1.6904262815572214e+18,93.89522143554689,-18.61463165283203,57.62676162719727,-27.029830932617188,1.690426281558455e+18,93.89645502929687,31.38658447265625,90.7884033203125,91.276025390625,1.6904262815572214e+18,93.89522143554689,1.0387733109433173,0.196488418904846,-0.6409550535126238,-1.3187898105811962,-0.3407663952696789,0.6585944945988678,-1.3589544956775506
3.95,1.6904262816073196e+18,93.94531962890626,-3.576164279300422,2.6912193272334335,2.034984171240777,1.6904262816085734e+18,93.9465734375,-0.1700286865234375,1.2427398681640625,0.0203216552734375,1.6904262816073196e+18,93.94531962890626,1.0020681092410908,9.570893967902062,-1.8504510782842336,1.6904262816073196e+18,93.94531962890626,0.1444112583994865,0.8817064613103867,-2.9213196277618407,1.690426281613583e+18,93.951583203125,0.1274188891053199,1.033002680540085,-2.868330192565918,,,,,,,,,,,,,1.6904262816073196e+18,93.94531962890626,-7.269132995605469,58.487097930908206,-27.10559539794922,1.6904262816104596e+18,93.94845952148437,41.67303466796875,90.98027648925782,91.45057983398438,1.6904262816073196e+18,93.94531962890626,0.2667685650441797,0.2332295202239461,-0.5845005354058952,-2.0547062241609684,-0.3271353651766834,0.704609566464467,-1.3517869937401636
4.0,1.6904262816574177e+18,93.9954177734375,-2.976598315930217,2.1456498593711855,3.524963522764742,1.6904262816586716e+18,93.99667163085935,-0.1033721923828125,1.1343109130859377,0.1508331298828125,1.6904262816574177e+18,93.9954177734375,2.1821719560825823,9.373092228049634,-1.8597962681260705,1.6904262816574177e+18,93.9954177734375,0.2996868640184402,0.9955634593963624,-2.453588914871216,1.6904262816636813e+18,94.00168134765626,0.3406153678894043,0.9138571739196776,-2.3855972290039062,,,,,,,,,,,,,1.6904262816574177e+18,93.9954177734375,0.3107170104980469,57.60886001586914,-26.891111755371092,1.6904262816624645e+18,94.00046416015626,48.58589782714843,89.91557922363282,91.710205078125,1.6904262816574177e+18,93.9954177734375,-0.179600477625956,0.2744519728307573,-0.5300130788137729,-2.4302824977468136,-0.3280702913162809,0.7319654228021284,-1.2732350972090156
4.05,1.690426281707516e+18,94.045516015625,-3.597576280580759,0.3716898708671331,0.6279477744370698,1.6904262817087698e+18,94.04676982421876,-0.0200439453125,0.932958984375,-0.140411376953125,1.690426281707516e+18,94.045516015625,3.141809833240509,9.117249802638888,-1.7627993905772268,1.690426281707516e+18,94.045516015625,0.4415299236774445,0.4647641003131866,-1.9860556364059447,1.6904262817137797e+18,94.05177963867187,0.4478440344333648,0.4211926162242889,-1.9318780660629271,,,,,,,,,,,,,1.690426281707516e+18,94.045516015625,6.307218170166015,56.30644607543945,-26.093247985839845,1.6904262817144686e+18,94.05246865234376,54.37300720214843,88.53885192871094,92.71739196777344,1.690426281707516e+18,94.045516015625,-0.425611579346241,0.3088525682857391,-0.4872699929996411,-2.6279642182819396,-0.319776254303653,0.7514677247770141,-1.1941791362524
4.1,1.6904262817576143e+18,94.0956142578125,-4.104949697943925,-1.7787928154879808,0.0995427041871845,1.6904262817588682e+18,94.0968681640625,-0.0305694580078125,0.682427978515625,-0.156005859375,1.6904262817576143e+18,94.0956142578125,3.87956477928251,8.85988282723546,-1.609505923884511,1.6904262817576143e+18,94.0956142578125,0.4437233746051788,0.1859759688377379,-1.278318166732788,1.690426281763878e+18,94.10187783203124,0.423339170217514,0.1810784935951232,-1.1334930062294006,,,,,,,,,,,,,1.6904262817576143e+18,94.0956142578125,11.129708862304687,54.928870391845706,-24.816262817382817,1.690426281761273e+18,94.0992734375,58.25746154785156,87.3694953918457,93.87221145629884,1.6904262817576143e+18,94.0956142578125,-0.5724893425452443,0.3345079485659384,-0.4562450796176242,-2.747563018653363,-0.3065662704026706,0.7654182589815263,-1.1279865817156156
4.15,1.6904262818077125e+18,94.14571240234376,-3.411330596939623,-2.948969982805252,0.1151133736412227,1.690426281808966e+18,94.1469662109375,0.1048736572265625,0.58629150390625,-0.131878662109375,1.6904262818077125e+18,94.14571240234376,4.161733486082851,8.748744407026766,-1.519671748345792,1.6904262818077125e+18,94.14571240234376,0.1764728233218192,0.3923645198345184,-0.0841030105948448,1.6904262818139763e+18,94.15197612304686,0.1592453688383102,0.4465688049793243,0.0665013752877712,,,,,,,,,,,,,1.6904262818077125e+18,94.14571240234376,13.241783905029298,54.2755989074707,-24.078286743164064,1.690426281808077e+18,94.14607705078124,59.91553649902344,86.82841491699219,94.45307006835938,1.6904262818077125e+18,94.14571240234376,-0.6347122620888823,0.3484378413207822,-0.4434972209461109,-2.791473684547381,-0.3018557794959114,0.7686180510724634,-1.1020272103478093
4.2,1.6904262818578104e+18,94.195810546875,-2.765234703775942,-3.3519757308167213,0.9745173787035046,1.6904262818590643e+18,94.19706450195312,0.105792236328125,0.55433349609375,-0.0553924560546875,1.6904262818578104e+18,94.195810546875,3.883357098850607,8.863937187966703,-1.577646704417616,1.6904262818578104e+18,94.195810546875,0.1917388230562209,0.9943541407585144,1.103191089630127,1.6904262818640742e+18,94.20207421875,0.202148950099945,1.120860767364502,1.2379662275314331,,,,,,,,,,,,,1.6904262818578104e+18,94.195810546875,12.19006576538086,54.309294891357425,-23.98620147705078,1.69042628186008e+18,94.1980802734375,57.64351501464843,87.15164489746094,94.48250732421874,1.6904262818578104e+18,94.195810546875,-0.629810143096511,0.3545849676733058,-0.4489358015921397,-2.7549910795475743,-0.3168424570633828,0.7564546035660882,-1.1289904502583614
4.25,1.6904262819079089e+18,94.24590883789062,-1.3838309654614327,-3.388068554652333,0.4938037709201872,1.6904262819091628e+18,94.24716279296877,0.2306915283203125,0.6236572265625,-0.1559844970703125,1.6904262819079089e+18,94.24590883789062,3.0605203155896064,9.151840872835516,-1.7185874700155854,1.6904262819079089e+18,94.24590883789062,0.2480913132429122,1.6122763872146606,1.910625171661377,1.6904262819141724e+18,94.25217241210936,0.2579191595315933,1.590014123916626,1.94708149433136,,,,,,,,,,,,,1.6904262819079089e+18,94.24590883789062,7.006289672851563,55.28816909790039,-24.113975524902344,1.690426281912084e+18,94.25008408203124,51.584283447265626,88.21697387695312,94.36268920898438,1.6904262819079089e+18,94.24590883789062,-0.5665535189927023,0.3615664289834021,-0.4672115277224772,-2.626564482509745,-0.354221413911618,0.7246966461733286,-1.204140810070567
4.3,1.6904262819580073e+18,94.29600722656252,5.89624724867016,0.7504940745580195,-1.5976628089731932,1.6904262819592607e+18,94.29726074218748,0.948199462890625,1.1759918212890623,-0.4109130859375,1.6904262819580073e+18,94.29600722656252,2.1084667268547412,9.41268236325562,-1.7550872964429851,1.6904262819580073e+18,94.29600722656252,0.2844108581542969,0.693239089846611,1.3918686270713807,1.6904262819642708e+18,94.30227084960936,0.2421571869403123,0.5292413122951984,1.1930015623569488,,,,,,,,,,,,,1.6904262819580073e+18,94.29600722656252,0.4238288879394531,56.05464401245117,-23.66187286376953,1.690426281964088e+18,94.3020880371094,45.63857421875,88.7937225341797,95.0607696533203,1.6904262819580073e+18,94.29600722656252,-0.4412669827227405,0.364667423239226,-0.4905028826523721,-2.4447699689794886,-0.3896570637460659,0.6888116141500978,-1.2869582697365118
4.35,1.6904262820081052e+18,94.34610512695312,9.049567194701432,4.70917044293046,-3.989062914164364,1.690426282009359e+18,94.34735922851564,1.0199066162109376,1.3544708251953126,-0.5347137451171875,1.6904262820081052e+18,94.34610512695312,1.8516220802119376,9.464443413248656,-1.7777608128656446,1.6904262820081052e+18,94.34610512695312,-0.4385736942291259,-0.5737562611699104,-0.2231211572885513,1.6904262820143688e+18,94.35236875,-0.4949962735176086,-0.6508018255233765,-0.3201546244323253,1.6904262819993047e+18,94.3373046875,76.38169172778726,4.129677116852907,180.0,49.280004214283885,95.563120637089,53.93659334434773,21.576339250396085,1.179963892668283,-122.96824687730428,0.3868327745848218,1.6904262820081052e+18,94.34610512695312,-1.398700714111328,55.86323623657226,-23.348532104492183,1.6904262820160906e+18,94.354090625,45.50938720703125,88.22102355957031,94.88044738769533,1.6904262820081052e+18,94.34610512695312,-0.3713328712044764,0.3589073809146247,-0.4992077690560214,-2.3764943632207194,-0.3954481910783876,0.6823209644636525,-1.3059518200643112
4.4,1.6904262820582034e+18,94.39620341796876,1.6993243465583028,-0.0268619372493029,2.0095399918349086,1.6904262820594573e+18,94.39745727539064,0.2917938232421875,0.9998504638671876,0.132275390625,1.6904262820582034e+18,94.39620341796876,2.0358398236089945,9.403303475726842,-1.8981197736231985,1.6904262820582034e+18,94.39620341796876,0.0314438767731189,-0.0831827983260155,-0.0664579503238201,1.6904262820644672e+18,94.40246713867188,0.1732220105826855,0.0874417960643768,0.0140902012586593,,,,,,,,,,,,,1.6904262820582034e+18,94.39620341796876,0.3745918273925781,54.942440032958984,-23.98844757080078,1.6904262820628918e+18,94.40089184570311,47.15289306640625,87.39031219482422,94.67918395996094,1.6904262820582034e+18,94.39620341796876,-0.359759306355308,0.3491235778706291,-0.4952573652628255,-2.3911829002421356,-0.3884844913483029,0.6941965848092394,-1.2830051055678562
4.45,1.6904262821083018e+18,94.44630190429686,1.1748688030387462,5.294415386194586,5.42108689109981,1.6904262821095557e+18,94.44755541992188,0.3961883544921875,1.518389892578125,0.3061309814453125,1.6904262821083018e+18,94.44630190429686,1.9898462803275885,9.44862893971443,-1.7106428530736266,1.6904262821083018e+18,94.44630190429686,0.6094987988471985,0.1231680534780025,-0.1379044413566589,1.6904262821145654e+18,94.4525654296875,0.5732371628284454,0.0938419163227081,-0.259105758368969,,,,,,,,,,,,,1.6904262821083018e+18,94.44630190429686,0.39561767578125,54.643958282470706,-22.386534118652342,1.69042628210969e+18,94.44768999023438,46.9451416015625,87.29049682617188,96.8285675048828,1.6904262821083018e+18,94.44630190429686,-0.4140643090493238,0.3591630911159396,-0.4984800152989297,-2.431929328039951,-0.3873707761226035,0.6873420523936619,-1.2998001710171914
4.5,1.6904262821584e+18,94.4963998535156,-2.4193697406475243,-2.5654810699772836,-0.6584433627875148,1.690426282159654e+18,94.49765385742188,-0.244873046875,0.5156707763671875,-0.22803955078125,1.6904262821584e+18,94.4963998535156,2.1270971345925327,9.442914419912098,-1.573461293878704,1.6904262821584e+18,94.4963998535156,0.2854923069477081,1.4796756982803343,-0.1627633839845657,1.6904262821646636e+18,94.50266342773438,0.3053418546915054,1.729345726966858,0.0157805070281028,,,,,,,,,,,,,1.6904262821584e+18,94.4963998535156,1.2348472595214843,54.34334487915039,-20.05702667236328,1.69042628216169e+18,94.4996900390625,47.54881591796875,86.85481567382813,98.87783203125,1.6904262821584e+18,94.4963998535156,-0.5170832505774786,0.3763725601349289,-0.4909453580475438,-2.504617919647973,-0.3878970200087623,0.6831726570374966,-1.2975978222560818
4.55,1.6904262822084982e+18,94.54649814453126,-6.509723605518937,-1.1294421875381468,0.996267584349215,1.6904262822097518e+18,94.54775180664062,-0.4368011474609375,1.0154022216796874,-0.0953643798828125,1.6904262822084982e+18,94.54649814453126,1.7842285475750266,9.512021741503476,-1.577729385038912,1.6904262822084982e+18,94.54649814453126,0.4203099429607391,1.5724578857421876,0.7657185912132263,1.6904262822147615e+18,94.55276176757812,0.3816942512989044,1.359436285495758,0.8346003413200378,,,,,,,,,,,,,1.6904262822084982e+18,94.54649814453126,-1.094741058349609,54.356475067138675,-18.439207458496092,1.690426282213691e+18,94.55169091796874,44.479739379882815,87.04277648925782,100.5080322265625,1.6904262822084982e+18,94.54649814453126,-0.5224542317871756,0.4013240283605565,-0.483375231569043,-2.4160549590441556,-0.4187032644668289,0.6555966453229972,-1.325331995760373
4.6,1.6904262822585964e+18,94.59659638671874,-3.696421723218783,0.2175506302261352,-1.8966920789076387,1.6904262822598502e+18,94.59785014648438,-0.16607666015625,0.957958984375,-0.344146728515625,1.6904262822585964e+18,94.59659638671874,1.1714669294799118,9.606039047945735,-1.5722365743893385,1.6904262822585964e+18,94.59659638671874,-0.0988099552690982,0.944405996799469,1.4232354164123535,1.6904262822648602e+18,94.60286000976562,-0.1347961109830066,1.0362586736679078,1.4249933958053589,,,,,,,,,,,,,1.6904262822585964e+18,94.59659638671874,-4.925520324707032,54.15633773803711,-17.27655792236328,1.6904262822656916e+18,94.603691796875,40.16847534179688,86.64382629394531,101.24275817871094,1.6904262822585964e+18,94.59659638671874,-0.3595324869851657,0.4045579689329343,-0.4927519844195202,-2.2058249538853816,-0.4442707354746977,0.6292828018163643,-1.3684749038836632
4.65,1.6904262823086945e+18,94.64669448242188,-0.0674058952748775,0.2033327197813987,1.063122392386496,1.6904262823099484e+18,94.6479484375,-0.0043853759765625,1.00828857421875,-0.0328521728515625,1.6904262823086945e+18,94.64669448242188,0.4393451195268891,9.648148589400648,-1.6892959383057058,1.6904262823086945e+18,94.64669448242188,-0.1127739667892455,1.7344938278198243,1.0970406770706176,1.6904262823149583e+18,94.65295825195312,-0.098026056587696,1.8628437519073489,1.0625039100646974,,,,,,,,,,,,,1.6904262823086945e+18,94.64669448242188,-9.696139526367189,53.52574691772461,-17.060260009765624,1.690426282312493e+18,94.65049298095704,36.01155471801758,86.05773162841797,101.47595596313477,1.6904262823086945e+18,94.64669448242188,-0.0376976573697054,0.4038646179723618,-0.4977544288869794,-1.8237252501000207,-0.4792933823474511,0.5993328887147414,-1.390779630418009
4.7,1.6904262823587927e+18,94.69679282226562,-0.627356238284707,-0.3116770084530115,1.7452320528002083,1.6904262823600463e+18,94.69804643554689,-0.0718231201171875,0.9476837158203124,-0.0011474609375,1.6904262823587927e+18,94.69679282226562,-0.2113326247309404,9.651607322326305,-1.7154539066171648,1.6904262823587927e+18,94.69679282226562,0.0999744970351457,2.1798787355422973,0.8434388995170593,1.6904262823650565e+18,94.70305644531253,0.1507732696831226,2.131459140777588,0.7989781022071838,,,,,,,,,,,,,1.6904262823587927e+18,94.69679282226562,-13.308391571044922,52.99167251586914,-16.3595947265625,1.6904262823592934e+18,94.69729360351565,31.9570068359375,85.4556884765625,102.61308898925782,1.6904262823587927e+18,94.69679282226562,0.2381905089058427,0.4168229785312143,-0.4902801554715165,-1.448263432587347,-0.5198784414727412,0.5615434288169362,-1.3927418497016013
4.75,1.690426282408891e+18,94.74689096679688,0.0826096457257122,-0.6104079091888666,-0.2558775551763176,1.6904262824101448e+18,94.74814477539064,-0.06500244140625,0.9126312255859376,-0.243402099609375,1.690426282408891e+18,94.74689096679688,-0.7014208827159927,9.656659812636375,-1.552732101843804,1.690426282408891e+18,94.74689096679688,0.2910320311784743,1.5672091484069823,0.5863150835037232,1.6904262824151547e+18,94.75315458984376,0.2641075998544692,1.537188673019409,0.5799622774124146,,,,,,,,,,,,,1.690426282408891e+18,94.74689096679688,-16.885092163085936,52.51749038696289,-14.231159973144532,1.6904262824112942e+18,94.74929443359376,28.8617919921875,85.04012145996094,104.87394409179689,1.690426282408891e+18,94.74689096679688,0.4490629229407981,0.4339182894568412,-0.4830387201236469,-1.1462681274442577,-0.5499020878531192,0.5252191857926242,-1.3956759457330166
4.8,1.6904262824589893e+18,94.7969892578125,0.1553363414710759,-0.621097060985565,-1.7396343789236248,1.6904262824602432e+18,94.79824321289064,-0.1010040283203125,0.929925537109375,-0.277276611328125,1.6904262824589893e+18,94.7969892578125,-1.093833464731574,9.642119713726045,-1.4107158744210004,1.6904262824589893e+18,94.7969892578125,0.0642858155071735,1.3900386452674869,0.6085119366645813,1.6904262824652529e+18,94.80325283203126,0.081148700043559,1.3056187629699707,0.6257039308547974,,,,,,,,,,,,,1.6904262824589893e+18,94.7969892578125,-19.237495040893556,52.030513763427734,-12.286973571777343,1.6904262824632978e+18,94.80129775390624,26.621212768554688,84.49165649414063,106.63381958007812,1.6904262824589893e+18,94.7969892578125,0.6096948507377284,0.4458221297074843,-0.4760204469143742,-0.91277362113867,-0.5736922911813875,0.4953803360350867,-1.3874210515267795
4.85,1.6904262825090875e+18,94.84708754882811,1.0163137917821108,-0.2704952201414107,0.0778398886536806,1.6904262825103414e+18,94.84834135742187,-0.0316375732421875,0.9542449951171876,-0.1238525390625,1.6904262825090875e+18,94.84708754882811,-1.4826144926182925,9.612370238341688,-1.248215471926406,1.6904262825090875e+18,94.84708754882811,0.3864542156457901,0.8009476900100708,0.6913633227348328,1.690426282515351e+18,94.853351171875,0.4319855570793152,0.8010024189949035,0.7012376904487609,,,,,,,,,,,,,1.6904262825090875e+18,94.84708754882811,-21.45367851257324,51.30530319213867,-10.617684936523435,1.690426282515303e+18,94.85330283203126,24.482241821289065,83.72212219238281,108.40039672851564,1.6904262825090875e+18,94.84708754882811,0.7729956388836984,0.4508037346404673,-0.475466248636004,-0.7009981741446584,-0.5911934936396044,0.4702502569708209,-1.371451401047153
4.9,1.6904262825591857e+18,94.89718564453123,0.8415483518631757,-0.2802165205931662,-0.3922786753571778,1.6904262825604396e+18,94.8984396484375,-0.15120849609375,0.9486785888671876,-0.138409423828125,1.6904262825591857e+18,94.89718564453123,-1.9145695347732303,9.573010755473376,-0.9083114484159648,1.6904262825591857e+18,94.89718564453123,0.7587489604949951,0.6834939122200012,1.0088036775588989,1.6904262825654492e+18,94.90344941406252,0.7956814765930176,0.6477164030075073,1.0628557205200195,,,,,,,,,,,,,1.6904262825591857e+18,94.89718564453123,-23.687610244750974,50.43816604614258,-8.270005798339843,1.6904262825621028e+18,94.90010278320312,22.311908721923828,82.9192008972168,110.6762237548828,1.6904262825591857e+18,94.89718564453123,0.9938338564019924,0.4544882164397498,-0.484462324969686,-0.4460875609006896,-0.6024000605350895,0.4424304276398415,-1.3522361093613744
4.95,1.6904262826092838e+18,94.947283984375,1.1260343664690853,0.268053555303812,-1.9984625421468911,1.6904262826105375e+18,94.94853779296876,-0.0906280517578125,1.0132080078125,-0.2750274658203125,1.6904262826092838e+18,94.947283984375,-2.4488606820000705,9.482631863985656,-0.4707673029366507,1.6904262826092838e+18,94.947283984375,0.691300916671753,0.4637366890907287,0.9737194657325744,1.6904262826155474e+18,94.95354755859374,0.6334018230438232,0.4710690975189209,0.890196430683136,,,,,,,,,,,,,1.6904262826092838e+18,94.947283984375,-26.07880401611328,49.25021591186523,-5.774835205078125,1.690426282608903e+18,94.94690292968752,19.90760498046875,81.61324768066406,113.13285217285156,1.6904262826092838e+18,94.947283984375,1.226903854038876,0.4532600159329765,-0.501919462404419,-0.1923555263573279,-0.6106633995036977,0.411871552426349,-1.3132824407380108
5.0,1.690426282659382e+18,94.99738212890624,2.734144393628836,1.806485709055662,-2.840084543768167,1.690426282660636e+18,94.99863593749998,-0.0200439453125,1.161712646484375,-0.31351318359375,1.690426282659382e+18,94.99738212890624,-2.7099328539839385,9.422649045996666,-0.193757990020113,1.690426282659382e+18,94.99738212890624,0.204778582509607,0.5871044993400574,0.0699190847575664,1.6904262826656456e+18,95.00364575195312,0.1474254086613655,0.6274349451065063,-0.0120901614427566,,,,,,,,,,,,,1.690426282659382e+18,94.99738212890624,-27.54497184753418,48.25266036987305,-4.106993103027344,1.690426282660907e+18,94.99890703125,18.897982788085937,80.7397674560547,114.7133575439453,1.690426282659382e+18,94.99738212890624,1.3259960518192568,0.4559942314843919,-0.5084172879068662,-0.0714006470254036,-0.6161802807419647,0.3922797401446561,-1.2900302347518815
5.05,1.6904262827094804e+18,95.04748037109376,2.764472194970846,2.119861688833237,-2.7147279208537936,1.6904262827107343e+18,95.048734375,0.0353759765625,1.2008392333984377,-0.3044158935546875,1.6904262827094804e+18,95.04748037109376,-2.6122008524805307,9.45152407663405,-0.0996561872854362,1.6904262827094804e+18,95.04748037109376,-0.1057662159204482,0.5158067546784878,-0.5152994245290756,1.6904262827157435e+18,95.0537439453125,-0.111776278913021,0.3880688995122909,-0.605145251750946,,,,,,,,,,,,,1.6904262827094804e+18,95.04748037109376,-27.103116607666017,47.84843978881836,-3.3164520263671875,1.6904262827129073e+18,95.050907421875,19.71688232421875,80.44377136230469,115.16156311035157,1.6904262827094804e+18,95.04748037109376,1.3262930494527274,0.4678042707883829,-0.4988862157100175,-0.0380930978363011,-0.6199057221307169,0.3846516586981857,-1.300961261320046
5.1,1.6904262827595786e+18,95.09757861328126,2.396610533315837,2.2502306454038616,-5.748240577886999,1.6904262827608325e+18,95.09883237304686,0.018743896484375,1.18438720703125,-0.6296600341796875,1.6904262827595786e+18,95.09757861328126,-2.1708073600162563,9.558600303518176,-0.2120946152295171,1.6904262827595786e+18,95.09757861328126,-0.3705434262752533,-1.0453283727169036,-1.3903329849243165,1.6904262827658424e+18,95.10384233398436,-0.4325724005699157,-1.2361781239509582,-1.5379846334457397,,,,,,,,,,,,,1.6904262827595786e+18,95.09757861328126,-24.81697616577149,47.67248001098633,-4.051425170898438,1.6904262827649093e+18,95.10290922851564,22.772161865234377,80.27667541503907,113.76030578613282,1.6904262827595786e+18,95.09757861328126,1.2721263053385978,0.4774744505299919,-0.4894616483450914,-0.1014433596818984,-0.6091477474172129,0.4015229321440919,-1.3462089220093023
5.15,1.6904262828096768e+18,95.14767675781248,2.8734750644555684,1.7260235821396113,-1.5027221771409365,1.6904262828109307e+18,95.14893061523438,0.17774658203125,1.1622711181640626,-0.095623779296875,1.6904262828096768e+18,95.14767675781248,-1.1122103945519028,9.713172674879432,-0.6242865704353526,1.6904262828096768e+18,95.14767675781248,-0.6934868812561035,-1.972275471687317,-2.8795085906982423,1.6904262828159404e+18,95.1539404296875,-0.702104651927948,-1.9134246826171877,-3.01975531578064,,,,,,,,,,,,,1.6904262828096768e+18,95.14767675781248,-19.404743576049803,47.81394882202149,-7.352659606933594,1.6904262828117135e+18,95.14971362304688,28.40838623046875,80.5371322631836,110.42350387573242,1.6904262828096768e+18,95.14767675781248,0.8797322105301977,0.4822937927404315,-0.4779538859274532,-0.5721278746212249,-0.5727406013791525,0.4585352895687307,-1.435820581293545
5.2,1.690426282859775e+18,95.19777504882812,-2.412004680812452,2.5812837361693384,1.3116684940831362,1.6904262828610289e+18,95.19902895507812,-0.2338043212890625,1.301055908203125,-0.0188262939453125,1.690426282859775e+18,95.19777504882812,0.4281095603209733,9.735387780010104,-1.018977107320279,1.690426282859775e+18,95.19777504882812,-0.7732190489768982,-0.9263388872146606,-2.8095402240753176,1.6904262828660383e+18,95.20403857421874,-0.7832599639892578,-0.8017076134681702,-2.709298610687256,,,,,,,,,,,,,1.690426282859775e+18,95.19777504882812,-11.812517166137695,47.79734115600586,-10.386167907714844,1.6904262828585165e+18,95.19651660156252,35.44819030761719,80.3832275390625,107.80160522460938,1.690426282859775e+18,95.19777504882812,-0.3860352392325635,0.4971973423786096,-0.4490562411816285,-1.9067634681364785,-0.5256455059279567,0.5238076319810826,-1.452506543062535
5.25,1.6904262829098734e+18,95.24787333984376,-3.1315992879670858,2.655141700966954,0.2168986252842843,1.690426282911127e+18,95.24912705078124,-0.1229278564453125,1.171832275390625,-0.0936309814453125,1.6904262829098734e+18,95.24787333984376,1.6589560665866732,9.560165302425622,-1.3833836308592558,1.6904262829098734e+18,95.24787333984376,-0.823036789894104,-0.526261568069458,-2.186150550842285,1.690426282916137e+18,95.25413696289064,-0.8118640065193177,-0.5808017611503601,-2.1344698429107667,,,,,,,,,,,,,1.6904262829098734e+18,95.24787333984376,-6.922821807861328,47.11691818237305,-12.280397033691406,1.6904262829105196e+18,95.24851958007812,40.90451354980469,79.45263061523437,105.58313293457032,1.6904262829098734e+18,95.24787333984376,-0.8925625633542802,0.5109403526548316,-0.4126941321242142,-2.438720930340235,-0.4949209176842883,0.5686752137602367,-1.3482523292182855
5.3,1.6904262829599713e+18,95.29797138671874,-3.606428513886928,0.4747007480084895,0.2513335404580831,1.6904262829612252e+18,95.299225390625,-0.1003143310546875,0.98140869140625,-0.1986907958984375,1.6904262829599713e+18,95.29797138671874,2.647491186213791,9.294689488655328,-1.6438311242996153,1.6904262829599713e+18,95.29797138671874,-0.7610280275344848,-1.3808264017105103,-1.5991433620452882,1.690426282966235e+18,95.3042349609375,-0.7774646639823913,-1.4471982717514038,-1.4899783611297608,,,,,,,,,,,,,1.6904262829599713e+18,95.29797138671874,-2.655342864990234,46.0986930847168,-14.26158447265625,1.6904262829625236e+18,95.30052373046874,44.81434631347656,78.46719665527344,103.71353149414062,1.6904262829599713e+18,95.29797138671874,-0.9940283870665476,0.513528135079439,-0.3868932368228897,-2.5837729761956316,-0.4639108643950161,0.6092046639189233,-1.2471698895830412
5.35,1.6904262830100698e+18,95.34806962890625,-3.834182324410676,-0.9773500594592092,-1.3118293252810835,1.6904262830113234e+18,95.34932353515626,-0.05926513671875,0.7956268310546875,-0.2962860107421875,1.6904262830100698e+18,95.34806962890625,3.3503444471269845,9.037998571269512,-1.7963832711057364,1.6904262830100698e+18,95.34806962890625,-0.9593612790107728,-1.7729911088943482,-0.920894730091095,1.6904262830163333e+18,95.35433334960938,-0.968031132221222,-1.8586978673934935,-0.8509749889373779,1.690426282999297e+18,95.33729711914064,76.54962314572185,3.6280451791704738,180.0,49.280027567106075,95.7310520550236,53.93659449075168,10.437134760043064,1.17486074982428,-122.96825681980602,0.3531301833063818,1.6904262830100698e+18,95.34806962890625,0.4065757751464843,45.00091171264648,-16.185273742675783,1.6904262830145275e+18,95.35252753906248,47.64909362792969,77.2849334716797,101.690576171875,1.6904262830100698e+18,95.34806962890625,-0.9791133685281548,0.4988813624892469,-0.377981506724003,-2.6489568308594547,-0.4315462601601781,0.6494385872317553,-1.1726216522521178
5.4,1.690426283060168e+18,95.39816796875,-5.105689868436455,-1.5218331349372862,-0.0608886807875334,1.6904262830614216e+18,95.39942158203124,-0.1285064697265625,0.7379364013671875,-0.1746185302734375,1.690426283060168e+18,95.39816796875,3.8144067798388,8.841176256295443,-1.8559089345248043,1.690426283060168e+18,95.39816796875,-0.9984692811965944,-2.285648536682129,-0.2290018439292907,1.6904262830664315e+18,95.404431640625,-0.9996309518814088,-2.266318416595459,-0.1214417941868305,,,,,,,,,,,,,1.690426283060168e+18,95.39816796875,2.6269134521484374,43.678052520751955,-18.132095336914062,1.690426283061333e+18,95.39933306884764,49.391265869140625,76.10243225097656,100.01874923706056,1.690426283060168e+18,95.39816796875,-0.9073410334531852,0.4688773059018515,-0.3831338368541964,-2.6885820558992863,-0.3982807228691207,0.6887777168166176,-1.1234272872560689
5.45,1.690426283110266e+18,95.44826611328126,-4.700287463772893,-2.0668152752047773,1.762908929979354,1.69042628311152e+18,95.44952006835938,-0.070477294921875,0.6858428955078125,0.01422119140625,1.690426283110266e+18,95.44826611328126,3.907925898274481,8.799908660170436,-1.859455141151249,1.690426283110266e+18,95.44826611328126,-0.8695056796073913,-1.9016936540603635,0.7461843907833099,1.6904262831165297e+18,95.45452973632813,-0.8275707483291626,-1.7892399787902833,0.8683011710643769,,,,,,,,,,,,,1.690426283110266e+18,95.44826611328126,3.2808158874511717,42.472913360595705,-20.124656677246097,1.6904262831081354e+18,95.446135546875,49.75166931152344,75.016650390625,98.1964874267578,1.690426283110266e+18,95.44826611328126,-0.7971685535395033,0.4286439659897468,-0.4025356049610684,-2.6974292838544107,-0.3723386397855939,0.7178711875774384,-1.1137284236950928
5.5,1.6904262831603643e+18,95.49836440429688,-3.294148746461272,-1.710066368359923,3.0064442374263702,1.6904262831616182e+18,95.4996181640625,0.067523193359375,0.7460479736328125,0.1341522216796875,1.6904262831603643e+18,95.49836440429688,3.525667988546192,8.95324500154376,-1.8839826441036167,1.6904262831603643e+18,95.49836440429688,-0.3414460986852646,-0.7422609031200409,1.4105985403060912,1.6904262831666278e+18,95.50462788085936,-0.2597130674868821,-0.5816170603036881,1.426772165298462,,,,,,,,,,,,,1.6904262831603643e+18,95.49836440429688,2.0241905212402345,41.78054580688477,-21.535975646972656,1.6904262831601377e+18,95.49813779296876,47.841217041015625,74.37206115722657,96.71661987304688,1.6904262831603643e+18,95.49836440429688,-0.669260283196279,0.3924086589041811,-0.4315583521146594,-2.650123204573875,-0.3659560585155729,0.7250599800102965,-1.1507954569052568
5.55,1.6904262832104627e+18,95.54846254882813,-0.2079029210802912,-1.0000414330255984,3.258768571713566,1.6904262832117164e+18,95.54971635742189,0.30758056640625,0.8913116455078125,0.1328338623046875,1.6904262832104627e+18,95.54846254882813,2.9154454897007342,9.170134303703904,-1.8829104556013645,1.6904262832104627e+18,95.54846254882813,0.170522009092383,0.2734334712848067,1.276422905921936,1.6904262832167265e+18,95.55472641601564,0.2289104655385017,0.2829220317304134,1.2489644050598143,,,,,,,,,,,,,1.6904262832104627e+18,95.54846254882813,-1.2291282653808593,41.556853485107425,-22.06421356201172,1.690426283212142e+18,95.55014223632811,44.30234069824219,74.099755859375,96.47088623046876,1.6904262832104627e+18,95.54846254882813,-0.5705122048560055,0.3766963182196715,-0.4574000406853925,-2.5670390234971925,-0.3769380278150216,0.711838313246951,-1.2088791719358345
5.6,1.690426283260561e+18,95.59856098632812,3.8481231714797017,2.056994021509886,0.4904800333249568,1.6904262832618143e+18,95.59981455078125,0.71287841796875,1.1777862548828124,-0.21610107421875,1.690426283260561e+18,95.59856098632812,2.410948066165298,9.348533307045695,-1.7163112833249567,1.690426283260561e+18,95.59856098632812,0.4178545653820038,-0.7221399307250976,0.823880398273468,1.6904262832668247e+18,95.60482456054687,0.389690288901329,-0.867334508895874,0.723445200920105,,,,,,,,,,,,,1.690426283260561e+18,95.59856098632812,-4.353768157958984,41.39140701293945,-21.568402099609376,1.690426283264147e+18,95.60214702148436,41.59927978515625,74.07330932617188,97.10101013183592,1.690426283260561e+18,95.59856098632812,-0.5197593797002782,0.3712452557531554,-0.4808057583651178,-2.523111939793513,-0.3818907050813659,0.6964836585648255,-1.264202618448775
5.65,1.690426283310659e+18,95.648658984375,4.639968837958276,1.9784846653228996,-4.188634118681252,1.690426283311913e+18,95.64991298828126,0.6830047607421875,1.1318267822265624,-0.6252685546875,1.690426283310659e+18,95.648658984375,2.3045024214957652,9.406182596746683,-1.5430846849589048,1.690426283310659e+18,95.648658984375,-0.3488080874085426,-0.8428950786590577,-0.0761273175477981,1.6904262833169226e+18,95.65492255859375,-0.4874539658427238,-0.7679813385009766,-0.1782639570534229,,,,,,,,,,,,,1.690426283310659e+18,95.648658984375,-5.224192047119141,41.32284774780273,-21.335490417480468,1.6904262833161536e+18,95.65415341796874,41.33192749023438,73.86270446777344,96.84283752441408,1.690426283310659e+18,95.648658984375,-0.498583759012544,0.3577510708823551,-0.4977937825850138,-2.5516179956025464,-0.3670051579059817,0.6996291860805942,-1.2840673699111609
5.7,1.6904262833607572e+18,95.698757421875,2.17751787589252,-1.3664545909857748,-2.9351187721680105,1.690426283362011e+18,95.70001098632812,0.3669952392578125,0.7650238037109375,-0.4133056640625,1.6904262833607572e+18,95.698757421875,2.4640910135838388,9.319064752881529,-1.801180734515339,1.6904262833607572e+18,95.698757421875,-0.8440484881401062,-0.6661059409379959,0.0460212174803018,1.6904262833620111e+18,95.70001123046876,-0.8627966791391373,-0.7047695443034172,0.068540709093213,,,,,,,,,,,,,1.6904262833607572e+18,95.698757421875,-4.960453796386719,40.48051986694336,-22.93625335693359,1.6904262833629573e+18,95.70095721435548,41.47599792480469,72.87297821044922,95.18707656860352,1.6904262833607572e+18,95.698757421875,-0.4170993457358211,0.3373870984631963,-0.4938046938004475,-2.5108129969053548,-0.3612780918395909,0.7153576476149857,-1.254215914317589
5.75,1.6904262834108554e+18,95.74885561523438,-1.8254232245942947,2.2537770566129685,3.094311642936766,1.6904262834121093e+18,95.750109375,0.1448272705078125,1.355126953125,0.2366485595703125,1.6904262834108554e+18,95.74885561523438,2.223040966731012,9.346430431095362,-1.964188516623229,1.6904262834108554e+18,95.74885561523438,0.2631401941180229,0.2799797922372818,0.6486468136310577,1.6904262834070994e+18,95.745099609375,0.165274703502655,0.3213736549019813,0.7113815069198608,,,,,,,,,,,,,1.6904262834108554e+18,95.74885561523438,-6.468045806884765,39.64345474243164,-23.86460723876953,1.6904262834097613e+18,95.747761328125,39.775265502929685,72.28488159179688,94.6974884033203,1.6904262834108554e+18,95.74885561523438,-0.3142807763722003,0.3247790973746978,-0.5006707927221428,-2.417342010326979,-0.368731584518338,0.7126298424987537,-1.2633967838347906
5.8,1.6904262834609536e+18,95.798953515625,1.866641428619623,3.988526849139333,2.5680773700807986,1.690426283462207e+18,95.80020717773436,0.2686614990234375,1.148687744140625,-0.0097564697265625,1.6904262834609536e+18,95.798953515625,2.2391151725669203,9.410832117666006,-1.602316246189177,1.6904262834609536e+18,95.798953515625,0.915355384349823,-0.6243332505226136,-0.371620699763298,1.6904262834571976e+18,95.79519755859374,0.9005220651626586,-0.6480587720870972,-0.3848041325807571,,,,,,,,,,,,,1.6904262834609536e+18,95.798953515625,-7.253973388671875,40.11272811889648,-22.588473510742187,1.6904262834617656e+18,95.7997658203125,39.43543701171875,73.04164428710938,96.49779357910155,1.6904262834609536e+18,95.798953515625,-0.4067758555092856,0.3331879533508506,-0.5098704027126498,-2.520990061479972,-0.3546939216744597,0.709321402781727,-1.2857249831259026
5.85,1.6904262835110515e+18,95.84905141601564,-8.235894837887884,-3.784718679252862,-2.157580360305011,1.6904262835123054e+18,95.85030546875,-0.7256317138671875,0.7244720458984375,-0.42860107421875,1.6904262835110515e+18,95.84905141601564,2.178145623175949,9.494320898926857,-1.1200817124488949,1.6904262835110515e+18,95.84905141601564,0.8166056662797928,0.0474102288484573,0.8464212268590927,1.6904262835072955e+18,95.84529545898438,0.8836822748184204,0.0805396392941474,0.7379226803779602,,,,,,,,,,,,,1.6904262835110515e+18,95.84905141601564,-7.226142120361328,41.02610702514649,-20.175251770019532,1.6904262835137695e+18,95.85176977539064,38.68714599609375,73.80224609375,98.89196472167968,1.6904262835110515e+18,95.84905141601564,-0.5498453154899655,0.3468281101684417,-0.5226031590849344,-2.6677703279213674,-0.3402843932993503,0.7005165213621221,-1.3182711705364212
5.9,1.69042628356115e+18,95.89914985351564,-6.159441293565779,0.88467306171,-4.487713277558982,1.6904262835624033e+18,95.90040341796876,-0.3365234375,1.0152862548828123,-0.452886962890625,1.69042628356115e+18,95.89914985351564,1.4886230707702786,9.639997197840213,-0.9781892429231852,1.69042628356115e+18,95.89914985351564,-0.2696686312556266,-1.2836879253387452,1.9827260971069336,1.690426283557394e+18,95.89539384765624,-0.2331759434193372,-1.226597535610199,1.9395980834960935,,,,,,,,,,,,,1.69042628356115e+18,95.89914985351564,-10.009452056884763,40.76638565063477,-19.32905731201172,1.6904262835657748e+18,95.90377475585936,35.59324645996094,73.08166198730468,98.9068359375,1.69042628356115e+18,95.89914985351564,-0.3991598207621712,0.3291824537371329,-0.5552394301593008,-2.5501338685520425,-0.3400852721417213,0.6836547553479436,-1.3874184048336582
5.95,1.690426283611248e+18,95.94924794921876,1.887564024334773,0.2912377977275848,2.317497599825561,1.6904262836125018e+18,95.95050185546874,0.3130462646484375,1.019146728515625,0.1903778076171875,1.690426283611248e+18,95.94924794921876,0.6555868700713291,9.721612586444616,-1.0951678843665866,1.690426283611248e+18,95.94924794921876,-0.3404436022043228,0.259029233455658,1.1791155517101288,1.690426283607492e+18,95.94549204101564,-0.3490002870559692,0.102837860584259,1.3049135565757752,,,,,,,,,,,,,1.690426283611248e+18,95.94924794921876,-13.287501907348632,39.47016220092773,-20.22975769042969,1.6904262836125793e+18,95.95057916259766,32.58686447143555,71.89176177978516,98.11182403564452,1.690426283611248e+18,95.94924794921876,0.0875167119762637,0.2978471438836862,-0.5885371869319295,-2.1055041282685245,-0.346625231344565,0.6668394559188964,-1.4391120496461067
6.0,1.690426283661346e+18,95.99934609375,-0.8923168544614315,-0.0905275938564539,1.8447676696594804,1.6904262836626e+18,96.00060004882812,-0.12674560546875,0.9829803466796876,-0.0094085693359375,1.690426283661346e+18,95.99934609375,0.2503714082945044,9.727398885535,-1.2131772132580727,1.690426283661346e+18,95.99934609375,-0.0560420349240303,0.9029854893684388,0.6990230202674865,1.69042628365759e+18,95.99558994140624,-0.0802875392138957,0.9707223773002625,0.6666774034500123,,,,,,,,,,,,,1.690426283661346e+18,95.99934609375,-15.87554473876953,38.592098236083984,-20.063743591308594,1.690426283659385e+18,95.99738510742188,30.424847412109376,71.17741394042969,98.46724243164064,1.690426283661346e+18,95.99934609375,0.3806728491909305,0.3000869375992127,-0.5926393728296608,-1.7734843442718096,-0.3687433499638562,0.6501382800179786,-1.4435829248094945
6.05,1.6904262837114445e+18,96.04944443359376,0.4939418057644366,-1.1094243001908064,-1.136427136441618,1.690426283712698e+18,96.05069809570313,0.01871337890625,0.8620849609375,-0.2601806640625,1.6904262837114445e+18,96.04944443359376,-0.120985107798145,9.736152451546191,-1.164520252147168,1.6904262837114445e+18,96.04944443359376,0.2133242070674896,-0.2381311684846878,0.634160840511322,1.6904262837076884e+18,96.04568842773438,0.2118891358375549,-0.200443884730339,0.6467375874519348,,,,,,,,,,,,,1.6904262837114445e+18,96.04944443359376,-17.59292526245117,38.09561538696289,-19.345674133300783,1.690426283711393e+18,96.04939296875,28.57297668457031,70.63598327636718,99.25279846191408,1.6904262837114445e+18,96.04944443359376,0.6762163931829452,0.2992120008022725,-0.6032068052510132,-1.4659554569805349,-0.3772181355326005,0.6358420700056906,-1.4508411662430698
6.1,1.690426283761543e+18,96.09954262695314,-1.984866241505742,-0.6946227835410832,-0.7108790679456292,1.6904262837627963e+18,96.10079638671876,-0.24261474609375,0.939251708984375,-0.1459869384765625,1.690426283761543e+18,96.09954262695314,-0.4862193802057951,9.735397833786609,-1.0658578379258512,1.690426283761543e+18,96.09954262695314,0.2341847985982894,-0.1327219918370246,0.9970896482467652,1.6904262837577866e+18,96.09578666992188,0.2219439566135406,-0.1247564733028411,0.96827392578125,,,,,,,,,,,,,1.690426283761543e+18,96.09954262695314,-19.114536666870116,37.55361404418945,-18.962083435058595,1.6904262837634002e+18,96.10140014648437,26.85382995605469,69.98909301757813,99.62532348632811,1.690426283761543e+18,96.09954262695314,1.0086908491910314,0.2921811889080973,-0.6188090369314079,-1.1457691758263835,-0.3766119671694597,0.6243507179370121,-1.450217139772802
6.15,1.6904262838116408e+18,96.14964086914064,-0.2277280038823186,-0.550193386722803,0.2324595916749537,1.6904262838128947e+18,96.15089462890624,-0.1402008056640625,0.9302276611328124,-0.0444061279296875,1.6904262838116408e+18,96.14964086914064,-1.0046573000971226,9.712923200936912,-0.8894882361328602,1.6904262838116408e+18,96.14964086914064,0.5445377290248871,-0.0993016198277473,1.1313722133636477,1.6904262838078848e+18,96.14588486328124,0.518093329668045,-0.1011510103940963,1.1200868844985965,,,,,,,,,,,,,1.6904262838116408e+18,96.14964086914064,-21.0744270324707,36.73991928100586,-18.13732452392578,1.6904262838154084e+18,96.15340849609376,24.726156616210936,69.16820068359375,100.70657958984376,1.6904262838116408e+18,96.14964086914064,1.4341127926174713,0.2856821583757357,-0.639855618195584,-0.730328143881567,-0.376518038024885,0.6059092933736239,-1.4325938225743946
6.2,1.690426283861739e+18,96.19973896484376,-0.5359992955450713,-0.1536163273584842,0.5983173296290263,1.690426283862993e+18,96.20099287109376,-0.2075469970703125,0.9869964599609377,-0.0125640869140625,1.690426283861739e+18,96.19973896484376,-1.626712991594821,9.653029697892666,-0.536816325629428,1.690426283861739e+18,96.19973896484376,0.859378182888031,0.1490149814635514,1.416652226448059,1.690426283857983e+18,96.19598291015625,0.8524492144584656,0.1240184042602777,1.4110739469528195,,,,,,,,,,,,,1.690426283861739e+18,96.19973896484376,-23.75031089782715,35.87604293823242,-16.564350891113282,1.6904262838622136e+18,96.20021356201173,22.227325439453125,68.32381820678711,102.26779174804688,1.690426283861739e+18,96.19973896484376,1.8419790144150048,0.28425037854825,-0.6658024293596072,-0.3278033213664023,-0.3736078307271249,0.579812380136493,-1.3942212128726372
6.25,1.6904262839118372e+18,96.24983740234374,2.2988951322340965,0.8944473198449611,-1.2149259420084952,1.690426283913091e+18,96.25109106445312,0.040057373046875,1.0834259033203124,-0.1699737548828125,1.6904262839118372e+18,96.24983740234374,-2.2254530547609925,9.548670562560558,-0.1244802953675971,1.6904262839118372e+18,96.24983740234374,0.665371572971344,0.3491627514362335,0.852575010061264,1.6904262839080814e+18,96.24608144531253,0.6879948019981384,0.361644434928894,0.931004410982132,,,,,,,,,,,,,1.6904262839118372e+18,96.24983740234374,-26.414915466308592,34.878624725341794,-14.316740417480467,1.6904262839090176e+18,96.24701762695312,19.88494873046875,67.462353515625,104.32093811035156,1.6904262839118372e+18,96.24983740234374,2.1012144465088363,0.2891366446822517,-0.6885503588411864,-0.0583523932891476,-0.3732894285016992,0.5503511696728398,-1.3412125105933324
6.3,1.6904262839619354e+18,96.29993549804688,1.7774427452793715,1.5201809253638985,-3.6658282712909576,1.6904262839631895e+18,96.30118940429688,-0.0798431396484375,1.1312835693359375,-0.36845703125,1.6904262839619354e+18,96.29993549804688,-2.4316880718551572,9.49931142991662,0.1351887779425084,1.6904262839619354e+18,96.29993549804688,0.2239843107759952,0.2621789276599883,0.1540689993649721,1.6904262839581793e+18,96.29617944335938,0.2609873339533805,0.2880466490983963,0.1836140394210815,,,,,,,,,,,,,1.6904262839619354e+18,96.29993549804688,-27.60033836364746,34.422264862060544,-12.585220336914062,1.690426283961023e+18,96.29902294921877,18.812704467773436,66.99089660644532,106.05501708984374,1.6904262839619354e+18,96.29993549804688,2.2020976286428295,0.2969088949184642,-0.696522530044531,0.0553796087366971,-0.3726088047954102,0.5365222715587491,-1.3197920675151944
6.35,1.6904262840120338e+18,96.35003383789063,1.4259804005353154,2.749859732250571,-4.378621210033893,1.6904262840132874e+18,96.35128745117188,-0.1187286376953125,1.25855712890625,-0.470526123046875,1.6904262840120338e+18,96.35003383789063,-2.4128403973309696,9.50393382902026,0.1458523203739151,1.6904262840120338e+18,96.35003383789063,-0.1069086022675036,-0.5634093925356864,-0.2832660526037215,1.6904262840082778e+18,96.34627783203123,-0.0807178547605872,-0.4757820349186659,-0.2387079760432243,1.6904262839992906e+18,96.33729052734375,76.33728809747845,3.46523440400282,180.0,49.280056246315624,95.5187170067802,53.93659645640233,8.430050995340034,1.1503892907937263,-122.96826811714838,0.4074985469373571,1.6904262840120338e+18,96.35003383789063,-27.780766677856445,34.23842849731445,-11.821060180664062,1.6904262840130284e+18,96.35102836914062,18.86794128417969,66.99275512695313,106.62937927246094,1.6904262840120338e+18,96.35003383789063,2.2110515258015613,0.2964935825527163,-0.6969401775618047,0.0601637344350059,-0.3705266105512735,0.537637816637622,-1.3217135487175249
6.4,1.690426284062132e+18,96.40013198242188,1.8731391493019465,2.8432919322812555,-4.193199789935499,1.690426284063386e+18,96.40138588867188,0.0264678955078125,1.2567352294921874,-0.371368408203125,1.690426284062132e+18,96.40013198242188,-2.055906840021163,9.585578093006012,-0.1143578827520645,1.690426284062132e+18,96.40013198242188,-0.5105603635311127,-1.3567906141281127,-1.3296297073364258,1.690426284058376e+18,96.39637602539062,-0.4779185831546783,-1.3255629777908324,-1.230702018737793,,,,,,,,,,,,,1.690426284062132e+18,96.40013198242188,-26.403551864624024,34.83985977172851,-12.68944854736328,1.6904262840650312e+18,96.40303125,20.880532836914064,67.82120056152344,105.35648498535156,1.690426284062132e+18,96.40013198242188,2.139445962598043,0.2812824442302218,-0.6911838781007454,-0.0607256040676335,-0.3564270095511267,0.5620553144490849,-1.3588400586880522
6.45,1.6904262841122304e+18,96.4502302734375,2.970759088382721,0.7931049019855261,1.0410082926383617,1.690426284113484e+18,96.451483984375,0.1865814208984375,1.045513916015625,0.0987091064453125,1.6904262841122304e+18,96.4502302734375,-1.0852653455964103,9.72459294665575,-0.5322404325486347,1.6904262841122304e+18,96.4502302734375,-0.7004072904586792,-1.3148038625717162,-2.493634557723999,1.690426284108474e+18,96.44647421875,-0.6913552165031434,-1.3287097930908205,-2.4310593605041504,,,,,,,,,,,,,1.6904262841122304e+18,96.4502302734375,-22.357885360717773,36.52456130981445,-14.44306640625,1.6904262841118356e+18,96.44983575439451,25.073043823242188,69.53048324584961,103.6627082824707,1.6904262841122304e+18,96.4502302734375,1.7612722896067057,0.2650367089452859,-0.6663769983009934,-0.5045311083153894,-0.3333498723306451,0.6116744754048721,-1.444049408181515
6.5,1.6904262841623283e+18,96.50032841796876,-1.076019458717108,1.1078296075713634,0.2024668382801115,1.6904262841635825e+18,96.501582421875,-0.15050048828125,1.1371826171875,-0.1395416259765625,1.6904262841623283e+18,96.50032841796876,0.2438849350919807,9.75158137444198,-0.9328777636218072,1.6904262841623283e+18,96.50032841796876,-0.7951952219009399,-0.8452452898025513,-2.5668930530548097,1.6904262841585723e+18,96.4965724609375,-0.7961813926696777,-0.8695523977279663,-2.603624773025513,,,,,,,,,,,,,1.6904262841623283e+18,96.50032841796876,-16.6299259185791,38.57321853637696,-16.218507385253908,1.6904262841586422e+18,96.49664223632811,30.318310546875,71.36036987304688,102.12586059570312,1.6904262841623283e+18,96.50032841796876,0.5488919772966588,0.2564221883538841,-0.6249505227427674,-1.765499351200436,-0.3111608175492585,0.6681785086171139,-1.4664380413053235
6.55,1.6904262842124268e+18,96.55042680664062,-3.910995573430359,0.9940690221655368,-0.5524301620250195,1.6904262842136806e+18,96.55168041992188,-0.2273284912109375,1.0530609130859374,-0.1412200927734375,1.6904262842124268e+18,96.55042680664062,1.377331520439535,9.619127194482088,-1.288022493979558,1.6904262842124268e+18,96.55042680664062,-0.8417619585990905,-0.902438712120056,-1.897021484375,1.690426284208671e+18,96.54667084960938,-0.8285040378570556,-0.8663500905036926,-1.9416670083999632,,,,,,,,,,,,,1.6904262842124268e+18,96.55042680664062,-11.5013427734375,39.635529327392575,-17.900462341308593,1.6904262842106465e+18,96.54864638671874,35.34447021484375,72.31982421875,100.42960205078126,1.6904262842124268e+18,96.55042680664062,-0.0305799540338854,0.2473691338077897,-0.5852846505742917,-2.3807699317775937,-0.2951352458016824,0.7133662847316473,-1.376844321306086
6.6,1.690426284262525e+18,96.60052490234376,-2.2553926751160622,1.1314921058052778,0.7756517797857523,1.6904262842637788e+18,96.60177890625,0.0186737060546875,1.07352294921875,-0.131005859375,1.690426284262525e+18,96.60052490234376,2.263443207424432,9.404551196152568,-1.593121892220974,1.690426284262525e+18,96.60052490234376,-0.845754861831665,-1.3075144052505494,-1.517836761474609,1.690426284258769e+18,96.59676879882812,-0.8457937359809875,-1.271089243888855,-1.544801950454712,,,,,,,,,,,,,1.690426284262525e+18,96.60052490234376,-7.796177673339844,39.89766006469726,-19.275917053222656,1.6904262842626524e+18,96.60065244140624,39.74964294433594,72.5449005126953,98.76084594726562,1.690426284262525e+18,96.60052490234376,-0.1221413635484754,0.2278618676201256,-0.5548635269896419,-2.525960055356271,-0.2768171842742385,0.7505613023707038,-1.284460386580323
6.65,1.690426284312623e+18,96.650623046875,-3.180869923996925,-0.2200161435568332,-1.0252111501781642,1.690426284313877e+18,96.65187700195312,-0.0312774658203125,0.881512451171875,-0.27088623046875,1.690426284312623e+18,96.650623046875,3.014233722258806,9.150717655572295,-1.817215017506182,1.690426284312623e+18,96.650623046875,-0.9851960182189942,-1.5231343269348143,-1.1645867228507996,1.690426284308867e+18,96.64686704101562,-0.969582748413086,-1.5117254734039307,-1.1983896255493165,,,,,,,,,,,,,1.690426284312623e+18,96.650623046875,-3.89757080078125,39.797888946533206,-21.13576354980469,1.6904262843146583e+18,96.65265849609376,43.61522216796875,72.33482666015625,96.76255493164062,1.690426284312623e+18,96.650623046875,-0.1219771439757754,0.2000079449023066,-0.5307923147812328,-2.598346027167673,-0.2539646018186259,0.7832782648841483,-1.2035829036910872
6.7,1.6904262843627215e+18,96.70072143554688,-4.273741908672154,-0.939347602609992,0.7588891532942652,1.6904262843639752e+18,96.7019751953125,-0.067962646484375,0.7963836669921875,-0.118438720703125,1.6904262843627215e+18,96.70072143554688,3.5405775052908064,8.92152685643494,-2.006747087793797,1.6904262843627215e+18,96.70072143554688,-1.0152487874031066,-1.7641955375671388,-0.393431743979454,1.6904262843589655e+18,96.69696538085935,-1.0223992109298703,-1.743711566925049,-0.4574970930814743,,,,,,,,,,,,,1.6904262843627215e+18,96.70072143554688,-0.3282669067382812,39.14653396606445,-23.181443786621095,1.6904262843614638e+18,96.69946368408202,46.695858001708984,71.65486526489258,94.91990280151369,1.6904262843627215e+18,96.70072143554688,-0.0619639157555012,0.162998059071651,-0.5159855273244386,-2.625862753202445,-0.2306287114969555,0.8085696292409363,-1.1428213609974258
