seconds_elapsed_rounded,accelerometer_time,accelerometer_seconds_elapsed,accelerometer_z,accelerometer_y,accelerometer_x,accelerometeruncalibrated_time,accelerometeruncalibrated_seconds_elapsed,accelerometeruncalibrated_z,accelerometeruncalibrated_y,accelerometeruncalibrated_x,gravity_time,gravity_seconds_elapsed,gravity_z,gravity_y,gravity_x,gyroscope_time,gyroscope_seconds_elapsed,gyroscope_z,gyroscope_y,gyroscope_x,gyroscopeuncalibrated_time,gyroscopeuncalibrated_seconds_elapsed,gyroscopeuncalibrated_z,gyroscopeuncalibrated_y,gyroscopeuncalibrated_x,location_time,location_seconds_elapsed,location_bearingAccuracy,location_speedAccuracy,location_verticalAccuracy,location_horizontalAccuracy,location_speed,location_bearing,location_altitude,location_longitude,location_latitude,magnetometer_time,magnetometer_seconds_elapsed,magnetometer_z,magnetometer_y,magnetometer_x,magnetometeruncalibrated_time,magnetometeruncalibrated_seconds_elapsed,magnetometeruncalibrated_z,magnetometeruncalibrated_y,magnetometeruncalibrated_x,orientation_time,orientation_seconds_elapsed,orientation_qz,orientation_qy,orientation_qx,orientation_qw,orientation_roll,orientation_pitch,orientation_yaw
0.1,,,,,,1.6887552611755264e+18,0.109526611328125,10.295717716217043,4.2397825717926025,-2.1496520042419434,,,,,,1.6887552611625393e+18,0.096539306640625,0.4405865619579951,0.824973483880361,-1.47371240456899,1.6887552611711985e+18,0.10519836425781251,0.5672647505998611,0.9070585370063782,-1.8487836718559265,,,,,,,,,,,,1.6887552611740554e+18,0.10805535888671874,-25.851799964904785,-29.115299224853516,31.07949924468994,1.6887552611740554e+18,0.10805535888671874,-280.3803939819336,64.20249843597412,-100.92449760437012,,,,,,,,,
0.15,1.6887552612101332e+18,0.14413297526041668,-1.0578360557556152,0.6052139600118001,-0.6057844956715902,1.6887552612187917e+18,0.15279174804687498,6.842276573181152,4.8895338376363116,-3.3946176369984946,1.6887552612187917e+18,0.15279174804687498,8.616727511088053,4.042418003082275,-2.3727928002675376,1.6887552612144632e+18,0.14846346028645832,0.8215628663698832,1.4064663251241047,-0.36239583293596905,1.6887552612144632e+18,0.14846346028645832,0.8205447594324747,1.4106405973434448,-0.36010505755742384,,,,,,,,,,,,1.6887552612190577e+18,0.1530576171875,-25.23447914123535,-29.155559539794922,32.36903877258301,1.6887552612190577e+18,0.1530576171875,-279.76307983398436,64.16224060058593,-99.63495788574218,1.6887552612187812e+18,0.15278125,0.8525906205177307,0.2452184036374092,-0.021545270457863752,0.4609255939722061,0.29057739675045013,-0.40968233346939087,-2.0895814895629883
0.2,1.688755261262047e+18,0.19604695638020833,-2.0455934206644693,1.5371948877970378,-1.6755122343699138,1.6887552612706962e+18,0.2046962890625,6.438088575998942,6.089334805806478,-3.9471604029337564,1.6887552612706962e+18,0.2046962890625,8.472848574320475,4.393946806589763,-2.262209494908651,1.6887552612663716e+18,0.20037166341145832,0.3722205509742101,-0.6426302393277487,0.7456119358539581,1.6887552612663716e+18,0.20037166341145832,0.3712024390697479,-0.6383541822433472,0.7479026714960734,,,,,,,,,,,,1.688755261269063e+18,0.20306298828124997,-23.636279296875,-30.25843963623047,31.58823928833008,1.688755261269063e+18,0.20306298828124997,-278.1648681640625,63.05935897827148,-100.41575622558594,1.688755261262047e+18,0.19604695638020833,0.8536338011423746,0.2596985598405202,-0.013025727511073101,0.451252281665802,0.28844089309374493,-0.44630874196688336,-2.103204329808553
0.25,1.6887552613139576e+18,0.24795768229166668,-0.032017230987548835,0.1113465627034505,-0.119242270787557,1.6887552613226025e+18,0.2566023763020833,7.962915102640788,3.968695640563965,-1.6109678496917088,1.6887552613226025e+18,0.2566023763020833,8.589587211608887,4.332478364308675,-1.9161001046498616,1.6887552613182802e+18,0.25228011067708334,0.41009419194112223,-0.4092797090609868,-0.6420702834924062,1.6887552613182802e+18,0.25228011067708334,0.40902518077443045,-0.40500366191069287,-0.6397286355495453,,,,,,,,,,,,1.6887552613190602e+18,0.25306015625,-25.419919586181642,-30.792799377441405,30.11447944641113,1.6887552613190602e+18,0.25306015625,-279.9485107421875,62.52499847412109,-101.88951873779297,1.6887552613139576e+18,0.24795768229166668,0.8564158082008362,0.2516980022192001,0.004675928192834001,0.4506988028685252,0.2456629971663157,-0.4503934880097707,-2.1161171595255532
0.3,1.6887552613658634e+18,0.29986344401041665,0.3832403818766276,-1.0388676325480144,0.3263011376063029,1.6887552613658675e+18,0.29986755371093754,8.959924221038818,3.0975089073181152,-1.179960697889328,1.6887552613658675e+18,0.29986755371093754,8.61180067062378,4.388718605041504,-1.6743969321250916,1.688755261370194e+18,0.304194091796875,0.643495629231135,-0.25335636238257087,0.766279528538386,1.688755261370194e+18,0.304194091796875,0.6424266199270884,-0.2490802978475888,0.7685702989498774,,,,,,,,,,,,1.6887552613690655e+18,0.30306542968750005,-26.54231948852539,-31.676079177856444,28.667559814453124,1.6887552613690655e+18,0.30306542968750005,-281.0709167480469,61.64171829223633,-103.33643646240235,1.6887552613658634e+18,0.29986344401041665,0.8651110331217448,0.24659228324890134,0.0141338395575682,0.43648024400075275,0.21393922964731846,-0.45448776086171466,-2.157458941141764
0.35,1.6887552614177713e+18,0.3517713216145833,-1.9638325373331706,-1.0022421677907307,-0.10906195640563965,1.6887552614091195e+18,0.3431197916666666,6.792625268300374,3.765505313873291,-1.5970097184181213,1.6887552614091195e+18,0.3431197916666666,8.352567672729492,4.909913063049316,-1.5171165863672893,1.6887552614220956e+18,0.35609594726562505,0.7785477439562479,0.062104632457097374,1.6821701526641846,1.6887552614220956e+18,0.35609594726562505,0.7774787346522013,0.06627887984116873,1.6845117807388306,,,,,,,,,,,,1.6887552614190566e+18,0.353056591796875,-23.91199951171875,-34.43572006225586,26.942478942871094,1.6887552614190566e+18,0.353056591796875,-278.4405944824219,58.88207855224609,-105.06151885986328,1.6887552614177713e+18,0.3517713216145833,0.8630525271097819,0.2752636869748433,0.0352848228067159,0.42182669043540955,0.19969792167345676,-0.5293625791867574,-2.178154945373535
0.4,1.6887552614696865e+18,0.4036863606770833,-3.2329967816670737,0.9797479311625162,0.055180092652638756,1.6887552614610301e+18,0.395030029296875,4.431507587432861,6.7539412180582685,-2.0309082667032876,1.6887552614610301e+18,0.395030029296875,8.041220506032309,5.454515139261882,-1.348012924194336,1.688755261465362e+18,0.39936181640625,0.578183963894844,0.11896600946784014,-0.16783520579338074,1.688755261465362e+18,0.39936181640625,0.5771149545907974,0.12324206344783305,-0.16554448008537292,,,,,,,,,,,,1.688755261469059e+18,0.403058984375,-22.130799102783204,-36.0924789428711,25.878639221191406,1.688755261469059e+18,0.403058984375,-276.6593994140625,57.225318908691406,-106.12535858154297,1.6887552614696865e+18,0.4036863606770833,0.864895741144816,0.29219871759414673,0.047632291913032504,0.40525437394777936,0.18525397280851996,-0.575269341468811,-2.210202614466349
0.45,1.688755261521592e+18,0.45559204101562495,0.5589855511983236,0.7906481424967448,-1.1017916997273762,1.6887552615129423e+18,0.4469424641927084,8.264211177825928,5.304488976796468,-1.5262220203876495,1.6887552615129423e+18,0.4469424641927084,8.629019737243652,4.532422701517741,-1.003374735514323,1.688755261508612e+18,0.44261197916666667,-0.0640899476129562,-0.9654725392659506,-3.05631152788798,1.688755261508612e+18,0.44261197916666667,-0.0651589585080122,-0.9612473448117574,-3.054020802179972,,,,,,,,,,,,1.6887552615190597e+18,0.45305976562500005,-27.449999618530274,-33.223038864135745,24.873359298706056,1.6887552615190597e+18,0.45305976562500005,-281.9785949707031,60.09475936889648,-107.1306381225586,1.688755261521592e+18,0.45559204101562495,0.8815394441286722,0.22686314086119333,0.038218390196561765,0.41171982884407043,0.13290529449780777,-0.44630682468414307,-2.237379868825277
0.5,1.6887552615735032e+18,0.50750341796875,0.285029093424479,2.0538553396860757,-5.837121327718099,1.6887552615648417e+18,0.4988416341145833,10.33420213063558,6.36470890045166,-7.104689121246338,1.6887552615648417e+18,0.4988416341145833,8.838841120402018,3.8375848134358725,-1.7517428795496623,1.6887552615605266e+18,0.4945263671875,-1.4605279366175334,2.67757511138916,-0.04963280508915576,1.6887552615605266e+18,0.4945263671875,-1.46159694592158,2.681851108868917,-0.04734203467766444,,,,,,,,,,,,1.6887552615690604e+18,0.5030603515625,-27.225518798828126,-30.029079055786134,28.264959716796874,1.6887552615690604e+18,0.5030603515625,-281.7541137695313,63.288719177246094,-103.73903961181641,1.6887552615735032e+18,0.50750341796875,0.8722168405850729,0.23099945485591886,-0.01991374107698597,0.42935557166735333,0.2561272929112116,-0.39543676376342773,-2.174593528111776
0.55,1.6887552616167608e+18,0.550760986328125,-6.162220001220703,-2.66719126701355,-4.527366399765015,1.6887552616167608e+18,0.5507609049479166,1.7016956806182861,2.0281165838241577,-8.746564229329428,1.6887552616167608e+18,0.5507609049479166,7.792497475941976,4.213959217071533,-4.137403964996338,1.6887552616124375e+18,0.5464374186197917,-1.8395698070526123,5.090441862742106,1.7280359665552776,1.6887552616124375e+18,0.5464374186197917,-1.8406388362248738,5.094616095225017,1.730326731999715,,,,,,,,,,,,1.6887552616190625e+18,0.553062548828125,-16.97263946533203,-29.145799255371095,36.03147888183594,1.6887552616190625e+18,0.553062548828125,-271.50123291015626,64.1719985961914,-95.97251892089844,1.6887552616167608e+18,0.550760986328125,0.8372955918312073,0.3051229864358902,-0.10195658355951305,0.44138519465923304,0.5071206241846085,-0.434263676404953,-2.0567941665649414
0.6,1.6887552616600146e+18,0.5940146484375001,-6.008564631144206,-2.3465338548024497,0.13358116149902344,1.6887552616686702e+18,0.6026700846354167,0.16470595945914582,0.5188437700271606,-5.752943992614746,1.6887552616686702e+18,0.6026700846354167,6.08942190806071,3.586453119913737,-6.730109850565593,1.6887552616643438e+18,0.5983437500000001,-2.5009840726852417,6.433632691701253,-1.3730214536190033,1.6887552616643438e+18,0.5983437500000001,-2.502002239227295,6.4379088083903,-1.3707307229439418,,,,,,,,,,,,1.688755261669059e+18,0.6030588867187501,-4.489599895477295,-25.88595962524414,42.48527908325195,1.688755261669059e+18,0.6030588867187501,-259.01819763183596,67.43183898925781,-89.51871948242187,1.6887552616600146e+18,0.5940146484375001,0.7980184555053711,0.3554084599018097,-0.22070632874965668,0.43079813321431476,0.7928783893585205,-0.3872119685014089,-1.9895413319269817
0.65,1.6887552617119212e+18,0.6459209798177082,-2.8435082038243613,-8.596755027770996,4.065639495849609,1.6887552617205793e+18,0.6545794270833333,1.309272785981496,-7.593821843465169,-4.547559420267741,1.6887552617205793e+18,0.6545794270833333,3.8672929604848227,1.6391417582829793,-8.81805451711019,1.6887552617162506e+18,0.6502506510416667,-3.112969239552816,5.93160343170166,-2.9974648157755532,1.6887552617162506e+18,0.6502506510416667,-3.1140383084615073,5.935879230499268,-2.9951740900675454,,,,,,,,,,,,1.6887552617190602e+18,0.653060205078125,8.247199821472169,-19.168639755249025,45.47427978515625,1.6887552617190602e+18,0.653060205078125,-246.281396484375,74.14915924072265,-86.52971801757812,1.6887552617119212e+18,0.6459209798177082,0.7360350092252096,0.35245752334594727,-0.4050860007603963,0.4088738163312276,1.1270567576090496,-0.1900177299976349,-2.0100055932998657
0.7,1.688755261763829e+18,0.6978291829427082,1.43000332514445,-10.692886034647623,3.004332701365153,1.6887552617724887e+18,0.70648876953125,5.672185977300008,-9.965308666229248,-7.192625522613525,1.6887552617724887e+18,0.70648876953125,2.5874740282694497,-0.07926944146553673,-9.45482349395752,1.688755261768164e+18,0.7021640625,-1.9586375554402669,1.202691872914632,-3.819791316986084,1.688755261768164e+18,0.7021640625,-1.9597065846125286,1.2069170077641804,-3.8174496491750083,,,,,,,,,,,,1.6887552617690624e+18,0.7030624999999999,14.837639808654785,-14.94987964630127,45.85735931396484,1.6887552617690624e+18,0.7030624999999999,-239.69095458984376,78.3679183959961,-86.14664001464844,1.688755261763829e+18,0.6978291829427082,0.6924915512402853,0.2980027993520101,-0.5331825812657675,0.3826145927111308,1.3157952626546223,-0.0050537778685490016,-2.128687779108683
0.75,1.6887552618157463e+18,0.7497462565104166,12.688657442728678,-4.806744575500488,-1.6367534001668294,1.688755261815741e+18,0.7497408447265625,15.76690673828125,-6.023332834243774,-11.098808765411377,1.688755261815741e+18,0.7497408447265625,2.599709987640381,-1.255874514579773,-9.371949195861816,1.688755261820072e+18,0.7540718587239583,-1.8484781980514529,-0.02570725232362751,-4.2046873569488525,1.688755261820072e+18,0.7540718587239583,-1.849547266960144,-0.021482090155283646,-4.202396631240845,,,,,,,,,,,,1.6887552618190584e+18,0.75305849609375,11.624159812927246,-13.346799850463867,46.46247863769531,1.6887552618190584e+18,0.75305849609375,-242.90443725585936,79.9709976196289,-85.54151763916016,1.6887552618157463e+18,0.7497462565104166,0.7053788701693217,0.19431010385354353,-0.583211878935496,0.35135294993718463,1.3237002690633137,0.13607952247063318,-2.3237431049346924
0.8,1.6887552618676524e+18,0.8016522623697916,16.338205973307293,7.745524605115254,-9.593505859375,1.6887552618590036e+18,0.7930035807291667,19.21257146199544,5.395216862360637,-17.573088963826496,1.6887552618590036e+18,0.7930035807291667,2.078570246696472,-2.592000365257263,-9.211436907450357,1.6887552618719834e+18,0.8059830729166667,-3.1664708455403647,1.3883948524792988,-2.8434249560038247,1.6887552618719834e+18,0.8059830729166667,-3.167539914449056,1.392619992295901,-2.841134230295817,,,,,,,,,,,,1.6887552618690586e+18,0.8030583984374999,11.37771987915039,-9.328119850158691,47.27743911743164,1.6887552618690586e+18,0.8030583984374999,-243.1508758544922,83.98967742919922,-84.72655792236328,1.6887552618676524e+18,0.8016522623697916,0.6854541301727295,0.0971375256776809,-0.6349908908208212,0.3409926493962605,1.3890594641367595,0.30439170698324836,-2.4739364782969155
0.85,1.688755261919558e+18,0.8535579427083334,4.160356084505717,-2.6365817387898765,-2.7504895528157554,1.6887552619109153e+18,0.8449153645833333,6.817750136057536,-6.3738813400268555,-13.695719083150228,1.6887552619109153e+18,0.8449153645833333,1.4114888906478882,-3.772540728251139,-8.941690762837728,1.6887552619152374e+18,0.8492374267578124,-0.01214095950126648,-0.7101308405399323,1.7334828972816467,1.6887552619152374e+18,0.8492374267578124,-0.013133615255355835,-0.7058548033237458,1.7358499765396118,,,,,,,,,,,,1.6887552619190584e+18,0.8530582519531251,13.207719612121583,-4.704319953918457,47.31891860961914,1.6887552619190584e+18,0.8530582519531251,-241.3208770751953,88.61347808837891,-84.68507843017578,1.688755261919558e+18,0.8535579427083334,0.6610391139984131,0.06528914843996363,-0.6536058584849039,0.3620308538277944,1.4224016666412354,0.3968228300412496,-2.4833853244781494
0.9,1.6887552619714706e+18,0.9054707031250001,-1.6933119297027588,-3.8784871896107993,2.8206404050191245,1.6887552619628224e+18,0.8968221842447917,2.9515467087427774,-6.0071812470753985,-6.428318023681641,1.6887552619628224e+18,0.8968221842447917,2.3953589598337808,-3.707905133565267,-8.758127848307291,1.688755261958495e+18,0.8924947102864583,-1.084845744073391,-0.7443392847975095,2.530203898747762,1.688755261958495e+18,0.8924947102864583,-1.0858638534943263,-0.7401141449809076,2.53249462445577,,,,,,,,,,,,1.6887552619690604e+18,0.9030603515625,11.367959785461426,-2.723039972782135,48.009439849853514,1.6887552619690604e+18,0.9030603515625,-243.16063537597657,90.59475860595703,-83.99456024169922,1.6887552619714706e+18,0.9054707031250001,0.6640167435010275,0.08945154150327043,-0.6132501761118571,0.41785454750061035,1.3156883716583252,0.4045959413051605,-2.332606554031372
0.95,1.6887552620233838e+18,0.9573837890625,-7.1553622881571455,-6.1242475509643555,3.195185661315918,1.688755262014732e+18,0.9487320149739583,-3.5164522329966226,-10.683952967325846,-5.000799814860026,1.688755262014732e+18,0.9487320149739583,2.7114920616149902,-4.38564936319987,-8.341876665751139,1.6887552620104077e+18,0.94440771484375,-2.062281052271525,-0.04800383001565937,1.217149019241333,1.6887552620104077e+18,0.94440771484375,-2.0633501211802163,-0.04382957766453425,1.2194397648175557,,,,,,,,,,,,1.6887552620190646e+18,0.953064599609375,10.743319702148437,3.4574798822402952,47.802040100097656,1.6887552620190646e+18,0.953064599609375,-243.78527221679687,96.77527770996093,-84.20195770263672,1.6887552620233838e+18,0.9573837890625,0.6363991697629293,0.08069828152656554,-0.6022176543871561,0.4749544660250346,1.2698164383570354,0.48856400450070697,-2.2223995526631675
1.0,1.6887552620666342e+18,1.000634033203125,-7.158510684967041,-4.4018707275390625,1.2266485691070557,1.6887552620666376e+18,1.0006375325520833,-3.5637105318407216,-9.015956083933512,-6.508078893025716,1.6887552620666376e+18,1.0006375325520833,3.173011223475138,-5.334760824839274,-7.582986513773601,1.6887552620623117e+18,0.9963119303385417,-2.314924716949463,-2.0706295172373452,-0.8030841847260793,1.6887552620623117e+18,0.9963119303385417,-2.3159428437550864,-2.066404422124227,-0.8007934093475342,,,,,,,,,,,,1.6887552620690586e+18,1.00305859375,7.844599723815918,8.757159614562989,47.96307907104492,1.6887552620690586e+18,1.00305859375,-246.68399963378906,102.07495727539063,-84.04091796875,1.6887552620666342e+18,1.000634033203125,0.6320091485977173,0.03223421983420845,-0.588435560464859,0.5030071139335632,1.1960828304290771,0.584017813205719,-2.200900673866272
1.05,1.6887552621099e+18,1.0439000651041666,-2.29870076974233,-1.100558598836263,-5.094051520029704,1.6887552621185505e+18,1.052550537109375,-0.3635096649328868,-8.234699567159018,-12.298908869425455,1.6887552621185505e+18,1.052550537109375,3.064993381500244,-6.64742644627889,-6.51573117574056,1.688755262114227e+18,1.0482269694010415,-2.7433449427286782,-0.5143485416968664,-2.102801819642385,1.688755262114227e+18,1.0482269694010415,-2.7444138526916504,-0.5100724920630455,-2.100511093934377,,,,,,,,,,,,1.6887552621190584e+18,1.0530583496093748,6.383039760589599,14.476519584655762,46.830918884277345,1.6887552621190584e+18,1.0530583496093748,-248.1455505371094,107.79431915283203,-85.17307739257812,1.6887552621099e+18,1.0439000651041666,0.6207664012908936,-0.046746478105584736,-0.5888871749242147,0.5147164066632589,1.1562639872233074,0.7270831068356832,-2.2441015243530273
1.1,1.6887552621618004e+18,1.0958006184895834,-8.448873519897461,0.8258279164632162,-5.783520221710205,1.688755262170459e+18,1.1044588216145834,-4.15174659093221,-5.811368624369304,-11.963714281717936,1.688755262170459e+18,1.1044588216145834,3.089187224706014,-7.306132157643636,-5.765270074208577,1.688755262166132e+18,1.1001319986979168,-1.2696834007898967,-1.6227126121520996,-0.828129639228185,1.688755262166132e+18,1.1001319986979168,-1.2707524299621582,-1.618436574935913,-0.8257880310217539,,,,,,,,,,,,1.6887552621690609e+18,1.1030609375,5.2142799377441404,18.42443962097168,46.23555908203125,1.6887552621690609e+18,1.1030609375,-249.31431579589844,111.7422378540039,-85.76843872070313,1.6887552621618004e+18,1.0958006184895834,0.6059446732203165,-0.10072346031665796,-0.5853608051935831,0.5289403200149536,1.1166400512059529,0.8353051543235779,-2.246892293294271
1.15,1.688755262213714e+18,1.1477137858072917,3.552943150202433,2.383021831512451,-9.980331103006998,1.6887552622223688e+18,1.1563688151041667,14.662219936649004,-4.014159321784973,-15.45324738820394,1.6887552622223688e+18,1.1563688151041667,2.1919793287913003,-7.9766716957092285,-5.264559745788574,1.6887552622180375e+18,1.1520375162760417,-1.0924815734227498,1.5921693245569866,-1.693318486213684,1.6887552622180375e+18,1.1520375162760417,-1.0935506224632263,1.596394459406535,-1.6910277207692463,,,,,,,,,,,,1.6887552622190584e+18,1.1530583007812498,7.4517598152160645,21.29387969970703,45.1326789855957,1.6887552622190584e+18,1.1530583007812498,-247.07683715820312,114.61167907714844,-86.8713165283203,1.688755262213714e+18,1.1477137858072917,0.5895259777704874,-0.16343640784422553,-0.6021846930185953,0.5124371647834778,1.1860324541727703,0.9441059430440267,-2.3743134339650473
1.2,1.6887552622656246e+18,1.1996245930989582,1.9772659142812092,3.254701614379883,-6.108568032582601,1.688755262265618e+18,1.1996181640625,2.6027928590774536,-4.256532311439514,-11.891132354736328,1.688755262265618e+18,1.1996181640625,1.6866162419319155,-8.0036780834198,-5.4146339893341064,1.6887552622699507e+18,1.2039507649739585,0.31785354018211365,2.9425888061523438,0.8119926452636719,1.6887552622699507e+18,1.2039507649739585,0.316784530878067,2.946763038635254,0.8143851856390635,,,,,,,,,,,,1.6887552622690557e+18,1.203055908203125,14.520439720153808,22.874999618530275,43.91023941040039,1.6887552622690557e+18,1.203055908203125,-240.008154296875,116.1927993774414,-88.09375915527343,1.6887552622656246e+18,1.1996245930989582,0.5346171458562216,-0.12210399160782491,-0.6396550536155701,0.5382017294565836,1.3032535711924236,0.9605840047200521,-2.320455233256022
1.25,1.6887552623175311e+18,1.2515311686197916,0.4420104225476584,2.437504768371582,-2.539708455403646,1.6887552623088845e+18,1.2428843587239584,0.9796615044275919,-5.708477179209392,-8.950552622477213,1.6887552623088845e+18,1.2428843587239584,1.3178439537684123,-7.819489320119222,-5.77354097366333,1.6887552623218596e+18,1.255859619140625,0.37542760372161865,1.6388496160507202,0.19165896872679392,1.6887552623218596e+18,1.255859619140625,0.374358594417572,1.6430747906366985,0.19394971181948975,,,,,,,,,,,,1.6887552623190561e+18,1.253056005859375,18.731879806518556,21.972199630737304,42.90495986938477,1.6887552623190561e+18,1.253056005859375,-235.79671630859374,115.28999786376953,-89.09903869628906,1.6887552623175311e+18,1.2515311686197916,0.5090143879254659,-0.07808745652437206,-0.6636123458544413,0.5424724419911703,1.3917705217997234,0.9266473849614462,-2.2977887789408364
1.3,1.6887552623694467e+18,1.3034464518229167,0.066778689622879,0.4931770960489909,1.1528200308481853,1.6887552623607903e+18,1.2947902018229167,1.0334999759991963,-7.4534430503845215,-5.651647726694743,1.6887552623607903e+18,1.2947902018229167,0.9409182270367941,-7.693929672241211,-6.01180378595988,1.6887552623651144e+18,1.2991143798828126,0.5742896795272827,0.7672467231750488,-0.035735615296289346,1.6887552623651144e+18,1.2991143798828126,0.5732206702232361,0.7714464664459229,-0.03344487259164455,,,,,,,,,,,,1.6887552623690634e+18,1.303063623046875,21.981959533691406,21.789199829101562,41.90455856323242,1.6887552623690634e+18,1.303063623046875,-232.54663696289063,115.10699768066407,-90.0994369506836,1.6887552623694467e+18,1.3034464518229167,0.4940328101317088,-0.053471279640992464,-0.6791779398918152,0.5401475628217062,1.4543569087982178,0.9052203098932902,-2.2984307607014975
1.35,1.6887552624213512e+18,1.3553509114583333,-0.046918570995330956,1.4834380149841309,0.42645422617594403,1.6887552624127017e+18,1.346701904296875,1.18006032705307,-5.832704544067383,-5.1172506014506025,1.6887552624127017e+18,1.346701904296875,0.7538131276766459,-7.555905659993489,-6.210567951202393,1.6887552624083802e+18,1.3423799641927083,0.45672359069188434,-0.7064656466245651,-1.0510445634524028,1.6887552624083802e+18,1.3423799641927083,0.4557054837544759,-0.7021896044413248,-1.0487029155095418,,,,,,,,,,,,1.688755262419061e+18,1.35306083984375,22.88719940185547,20.071439743041992,42.6755989074707,1.688755262419061e+18,1.35306083984375,-231.64139709472656,113.38923797607421,-89.32839965820312,1.6887552624213512e+18,1.3553509114583333,0.5067819356918335,-0.060699783265590605,-0.6855192383130392,0.5190589229265848,1.487575610478719,0.8838818073272705,-2.3681178092956543
1.4,1.6887552624732562e+18,1.407256103515625,0.2546574870745341,4.684105555216472,-1.3181899388631184,1.68875526246461e+18,1.3986098632812503,1.1036894222100575,-2.772882580757141,-7.9005020459493,1.68875526246461e+18,1.3986098632812503,0.41626057028770447,-7.453935464223226,-6.362204551696777,1.6887552624602867e+18,1.3942865397135418,0.45713082949320477,0.1830559472242991,-0.9590584635734558,1.6887552624602867e+18,1.3942865397135418,0.4561127225557963,0.18728111187616983,-0.9567676583925883,,,,,,,,,,,,1.6887552624690586e+18,1.4030585449218749,23.919319534301756,18.60011978149414,43.273399353027344,1.6887552624690586e+18,1.4030585449218749,-230.6092742919922,111.9179183959961,-88.73059692382813,1.6887552624732562e+18,1.407256103515625,0.5119940638542175,-0.06695999205112453,-0.6989794770876566,0.49471139907836914,1.5493032932281494,0.8635112841924032,-2.4524659315745034
1.45,1.6887552625165217e+18,1.4505217285156249,0.19627328217029572,3.1702077388763428,-1.134032964706421,1.688755262516514e+18,1.45051416015625,0.06759725014368696,-3.6189448038736978,-7.700900872548421,1.688755262516514e+18,1.45051416015625,0.03835091429452103,-7.20334005355835,-6.657754103342692,1.6887552625121966e+18,1.4461966145833334,0.8627453446388245,0.572635273138682,-0.20835594832897186,1.6887552625121966e+18,1.4461966145833334,0.8616763353347778,0.5768604079882304,-0.2060652126868566,,,,,,,,,,,,1.688755262519056e+18,1.4530560058593749,25.598039627075195,16.082039833068848,43.00987930297852,1.688755262519056e+18,1.4530560058593749,-228.93055725097656,109.39983825683593,-88.9941177368164,1.6887552625165217e+18,1.4505217285156249,0.5105058550834656,-0.0531049389392137,-0.7112358808517456,0.48029507696628565,1.5965112447738647,0.8292799293994904,-2.4801560640335083
1.5,1.6887552625597796e+18,1.4937794596354166,1.5848392645517986,2.4326914151509604,-1.9498125712076824,1.6887552625684314e+18,1.5024313151041666,1.417747398217519,-4.394020080566406,-9.296315511067709,1.6887552625684314e+18,1.5024313151041666,-0.05564483503500617,-6.863385836283366,-7.007668177286784,1.6887552625641044e+18,1.4981044108072918,0.9582439462343851,0.33974288403987885,0.2627738614877065,1.6887552625641044e+18,1.4981044108072918,0.9571749170621237,0.3439171214898427,0.26506461203098297,,,,,,,,,,,,1.6887552625690604e+18,1.503060400390625,26.186079025268555,14.056839752197266,42.80248031616211,1.6887552625690604e+18,1.503060400390625,-228.34251708984374,107.37463989257813,-89.20151977539062,1.6887552625597796e+18,1.4937794596354166,0.5125304063161215,-0.030552961553136432,-0.7155551910400391,0.4736069937547048,1.6076897382736206,0.7882814804712931,-2.464485009511312
1.55,1.6887552626116895e+18,1.545689453125,-2.071606755256653,1.4885468482971191,-3.158603032430013,1.6887552626203402e+18,1.5543401692708334,-2.746561606725057,-5.053043047587077,-10.117452303568522,1.6887552626203402e+18,1.5543401692708334,-0.0258749052882194,-6.39408540725708,-7.43681526184082,1.6887552626160172e+18,1.5500172526041667,1.4064154227574666,-0.051821734135349594,0.01690060645341877,1.6887552626160172e+18,1.5500172526041667,1.405346433321635,-0.04754568077623847,0.01919135327140493,,,,,,,,,,,,1.688755262619062e+18,1.553062060546875,25.661479568481447,11.040999603271484,43.70527801513672,1.688755262619062e+18,1.553062060546875,-228.8671142578125,104.35879821777344,-88.29871826171875,1.6887552626116895e+18,1.545689453125,0.5242151816685995,-0.003985993641739067,-0.7152290344238281,0.46208903193473816,1.6019370555877686,0.7278242111206055,-2.445392449696859
1.6,1.688755262663594e+18,1.5975940755208333,-3.920031785964966,0.8076995213826498,1.3391159375508626,1.688755262672245e+18,1.6062451985677084,-3.75154709815979,-5.102295557657878,-6.0195441246032715,1.688755262672245e+18,1.6062451985677084,0.17842350403467808,-5.832175095876058,-7.883664766947429,1.6887552626679247e+18,1.6019249674479166,1.2785918712615967,-1.0238610704739888,-0.18936822811762488,1.6887552626679247e+18,1.6019249674479166,1.2775228420893352,-1.0195850133895874,-0.18707748750845588,,,,,,,,,,,,1.6887552626690637e+18,1.6030638671875,23.30443992614746,7.4517598152160645,44.5202392578125,1.6887552626690637e+18,1.6030638671875,-231.22415466308593,100.76955871582031,-87.48375701904297,1.688755262663594e+18,1.5975940755208333,0.550245483716329,0.015092341229319501,-0.7099994619687399,0.43905166784922284,1.5819023847579956,0.6522067983945211,-2.4536972840627036
1.65,1.6887552627155005e+18,1.6495004069010417,-0.45999900499979657,1.453826665878296,3.173022905985514,1.688755262715503e+18,1.649503173828125,-0.03469592332839966,-3.742972731590271,-4.772783994674683,1.688755262715503e+18,1.649503173828125,0.5992121696472168,-5.475666046142578,-8.116673469543457,1.688755262719835e+18,1.653834716796875,0.8352055152257284,-1.4844534794489543,-0.24159720540046692,1.688755262719835e+18,1.653834716796875,0.8341364860534668,-1.480177362759908,-0.23925555745760596,,,,,,,,,,,,1.688755262719059e+18,1.653059033203125,19.79571952819824,5.009319877624511,46.36731872558594,1.688755262719059e+18,1.653059033203125,-234.73287658691407,98.32711791992188,-85.63667602539063,1.6887552627155005e+18,1.6495004069010417,0.586063822110494,0.016747574632366466,-0.6922594706217448,0.4205614924430847,1.5214061339696248,0.5977234443028768,-2.4672441482543945
1.7,1.6887552627674094e+18,1.7014094238281252,-0.6638615926106771,4.296612898508708,2.143186410268148,1.6887552627587592e+18,1.69275927734375,0.8101698855559031,-0.8775677041461071,-5.972884178161621,1.6887552627587592e+18,1.69275927734375,1.092146893342336,-5.403790791829427,-8.111728350321451,1.6887552627717437e+18,1.7057438151041666,-1.0867802202701569,-1.7850500345230103,-0.39782599608103425,1.6887552627717437e+18,1.7057438151041666,-1.087849151343107,-1.780824899673462,-0.395484338204066,,,,,,,,,,,,1.6887552627690555e+18,1.7030555175781248,15.36955966949463,4.738479995727539,47.387238311767575,1.6887552627690555e+18,1.7030555175781248,-239.159033203125,98.05628051757813,-84.61675720214843,1.6887552627674094e+18,1.7014094238281252,0.6159859498341879,-0.004704552469775067,-0.6699884732564291,0.41400570670763653,1.4472639163335164,0.5952773888905843,-2.487192074457804
1.75,1.688755262819326e+18,1.7533258463541668,0.47729647159576416,-3.09150759379069,0.2382955551147461,1.6887552628106734e+18,1.7446734212239583,2.2257238576809564,-7.579265753428142,-6.627520402272542,1.6887552628106734e+18,1.7446734212239583,1.5954794883728027,-6.199250380198161,-7.421581268310547,1.6887552628236554e+18,1.7576553548177083,-2.9786298274993896,0.1036943842967352,0.0659225434064865,1.6887552628236554e+18,1.7576553548177083,-2.979698816935221,0.10791952908039089,0.06826419383287426,,,,,,,,,,,,1.6887552628190597e+18,1.7530597656249998,12.544039726257324,9.511119651794434,47.16031951904297,1.6887552628190597e+18,1.7530597656249998,-241.98455810546875,102.82891845703125,-84.84367980957032,1.688755262819326e+18,1.7533258463541668,0.6085033416748047,-0.057898093014955465,-0.6518846948941549,0.4482344488302867,1.3798900842666626,0.7143914103507996,-2.469242493311564
1.8,1.6887552628712374e+18,1.8052371419270834,-0.7525890668233236,-5.7436598141988116,-2.739262421925863,1.6887552628625838e+18,1.7965835774739585,0.46640100081761676,-13.453047434488932,-9.682157834370932,1.6887552628625838e+18,1.7965835774739585,1.4387410084406536,-7.100237210591634,-6.612326304117839,1.6887552628669087e+18,1.80090869140625,-1.1623238623142242,0.028634317219257355,-0.3662900775671005,1.6887552628669087e+18,1.80090869140625,-1.1633928418159485,0.0328340083360672,-0.3639993369579315,,,,,,,,,,,,1.688755262869059e+18,1.8030592285156248,13.19307975769043,14.99135971069336,45.65483856201172,1.688755262869059e+18,1.8030592285156248,-241.33551635742188,108.30915679931641,-86.34915924072266,1.6887552628712374e+18,1.8052371419270834,0.577037493387858,-0.0922170480092366,-0.6553791761398315,0.47850314776102704,1.3874716758728027,0.8236792882283529,-2.4538775285085044
1.85,1.688755262923143e+18,1.8571427408854166,-1.4251088698705037,-0.12493260701497393,-0.02498181660970054,1.6887552629144904e+18,1.848490234375,-0.53080781797568,-7.25284481048584,-6.693323135375977,1.6887552629144904e+18,1.848490234375,1.455930233001709,-7.343846321105957,-6.3371429443359375,1.688755262910164e+18,1.8441640625,-0.5976807375748953,-0.9635890225569407,-0.3587815115849177,1.688755262910164e+18,1.8441640625,-0.5986988445123037,-0.9593638877073923,-0.35649078090985614,,,,,,,,,,,,1.6887552629190605e+18,1.8530605957031248,11.860839653015137,16.07959976196289,45.4083984375,1.6887552629190605e+18,1.8530605957031248,-242.66775207519532,109.39739837646485,-86.59559936523438,1.688755262923143e+18,1.8571427408854166,0.5810388922691345,-0.11732645829518634,-0.6475146015485128,0.4787278473377227,1.36466379960378,0.8578603466351827,-2.474719444910685
1.9,1.6887552629664023e+18,1.9004023437500002,0.2322729229927063,-0.9058980941772461,-1.1558613777160645,1.6887552629663982e+18,1.9003984375,2.072583178679148,-8.231908162434896,-7.071389198303223,1.6887552629663982e+18,1.9003984375,1.7527974843978882,-7.629406770070394,-5.911449591318767,1.688755262962078e+18,1.8960781249999998,-0.7479535738627116,-0.9614510138829547,-0.22210042675336197,1.688755262962078e+18,1.8960781249999998,-0.7490225831667582,-0.9572258492310842,-0.21980967621008551,,,,,,,,,,,,1.6887552629690598e+18,1.9030598632812499,9.228079795837402,17.814439392089845,45.37179870605469,1.6887552629690598e+18,1.9030598632812499,-245.3005126953125,111.13223876953126,-86.63219757080078,1.6887552629664023e+18,1.9004023437500002,0.5888563096523285,-0.14530071616172785,-0.6319454610347748,0.4824599921703338,1.3133187294006348,0.8961220681667328,-2.4783705472946167
1.95,1.6887552630096576e+18,1.9436575520833335,-0.6563613017400105,1.1413898468017578,-1.9046691258748372,1.6887552630183135e+18,1.9523134765624999,1.3012967308362324,-6.856633186340332,-7.225925445556641,1.6887552630183135e+18,1.9523134765624999,1.8290824095408122,-7.8273264567057295,-5.622819900512695,1.6887552630139922e+18,1.9479919433593749,-0.6391686697800955,-0.28527407348155975,-0.07162395119667046,1.6887552630139922e+18,1.9479919433593749,-0.6402376890182495,-0.28109982609748835,-0.06933320686221117,,,,,,,,,,,,1.6887552630190582e+18,1.953058251953125,8.57903985977173,19.295519256591795,44.68859939575195,1.6887552630190582e+18,1.953058251953125,-245.94955444335938,112.61331787109376,-87.31539916992188,1.6887552630096576e+18,1.9436575520833335,0.5874432921409607,-0.1593188444773356,-0.6258852283159891,0.48761502901713055,1.29237965742747,0.9232768416404724,-2.4738756020863852
2.0,1.6887552630615647e+18,1.99556494140625,-0.5505125522613525,1.5384314854939778,-0.5461166699727377,1.6887552630702172e+18,2.00421728515625,1.243669589360555,-6.215356826782227,-6.18943468729655,1.6887552630702172e+18,2.00421728515625,1.8441370328267415,-7.899546305338542,-5.516550540924072,1.6887552630658967e+18,1.9998966471354167,-0.085470230008165,-0.06337726737062134,-0.0025961771607399355,1.6887552630658967e+18,1.9998966471354167,-0.08653924365838363,-0.05910121152798333,-0.00025452673435213496,,,,,,,,,,,,1.6887552630690578e+18,2.0030578125,8.554639625549317,20.227599716186525,44.20547866821289,1.6887552630690578e+18,2.0030578125,-245.9739562988281,113.54539642333984,-87.79851837158203,1.6887552630615647e+18,1.99556494140625,0.5847532550493876,-0.16637917359669996,-0.6232418815294901,0.4918849964936574,1.2822420199712117,0.9402547677357992,-2.4677953720092773
2.05,1.688755263113476e+18,2.0474761555989582,-0.11289993921915686,0.9706486066182455,-1.1595090230305989,1.6887552631221292e+18,2.056129150390625,1.7425730625788372,-6.797610282897949,-6.932206630706787,1.6887552631221292e+18,2.056129150390625,1.7851392428080242,-7.946726163228353,-5.467703819274902,1.6887552631178056e+18,2.0518056640625,-0.09682214260101314,-0.3743585745493571,-0.546266237894694,1.6887552631178056e+18,2.0518056640625,-0.09789115438858664,-0.37018434206644696,-0.5439755121866862,,,,,,,,,,,,1.6887552631190646e+18,2.05306474609375,8.339920043945312,20.44475975036621,44.09323959350586,1.6887552631190646e+18,2.05306474609375,-246.1886779785156,113.76255798339844,-87.91075744628907,1.688755263113476e+18,2.0474761555989582,0.5865037242571512,-0.1733076324065526,-0.6226706306139628,0.48809396227200824,1.2857741117477417,0.9461006124814352,-2.485642910003662
2.1,1.6887552631653878e+18,2.0993878580729164,0.25385296344757075,4.125304539998372,-1.4843312899271648,1.6887552631653878e+18,2.099387939453125,3.9670007824897766,-2.3045873045921326,-7.763214111328125,1.6887552631653878e+18,2.099387939453125,1.4421725869178772,-8.172184467315674,-5.22563099861145,1.688755263169714e+18,2.1037137044270833,-1.7988962928454082,0.15948673089345297,-1.8812103867530823,1.688755263169714e+18,2.1037137044270833,-1.7999653418858845,0.16371188561121622,-1.8789196411768596,,,,,,,,,,,,1.6887552631690604e+18,2.10306025390625,8.988959789276123,21.357319259643553,43.41491851806641,1.6887552631690604e+18,2.10306025390625,-245.53963317871094,114.6751205444336,-88.58907775878906,1.6887552631653878e+18,2.0993878580729164,0.5764759580294291,-0.2034049034118652,-0.6298721432685852,0.4786937137444814,1.3450898726781209,0.9929376244544983,-2.571232557296753
2.15,1.6887552632172974e+18,2.1512972819010416,-1.0350807706514995,0.7252709070841471,1.1110674540201824,1.688755263208647e+18,2.1426470540364586,-0.9042874574661255,-7.624928792317708,-3.0532416502634683,1.688755263208647e+18,2.1426470540364586,0.9004539052645365,-8.781155268351236,-4.26439102490743,1.688755263221624e+18,2.1556241861979166,-2.2950207789738974,-1.2182689309120178,-0.3565416857600212,1.688755263221624e+18,2.1556241861979166,-2.2960389057795205,-1.2140437563260396,-0.3542509290079276,,,,,,,,,,,,1.6887552632190595e+18,2.153059521484375,9.347639751434325,26.69359931945801,40.35027847290039,1.6887552632190595e+18,2.153059521484375,-245.1809539794922,120.01139831542969,-91.65371856689453,1.6887552632172974e+18,2.1512972819010416,0.5465689301490784,-0.27078464627265925,-0.6243669191996256,0.487591286500295,1.3960884014765422,1.1318052609761555,-2.6637569268544516
2.2,1.6887552632692068e+18,2.20320654296875,0.059616764386494936,3.3279258410135903,-0.2032593091328939,1.6887552632605478e+18,2.194547607421875,1.381256898244222,-6.058626810709636,-3.582653760910034,1.6887552632605478e+18,2.194547607421875,0.9222384889920553,-9.191937764485678,-3.2919352054595947,1.6887552632735304e+18,2.2075304361979167,-1.6677130063374836,0.09901107847690581,-0.24897849559783933,1.6887552632735304e+18,2.2075304361979167,-1.6687311331431072,0.10328712562719981,-0.2466368476549784,,,,,,,,,,,,1.6887552632690573e+18,2.2030573730468754,8.439959716796874,30.519519424438478,37.78583984375,1.6887552632690573e+18,2.2030573730468754,-246.08863525390626,123.83731842041016,-94.21815795898438,1.6887552632692068e+18,2.20320654296875,0.5284767945607504,-0.3108201821645101,-0.6060934662818909,0.5065712134043375,1.3533077239990234,1.2306710879007976,-2.645824591318766
2.25,1.6887552633211057e+18,2.2551056315104163,1.9918051362037659,3.137241999308268,-2.3783743381500244,1.6887552633124672e+18,2.246467447916667,1.8119649241367977,-5.482754230499268,-4.461617310841878,1.6887552633124672e+18,2.246467447916667,0.9399247566858927,-9.42740567525228,-2.5332911809285483,1.6887552633167928e+18,2.250792724609375,-1.5142585635185242,-1.6143640875816345,0.18471038341522214,1.6887552633167928e+18,2.250792724609375,-1.5153276324272156,-1.610088050365448,0.18700112029910085,,,,,,,,,,,,1.6887552633190597e+18,2.253059716796875,7.488359832763672,33.076639556884764,35.45563888549805,1.6887552633190597e+18,2.253059716796875,-247.040234375,126.39443817138672,-96.54835662841796,1.6887552633211057e+18,2.2551056315104163,0.5181282560030619,-0.3427913784980774,-0.5841729442278544,0.5219724774360657,1.2454907894134521,1.3064583937327068,-2.5682003498077393
2.3,1.6887552633730253e+18,2.307025390625,0.9635789791742959,-6.0032164255778,-3.2540338039398193,1.6887552633643738e+18,2.2983737792968753,3.615554908911387,-14.4644136428833,-5.108078320821126,1.6887552633643738e+18,2.2983737792968753,1.4168120225270588,-9.569051742553711,-1.606446663538615,1.688755263360045e+18,2.294045166015625,-1.7658077875773113,-0.33806300659974414,1.1270972887674968,1.688755263360045e+18,2.294045166015625,-1.7668767770131428,-0.3338378568490346,1.1293880144755046,,,,,,,,,,,,1.6887552633690616e+18,2.303061669921875,4.5749999523162845,36.35843963623047,32.32023963928223,1.6887552633690616e+18,2.303061669921875,-249.95359802246094,129.67623596191407,-99.68375854492187,1.6887552633730253e+18,2.307025390625,0.5140782395998637,-0.3663035531838735,-0.5448802709579468,0.551755448182424,0.8480955958366394,1.3592617114384968,-2.20099147160848
2.35,1.6887552634162732e+18,2.3502731933593752,1.322086215019226,-3.644038677215576,-2.9468573331832886,1.6887552634162747e+18,2.350274658203125,2.564707080523173,-13.965310414632162,-3.3804602225621543,1.6887552634162747e+18,2.350274658203125,2.1341217358907065,-9.519312222798666,-1.0072705547014873,1.68875526341196e+18,2.345960205078125,-0.6841181516647339,-1.967596968015035,1.1302534143129985,1.68875526341196e+18,2.345960205078125,-0.6851871808369955,-1.9633209307988484,1.1325441598892212,,,,,,,,,,,,1.6887552634190607e+18,2.35306064453125,-0.44407997131347654,37.86635971069336,30.60491943359375,1.6887552634190607e+18,2.35306064453125,-254.9726806640625,131.1841583251953,-101.39907836914062,1.6887552634162732e+18,2.3502731933593752,0.5319279730319977,-0.3806027472019195,-0.5051043778657913,0.5629926323890686,0.4995899647474289,1.3408748507499695,-1.9136252999305725
2.4,1.6887552634595402e+18,2.3935401204427085,-1.9402405818303425,-2.3557955423990884,2.0101777712504068,1.6887552634681887e+18,2.402188720703125,0.4829513927300771,-11.306086858113607,1.5208381811777751,1.6887552634681887e+18,2.402188720703125,2.4975932439168296,-9.470303535461426,-0.5463686287403107,1.6887552634638646e+18,2.3978645833333334,0.02657264222701389,-3.2372294267018638,0.26012677357842523,1.6887552634638646e+18,2.3978645833333334,0.02550362547238669,-3.2330042521158853,0.26246843766421074,,,,,,,,,,,,1.6887552634690586e+18,2.40305869140625,-5.819399881362915,38.29823989868164,28.99451904296875,1.6887552634690586e+18,2.40305869140625,-260.347998046875,131.61603698730468,-103.00947723388671,1.6887552634595402e+18,2.3935401204427085,0.5597125887870789,-0.4084424674510956,-0.4646465977032979,0.5507871309916178,0.2917315860589345,1.3239331245422363,-1.814873456954956
2.45,1.6887552635114455e+18,2.4454453125,0.1993205547332764,-1.3566656112670898,1.0081430276234944,1.6887552635200942e+18,2.454094319661458,2.9042885303497314,-10.1884396870931,-0.021136601765950596,1.6887552635200942e+18,2.454094319661458,2.7775025367736816,-9.396508852640787,-0.4590749641259511,1.6887552635157773e+18,2.449777425130208,0.6724608341852824,-1.3469069600105286,0.633569081624349,1.6887552635157773e+18,2.449777425130208,0.6713918149471283,-1.3427327275276184,0.6358598073323568,,,,,,,,,,,,1.6887552635190577e+18,2.453057666015625,-10.213839912414551,37.917599487304685,28.794439697265624,1.6887552635190577e+18,2.453057666015625,-264.742431640625,131.2353973388672,-103.20955963134766,1.6887552635114455e+18,2.4454453125,0.5973403851191202,-0.43433136741320294,-0.4251863360404968,0.5231044093767802,0.20146269102891287,1.3009813229242961,-1.856447656949361
2.5,1.6887552635633551e+18,2.497355224609375,0.018510977427164694,2.6762582461039224,-0.5528323650360107,1.6887552635720102e+18,2.50601025390625,3.359522978464762,-6.510671138763428,-1.1014960259199142,1.6887552635720102e+18,2.50601025390625,3.092485268910726,-9.284135818481445,-0.6881367166837057,1.6887552635676823e+18,2.5016823730468754,0.6499606271584829,-1.0498737494150798,0.4453716774781544,1.6887552635676823e+18,2.5016823730468754,0.6488916178544363,-1.0455976724624634,0.4477133204539616,,,,,,,,,,,,1.6887552635690598e+18,2.5030599609374997,-13.227239608764648,36.5341194152832,29.489839172363283,1.6887552635690598e+18,2.5030599609374997,-267.7558349609375,129.85191650390624,-102.5141586303711,1.6887552635633551e+18,2.497355224609375,0.6263246933619181,-0.4291905363400777,-0.409620076417923,0.5056057969729105,0.26075479884942365,1.2594170570373535,-1.9736944834391277
2.55,1.688755263615266e+18,2.54926611328125,0.6727964878082275,1.948495864868164,0.4885677893956503,1.6887552636152591e+18,2.54925927734375,3.9667017459869385,-7.296912670135498,-0.19710876792669296,1.6887552636152591e+18,2.54925927734375,3.1636475324630737,-9.260710716247559,-0.683021754026413,1.688755263619596e+18,2.5535960286458335,0.19797124465306595,-1.0246246258417766,-0.03695734776556486,1.688755263619596e+18,2.5535960286458335,0.19690223286549247,-1.02034858862559,-0.03466660218934214,,,,,,,,,,,,1.6887552636190605e+18,2.5530604980468747,-15.240239715576172,35.77283935546875,29.24095916748047,1.6887552636190605e+18,2.5530604980468747,-269.7688415527344,129.09063720703125,-102.763037109375,1.688755263615266e+18,2.54926611328125,0.6443003217379252,-0.43667436639467877,-0.3941901624202728,0.48862266540527344,0.25797422726949054,1.2468099196751912,-2.0299060344696045
2.6,1.6887552636671706e+18,2.6011706542968747,1.0737032890319824,0.8548803329467773,-0.7764511704444885,1.6887552636585265e+18,2.5925263671875,4.24367094039917,-8.29491901397705,-1.430907924969991,1.6887552636585265e+18,2.5925263671875,3.183450619379679,-9.259228070576986,-0.6065085132916769,1.6887552636715052e+18,2.605505208333333,0.0804305933415889,-0.7375179727872213,0.0131336028377215,1.6887552636715052e+18,2.605505208333333,0.0793615765869617,-0.733292818069458,0.015475252798447999,,,,,,,,,,,,1.6887552636690621e+18,2.60306201171875,-16.5944393157959,35.82164001464844,28.621198654174805,1.6887552636690621e+18,2.60306201171875,-271.12303466796874,129.13943786621093,-103.38279724121094,1.6887552636671706e+18,2.6011706542968747,0.6542863647143046,-0.4463650584220886,-0.3810453613599141,0.4769134720166524,0.23008991281191501,1.2455683549245198,-2.0474514166514077
2.65,1.6887552637190874e+18,2.6530875651041668,1.0595563252766926,1.2251086235046387,-0.4945574998855591,1.688755263710436e+18,2.644435791015625,4.4091746012369795,-8.152546087900797,-1.277368466059367,1.688755263710436e+18,2.644435791015625,3.216841777165731,-9.251398404439291,-0.5473279555638632,1.6887552637234138e+18,2.6574138997395833,0.20306178927421567,-0.7059056957562765,-0.1042034321775039,1.6887552637234138e+18,2.6574138997395833,0.20199277997016904,-0.70162965854009,-0.10191268535951774,,,,,,,,,,,,1.6887552637190618e+18,2.653061767578125,-17.568000030517577,35.74599914550781,28.157599639892577,1.6887552637190618e+18,2.653061767578125,-272.0965942382812,129.0637969970703,-103.84639892578124,1.6887552637190874e+18,2.6530875651041668,0.6633462111155192,-0.45367829998334247,-0.37014349301656085,0.46595388650894165,0.21392125884691873,1.243324875831604,-2.070427656173706
2.7,1.6887552637709924e+18,2.704992268880208,0.6998576323191324,0.9907495180765786,0.2641926904519399,1.6887552637623442e+18,2.6963443196614585,4.019742647806804,-8.084550062815348,-0.30348967512448627,1.6887552637623442e+18,2.6963443196614585,3.13069756825765,-9.280379931131998,-0.554067075252533,1.6887552637666724e+18,2.70067236328125,0.22686007618904108,-0.46189047396183014,-0.39095374941825867,1.6887552637666724e+18,2.70067236328125,0.22579106688499445,-0.45776714384555817,-0.38866300880908966,,,,,,,,,,,,1.6887552637690557e+18,2.703055908203125,-17.899839782714842,35.96071929931641,27.879439544677734,1.6887552637690557e+18,2.703055908203125,-272.4284362792969,129.278515625,-104.12455902099609,1.6887552637709924e+18,2.704992268880208,0.6682468255360922,-0.4628130892912546,-0.3662165701389312,0.4529000520706177,0.2276332378387451,1.2541277805964153,-2.1156530380249023
2.75,1.6887552638229074e+18,2.756907470703125,2.3415423234303794,0.22896512349446616,0.3026558955510458,1.6887552638142554e+18,2.74825537109375,4.981657266616821,-9.159724871317545,-0.502492735783259,1.6887552638142554e+18,2.74825537109375,3.0119528770446777,-9.31839688618978,-0.5757315953572592,1.688755263809923e+18,2.743922932942708,0.12838351229826603,-0.2898555546998977,-0.20046561459700266,1.688755263809923e+18,2.743922932942708,0.12731450051069257,-0.28563040494918823,-0.198123961687088,,,,,,,,,,,,1.6887552638190628e+18,2.7530626953125,-17.719279479980468,36.08271942138672,27.613479614257812,1.6887552638190628e+18,2.7530626953125,-272.24786987304685,129.40051879882813,-104.39051971435546,1.6887552638229074e+18,2.756907470703125,0.6701365113258362,-0.4691390593846639,-0.36515801151593524,0.4443855881690979,0.24234375357627866,1.2640505234400432,-2.1483565171559653
2.8,1.6887552638661535e+18,2.8001533203125,2.1083263158798218,0.5773444175720215,0.4538714438676834,1.6887552638661568e+18,2.8001566569010414,5.172086079915364,-8.954141616821289,-0.2827518781026204,1.6887552638661568e+18,2.8001566569010414,2.9323440392812095,-9.341233889261881,-0.6145628492037455,1.688755263861839e+18,2.795838948567708,0.22276219725608826,-0.3628539542357127,-0.252643679579099,1.688755263861839e+18,2.795838948567708,0.22169317801793412,-0.3586797018845876,-0.25035293896993,,,,,,,,,,,,1.6887552638690624e+18,2.8030624511718747,-18.287799835205078,36.03147964477539,27.718399429321288,1.6887552638690624e+18,2.8030624511718747,-272.81638793945314,129.34927673339843,-104.28559722900391,1.6887552638661535e+18,2.8001533203125,0.672946572303772,-0.47383648157119745,-0.3636837303638458,0.4362920075654983,0.25945746898651123,1.2699341773986816,-2.1828466653823853
2.85,1.6887552639094147e+18,2.8434147135416663,2.58685032526652,-4.3526153564453125,-0.4916939338048299,1.688755263918073e+18,2.8520734049479164,5.3304111162821455,-14.961722056070963,-1.9371893604596455,1.688755263918073e+18,2.8520734049479164,2.860058625539144,-9.357792218526205,-0.6978514591852824,1.6887552639137482e+18,2.8477481282552084,0.24353161454200742,-0.15561792254447934,-0.07035131752490996,1.6887552639137482e+18,2.8477481282552084,0.24246259530385328,-0.15139276782671607,-0.0680605669816335,,,,,,,,,,,,1.6887552639190625e+18,2.8530625,-18.368319702148437,36.03147811889649,27.88919906616211,1.6887552639190625e+18,2.8530625,-272.89691162109375,129.34927978515626,-104.11479797363282,1.6887552639094147e+18,2.8434147135416663,0.6750016212463379,-0.47698596119880676,-0.36460950970649714,0.42885008454322815,0.28945182760556537,1.2752996683120728,-2.224740187327067
2.9,1.6887552639613276e+18,2.895327555338542,-2.123776435852051,-1.6999004681905114,-2.754649837811788,1.6887552639699825e+18,2.9039825846354166,0.23629122599959365,-8.32323408126831,-2.3625136613845825,1.6887552639699825e+18,2.9039825846354166,3.094480037689209,-9.268755276997885,-0.8588939507802328,1.688755263965659e+18,2.8996589355468747,0.3496185392141342,0.3318016429742177,0.6412048836549123,1.688755263965659e+18,2.8996589355468747,0.3485495299100876,0.3360267827908198,0.6434956391652424,,,,,,,,,,,,1.6887552639690575e+18,2.9030576171874998,-19.46631965637207,35.094519805908206,28.040479278564455,1.6887552639690575e+18,2.9030576171874998,-273.9949157714844,128.41231994628907,-103.96351623535156,1.6887552639613276e+18,2.895327555338542,0.6832939187685648,-0.4673074583212535,-0.3633098900318146,0.4274223546187083,0.313257892926534,1.2507886091868083,-2.2506328423817954
2.95,1.6887552640132403e+18,2.947240234375,-1.9746469656626384,4.518581072489421,5.4648352066675825,1.688755264021889e+18,2.9558889973958333,1.705085555712382,-6.435097853342692,3.173481067021688,1.688755264021889e+18,2.9558889973958333,2.901518185933431,-9.331033070882162,-0.8509776790936788,1.6887552640175675e+18,2.951567545572917,-0.6160066798329353,0.5978334546089172,-0.7213809490203857,1.6887552640175675e+18,2.951567545572917,-0.6170757102469603,0.6020585944255193,-0.719090203444163,,,,,,,,,,,,1.6887552640190653e+18,2.95306552734375,-17.909599685668944,35.67279891967773,28.44795913696289,1.6887552640190653e+18,2.95306552734375,-272.4382019042969,128.9905975341797,-103.55603942871093,1.6887552640132403e+18,2.947240234375,0.6762669483820597,-0.4634135961532593,-0.37436812122662855,0.4332355260848999,0.3457889159520467,1.25710924466451,-2.2544093132019043
3.0,1.6887552640651466e+18,2.999146484375,-4.311274607976277,-1.4798167546590169,-4.8289681275685625,1.6887552640651446e+18,2.9991446533203128,-2.785245642066002,-11.320144653320312,-6.46361231803894,1.6887552640651446e+18,2.9991446533203128,2.409691095352173,-9.47740888595581,-0.7687016129493713,1.688755264069477e+18,3.0034772135416667,-0.2363030361011624,1.163647398352623,-1.0951286951700847,1.688755264069477e+18,3.0034772135416667,-0.237372051924467,1.167821630835533,-1.0928379495938618,,,,,,,,,,,,1.6887552640690583e+18,3.003058349609375,-14.395999717712403,37.31491928100586,28.47967948913574,1.6887552640690583e+18,3.003058349609375,-268.9245910644531,130.63271789550782,-103.52431945800781,1.6887552640651466e+18,2.999146484375,0.6458056171735128,-0.47429309288660687,-0.39781562487284344,0.4467106858889261,0.37046533823013306,1.3177653153737385,-2.2199978828430176
3.05,1.6887552641170552e+18,3.0510550944010415,2.61651877562205,0.1982358296712239,-1.110556999842326,1.6887552641084076e+18,3.042407552083333,3.269792079925537,-9.180462837219238,-2.56650177637736,1.6887552641084076e+18,3.042407552083333,2.1436819235483804,-9.54603385925293,-0.7148641347885132,1.688755264121379e+18,3.0553791503906247,-0.530740092198054,0.9149234344561895,-0.3545054669181505,1.688755264121379e+18,3.0553791503906247,-0.5318091015021006,0.9190976743896803,-0.35216381897528964,,,,,,,,,,,,1.6887552641190595e+18,3.053059423828125,-12.597719764709472,37.90051956176758,28.04779968261719,1.6887552641190595e+18,3.053059423828125,-267.126318359375,131.21831359863282,-103.9561981201172,1.6887552641170552e+18,3.0510550944010415,0.6285817821820577,-0.4794534246126811,-0.4111631413300832,0.45374853412310284,0.3840809464454651,1.350969950358073,-2.200102965037028
3.1,1.6887552641689695e+18,3.1029697265625003,-2.431682904561361,0.2850780487060547,-2.5010836521784463,1.6887552641603167e+18,3.09431689453125,0.4175475835800171,-9.376275698343912,-2.4713869194189706,1.6887552641603167e+18,3.09431689453125,1.7481988668441772,-9.631307601928711,-0.622260332107544,1.6887552641732959e+18,3.1072960611979163,-0.28221973776817316,0.9778425544500351,-0.9906197786331177,1.6887552641732959e+18,3.1072960611979163,-0.2832378447055816,0.9820676992336909,-0.9883290529251099,,,,,,,,,,,,1.6887552641690606e+18,3.1030605957031248,-8.993839740753174,39.086358642578126,27.85747947692871,1.6887552641690606e+18,3.1030605957031248,-263.5224365234375,132.40415649414064,-104.14651794433594,1.6887552641689695e+18,3.1029697265625003,0.5983586510022482,-0.4810417791207631,-0.43771110971768695,0.46783427397410077,0.44906075795491535,1.3992225726445515,-2.1945934295654297
3.15,1.68875526422087e+18,3.1548700358072916,0.6300121744473776,0.7389825185139974,-1.272764225800832,1.6887552642122253e+18,3.146225341796875,1.2530414859453838,-9.298708279927572,-2.4723840157190957,1.6887552642122253e+18,3.146225341796875,1.3206933339436848,-9.702912012736002,-0.5807755986849467,1.6887552642165535e+18,3.1505535888671874,0.043676860630512244,-0.4986187666654587,-0.6833291351795197,1.6887552642165535e+18,3.1505535888671874,0.04260785132646561,-0.4943426847457886,-0.6810383796691895,,,,,,,,,,,,1.68875526421906e+18,3.15306005859375,-6.773439979553222,39.59143905639648,27.193799209594726,1.68875526421906e+18,3.15306005859375,-261.3020324707031,132.90923767089845,-104.81019897460938,1.68875526422087e+18,3.1548700358072916,0.5870359937349955,-0.49319424231847125,-0.44670408964157104,0.4610409140586853,0.5500010251998901,1.436290979385376,-2.2938899199167886
3.2,1.6887552642727875e+18,3.20678759765625,1.7722293138504028,1.0567490259806316,-1.0666629672050476,1.6887552642641295e+18,3.198129557291667,2.727219581604004,-8.631908416748047,-1.523829181989034,1.6887552642641295e+18,3.198129557291667,1.0000483791033428,-9.74083423614502,-0.5895365873972574,1.6887552642598113e+18,3.193811279296875,0.03456479279945294,-0.43223807215690613,-0.6213517685731252,1.6887552642598113e+18,3.193811279296875,0.0334957777522504,-0.4280129075050354,-0.619061013062795,,,,,,,,,,,,1.6887552642690606e+18,3.203060693359375,-6.095119857788086,39.701239013671874,27.242599868774413,1.6887552642690606e+18,3.203060693359375,-260.62371826171875,133.01903686523437,-104.76139831542969,1.6887552642727875e+18,3.20678759765625,0.5852925380071005,-0.5075536568959554,-0.4477014442284902,0.4465063313643138,0.7024779121081034,1.4607245127360027,-2.472543954849243
3.25,1.6887552643160512e+18,3.25005126953125,4.290032625198364,2.4688193798065186,-1.989237129688263,1.6887552643160445e+18,3.250044514973958,4.749154806137085,-7.3264241218566895,-2.583251396814982,1.6887552643160445e+18,3.250044514973958,0.9118947585423788,-9.748001098632812,-0.6163394252459208,1.688755264311721e+18,3.245720947265625,0.10069095591704047,-0.1438587655623754,-0.01954768846432366,1.688755264311721e+18,3.245720947265625,0.09962193916241324,-0.13958271344502768,-0.01725694661339124,,,,,,,,,,,,1.6887552643190564e+18,3.2530564453125,-6.182959938049317,39.735398864746095,27.240159606933595,1.6887552643190564e+18,3.2530564453125,-260.71156005859376,133.05319519042968,-104.76383819580079,1.6887552643160512e+18,3.25005126953125,0.5874541401863098,-0.5118207335472107,-0.44610387086868286,0.440372109413147,0.7543212473392487,1.463477909564972,-2.5386282205581665
3.3,1.688755264359295e+18,3.2932948404947915,2.0382463932037354,3.511889616648356,0.13495461146036783,1.6887552643679552e+18,3.3019551595052086,3.060220797856649,-6.20498784383138,-0.39401812354723614,1.6887552643679552e+18,3.3019551595052086,1.1261355876922607,-9.715266227722168,-0.7568666537602743,1.6887552643636234e+18,3.297623453776042,0.2648100753625234,0.554716557264328,0.5436191658178965,1.6887552643636234e+18,3.297623453776042,0.26374106605847675,0.5588907897472382,0.5459099113941193,,,,,,,,,,,,1.6887552643690596e+18,3.3030596191406247,-6.400119876861572,39.15711898803711,27.562239837646484,1.6887552643690596e+18,3.3030596191406247,-260.9287170410156,132.47491760253905,-104.44175872802734,1.688755264359295e+18,3.2932948404947915,0.590829869111379,-0.5001892447471619,-0.4493267635504405,0.4458695749441783,0.7265268762906393,1.4424075682957966,-2.4938676357269287
3.35,1.6887552644112097e+18,3.3452097981770827,-1.2445007960001628,4.509639581044515,-0.3058706919352214,1.6887552644198674e+18,3.3538671875,-0.6725825468699139,-4.964508692423503,-1.6737794478734334,1.6887552644198674e+18,3.3538671875,1.3423291444778442,-9.681531270345053,-0.8376030524571737,1.68875526441554e+18,3.3495399576822913,-0.055385112762451165,0.38143443564573926,0.33449963728586835,1.68875526441554e+18,3.3495399576822913,-0.05645413448413213,0.3856595754623413,0.33679037044445675,,,,,,,,,,,,1.6887552644190612e+18,3.35306142578125,-5.882839965820312,39.23275909423828,27.837959671020506,1.6887552644190612e+18,3.35306142578125,-260.41143798828125,132.5505584716797,-104.1660369873047,1.6887552644112097e+18,3.3452097981770827,0.59183802207311,-0.4827549358208974,-0.45456141233444214,0.45829235514005023,0.6703859170277914,1.4162526528040569,-2.4035842418670654
3.4,1.688755264463118e+18,3.397118001302083,-0.08731603622436523,3.2993783950805664,-2.636443853378296,1.6887552644717722e+18,3.405772135416667,1.3347962697347004,-6.680760860443115,-3.6331023375193277,1.6887552644717722e+18,3.405772135416667,1.2572693427403767,-9.685337702433268,-0.9170925617218018,1.6887552644674488e+18,3.401448811848958,0.2770273933808009,0.4360559582710266,-0.294742484887441,1.6887552644674488e+18,3.401448811848958,0.2759583741426468,0.44028111298878986,-0.2924008270104726,,,,,,,,,,,,1.6887552644690673e+18,3.4030673339843753,-6.063399887084961,39.11075897216797,28.10147933959961,1.6887552644690673e+18,3.4030673339843753,-260.5919982910156,132.42855834960938,-103.90251770019532,1.688755264463118e+18,3.397118001302083,0.5913843313852946,-0.4825798173745473,-0.4568379918734233,0.456783652305603,0.7054717739423116,1.416616400082906,-2.4372634092966714
3.45,1.6887552645150272e+18,3.4490272623697913,-0.8823115030924479,5.0674387613932295,0.17823437849680582,1.6887552645236872e+18,3.4576874186197917,1.205783208211263,-4.469393889109294,-0.29411775618791575,1.6887552645236872e+18,3.4576874186197917,1.3943696022033691,-9.640408515930176,-1.148775339126587,1.6887552645193587e+18,3.453358805338542,0.17710001269976297,0.14940745631853738,0.8782205879688263,1.6887552645193587e+18,3.453358805338542,0.17603100339571634,0.15363260110219312,0.8805113434791565,,,,,,,,,,,,1.6887552645190656e+18,3.4530655761718747,-4.997119903564453,38.371439361572264,28.76515922546387,1.6887552645190656e+18,3.4530655761718747,-259.5257141113281,131.68923645019532,-103.23883819580078,1.6887552645150272e+18,3.4490272623697913,0.5884342988332113,-0.4661269585291545,-0.4727802177270253,0.46140721440315247,0.8202044169108073,1.3966793616612752,-2.511906623840332
3.5,1.6887552645669379e+18,3.500937825520833,-1.0630362431208293,-3.3306268056233725,-0.6606507301330566,1.6887552645669396e+18,3.5009395751953125,0.6095715910196304,-12.203993797302246,-1.801496297121048,1.6887552645669396e+18,3.5009395751953125,1.9671995639801025,-9.577185153961182,-0.7896277606487274,1.6887552645712678e+18,3.505267659505208,-1.197041352589925,-1.0353147983551025,1.362738569577535,1.6887552645712678e+18,3.505267659505208,-1.1981104016304016,-1.0311405658721924,1.3650293151537578,,,,,,,,,,,,1.6887552645690637e+18,3.503063623046875,-8.935279750823975,38.84967880249023,27.298719787597655,1.6887552645690637e+18,3.503063623046875,-263.46387939453126,132.16748046875,-104.70527648925781,1.6887552645669379e+18,3.500937825520833,0.6061472694079081,-0.46354301770528156,-0.4375425179799397,0.4754788776238759,0.4501156508922577,1.3604007959365845,-2.17862335840861
3.55,1.6887552646188452e+18,3.5528452962239583,0.9001392523447672,-17.589277903238933,-2.8428006569544473,1.6887552646101996e+18,3.544199300130208,2.227917234102885,-26.50828742980957,-3.7565321127573648,1.6887552646101996e+18,3.544199300130208,2.8071722189585366,-9.388228098551432,-0.218270719051361,1.688755264623174e+18,3.557173909505208,-0.4335107132792473,-1.396234353383382,2.786309083302816,1.688755264623174e+18,3.557173909505208,-0.43457970519860584,-1.3920600811640422,2.788599888483683,,,,,,,,,,,,1.6887552646190605e+18,3.5530603515625003,-14.044639778137206,39.05707931518555,24.441479110717772,1.6887552646190605e+18,3.5530603515625003,-268.5732360839844,132.3748779296875,-107.56251678466796,1.6887552646188452e+18,3.5528452962239583,0.6287036140759786,-0.4533624251683553,-0.38223055998484295,0.5025653938452402,0.08882597585519152,1.2686176697413127,-1.8596087296803792
3.6,1.6887552646707558e+18,3.6047557779947916,0.8485984007517496,-3.250264803568522,2.044192353884379,1.6887552646621033e+18,3.596103352864583,5.661418358484904,-14.117852846781412,1.8833507299423218,1.6887552646621033e+18,3.596103352864583,4.0084554354349775,-8.946353276570639,0.1980786323547363,1.6887552646664259e+18,3.6004257812500002,-0.310014110058546,-1.8973474502563477,1.9347630143165588,1.6887552646664259e+18,3.6004257812500002,-0.3110831193625927,-1.8931477665901184,1.9371300339698792,,,,,,,,,,,,1.6887552646690627e+18,3.603062548828125,-21.264599990844726,37.19535903930664,22.382119369506835,1.6887552646690627e+18,3.603062548828125,-275.79319458007814,130.51315612792968,-109.62187805175782,1.6887552646707558e+18,3.6047557779947916,0.6686427195866903,-0.4374797542889913,-0.31967974702517193,0.5089512268702189,-0.041538498364388936,1.1448750495910645,-1.8142196337382
3.65,1.6887552647226604e+18,3.6566603190104168,-0.05836955706278483,-6.008115132649739,2.567946195602417,1.688755264714018e+18,3.64801806640625,5.208377361297607,-14.301502227783203,3.3375887870788574,1.688755264714018e+18,3.64801806640625,4.837110837300618,-8.49970531463623,0.724014143149058,1.6887552647096937e+18,3.6436936035156244,-0.7889324476321539,-0.3611231744289398,1.8149315516153972,1.6887552647096937e+18,3.6436936035156244,-0.7900014569362005,-0.356898029645284,1.817273219426473,,,,,,,,,,,,1.688755264719063e+18,3.65306298828125,-25.45407943725586,35.85823974609375,20.266639709472656,1.688755264719063e+18,3.65306298828125,-279.9826721191406,129.17604064941406,-111.73735809326172,1.6887552647226604e+18,3.6566603190104168,0.6835530996322632,-0.42101876934369403,-0.27555296818415326,0.5286127130190531,-0.1374464854598045,1.049176812171936,-1.7455850839614868
3.7,1.6887552647659254e+18,3.699925415039062,-3.6654598712921143,3.094189405441284,-0.18849423527717596,1.688755264765923e+18,3.699923095703125,1.73579337199529,-5.2644091844558725,0.8061818381150564,1.688755264765923e+18,3.699923095703125,5.112920920054118,-8.318224906921387,0.9481809337933859,1.6887552647615936e+18,3.695593424479167,0.4539746840794881,-1.3045027256011963,0.19481511414051056,1.6887552647615936e+18,3.695593424479167,0.4529565672079722,-1.3002266883850098,0.19710584978262582,,,,,,,,,,,,1.6887552647690593e+18,3.703059228515625,-28.042919540405272,34.728518676757815,19.05395927429199,1.6887552647690593e+18,3.703059228515625,-282.57152099609374,128.04632110595702,-112.95003662109374,1.6887552647659254e+18,3.699925415039062,0.698999434709549,-0.4240806996822357,-0.25299471616744995,0.5172125697135925,-0.16441480815410608,1.0247957706451416,-1.7749123573303223
3.75,1.6887552648091853e+18,3.743185302734375,-5.359066645304362,11.638424555460611,0.9031215012073517,1.688755264817836e+18,3.7518359374999997,0.1363908847173055,4.124229272206624,2.3222343921661377,1.688755264817836e+18,3.7518359374999997,4.958544731140137,-8.40042781829834,1.0379900534947712,1.6887552648135114e+18,3.747511474609375,-0.17511470375272128,0.20830505589644113,-0.5110905766487122,1.6887552648135114e+18,3.747511474609375,-0.17618371468658242,0.2125301957130432,-0.5087998410065969,,,,,,,,,,,,1.6887552648190623e+18,3.7530625,-27.61103973388672,35.25067901611328,18.453719711303712,1.6887552648190623e+18,3.7530625,-282.1396423339844,128.56847381591797,-113.55027770996094,1.6887552648091853e+18,3.743185302734375,0.6995488603909811,-0.43340609471003216,-0.24985724190870917,0.5102388660113016,-0.18360783656438184,1.037943998972575,-1.7761377493540447
3.8,1.6887552648610947e+18,3.795094482421875,-3.013850450515747,11.775237719217936,0.5127754608790079,1.6887552648697454e+18,3.8037453613281245,0.9232307473818461,2.2055843683580556,1.0777671933174133,1.6887552648697454e+18,3.8037453613281245,4.448657671610515,-8.666102091471354,1.1193242867787678,1.688755264865418e+18,3.799417724609375,-0.6612107157707214,0.8006407022476196,-1.9111936887105305,1.688755264865418e+18,3.799417724609375,-0.6622797250747681,0.8048658768335978,-1.9089029630025227,,,,,,,,,,,,1.688755264869058e+18,3.8030579101562503,-24.946559524536134,36.99040069580078,18.53423957824707,1.688755264869058e+18,3.8030579101562503,-279.47515869140625,130.30819702148438,-113.46975860595703,1.6887552648610947e+18,3.795094482421875,0.6776556968688965,-0.4458848237991333,-0.2682308057943979,0.5194094181060791,-0.2153779566287994,1.082430084546407,-1.7034211158752441
3.85,1.6887552649129956e+18,3.8469956868489583,-3.469489097595215,7.930876890818278,-0.96312948067983,1.6887552649216512e+18,3.855651204427083,0.001395811637242635,-1.7345970074335735,0.029511476556460064,1.6887552649216512e+18,3.855651204427083,3.093526601791382,-9.192330360412598,1.4050217469533284,1.688755264917323e+18,3.8513232421874997,-0.861116369565328,0.5204571882883707,-3.236262241999308,1.688755264917323e+18,3.8513232421874997,-0.8621344765027364,0.5247332453727722,-3.2339205741882324,,,,,,,,,,,,1.6887552649190577e+18,3.853057763671875,-19.171079635620117,40.91147918701172,17.648519897460936,1.6887552649190577e+18,3.853057763671875,-273.6996826171875,134.22927856445312,-114.35547943115235,1.6887552649129956e+18,3.8469956868489583,0.628328780333201,-0.4912709891796112,-0.3056831161181132,0.5194436510403951,-0.37338485320409137,1.2086934645970662,-1.4980167945226033
3.9,1.688755264964914e+18,3.8989138183593752,2.818206270535786,-6.49825382232666,-3.580871899922689,1.6887552649735606e+18,3.907560546875,8.126823196808497,-20.547567049662273,-0.7385845979054769,1.6887552649735606e+18,3.907560546875,2.0015551249186196,-9.387271563212076,2.0030039151509604,1.6887552649692403e+18,3.9032403157552085,-2.0497074524561563,1.2001974781354268,-1.4063644806543987,1.6887552649692403e+18,3.9032403157552085,-2.050776481628418,1.204422612984975,-1.4040737549463909,,,,,,,,,,,,1.6887552649690563e+18,3.9030562988281248,-12.492799949645995,43.91511840820313,15.637959861755371,1.6887552649690563e+18,3.9030562988281248,-267.0213989257812,137.23291931152343,-116.36603698730468,1.688755264964914e+18,3.8989138183593752,0.5681624611218771,-0.5355218648910522,-0.33825644850730896,0.5249173045158386,-0.7332355578740438,1.299924612045288,-1.0809068878491719
3.95,1.6887552650168136e+18,3.9508136393229165,7.031360308329265,-7.676438331604003,2.507883866628011,1.6887552650168223e+18,3.9508223876953124,9.70469045639038,-16.613666534423828,5.743671655654907,1.6887552650168223e+18,3.9508223876953124,2.1248581409454346,-9.090822696685791,3.005722999572754,1.688755265021145e+18,3.95514501953125,-2.3196080525716147,-0.11850785215695699,-0.26445372899373365,1.688755265021145e+18,3.95514501953125,-2.320677081743876,-0.1143336147069931,-0.2621630032857259,,,,,,,,,,,,1.688755265019056e+18,3.9530561523437497,-11.380159759521485,46.05011978149414,9.916159915924073,1.688755265019056e+18,3.9530561523437497,-265.90875854492185,139.3679168701172,-122.08783874511718,1.6887552650168136e+18,3.9508136393229165,0.5263851483662924,-0.5493486523628235,-0.31257278720537823,0.5684532125790914,-0.9698854486147562,1.2046857674916585,-0.7992751002311707
4.0,1.6887552650687235e+18,4.002723388671875,-7.001747926076253,-7.975928942362468,5.47881293296814,1.6887552650600722e+18,3.994072102864583,-3.6440695921579995,-14.217753728230795,7.4478598435719805,1.6887552650600722e+18,3.994072102864583,1.7755757172902424,-8.988219261169434,3.5044899781545005,1.6887552650730527e+18,4.007052652994791,-0.264504666129748,1.2318606947859128,-1.235780378182729,1.6887552650730527e+18,4.007052652994791,-0.2655736580491066,1.2360348949829738,-1.2334896326065063,,,,,,,,,,,,1.6887552650690593e+18,4.003059423828125,-7.832399940490722,47.09199905395508,6.936919784545898,1.6887552650690593e+18,4.003059423828125,-262.3609924316406,140.40979614257813,-125.06707611083985,1.6887552650687235e+18,4.002723388671875,0.48294387261072796,-0.5613794525464376,-0.32300404707590735,0.5891289114952087,-1.1400891145070393,1.1756689151128132,-0.5656552712122599
4.05,1.6887552651206372e+18,4.054637369791667,0.6730242967605591,-2.057915846506754,1.1679208278656006,1.68875526511199e+18,4.045989908854167,2.3738794326782227,-14.350754578908285,6.135595917701721,1.68875526511199e+18,4.045989908854167,1.7168570756912231,-9.000016848246256,3.502161979675293,1.6887552651163172e+18,4.0503170166015625,-0.23296873271465296,0.9326384961605072,0.7942775189876556,1.6887552651163172e+18,4.0503170166015625,-0.23403774574398994,0.9368382394313813,0.7965682744979858,,,,,,,,,,,,1.6887552651190605e+18,4.053060302734375,-6.87347993850708,47.23839797973633,6.7319599151611325,1.6887552651190605e+18,4.053060302734375,-261.4020751953125,140.5561981201172,-125.27203826904297,1.6887552651206372e+18,4.054637369791667,0.4724465012550354,-0.5531407594680786,-0.33195988337198895,0.6004592974980673,-1.1253403425216675,1.1714777946472168,-0.5405433376630148
4.1,1.6887552651725455e+18,4.106545572916667,-3.848948955535889,-2.0051113764444985,-1.4986640612284343,1.688755265163896e+18,4.09789599609375,-1.0660024881362915,-10.239885171254477,2.6101707021395364,1.688755265163896e+18,4.09789599609375,1.5241413116455078,-9.01809056599935,3.538247028986613,1.6887552651595715e+18,4.093571614583333,0.00951931873957318,-0.18723020950953173,-1.3105095475912094,1.6887552651595715e+18,4.093571614583333,0.008450299501419104,-0.1829541623592376,-1.3082188156743844,,,,,,,,,,,,1.6887552651690583e+18,4.1030583984375,-5.882839965820312,47.253038787841795,6.875919818878174,1.6887552651690583e+18,4.1030583984375,-260.41143188476565,140.57083740234376,-125.12807922363281,1.6887552651725455e+18,4.106545572916667,0.4595507284005483,-0.5632872780164083,-0.34421755870183307,0.5939448475837708,-1.2239625453948975,1.1852689981460571,-0.4331583082675934
4.15,1.6887552652158034e+18,4.149803222656249,-3.3813565969467163,-1.3164057731628418,-4.80497670173645,1.6887552652158024e+18,4.149802327473958,-2.255235274632772,-9.993623415629068,-0.980658491452535,1.6887552652158024e+18,4.149802327473958,0.7195722460746765,-9.113484064737955,3.5434972445170083,1.6887552652114834e+18,4.1454833984374995,-0.21716259916623434,-0.3964006304740905,-1.7698293526967366,1.6887552652114834e+18,4.1454833984374995,-0.21823161095380783,-0.39212459325790405,-1.7674876848856609,,,,,,,,,,,,1.6887552652190597e+18,4.1530596679687495,-1.4664399385452271,47.74835968017578,6.3708398818969725,1.6887552652190597e+18,4.1530596679687495,-255.99503479003906,141.06615600585937,-125.63315887451172,1.6887552652158034e+18,4.149803222656249,0.432585671544075,-0.575791597366333,-0.37045963108539576,0.5864736139774323,-1.3971214890480042,1.2016319632530212,-0.22601418197154993
4.2,1.6887552652590682e+18,4.193068033854167,4.302072962125142,3.7690909703572593,-2.3065170447031655,1.688755265267718e+18,4.201717936197917,3.2757741808891296,-5.255037307739258,1.6474583546320598,1.688755265267718e+18,4.201717936197917,-0.1908003088707725,-9.137223879496256,3.56230362256368,1.688755265263392e+18,4.197392171223958,0.011148290087779372,-0.586837870379289,-1.2618439594904582,1.688755265263392e+18,4.197392171223958,0.010079279541969263,-0.5826127206285795,-1.2595023314158122,,,,,,,,,,,,1.6887552652690621e+18,4.20306220703125,2.1569599866867066,47.5921989440918,6.207359790802002,1.6887552652690621e+18,4.20306220703125,-252.37163391113282,140.90999755859374,-125.79663696289063,1.6887552652590682e+18,4.193068033854167,0.4244537651538849,-0.6079964439074198,-0.3767874638239543,0.5551025867462158,-1.6363221804300945,1.2065130074818928,-0.036770480374495165
4.25,1.6887552653109711e+18,4.244971435546875,4.022037426630656,0.6969153086344401,-1.268332878748576,1.6887552653196234e+18,4.25362353515625,5.784050516784191,-9.20139996210734,1.8897316455841064,1.6887552653196234e+18,4.25362353515625,-0.49174753824869794,-9.074276606241861,3.6944334506988525,1.6887552653153032e+18,4.24930322265625,-0.3967569768428802,-0.46354491263628006,-0.12186762193838753,1.6887552653153032e+18,4.24930322265625,-0.3978259861469269,-0.45926886796951294,-0.11957687139511107,,,,,,,,,,,,1.688755265319059e+18,4.253059130859375,3.7917599201202394,47.526318359375,5.970679855346679,1.688755265319059e+18,4.253059130859375,-250.73683471679686,140.8441192626953,-126.03331756591797,1.6887552653109711e+18,4.244971435546875,0.4119174877802531,-0.6218266487121582,-0.38070353865623474,0.5465242664019266,-1.7418047587076824,1.1901843547821045,0.06247343868017193
4.3,1.6887552653628854e+18,4.296885416666667,7.961188594500224,1.766628583272298,-2.4220680395762124,1.6887552653715402e+18,4.305540120442708,4.995814879735311,-6.518647034962972,1.6773686408996582,1.6887552653715402e+18,4.305540120442708,-0.0035722566147645685,-9.101890246073404,3.6540257930755615,1.688755265367212e+18,4.301212239583333,0.34020104507605237,2.365931987762451,0.4182390704130133,1.688755265367212e+18,4.301212239583333,0.33913203080495197,2.3701571226119995,0.4205298024850586,,,,,,,,,,,,1.6887552653690545e+18,4.30305439453125,3.137839937210083,47.677598571777345,5.585159873962402,1.6887552653690545e+18,4.30305439453125,-251.39075622558593,140.99539794921876,-126.41883697509766,1.6887552653628854e+18,4.296885416666667,0.4121867815653483,-0.6062348683675131,-0.38100481033325195,0.5630644162495931,-1.6399554808934529,1.1919691562652588,-0.006598489979902901
4.35,1.6887552654147878e+18,4.3487875976562504,-6.395116647084554,6.67149559656779,-2.2311946551005044,1.6887552654234427e+18,4.357442545572916,-5.610570907592773,-2.229711890220642,0.7944171130657196,1.6887552654234427e+18,4.357442545572916,0.4389257530371348,-9.162467002868652,3.475349187850952,1.6887552654191235e+18,4.35312353515625,0.15129095315933225,0.7054984172185262,0.6380487581094106,1.6887552654191235e+18,4.35312353515625,0.15022194385528562,0.7097744941711426,0.6403394838174185,,,,,,,,,,,,1.6887552654190602e+18,4.35306025390625,3.2305599212646485,47.32379989624023,6.104879856109619,1.6887552654190602e+18,4.35306025390625,-251.29803466796875,140.64159545898437,-125.89911651611328,1.6887552654147878e+18,4.3487875976562504,0.3985861937204997,-0.5670389334360758,-0.4078429539998372,0.5943050781885783,-1.501490553220113,1.2133843104044597,-0.032192439461747796
4.4,1.6887552654667005e+18,4.400700358072917,0.6369923750559489,2.047544002532959,-4.2938408851623535,1.6887552654667085e+18,4.400708251953125,1.1943176090717316,-6.999903440475464,-0.9714859873056412,1.6887552654667085e+18,4.400708251953125,0.6845575273036957,-9.085720539093018,3.6350311040878296,1.6887552654710252e+18,4.405025390625,-0.18020525574684143,0.005854109923044841,1.143437922000885,1.6887552654710252e+18,4.405025390625,-0.18127426505088806,0.010028342405954996,1.1457286874453227,,,,,,,,,,,,1.688755265469059e+18,4.403058935546875,1.2395199660211802,47.450679016113284,5.721799850463867,1.688755265469059e+18,4.403058935546875,-253.28907165527343,140.7684783935547,-126.28219757080078,1.6887552654667005e+18,4.400700358072917,0.41545726855595905,-0.5689517060915629,-0.3827161689599355,0.597618818283081,-1.4080911874771118,1.1948962608973186,-0.16685545444488523
4.45,1.6887552655186104e+18,4.4526103515625,0.4003233114878337,-7.06965446472168,-0.692095677057902,1.688755265509962e+18,4.443962158203125,3.2227333386739097,-14.812967936197916,0.8137590785821279,1.688755265509962e+18,4.443962158203125,1.756420413653056,-9.037744839986166,3.3471573988596597,1.688755265522941e+18,4.456940999348959,0.4880813310543696,0.3113885223865509,3.8103228410085044,1.688755265522941e+18,4.456940999348959,0.48701230188210803,0.3156137044231097,3.8126644293467202,,,,,,,,,,,,1.6887552655190605e+18,4.453060351562501,-3.3671998739242555,47.03343963623047,6.795399951934814,1.6887552655190605e+18,4.453060351562501,-257.8957977294922,140.35123596191406,-125.2085968017578,1.6887552655186104e+18,4.4526103515625,0.43807803591092426,-0.5141873856385549,-0.3701934218406677,0.6370715300242106,-1.0417389273643494,1.172593394915263,-0.4729640583197276
4.5,1.6887552655705198e+18,4.504519449869792,1.784743865331014,-12.639987309773764,10.047617594401041,1.688755265561871e+18,4.495870849609375,4.556931336720784,-20.98086675008138,13.29372469584147,1.688755265561871e+18,4.495870849609375,3.4378382364908853,-8.460779825846354,3.553539832433065,1.6887552655661947e+18,4.500194580078125,-0.5590944141149521,-1.7964783906936646,3.862348198890686,1.6887552655661947e+18,4.500194580078125,-0.5601634234189987,-1.7922786474227905,3.864638924598694,,,,,,,,,,,,1.6887552655690588e+18,4.5030588378906256,-14.3276798248291,45.16927947998047,5.206959867477417,1.6887552655690588e+18,4.5030588378906256,-268.8562744140625,138.48707580566406,-126.79703826904297,1.6887552655705198e+18,4.504519449869792,0.49786873658498126,-0.48917096853256226,-0.28202910224596656,0.6577982703844706,-0.7898818055788676,1.0321011543273926,-0.830013652642568
4.55,1.6887552656224284e+18,4.556428304036459,-0.9250485102335612,-4.524903138478597,1.1141385237375896,1.6887552656137812e+18,4.547781412760417,4.820939461390178,-14.369497934977217,5.840481440226237,1.6887552656137812e+18,4.547781412760417,4.624264081319173,-7.9114101727803545,3.4885966777801514,1.6887552656094566e+18,4.543456705729167,0.5533930013577143,0.6767368714014689,2.273335019747416,1.6887552656094566e+18,4.543456705729167,0.5523239920536677,0.6809111138184866,2.275625785191854,,,,,,,,,,,,1.6887552656190605e+18,4.5530605957031245,-20.593599700927733,42.80979919433594,5.558319759368897,1.6887552656190605e+18,4.5530605957031245,-275.1221923828125,136.12759704589843,-126.4456771850586,1.6887552656224284e+18,4.556428304036459,0.5313369830449423,-0.4484627644220988,-0.24691478411356604,0.6748247345288595,-0.6255157391230265,0.9436656435330709,-1.006335457166036
4.6,1.6887552656656863e+18,4.599686279296875,-3.559610605239868,2.82385790348053,-1.8429689407348633,1.6887552656656904e+18,4.5996904296875,1.5134602785110474,-5.036293427149455,1.5774683157602947,1.6887552656656904e+18,4.5996904296875,5.278602123260498,-7.580000241597493,3.3005809783935547,1.688755265661363e+18,4.59536279296875,0.38316523283720016,-0.5584835509459177,1.5284866491953533,1.688755265661363e+18,4.59536279296875,0.38209620118141174,-0.5543092886606852,1.530777374903361,,,,,,,,,,,,1.6887552656690565e+18,4.603056396484375,-24.01935920715332,40.718718719482425,6.529439926147461,1.6887552656690565e+18,4.603056396484375,-278.54796142578124,134.03651733398436,-125.4745590209961,1.6887552656656863e+18,4.599686279296875,0.5566751956939697,-0.42969945073127747,-0.22511807084083557,0.6743464469909668,-0.5561136603355408,0.8979443311691284,-1.106803834438324
4.65,1.6887552657089485e+18,4.642948404947917,-3.4101897875467935,4.846438884735107,-0.4882940451304117,1.6887552657175992e+18,4.65159912109375,2.274178465207418,-2.15792723496755,3.3162527879079184,1.6887552657175992e+18,4.65159912109375,5.337926069895427,-7.444446404774983,3.5090734163920083,1.6887552657132718e+18,4.647271809895833,-0.004836016916669901,-0.684321790933609,-0.10318531841039653,1.6887552657132718e+18,4.647271809895833,-0.005905031570970734,-0.6800966262817383,-0.1008945653835932,,,,,,,,,,,,1.6887552657190597e+18,4.653059765625001,-25.517519760131837,40.052599334716795,6.012159919738769,1.6887552657190597e+18,4.653059765625001,-280.0461120605469,133.37039794921876,-125.99183654785156,1.6887552657089485e+18,4.642948404947917,0.5667481819788615,-0.43409231305122375,-0.20583505928516385,0.6692973574002584,-0.5735467871030172,0.8750736117362976,-1.1310674746831257
4.7,1.6887552657608492e+18,4.69484912109375,-2.9306981563568115,8.19890546798706,-1.1179049015045166,1.6887552657695068e+18,4.703506673177084,1.6420745452245076,0.8648059964179993,2.06879460811615,1.6887552657695068e+18,4.703506673177084,4.794472058614095,-7.778339862823486,3.5594313939412436,1.6887552657651889e+18,4.699188883463542,-0.006668611119190898,0.12660182267427442,-1.9905553261439006,1.6887552657651889e+18,4.699188883463542,-0.007737626942495533,0.130725160241127,-1.988264560699463,,,,,,,,,,,,1.6887552657690575e+18,4.7030573730468745,-22.46751937866211,41.78499908447266,6.0267997741699215,1.6887552657690575e+18,4.7030573730468745,-276.9961181640625,135.10279846191406,-125.977197265625,1.6887552657608492e+18,4.69484912109375,0.554887612660726,-0.4528163472811381,-0.22022830446561173,0.662095824877421,-0.6253993709882101,0.9176726937294006,-1.0779049396514893
4.75,1.688755265812767e+18,4.746767171223959,-4.077162265777588,8.87876065572103,-2.5745829741160073,1.6887552658214154e+18,4.755415283203125,-0.46161535479283583,0.14596218615770332,0.8077770471572876,1.6887552658214154e+18,4.755415283203125,3.52426544825236,-8.375255902608236,3.666881879170736,1.6887552658170944e+18,4.751094401041667,-0.2752966036399205,0.1806124920646349,-3.5584428310394287,1.6887552658170944e+18,4.751094401041667,-0.27636561294396716,0.18483763684829077,-3.556152025858561,,,,,,,,,,,,1.6887552658190605e+18,4.75306044921875,-16.157679557800293,44.3543197631836,5.746199893951416,1.6887552658190605e+18,4.75306044921875,-270.6862731933594,137.6721221923828,-126.25779571533204,1.688755265812767e+18,4.746767171223959,0.5157186587651571,-0.4916069308916728,-0.2655567526817321,0.6489774783452352,-0.7749143441518148,1.019154667854309,-0.8924336830774943
4.8,1.6887552658646735e+18,4.798673746744792,-4.533869345982869,2.7114842732747397,-1.7494356632232666,1.6887552658733253e+18,4.807325358072917,-2.6376882195472717,-10.695518692334494,3.066003362337748,1.6887552658733253e+18,4.807325358072917,1.939595897992452,-8.81822395324707,3.816826502482096,1.6887552658690007e+18,4.803000813802083,-0.5294165511926016,0.08760825792948405,-3.2154928048451743,1.6887552658690007e+18,4.803000813802083,-0.5304855704307556,0.09183340271313985,-3.2132020791371665,,,,,,,,,,,,1.688755265869058e+18,4.8030582031249995,-7.190679836273193,46.52835922241211,4.855599880218506,1.688755265869058e+18,4.8030582031249995,-261.7192749023437,139.84615783691407,-127.14839630126953,1.6887552658646735e+18,4.798673746744792,0.4577203293641408,-0.5377106269200643,-0.32590784629185987,0.628118097782135,-1.0691093802452087,1.1227081616719563,-0.544186125199
4.85,1.6887552659165914e+18,4.850591552734375,11.317026257514954,-13.505033175150553,2.761230707168579,1.6887552659165875e+18,4.8505876464843745,12.766007900238037,-22.456042289733887,6.287739515304565,1.6887552659165875e+18,4.8505876464843745,1.7928091883659363,-8.70848798751831,4.141710042953491,1.6887552659209147e+18,4.854914794921875,0.01837686697642012,-3.7182348569234214,2.8779898484547934,1.6887552659209147e+18,4.854914794921875,0.017307857672373455,-3.7140607039133706,2.8802805741628013,,,,,,,,,,,,1.6887552659190623e+18,4.8530623046875,-7.215079975128174,46.843119049072264,3.0109599590301515,1.6887552659190623e+18,4.8530623046875,-261.7436767578125,140.16091918945312,-128.9930419921875,1.6887552659165914e+18,4.850591552734375,0.46644174059232074,-0.5699449976285299,-0.2985254228115082,0.6056679487228394,-1.1815257867177327,1.1071577072143555,-0.5254779358704885
4.9,1.6887552659684905e+18,4.902490397135416,7.5382711092631025,0.25341367721557617,3.13285764058431,1.688755265959844e+18,4.893844156901042,13.407384236653646,-8.919046878814697,8.021937688191732,1.688755265959844e+18,4.893844156901042,1.9032423893610637,-8.682058970133463,4.14741579691569,1.6887552659728218e+18,4.906821614583333,0.7203628420829773,1.8190040042002995,-2.1537581284840903,1.6887552659728218e+18,4.906821614583333,0.7192938327789307,1.8232291042804718,-2.1514674027760825,,,,,,,,,,,,1.6887552659690627e+18,4.903062646484375,-10.221159744262696,46.47711944580078,2.5351599216461183,1.6887552659690627e+18,4.903062646484375,-264.7497497558594,139.79491577148437,-129.46883544921874,1.6887552659684905e+18,4.902490397135416,0.4933198094367981,-0.5792757670084635,-0.2770901322364807,0.5863378246625265,-1.1662553151448567,1.112388014793396,-0.6198713183403015
4.95,1.688755266020402e+18,4.9544017740885415,-10.91375478108724,-9.688052813212076,3.1743177572886148,1.6887552660117522e+18,4.945752197265626,-9.397212425867716,-19.193627675374348,6.789235591888428,1.6887552660117522e+18,4.945752197265626,1.43081800142924,-8.995590845743815,3.639667828877767,1.6887552660160806e+18,4.950080688476563,0.17638733983039856,4.075616478919983,-1.3532956298440695,1.6887552660160806e+18,4.950080688476563,0.17531833052635193,4.079892635345459,-1.351004894822836,,,,,,,,,,,,1.6887552660190623e+18,4.953062060546875,-3.20371994972229,47.165198516845706,5.319199848175049,1.6887552660190623e+18,4.953062060546875,-257.73231201171876,140.48299865722657,-126.68479919433594,1.688755266020402e+18,4.9544017740885415,0.4415807028611501,-0.5505919655164083,-0.35612234473228455,0.6119478146235148,-1.2010695536931355,1.1747069756189983,-0.3943180541197459
5.0,1.6887552660723105e+18,5.006310628255208,-1.2749241987864175,2.3696792920430503,-3.732733964920044,1.688755266063662e+18,4.997662109375,0.3330011765162149,-6.322435696919759,-0.662014236052831,1.688755266063662e+18,4.997662109375,2.1146589517593384,-8.900789260864258,3.539449453353882,1.688755266059339e+18,4.993339111328125,0.09193522731463111,-0.4291328390439351,1.5671238899230957,1.688755266059339e+18,4.993339111328125,0.09086621801058449,-0.42495860656102497,1.5694655279318492,,,,,,,,,,,,1.6887552660690606e+18,5.003060595703125,-5.3387197971344,46.528358459472656,5.433879947662353,1.6887552660690606e+18,5.003060595703125,-259.8673156738281,139.84615783691407,-126.5701171875,1.6887552660723105e+18,5.006310628255208,0.4525343179702758,-0.5284342765808105,-0.3449090818564097,0.6300182143847147,-1.048851728439331,1.1503763596216838,-0.528113603591919
5.05,1.6887552661155686e+18,5.04956884765625,-3.1856062412261963,-4.854328155517578,-0.6359822750091553,1.6887552661155727e+18,5.0495726725260415,-1.578265865643819,-12.89771302541097,2.1790638168652854,1.6887552661155727e+18,5.0495726725260415,1.6332897742589314,-9.053490002950033,3.4023650487264,1.688755266111245e+18,5.045244954427083,0.3490076760450998,0.6724607944488525,-1.5821919043858845,1.688755266111245e+18,5.045244954427083,0.3479386568069458,0.6767368714014689,-1.5799011786778767,,,,,,,,,,,,1.6887552661190615e+18,5.053061572265625,-3.791759967803955,46.769918823242186,5.6095599174499515,1.6887552661190615e+18,5.053061572265625,-258.3203552246094,140.0877197265625,-126.39443664550781,1.6887552661155686e+18,5.04956884765625,0.4429110139608383,-0.5392735302448273,-0.3654289245605469,0.6159189939498901,-1.1534626483917236,1.1888717412948608,-0.41820330917835236
5.1,1.6887552661588306e+18,5.09283056640625,-1.0849941571553547,1.332755406697591,-2.6434179147084556,1.6887552661674844e+18,5.101484456380208,2.077967127164205,-7.096912701924642,1.215753306945165,1.6887552661674844e+18,5.101484456380208,1.1253812909126282,-9.15463956197103,3.3368284702301025,1.6887552661631578e+18,5.097157714843751,-0.05324708701421816,-1.5458454191684723,-0.6533203721046448,1.6887552661631578e+18,5.097157714843751,-0.0543161015957594,-1.5416203141212463,-0.6510296414295832,,,,,,,,,,,,1.6887552661690624e+18,5.1030625,-0.7197999715805053,47.221319580078124,6.217119979858398,1.6887552661690624e+18,5.1030625,-255.2483917236328,140.53911437988282,-125.78687896728516,1.6887552661588306e+18,5.09283056640625,0.43277469277381897,-0.5459425449371338,-0.38209065794944763,0.6070100863774618,-1.2466058333714802,1.2125314871470134,-0.313631812731425
5.15,1.688755266210732e+18,5.144732177734375,4.353119055430095,2.98895263671875,0.568970521291097,1.6887552662193882e+18,5.153388102213541,4.489334066708882,-6.195815404256185,3.803391615549723,1.6887552662193882e+18,5.153388102213541,0.8396857380867004,-9.126924196879068,3.4969322681427,1.6887552662150628e+18,5.149062825520834,-0.23131431142489112,-0.6207917928695679,-0.10654507825771968,1.6887552662150628e+18,5.149062825520834,-0.23238332072893778,-0.6166175603866577,-0.10425433640678723,,,,,,,,,,,,1.6887552662190628e+18,5.1530626953125,-0.47579998672008517,47.02123870849609,5.407039833068848,1.6887552662190628e+18,5.1530626953125,-255.0043914794922,140.3390350341797,-126.59695892333984,1.688755266210732e+18,5.144732177734375,0.4423518677552541,-0.5733748475710551,-0.3655798931916554,0.5847207307815552,-1.3574646313985188,1.20771320660909,-0.2798655827840169
5.2,1.6887552662626499e+18,5.196649739583333,1.9604690472284954,3.3047779401143393,-2.86373241742452,1.6887552662712978e+18,5.205297770182292,3.4845478932062783,-6.00698184967041,-0.06121637920538584,1.6887552662712978e+18,5.205297770182292,0.7494988640149435,-9.097885449727377,3.5919459660847983,1.688755266266977e+18,5.200976806640625,-0.1720094674577315,0.33775758215536666,-0.3366885582605998,1.688755266266977e+18,5.200976806640625,-0.1730784882480899,0.3419827297329902,-0.3343978176514308,,,,,,,,,,,,1.6887552662690575e+18,5.2030576171875,-0.05123999714851376,47.36283874511719,5.0312799453735355,1.6887552662690575e+18,5.2030576171875,-254.5798370361328,140.68063354492188,-126.97271728515625,1.6887552662626499e+18,5.196649739583333,0.4327826102574666,-0.5764839251836141,-0.36774184306462604,0.5874685446421305,-1.3920411666234334,1.1973042090733845,-0.23377474645773566
5.25,1.6887552663145526e+18,5.248552815755208,0.4280096689860026,4.594769477844238,-4.115764379501343,1.6887552663232061e+18,5.2572060546875,0.6747759977976481,-4.190629959106445,-0.49850471938649815,1.6887552663232061e+18,5.2572060546875,0.9500948190689087,-9.137106895446777,3.441348155339559,1.6887552663188856e+18,5.2528854166666665,0.23813563088575998,0.911410927772522,0.10863219794797867,1.6887552663188856e+18,5.2528854166666665,0.23711751898129782,0.9156869749228159,0.11097385160004093,,,,,,,,,,,,1.6887552663190566e+18,5.253056689453125,1.24683997631073,47.165198516845706,5.638839817047119,1.6887552663190566e+18,5.253056689453125,-253.28175354003906,140.48299560546874,-126.36515655517579,1.6887552663145526e+18,5.248552815755208,0.42225391666094464,-0.5587071975072225,-0.38382528225580853,0.6017722884813944,-1.3422828912734985,1.2050865093866985,-0.22380595902601874
5.3,1.6887552663664612e+18,5.300461344401042,0.06622552871704102,3.6218303044637046,-3.2786070505777993,1.688755266366466e+18,5.300466064453125,0.8249256082053762,-5.757131338119507,-0.14715860784053802,1.688755266366466e+18,5.300466064453125,1.2176210284233093,-9.11904001235962,3.4033114910125732,1.6887552663707983e+18,5.304798014322917,-0.05187263960639634,-0.03848450382550553,1.3447180390357971,1.6887552663707983e+18,5.304798014322917,-0.052941655119260134,-0.03420846164226531,1.3470087846120198,,,,,,,,,,,,1.6887552663690547e+18,5.3030546874999995,-0.7490799963474274,47.27011947631836,5.1288799285888675,1.6887552663690547e+18,5.3030546874999995,-255.27767333984374,140.5879150390625,-126.87511749267578,1.6887552663664612e+18,5.300461344401042,0.4290299713611603,-0.5466674168904623,-0.37957855065663654,0.6106652220090231,-1.2497857809066772,1.2015281915664673,-0.30621185898780817
5.35,1.6887552664183785e+18,5.35237841796875,1.0058128039042156,-2.3307436307271323,-0.36590301990509033,1.688755266409728e+18,5.343727783203125,3.4249269167582193,-9.371888955434164,2.0340986251831055,1.688755266409728e+18,5.343727783203125,1.9081873893737793,-9.006474494934082,3.379032532374064,1.688755266422705e+18,5.356704671223959,0.19237164656321207,-0.032834005852540336,2.272367835044861,1.688755266422705e+18,5.356704671223959,0.1913026372591654,-0.02865976591904958,2.2746586004892984,,,,,,,,,,,,1.6887552664190605e+18,5.353060498046875,-5.075199937820434,46.93827896118164,5.433879947662353,1.6887552664190605e+18,5.353060498046875,-259.6037963867187,140.25607604980468,-126.5701171875,1.6887552664183785e+18,5.35237841796875,0.45499976476033527,-0.5254695018132528,-0.35196925203005475,0.6266828775405884,-1.0396512349446614,1.1659936904907227,-0.5330052574475607
5.4,1.6887552664702804e+18,5.404280436197918,1.5611350536346436,-13.690160115559896,7.083181381225586,1.6887552664616282e+18,5.395628011067708,3.7814573446909585,-21.607587178548176,9.65543826421102,1.6887552664616282e+18,5.395628011067708,3.2061925729115806,-8.662505149841309,3.27521284421285,1.6887552664659645e+18,5.399964721679687,0.1275181202217936,-0.13324498385190967,3.428404927253723,1.6887552664659645e+18,5.399964721679687,0.12644910812377927,-0.1290452890098095,3.4307719469070435,,,,,,,,,,,,1.6887552664690588e+18,5.403058740234375,-11.363079643249511,45.906159210205075,6.0365598678588865,1.6887552664690588e+18,5.403058740234375,-265.8916748046875,139.2239562988281,-125.96743774414062,1.6887552664702804e+18,5.404280436197918,0.4932721455891927,-0.48400138815244037,-0.3080742359161377,0.6534443497657776,-0.7708344658215841,1.0761289993921914,-0.8162499666213989
5.45,1.6887552665221947e+18,5.456194580078125,-0.06765572230021151,-3.9942493438720703,1.0868568420410158,1.6887552665135465e+18,5.447546468098959,5.595416227976481,-14.585450490315756,5.617151180903117,1.6887552665135465e+18,5.447546468098959,4.522215525309245,-8.088619867960611,3.2025814056396484,1.6887552665092186e+18,5.443218261718751,0.14477506528298056,0.29148453318824363,2.6267205476760864,1.6887552665092186e+18,5.443218261718751,0.14370604604482648,0.29565876908600325,2.6290112733840942,,,,,,,,,,,,1.688755266519064e+18,5.453064111328125,-17.77296028137207,43.82971954345703,7.119919872283935,1.688755266519064e+18,5.453064111328125,-272.3015563964844,137.14751586914062,-124.88407745361329,1.6887552665221947e+18,5.456194580078125,0.5241027077039083,-0.4415591359138489,-0.2663222054640452,0.6776552200317383,-0.5997545917828878,0.9681066870689392,-0.9937428832054138
5.5,1.688755266565451e+18,5.499451049804687,-0.7807561159133911,-0.35777759552001953,0.20811617374420166,1.6887552665654497e+18,5.499449869791667,4.573681116104126,-8.84646463394165,3.4735809167226157,1.6887552665654497e+18,5.499449869791667,5.25943660736084,-7.668842474619548,3.1198860804239907,1.6887552665611277e+18,5.495127604166666,-0.09784025264283021,0.13805554310480753,1.391703724861145,1.6887552665611277e+18,5.495127604166666,-0.09890926380952197,0.14228070775667825,1.3939944505691528,,,,,,,,,,,,1.6887552665690557e+18,5.5030556640625,-22.05271987915039,42.199798583984375,6.968639850616455,1.6887552665690557e+18,5.5030556640625,-276.58131103515626,135.5175994873047,-125.03535766601563,1.688755266565451e+18,5.499451049804687,0.5363851487636566,-0.41805286705493927,-0.24675115197896952,0.6903647482395172,-0.5339753329753876,0.9094898998737335,-1.055139422416687
5.55,1.6887552666087137e+18,5.542713948567709,-0.06462208429972345,-2.094163258870443,1.824761946996053,1.6887552666173652e+18,5.551364990234375,4.309074719746907,-7.96550718943278,4.575874408086141,1.6887552666173652e+18,5.551364990234375,5.317372481028239,-7.5812273025512695,3.2367873191833496,1.6887552666130424e+18,5.5470424804687495,0.21375192950169244,-0.5845471223195394,-0.21980967124303183,1.6887552666130424e+18,5.5470424804687495,0.21268291771411896,-0.5802710751692454,-0.21751893560091654,,,,,,,,,,,,1.6887552666190646e+18,5.553064453125001,-23.45571937561035,41.93383941650391,6.248839855194092,1.6887552666190646e+18,5.553064453125001,-277.98431396484375,135.25163879394532,-125.75515747070312,1.6887552666087137e+18,5.542713948567709,0.5427049001057943,-0.42007530728975934,-0.2342323263486226,0.6885580817858378,-0.5429946184158325,0.8923449317614237,-1.070203383763631
5.6,1.688755266660623e+18,5.594623046875,-5.018040815989177,7.255557696024577,-0.42633851369222003,1.6887552666692708e+18,5.603270751953125,-0.2833500951528549,0.011964122454325357,2.457827607790629,1.6887552666692708e+18,5.603270751953125,4.891897996266683,-7.845199108123779,3.275445063908895,1.68875526666495e+18,5.5989501953125,-0.1150971949100494,0.10598511745532353,-1.2345077594121296,1.68875526666495e+18,5.5989501953125,-0.1161662091811498,0.1101593698064486,-1.2322169939676921,,,,,,,,,,,,1.6887552666690596e+18,5.6030595703125,-21.61107978820801,42.670718383789065,6.365959930419922,1.6887552666690596e+18,5.6030595703125,-276.1396728515625,135.98851928710937,-125.638037109375,1.688755266660623e+18,5.594623046875,0.5358624259630839,-0.43490070104599,-0.24790092309316,0.6798352003097534,-0.5787961681683859,0.9325942198435465,-1.0373318592707317
5.65,1.6887552667125322e+18,5.646532145182292,-3.6131256421407065,7.136114120483398,-2.086106300354004,1.6887552667211776e+18,5.655177490234375,0.8414759735266367,-1.3222339153289795,1.2763714989026387,1.6887552667211776e+18,5.655177490234375,4.136154572168986,-8.111455281575521,3.6391056378682456,1.6887552667168594e+18,5.650859293619792,-0.638303279876709,-0.5891286333401998,-1.8757635354995728,1.6887552667168594e+18,5.650859293619792,-0.6393722891807556,-0.5848525563875834,-1.8734219074249268,,,,,,,,,,,,1.6887552667190561e+18,5.6530560546875,-18.848999786376954,44.366519927978516,5.043479919433594,1.6887552667190561e+18,5.6530560546875,-273.3776000976562,137.68431701660157,-126.96051635742188,1.6887552667125322e+18,5.646532145182292,0.5105664730072021,-0.46468862891197205,-0.2640889187653859,0.6733710368474325,-0.6945305864016215,0.9791813492774963,-0.9157778223355612
5.7,1.6887552667644334e+18,5.698433186848959,-3.6395068963368735,6.289176305135091,-3.6281916300455728,1.6887552667730944e+18,5.70709423828125,-0.6648058990637461,-2.566701094309489,0.07956135148803391,1.6887552667730944e+18,5.70709423828125,2.9456218083699546,-8.45307731628418,3.9948699474334717,1.6887552667687718e+18,5.702771565755209,-0.3430517464876175,-1.1514300902684529,-2.3461807568868003,1.6887552667687718e+18,5.702771565755209,-0.3441207557916641,-1.1471540530522664,-2.3438900311787925,,,,,,,,,,,,1.6887552667690552e+18,5.7030553710937495,-13.415119743347168,46.42587890625,3.001199960708618,1.6887552667690552e+18,5.7030553710937495,-267.94371337890624,139.7436767578125,-129.00279846191407,1.6887552667644334e+18,5.698433186848959,0.4788827101389567,-0.5114288032054901,-0.2858322560787201,0.6534746090571085,-0.9022984504699707,1.0415928761164348,-0.721329132715861
5.75,1.6887552668163494e+18,5.750349365234375,-1.3171542485555017,-1.4742652575174968,-2.482678492863973,1.6887552668163476e+18,5.750347534179688,-0.7986045554280282,-10.555338859558105,1.4024931341409683,1.6887552668163476e+18,5.750347534179688,1.90960294008255,-8.676032066345215,4.157353162765503,1.6887552668206748e+18,5.754674723307292,0.23660847420493758,-2.1066197554270425,-1.120632270971934,1.6887552668206748e+18,5.754674723307292,0.23553945372502008,-2.1023945808410645,-1.1183415353298187,,,,,,,,,,,,1.6887552668190592e+18,5.753059326171875,-8.274039936065673,47.86791915893555,2.0105599641799925,1.6887552668190592e+18,5.753059326171875,-262.80263671875,141.18572082519532,-129.99343872070312,1.6887552668163494e+18,5.750349365234375,0.46442567308743793,-0.5633554657300314,-0.2981110314528147,0.6146037975947062,-1.1485690275828044,1.0969500541687012,-0.5406469106674194
5.8,1.6887552668682598e+18,5.802259847005208,13.797416051228842,-4.395646095275879,6.595816612243652,1.6887552668596088e+18,5.793608805338542,15.62832260131836,-14.027324676513672,9.355737368265787,1.6887552668596088e+18,5.793608805338542,1.7667731444040935,-8.735821406046549,4.093125820159912,1.6887552668725832e+18,5.806583089192709,0.3333288033803304,0.5451463262240092,1.016428863008817,1.6887552668725832e+18,5.806583089192709,0.3322597915927569,0.5493714809417725,1.0187195936838787,,,,,,,,,,,,1.6887552668690555e+18,5.80305556640625,-9.311040019989013,47.89719924926758,2.117919993400574,1.6887552668690555e+18,5.80305556640625,-263.8396301269531,141.21499633789062,-129.88607482910157,1.6887552668682598e+18,5.802259847005208,0.4839418828487396,-0.5718436042467753,-0.2863708535830179,0.5971828897794088,-1.1500877539316814,1.1093180974324544,-0.5978589057922363
5.85,1.688755266920161e+18,5.8541609700520825,-5.580229679743449,-4.894488334655761,1.2738621234893799,1.6887552669115126e+18,5.845512532552083,0.37686936060587567,-11.628121058146158,5.933801293373108,1.6887552669115126e+18,5.845512532552083,1.8198684453964233,-8.840183893839518,3.8309107621510825,1.688755266915837e+18,5.849836791992187,0.6152176558971405,1.5357151925563812,-2.844112277030945,1.688755266915837e+18,5.849836791992187,0.6141486465930939,1.5399912297725677,-2.8417450189590454,1.688755266934e+18,5.868000244140625,0.0,0.0,2.0752909183502197,59.09600067138672,0.1617627888917923,273.539794921875,325.2910416586722,-122.9198705,49.2794543,1.688755266919057e+18,5.8530570312500005,-6.485519695281982,48.00455932617187,3.3281598567962645,1.688755266919057e+18,5.8530570312500005,-261.01410522460935,141.32235717773438,-128.67584075927735,1.688755266920161e+18,5.8541609700520825,0.4655204912026723,-0.5599904457728068,-0.3237161040306091,0.6034720540046692,-1.1651528278986614,1.1492201089859009,-0.506369024515152
5.9,1.6887552669720794e+18,5.906079345703126,-2.3523060083389282,-7.107682704925537,-1.8397215207417805,1.6887552669634232e+18,5.897423258463541,-3.6434711615244546,-18.596020698547363,1.4378869930903118,1.6887552669634232e+18,5.897423258463541,2.031588077545166,-8.989192326863607,3.323919932047526,1.688755266959105e+18,5.893105143229167,0.277434637149175,3.706068515777588,1.1700105667114258,1.688755266959105e+18,5.893105143229167,0.27636562784512836,3.710242748260498,1.1723521947860718,,,,,,,,,,,,1.6887552669690593e+18,5.90305927734375,-4.589639902114868,48.02895965576172,5.314319801330567,1.6887552669690593e+18,5.90305927734375,-259.1182373046875,141.3467559814453,-126.68967742919922,1.6887552669720794e+18,5.906079345703126,0.44009212652842206,-0.5060927073160807,-0.366084744532903,0.6445667346318563,-0.9902181228001913,1.1614398558934529,-0.514660656452179
5.95,1.6887552670153341e+18,5.949334106445313,-0.20067840814590449,-2.6759114265441895,2.6049118041992188,1.6887552670153423e+18,5.949342529296875,1.0735797484715779,-10.677971204121908,5.277769088745117,1.6887552670153423e+18,5.949342529296875,2.3785625298817954,-8.884648005167643,3.400339921315511,1.6887552670110103e+18,5.945010335286458,0.12451469696437324,-1.5416711171468098,-0.6341290473937988,1.6887552670110103e+18,5.945010335286458,0.1234456861081223,-1.5374460120995839,-0.6317364772160848,,,,,,,,,,,,1.6887552670190584e+18,5.9530583984375,-7.1882399559021,47.85327911376953,4.806799983978271,1.6887552670190584e+18,5.9530583984375,-261.7168334960937,141.17107543945312,-127.19719848632812,1.6887552670153341e+18,5.949334106445313,0.45201486349105835,-0.5130079984664917,-0.3470475971698761,0.641850471496582,-0.9780649840831757,1.1415603756904602,-0.5682854056358337
6.0,1.6887552670585925e+18,5.992592366536459,-5.967518488566081,-1.1495850880940754,-1.2337703307469685,1.6887552670672476e+18,6.001247721354166,-4.181457599004109,-10.691530545552572,1.089133083820343,1.6887552670672476e+18,6.001247721354166,1.5343187252680461,-9.136295000712076,3.219878594080607,1.6887552670629233e+18,5.9969231770833344,0.03308853351821508,0.9366600513458252,-1.849241813023885,1.6887552670629233e+18,5.9969231770833344,0.03201952266196414,0.9408342838287354,-1.846900184949239,,,,,,,,,,,,1.688755267069062e+18,6.003061865234375,-2.0837599515914915,48.42667846679687,5.5778398513793945,1.688755267069062e+18,6.003061865234375,-256.6123504638672,141.74447937011718,-126.42615661621093,1.6887552670585925e+18,5.992592366536459,0.42595906058947247,-0.5189383427302042,-0.38893980781237286,0.6306531627972921,-1.1165359417597454,1.2018494208653767,-0.3782776693503062
6.05,1.6887552671105083e+18,6.044508138020833,3.8382718165715537,0.8462090492248535,-2.265633980433146,1.688755267119153e+18,6.053152669270833,5.937988758087158,-7.238487879435222,1.8606190582116444,1.688755267119153e+18,6.053152669270833,0.7442044218381246,-9.173418045043945,3.3925294876098633,1.6887552671148332e+18,6.0488330891927085,-0.1742493075629075,-2.2334251403808594,-0.7438302437464396,1.6887552671148332e+18,6.0488330891927085,-0.17531832059224442,-2.2292000452677407,-0.7415394981702169,,,,,,,,,,,,1.6887552671190625e+18,6.053062548828125,0.7978799790143967,48.38031921386719,5.131319904327393,1.6887552671190625e+18,6.053062548828125,-253.7307159423828,141.6981170654297,-126.87267761230468,1.6887552671105083e+18,6.044508138020833,0.4175252815087636,-0.5535250306129456,-0.3944465418656667,0.6028109987576803,-1.3504306077957153,1.2167528470357258,-0.1937358329693476
6.1,1.688755267162411e+18,6.096410970052084,3.941150108973185,4.220529397328694,-1.0245239734649658,1.6887552671710636e+18,6.105063395182292,3.7465620040893555,-5.081956545511882,1.874776542186737,1.6887552671710636e+18,6.105063395182292,0.5077519516150156,-9.162063598632812,3.469073931376139,1.6887552671667387e+18,6.10073876953125,-0.152563601732254,0.5735515517493089,-0.5374595920244852,1.6887552671667387e+18,6.10073876953125,-0.15363261103630058,0.5777257876470685,-0.53516885638237,,,,,,,,,,,,1.6887552671690604e+18,6.103060498046875,2.0739999532699587,48.62187881469727,4.765319919586181,1.6887552671690604e+18,6.103060498046875,-252.4545928955078,141.9396759033203,-127.23867797851562,1.688755267162411e+18,6.096410970052084,0.41540369391441345,-0.5698518753051758,-0.3924538493156433,0.590461015701294,-1.4489594300587971,1.213727553685506,-0.12421389917532599
6.15,1.6887552672143199e+18,6.1483199055989575,3.7422648270924888,3.6907528241475425,-3.6770834922790527,1.6887552672229765e+18,6.156976318359374,4.088935136795044,-5.61236556371053,-0.6287141740322112,1.6887552672229765e+18,6.156976318359374,0.6166468063990275,-9.175463994344076,3.4136829376220703,1.6887552672186524e+18,6.152652587890625,0.10440705468257266,1.6615534623463948,-0.19150625665982565,1.6887552672186524e+18,6.152652587890625,0.1033889433989922,1.6658294995625813,-0.18921551356712976,,,,,,,,,,,,1.6887552672190607e+18,6.1530607421875,2.9865599155426024,48.74631958007812,4.396879863739014,1.6887552672190607e+18,6.1530607421875,-251.5420349121094,142.06411743164062,-127.60711669921875,1.6887552672143199e+18,6.1483199055989575,0.39780251185099275,-0.5558510224024454,-0.40936374664306635,0.6041943033536276,-1.436443289120992,1.2141008377075195,-0.07347380866607027
6.2,1.688755267266234e+18,6.200233968098959,-3.8785725831985474,3.85429048538208,-2.513522148132324,1.688755267266234e+18,6.200234130859375,-4.619643330574036,-5.4520463943481445,1.060618668794632,1.688755267266234e+18,6.200234130859375,0.8974944353103638,-9.229900360107422,3.19964337348938,1.688755267270558e+18,6.204557942708334,0.5073235829671224,0.552833012615641,0.006668613602717717,1.688755267270558e+18,6.204557942708334,0.5062545736630758,0.5570072916646799,0.009010267754395803,,,,,,,,,,,,1.6887552672690583e+18,6.2030583984375,3.472119903564453,48.614558410644534,4.972719764709472,1.6887552672690583e+18,6.2030583984375,-251.0564758300781,141.93235778808594,-127.03127593994141,1.688755267266234e+18,6.200233968098959,0.3859877387682597,-0.525092879931132,-0.4306319852670033,0.6243534684181213,-1.335023323694865,1.231887658437093,-0.08964832127094267
6.25,1.6887552673181407e+18,6.252140625,2.225603183110555,2.9436821937561035,-2.288281718889872,1.6887552673094925e+18,6.243492594401041,2.3607190251350407,-5.948357741038005,0.6506483430663744,1.6887552673094925e+18,6.243492594401041,0.6827100118001302,-9.333595593770342,2.9382720788319907,1.6887552673224704e+18,6.256470540364583,0.7174612283706665,1.2070697098970413,-0.23808473348617554,1.6887552673224704e+18,6.256470540364583,0.7163922190666199,1.2112948497136433,-0.2357939978440602,,,,,,,,,,,,1.6887552673190605e+18,6.253060595703125,4.492039918899536,48.75851898193359,6.165879821777343,1.6887552673190605e+18,6.253060595703125,-250.03655395507812,142.076318359375,-125.83811645507812,1.6887552673181407e+18,6.252140625,0.38658449053764343,-0.5176131327946981,-0.4501651922861735,0.6162845293680826,-1.3709218502044678,1.2703482309977214,-0.03559385115901627
6.3,1.6887552673700536e+18,6.304053548177083,0.4244557023048401,-1.792098045349121,-0.12851285934448228,1.6887552673613996e+18,6.295399576822916,1.686142385005951,-9.757930755615234,1.474975715080897,1.6887552673613996e+18,6.295399576822916,1.1487157742182414,-9.386481920878092,2.5983723799387612,1.6887552673657308e+18,6.299730712890625,0.30260736495256424,0.2122756689786911,1.6625461578369143,1.6887552673657308e+18,6.299730712890625,0.30153834819793696,0.21655172109603882,1.6648368835449219,,,,,,,,,,,,1.6887552673690583e+18,6.303058251953125,2.8621200561523437,48.37055892944336,7.5103199005126955,1.6887552673690583e+18,6.303058251953125,-251.66647338867188,141.68836059570313,-124.4936767578125,1.6887552673700536e+18,6.304053548177083,0.39429038763046265,-0.48369677861531574,-0.4517704447110494,0.6373345454533895,-1.1315117279688518,1.2768341700236003,-0.2254596104224523
6.35,1.6887552674219592e+18,6.355958984375,0.9551650683085126,-11.866204897562662,3.604860464731852,1.6887552674133115e+18,6.3473114420572925,3.8259240984916687,-18.72523307800293,5.602395534515381,1.6887552674133115e+18,6.3473114420572925,2.6552131175994873,-9.064295132954916,2.5933717091878257,1.688755267408987e+18,6.34298681640625,-0.030441448092460632,-0.9052513837814331,4.092135349909465,1.688755267408987e+18,6.34298681640625,-0.03151045988003417,-0.9010262489318848,4.094426075617473,,,,,,,,,,,,1.6887552674190607e+18,6.353060888671875,-6.7295197486877445,48.42911987304687,7.620119857788086,1.6887552674190607e+18,6.353060888671875,-261.25812072753905,141.74691772460938,-124.38387756347656,1.6887552674219592e+18,6.355958984375,0.4447251657644908,-0.45451247692108154,-0.3836184839407603,0.66892937819163,-0.750867505868276,1.1627989212671916,-0.6632811625798544
6.4,1.6887552674652155e+18,6.3992154541015625,4.8224945068359375,-15.414012908935549,2.709900736808777,1.688755267465221e+18,6.399221028645833,7.02791953086853,-23.276381810506184,5.806782245635986,1.688755267465221e+18,6.399221028645833,4.217679977416992,-8.374647776285807,2.859921455383301,1.6887552674608868e+18,6.394886881510416,0.052279893308877945,-0.7073310812314352,3.2510757446289062,1.6887552674608868e+18,6.394886881510416,0.05121086289485296,-0.7031058669090271,3.253366470336914,1.6887552674573112e+18,6.391311279296875,0.0,0.0,2.39526629447937,56.0629997253418,0.1568458080291748,270.5959777832031,325.31757342960066,-122.9198961,49.2794668,1.6887552674690606e+18,6.403060693359374,-16.816479873657226,46.27947998046875,6.907639980316162,1.6887552674690606e+18,6.403060693359374,-271.34507446289064,139.59727478027344,-125.09635620117187,1.6887552674652155e+18,6.3992154541015625,0.4864442646503448,-0.4344325065612793,-0.31536160409450525,0.6892349421977997,-0.6046815514564514,1.0301297903060913,-0.8792107701301575
6.45,1.68875526750848e+18,6.44247998046875,-2.6944451332092285,0.6902071634928387,-0.43846845626831055,1.6887552675171308e+18,6.451130859375,2.288535475730896,-6.150152524312337,2.0384854873021445,1.6887552675171308e+18,6.451130859375,4.937390327453613,-8.053221543629965,2.6429314613342285,1.6887552675128095e+18,6.446809651692708,0.38952840367952984,-0.17618372042973837,1.249372124671936,1.6887552675128095e+18,6.446809651692708,0.3884593943754831,-0.17190766582886377,1.2516628901163738,,,,,,,,,,,,1.6887552675190595e+18,6.45305927734375,-20.31543960571289,44.67395935058594,7.700639820098877,1.6887552675190595e+18,6.45305927734375,-274.8440368652344,137.99175720214845,-124.30335845947266,1.68875526750848e+18,6.44247998046875,0.5085499882698059,-0.40969746311505634,-0.2976433336734772,0.6963161031405131,-0.5031525790691376,0.9812952081362406,-0.9885079264640808
6.5,1.6887552675603817e+18,6.494381754557292,-1.372524579366048,1.2451896667480469,0.11768476168314616,1.6887552675690401e+18,6.5030400390625,3.6273197333017984,-6.422136624654134,3.0624141693115234,1.6887552675690401e+18,6.5030400390625,5.051204999287923,-7.9429144859313965,2.7613170941670737,1.6887552675647127e+18,6.498712809244792,0.3145446926355362,-0.930398682753245,0.0725911557674408,1.6887552675647127e+18,6.498712809244792,0.31347568333148956,-0.9262243906656901,0.07488190879424413,,,,,,,,,,,,1.688755267569061e+18,6.503061083984375,-22.28695945739746,43.82727890014648,7.6567198753356935,1.688755267569061e+18,6.503061083984375,-276.8155578613281,137.14507751464845,-124.34727783203125,1.6887552675603817e+18,6.494381754557292,0.5268271565437317,-0.41096251209576923,-0.27624997496604914,0.6907921632130941,-0.49750152230262756,0.9522624413172404,-1.0425796906153362
6.55,1.6887552676122924e+18,6.546292561848958,-4.33946959177653,6.1371995608011884,-0.05139859517415365,1.6887552676209539e+18,6.554953776041667,0.07916255543629329,-1.0761719544728596,2.4931217432022095,1.6887552676209539e+18,6.554953776041667,4.5432233810424805,-8.21528434753418,2.838430166244507,1.6887552676166254e+18,6.550625488281249,0.08185594528913497,-0.3467678427696228,-1.3585643370946248,1.6887552676166254e+18,6.550625488281249,0.08083783835172649,-0.3425426781177521,-1.3562735716501872,,,,,,,,,,,,1.6887552676190597e+18,6.553059716796875,-20.64483985900879,44.9228401184082,7.698199939727783,1.6887552676190597e+18,6.553059716796875,-275.1734375,138.24063720703126,-124.30579681396485,1.6887552676122924e+18,6.546292561848958,0.5268517732620239,-0.4313258131345113,-0.2841662267843882,0.6749234994252523,-0.5457668503125509,0.9937943418820699,-1.0240716735521953
6.6,1.6887552676642035e+18,6.598203450520834,-3.3288137118021646,9.050466219584147,-1.4338771502176921,1.6887552676728586e+18,6.606858561197917,0.4707878604531288,0.20997019608815512,1.3790634671847026,1.6887552676728586e+18,6.606858561197917,3.770967880884806,-8.496003150939941,3.1228508949279785,1.6887552676685353e+18,6.602535400390625,-0.6100507775942484,-0.056810467814405706,-1.9813413619995117,1.6887552676685353e+18,6.602535400390625,-0.611119786898295,-0.0526362216720978,-1.9789997339248657,,,,,,,,,,,,1.6887552676690596e+18,6.60305947265625,-16.709119606018067,46.54787902832031,7.156519889831543,1.6887552676690596e+18,6.60305947265625,-271.2377136230469,139.8656768798828,-124.84747619628907,1.6887552676642035e+18,6.598203450520834,0.5030695597330729,-0.4600982169310251,-0.30426073074340815,0.6651716430981954,-0.6649216214815775,1.0503629048665364,-0.8994027574857076
6.65,1.6887552677161172e+18,6.650117268880209,-3.9771993160247803,6.5504476229349775,-2.1397072474161782,1.688755267716119e+18,6.650118896484375,-1.3447663187980652,-2.1104695200920105,1.2248260974884033,1.688755267716119e+18,6.650118896484375,2.7166507244110107,-8.75381326675415,3.4854766130447388,1.6887552677204447e+18,6.654444417317708,-0.7745262384414673,-0.4999931901693344,-3.004591623942057,1.6887552677204447e+18,6.654444417317708,-0.7755952477455139,-0.49576805035273236,-3.0023008982340493,,,,,,,,,,,,1.6887552677190607e+18,6.653060693359374,-10.818959808349609,48.77315902709961,4.955639934539795,1.6887552677190607e+18,6.653060693359374,-265.34755859375,142.09095764160156,-127.04835662841796,1.6887552677161172e+18,6.650117268880209,0.4581163724263509,-0.5034579932689667,-0.33561356862386066,0.6507392724355062,-0.9193839430809021,1.1144673029581706,-0.6259777148564657
6.7,1.6887552677680271e+18,6.702027262369792,-3.43341859181722,-0.3829447428385417,-0.9263641834259033,1.6887552677593733e+18,6.693373291015625,-2.026122570037842,-7.9156568845113116,2.5688944657643638,1.6887552677593733e+18,6.693373291015625,1.4892923831939697,-8.938908576965332,3.7409273783365884,1.6887552677723497e+18,6.706349772135417,-0.15515977392594016,-1.3003793954849243,-1.76667324701945,1.6887552677723497e+18,6.706349772135417,-0.1562287881970405,-1.2961033185323079,-1.7643824418385823,,,,,,,,,,,,1.6887552677690606e+18,6.7030604980468755,-4.113839912414551,49.839439392089844,3.5184799671173095,1.6887552677690606e+18,6.7030604980468755,-258.64243774414064,143.15723876953126,-128.4855163574219,1.6887552677680271e+18,6.702027262369792,0.42334779103597003,-0.5536467234293619,-0.3632924457391103,0.6180774569511414,-1.2569750547409058,1.1623096068700154,-0.30934379498163855
6.75,1.6887552678199365e+18,6.7539365234375,10.78366986910502,-6.436753273010254,-0.48284959793090826,1.6887552678112778e+18,6.74527783203125,7.960322777430217,-15.165311177571615,3.0630123615264893,1.6887552678112778e+18,6.74527783203125,0.8140712380409241,-8.980550448099772,3.862049102783203,1.6887552678156124e+18,6.749612426757812,0.011988230049610152,-3.0754774808883667,1.4534011632204056,1.6887552678156124e+18,6.749612426757812,0.010919217020273202,-3.0712777376174927,1.4556919038295746,,,,,,,,,,,,1.6887552678190582e+18,6.753058251953125,-3.1890799522399904,50.17859878540039,2.5546799659729005,1.6887552678190582e+18,6.753058251953125,-257.7176818847656,143.49639587402345,-129.44931640625,1.6887552678199365e+18,6.7539365234375,0.4424061179161071,-0.5858493248621622,-0.34082212050755817,0.586662769317627,-1.36585799853007,1.164573868115743,-0.30792155861854553
