seconds_elapsed_rounded,accelerometer_time,accelerometer_seconds_elapsed,accelerometer_z,accelerometer_y,accelerometer_x,accelerometeruncalibrated_time,accelerometeruncalibrated_seconds_elapsed,accelerometeruncalibrated_z,accelerometeruncalibrated_y,accelerometeruncalibrated_x,gravity_time,gravity_seconds_elapsed,gravity_z,gravity_y,gravity_x,gyroscope_time,gyroscope_seconds_elapsed,gyroscope_z,gyroscope_y,gyroscope_x,gyroscopeuncalibrated_time,gyroscopeuncalibrated_seconds_elapsed,gyroscopeuncalibrated_z,gyroscopeuncalibrated_y,gyroscopeuncalibrated_x,location_time,location_seconds_elapsed,location_bearingAccuracy,location_speedAccuracy,location_verticalAccuracy,location_horizontalAccuracy,location_speed,location_bearing,location_altitude,location_longitude,location_latitude,magnetometer_time,magnetometer_seconds_elapsed,magnetometer_z,magnetometer_y,magnetometer_x,magnetometeruncalibrated_time,magnetometeruncalibrated_seconds_elapsed,magnetometeruncalibrated_z,magnetometeruncalibrated_y,magnetometeruncalibrated_x,orientation_time,orientation_seconds_elapsed,orientation_qz,orientation_qy,orientation_qx,orientation_qw,orientation_roll,orientation_pitch,orientation_yaw
0.0,1.6888759603482132e+18,45.00521321614584,-1.9576462904612224,8.503394762674967,-0.9654741287231444,1.6888759603482132e+18,45.00521321614584,1.7425730625788372,-0.3577269415060679,1.175673504670461,1.6888759603482132e+18,45.00521321614584,3.677417755126953,-8.845376332600912,2.0764341354370117,1.688875960343887e+18,45.00088736979166,0.8713992834091187,-2.513099670410156,-2.108757734298706,1.6888759603482132e+18,45.00521321614584,0.8656469384829203,-2.505565563837687,-2.1452569564183555,,,,,,,,,,,,1.6888759603411215e+18,44.99812138671875,-0.4270000338554382,50.43967895507812,-6.775879859924316,1.6888759603411215e+18,44.99812138671875,-256.05360412597656,145.2946746826172,-139.90227966308595,1.6888759603395628e+18,44.99656290690104,0.0534493240217367,-0.1596904148658116,-0.5253537893295288,0.8336831529935201,-0.48936527967453,1.1051452954610188,0.1783758451541265
0.05,1.6888759604001116e+18,45.057111490885426,11.87353777885437,-14.896175066630043,7.675144990285237,1.6888759604001116e+18,45.057111490885426,15.529817740122477,-23.686351776123047,10.162716547648111,1.6888759604001116e+18,45.057111490885426,3.633477767308553,-8.774431228637695,2.4228580792744956,1.688875960395789e+18,45.052788818359375,-0.7209737052520117,-2.013971825440725,1.839722474416097,1.6888759604001116e+18,45.057111490885426,-0.8861618439356486,-2.2061906655629477,2.201151132583618,1.6888759603914642e+18,45.04846411132812,0.0,0.0,1.4295538663864136,5.841000080108643,1.2964942455291748,343.8793640136719,27.304901076290676,-122.7500626,49.1926145,1.6888759603911194e+18,45.04811938476563,2.857240009307861,50.59095840454101,-5.9804400444030765,1.6888759603911194e+18,45.04811938476563,-252.76935424804688,145.44595642089843,-139.10683898925782,1.6888759603914678e+18,45.048467610677086,0.082959309220314,-0.1950673957665761,-0.531451145807902,0.8198375105857849,-0.5744649569193522,1.129507064819336,0.168542668223381
0.1,1.6888759604433684e+18,45.10036828613282,1.0401954650878906,-5.88960599899292,10.0822172164917,1.6888759604433684e+18,45.10036828613282,5.168197751045227,-14.11944818496704,13.58854055404663,1.6888759604433684e+18,45.10036828613282,4.105200886726379,-8.214097023010254,3.4416098594665527,1.688875960447696e+18,45.10469620768229,-0.4683300207058589,-2.4727317094802856,2.695544679959615,1.6888759604433684e+18,45.10036828613282,-0.3160464093089103,-4.098600387573242,3.3605988025665283,,,,,,,,,,,,1.6888759604411195e+18,45.09811943359375,-2.0398399472236632,50.42991943359375,-8.278919792175293,1.6888759604411195e+18,45.09811943359375,-257.66643676757815,145.2849151611328,-141.4053161621094,1.6888759604433695e+18,45.10036946614583,0.1268738533059755,-0.277064432700475,-0.4600607256094615,0.8333223462104797,-0.686798612276713,0.9935753345489502,0.081075354789694
0.15,1.68887596048662e+18,45.14361962890624,-11.492203076680502,-3.8992861111958823,-0.5017813046773275,1.68887596048662e+18,45.14361962890624,-6.74277492860953,-11.810374101003012,2.9593233267466226,1.68887596048662e+18,45.14361962890624,4.726626714070638,-7.895342667897542,3.3963911533355713,1.6888759604995963e+18,45.15659627278646,-0.4098905837163329,2.115528146425883,-0.5627086957295736,1.68887596048662e+18,45.14361962890624,-0.6167193651199341,2.6085472901662192,0.1182024131218592,,,,,,,,,,,,1.6888759604911194e+18,45.14811938476562,-7.0101197242736815,49.60275955200195,-8.959679794311523,1.6888759604911194e+18,45.14811938476562,-262.6367126464844,144.45775756835937,-142.08607788085936,1.688875960495266e+18,45.15226611328125,0.1117682556311289,-0.2554649263620376,-0.4375683764616648,0.8547377586364746,-0.6086325844128927,0.936209201812744,0.0548810499409834
0.2,1.6888759605385167e+18,45.19551684570312,-2.7152891159057617,0.0835412343343098,0.2112413247426351,1.6888759605385167e+18,45.19551684570312,1.501296838124593,-8.309076627095541,3.1228328148523965,1.6888759605385167e+18,45.19551684570312,4.193784475326538,-8.376872698465982,2.8468779722849527,1.688875960542846e+18,45.19984594726563,0.7845800220966339,3.5995999574661255,-4.622188329696655,1.6888759605385167e+18,45.19551684570312,0.6385578115781149,2.942283312479655,-4.072893142700195,,,,,,,,,,,,1.6888759605411187e+18,45.198118603515624,-3.013399839401245,50.18835983276367,-8.415559864044189,1.6888759605411187e+18,45.198118603515624,-258.63999633789064,145.0433563232422,-141.54196166992188,1.6888759605471695e+18,45.204169840494785,0.0708750436703363,-0.2053139855464299,-0.5073645909627279,0.8324169913927714,-0.6016562382380167,1.0673081080118816,0.1944442441066106
0.25,1.6888759605904228e+18,45.24742277018229,-8.947615305582682,-5.118836402893066,-2.496236880620321,1.6888759605904228e+18,45.24742277018229,-7.295516808827718,-14.591631571451822,-0.5501498182614644,1.6888759605904228e+18,45.24742277018229,1.629297157128652,-9.457050005594889,1.881373604138692,1.6888759605860997e+18,45.243099609375,0.7996226251125336,3.559002637863159,-6.52393897374471,1.6888759605904228e+18,45.24742277018229,0.6972008446852366,3.696600119272868,-6.225429534912109,,,,,,,,,,,,1.6888759605911212e+18,45.24812133789062,12.226839828491212,48.90735931396485,-6.692919826507568,1.6888759605911212e+18,45.24812133789062,-243.399755859375,143.76235656738282,-139.8193145751953,1.6888759605990728e+18,45.256072672526045,0.0060886700327197,-0.1259292811155318,-0.6474594672520956,0.7500946124394735,-0.9979347387949624,1.3420740365982056,0.8093930880228678
0.3,1.6888759606423237e+18,45.29932397460937,-3.9700736701488495,-2.5057605107625327,-3.4290034770965576,1.6888759606423237e+18,45.29932397460937,-3.670789221922557,-12.192827224731444,-1.7643079260985055,1.6888759606423237e+18,45.29932397460937,0.2764831694463889,-9.671321551005043,1.5999820629755657,1.6888759606380004e+18,45.29500040690104,0.0986547361438472,3.5976908206939697,-2.264375686645508,1.6888759606423237e+18,45.29932397460937,0.1781690369049708,3.1379128893216452,-2.3062198956807456,,,,,,,,,,,,1.6888759606411208e+18,45.298120556640626,19.549279403686523,46.02083969116211,-9.606279945373537,1.6888759606411208e+18,45.298120556640626,-236.0773132324219,140.87583618164064,-142.73267517089843,1.688875960642324e+18,45.29932409667969,-0.0613872241228818,-0.0552927087992429,-0.6927545070648193,0.7162685096263885,-1.371181845664978,1.401707649230957,1.379824459552765
0.35,1.688875960694225e+18,45.35122493489583,3.663699269294739,2.7739192644755044,0.0689238707224528,1.688875960694225e+18,45.35122493489583,2.2366909782091775,-6.853442986806233,1.3377872308095295,1.688875960694225e+18,45.35122493489583,-1.449809690316518,-9.611617088317873,1.204149881998698,1.6888759606899018e+18,45.34690185546875,0.7531968553860983,-0.9520844121774038,-3.972151279449463,1.688875960694225e+18,45.35122493489583,0.7512624462445577,-0.8830566157897314,-3.877874533335368,,,,,,,,,,,,1.6888759606911194e+18,45.348119384765624,26.79851951599121,42.63411865234375,-8.55463981628418,1.6888759606911194e+18,45.348119384765624,-228.8280731201172,137.4891143798828,-141.68103637695313,1.6888759606855764e+18,45.34257649739584,-0.0544801366825898,-0.0367426040271917,-0.7450141112009684,0.6630828181902567,-2.2420489390691123,1.3891508181889851,2.267224152882894
0.4,1.6888759607461276e+18,45.40312776692708,8.026004791259766,6.379741827646892,2.069583694140116,1.6888759607461276e+18,45.40312776692708,5.70169734954834,-3.0791639486948648,3.3696924448013306,1.6888759607461276e+18,45.40312776692708,-2.347108523050944,-9.44316069285075,1.2353951930999756,1.6888759607418007e+18,45.39880053710937,-0.0143044261882702,2.65084977944692,-1.1288789709409075,1.6888759607461276e+18,45.40312776692708,-0.1478293786446253,2.846428394317627,-0.969137688477834,,,,,,,,,,,,1.6888759607411195e+18,45.39811948242187,32.59352073669434,39.00095901489258,-8.854759883880615,1.6888759607411195e+18,45.39811948242187,-223.03307189941407,133.85595703125,-141.9811553955078,1.6888759607374748e+18,45.39447493489583,-0.064494019995133,-0.0130316480062901,-0.7857700188954672,0.614601194858551,-2.67991050084432,1.3042256832122805,2.753405968348185
0.45,1.6888759607980288e+18,45.45502888997396,0.9956938425699868,2.0611769358317056,-5.305437644322713,1.6888759607980288e+18,45.45502888997396,-1.4899308880170186,-7.253642400105794,-3.3852458794911704,1.6888759607980288e+18,45.45502888997396,-2.5084261894226074,-9.299074172973633,1.8554784059524536,1.6888759607937047e+18,45.45070483398437,-0.8230899969736735,1.861968159675598,-0.8515461484591166,1.6888759607980288e+18,45.45502888997396,-0.8092437386512756,1.7049249410629272,-0.8571457465489706,,,,,,,,,,,,1.688875960791117e+18,45.44811694335938,32.58376007080078,37.40275955200195,-13.947039794921874,1.688875960791117e+18,45.44811694335938,-223.04283752441407,132.25775756835938,-147.0734375,1.688875960789375e+18,45.446375,-0.1278104235728581,0.0189945443222919,-0.7906824946403503,0.5982455213864645,-2.522442102432251,1.2568151553471882,2.7330850760142007
0.5,1.6888759608499254e+18,45.506925537109375,2.6559032201766968,-1.5036195119222004,-6.20059601465861,1.6888759608499254e+18,45.506925537109375,-0.1571286916732788,-10.669795672098797,-4.025525331497192,1.6888759608499254e+18,45.506925537109375,-2.835833470026652,-9.150430997212728,2.1103572050730386,1.688875960845607e+18,45.502606445312495,-0.3295617997646331,-0.1723658045132955,-0.7177157600720724,1.6888759608499254e+18,45.506925537109375,-0.2597704492509365,-0.308079719543457,-0.6732753117879232,,,,,,,,,,,,1.6888759608411215e+18,45.498121533203125,33.56951904296875,35.54835968017578,-16.823799514770506,1.6888759608411215e+18,45.498121533203125,-222.0570770263672,130.40335693359376,-149.95020141601563,1.6888759608412782e+18,45.49827799479167,-0.1514138380686441,0.0240849504868189,-0.8006761272748312,0.5791166226069132,-2.493138154347738,1.2073747714360554,2.7461610635121665
0.55,1.688875960893183e+18,45.550182861328125,9.722245216369627,-4.306571006774902,-2.3031548261642456,1.688875960893183e+18,45.550182861328125,6.876374006271362,-13.49492120742798,-0.2742773294448852,1.688875960893183e+18,45.550182861328125,-2.868672490119934,-9.17260503768921,1.9641640186309817,1.688875960897508e+18,45.554507975260414,0.382198025782903,0.6901250382264456,1.1267918596665063,1.688875960893183e+18,45.550182861328125,0.3689626157283783,0.2096794843673706,0.7034113463014364,1.6888759609104824e+18,45.567482421875,0.0,0.0,1.437863826751709,5.630000114440918,1.3007822036743164,344.21038818359375,27.337181314898174,-122.7500616,49.1926175,1.6888759608911142e+18,45.54811435546875,34.64067916870117,34.82123947143555,-16.347999572753906,1.6888759608911142e+18,45.54811435546875,-220.9859191894531,129.67623901367188,-149.47439270019532,1.6888759608931776e+18,45.550177571614576,-0.1429142008225122,0.0236064152171214,-0.8015542030334473,0.5800024271011353,-2.5264880657196045,1.2128997246424358,2.7663779258728027
0.6,1.688875960936433e+18,45.59343294270834,-4.235100110371907,-7.486324946085612,0.3164507150650024,1.688875960936433e+18,45.59343294270834,-5.881557856996854,-16.98445415496826,2.1926231384277344,1.688875960936433e+18,45.59343294270834,-1.6692591110865276,-9.482384045918783,1.811458905537923,1.688875960949407e+18,45.60640690104167,1.439096728960673,0.8219191630681354,3.0862438678741455,1.688875960936433e+18,45.59343294270834,1.2232067386309309,1.943009654680888,3.0358475844065347,,,,,,,,,,,,1.688875960941123e+18,45.59812319335937,29.333679962158204,38.359239959716795,-17.11903953552246,1.688875960941123e+18,45.59812319335937,-226.2929168701172,133.21423950195313,-150.2454376220703,1.6888759609450796e+18,45.60207950846354,-0.1651905626058578,0.0582204411427179,-0.7534113725026449,0.6332739194234213,-2.2360480626424155,1.3417588075002034,2.555493116378784
0.65,1.6888759609883328e+18,45.64533260091145,-2.6503795186678567,-8.700538953145346,5.321007410685222,1.6888759609883328e+18,45.64533260091145,-2.787438909212748,-18.44268035888672,6.566902319590251,1.6888759609883328e+18,45.64533260091145,-0.159860740105311,-9.726396242777506,1.18118155002594,1.6888759609926605e+18,45.64966040039063,0.9952521920204164,-3.543552875518799,3.5993707180023193,1.6888759609883328e+18,45.64533260091145,1.0667234261830647,-3.1030936241149902,3.520263671875,,,,,,,,,,,,1.6888759609911188e+18,45.64811904296875,22.18447914123535,43.94195938110352,-13.7079195022583,1.6888759609911188e+18,45.64811904296875,-233.4421142578125,138.79695739746094,-146.83431396484374,1.6888759609969848e+18,45.65398470052083,-0.1146534010767936,0.0351437597225109,-0.7012996077537537,0.7017231782277426,-1.4459368586540222,1.4459839661916096,1.658673087755839
0.7,1.6888759610402312e+18,45.69723128255208,-0.6458618640899658,-12.135896364847818,7.894574006398519,1.6888759610402312e+18,45.69723128255208,1.1250254313151042,-21.721445719401043,9.121240297953287,1.6888759610402312e+18,45.69723128255208,1.7480859359105427,-9.569804191589355,1.16195281346639,1.6888759610359084e+18,45.692908365885415,-0.445829838514328,-0.6244569768508276,3.885204712549845,1.6888759610402312e+18,45.69723128255208,-0.5018767217795054,-0.4883867700894673,3.6925785541534424,,,,,,,,,,,,1.6888759610411154e+18,45.69811528320312,13.424879837036134,47.89963912963867,-10.99951992034912,1.6888759610411154e+18,45.69811528320312,-242.20171508789065,142.754638671875,-144.12591857910155,1.6888759610488758e+18,45.70587548828125,-0.0953358610471089,-0.0023388796641181,-0.630610466003418,0.7699161370595297,-0.5547025005022684,1.3291757901509602,0.687295933564504
0.75,1.6888759610921375e+18,45.74913753255208,-2.97143276532491,-4.070785204569499,-0.8908283313115438,1.6888759610921375e+18,45.74913753255208,-0.1517448425292968,-13.39561939239502,0.469591432561477,1.6888759610921375e+18,45.74913753255208,2.7968865235646567,-9.309089024861654,1.295706311861674,1.6888759610878164e+18,45.74481624348959,0.7210245927174886,-2.0344866514205933,2.0761273304621377,1.6888759610921375e+18,45.74913753255208,0.8363254070281982,-1.9233601093292236,2.1218403975168862,,,,,,,,,,,,1.6888759610911186e+18,45.74811879882812,7.766519832611084,49.141598510742185,-10.030839538574218,1.6888759610911186e+18,45.74811879882812,-247.86007385253907,143.99659729003906,-143.15723571777343,1.6888759610921385e+18,45.74913854980469,-0.0650998838245868,-0.0354978423565626,-0.5978485941886902,0.7980704605579376,-0.4462283253669739,1.252282738685608,0.4886150956153869
0.8,1.6888759611440397e+18,45.80103971354166,-9.080159823099772,7.910925547281901,-0.1569993495941161,1.6888759611440397e+18,45.80103971354166,-5.2492547035217285,-1.0883355140686035,0.8913264473279318,1.6888759611440397e+18,45.80103971354166,3.808103640874227,-8.983515739440918,0.9836123188336692,1.688875961139715e+18,45.79671525065104,1.283682386080424,-1.874847233295441,2.404620130856832,1.6888759611440397e+18,45.80103971354166,1.246725042661031,-2.0494529406229653,2.3119212786356607,,,,,,,,,,,,1.6888759611411218e+18,45.79812187500001,2.0496000021696092,50.188359069824216,-6.568479824066162,1.6888759611411218e+18,45.79812187500001,-253.57699584960935,145.0433563232422,-139.69487609863282,1.688875961135388e+18,45.79238810221354,-0.0249236168650288,-0.0447683297097682,-0.5577385822931925,0.8280979792277018,-0.269926498333613,1.1728065411249795,0.2411977003018061
0.85,1.6888759611959324e+18,45.85293237304688,-8.54388173421224,14.16048526763916,-0.2123447060585022,1.6888759611959324e+18,45.85293237304688,-4.280959049860637,5.371687412261963,0.9852447311083476,1.6888759611959324e+18,45.85293237304688,4.240121046702067,-8.773052533467611,1.132875959078471,1.6888759611916155e+18,45.84861539713541,0.8504262367884318,-2.8109473387400308,0.8060366908709208,1.6888759611959324e+18,45.85293237304688,0.8447757164637247,-2.844595750172933,0.7057529886563619,,,,,,,,,,,,1.6888759611911153e+18,45.848115234375,-0.9955199837684632,50.791038513183594,-3.886919927597046,1.6888759611911153e+18,45.848115234375,-256.6221130371094,145.6460388183594,-137.01331787109376,1.6888759611872873e+18,45.844287353515625,0.0344964017470677,-0.0868462845683097,-0.5262151559193929,0.8449286222457886,-0.2512032985687255,1.109943946202596,0.0746327315767605
0.9,1.6888759612478415e+18,45.90484163411458,-4.041386365890503,11.980238596598308,-0.679827074209849,1.6888759612478415e+18,45.90484163411458,0.0582253535588581,3.140978549917539,0.7026922504107157,1.6888759612478415e+18,45.90484163411458,4.076810121536255,-8.823514938354492,1.3178058465321858,1.6888759612435192e+18,45.900519287109375,0.8607091506322225,-2.18328328927358,-0.529416561126709,1.6888759612478415e+18,45.90484163411458,0.8417213956514994,-2.1194988091786704,-0.711658007154862,,,,,,,,,,,,1.6888759612411195e+18,45.89811938476562,-1.23951997756958,50.88863906860352,-2.061799955368042,1.6888759612411195e+18,45.89811938476562,-256.86611328125,145.74363708496094,-135.18819885253907,1.6888759612391885e+18,45.89618863932291,0.0882479151089985,-0.133781870206197,-0.519671618938446,0.8390496969223022,-0.3035037120183309,1.110497275988261,-0.0204236169035236
0.95,1.68887596129974e+18,45.95674015299479,7.49415644009908,-3.031200091044108,3.7175917625427246,1.68887596129974e+18,45.95674015299479,10.873384793599447,-12.121839761734009,5.3794641097386675,1.68887596129974e+18,45.95674015299479,3.3564266363779702,-9.074894587198893,1.5971588293711343,1.6888759612954204e+18,45.95242041015624,-0.3855068782965342,-1.8088738123575847,-0.8931359052658081,1.68887596129974e+18,45.95674015299479,-0.608879933754603,-1.8431331713994343,-0.4797838131586711,,,,,,,,,,,,1.6888759612911242e+18,45.94812407226563,2.906039959192276,50.830078125,-0.7807999849319458,1.6888759612911242e+18,45.94812407226563,-252.7205535888672,145.6850799560547,-133.90719909667968,1.6888759612910932e+18,45.94809342447917,0.1185973957180976,-0.173012336095174,-0.5440850655237833,0.8122246265411377,-0.4136164287726084,1.1810055176417034,-0.0099060305704672
1.0,1.688875961342994e+18,45.999993774414065,7.063757419586182,-9.17656946182251,12.852755546569824,1.688875961342994e+18,45.999993774414065,10.897213459014893,-17.849559783935547,15.505191802978516,1.688875961342994e+18,45.999993774414065,3.810654520988464,-8.65724515914917,2.587722063064575,1.6888759613473216e+18,46.00432161458334,-1.096095860004425,-4.179081837336223,2.872848351796468,1.688875961342994e+18,45.999993774414065,-0.9634872078895568,-4.493982791900635,2.9172632694244385,,,,,,,,,,,,1.688875961341124e+18,45.998124072265625,1.0199199855327603,50.83983917236328,-3.6819599151611326,1.688875961341124e+18,45.998124072265625,-254.6066741943359,145.69483337402343,-136.80835876464843,1.6888759613429896e+18,45.999989664713546,0.1442560454209645,-0.2463486542304356,-0.4939968188603719,0.8203309575716654,-0.5915704369544983,1.082265853881836,0.0134648699313401
1.05,1.688875961386244e+18,46.043243977864584,-4.433313210805257,-13.174304962158203,6.58699862162272,1.688875961386244e+18,46.043243977864584,0.2205384572347005,-21.19442653656006,9.894919991493223,1.688875961386244e+18,46.043243977864584,4.631049474080403,-8.004376570383707,3.243208408355713,1.6888759613992223e+18,46.05622216796875,-1.27920267979304,1.999820093313853,0.9660834074020386,1.688875961386244e+18,46.043243977864584,-1.444543540477753,1.3029754956563313,2.1510602037111917,,,,,,,,,,,,1.6888759613911217e+18,46.0481216796875,-6.295199775695801,50.31767959594727,-6.536759853363037,1.6888759613911217e+18,46.0481216796875,-261.9217956542969,145.1726806640625,-139.66315612792968,1.6888759613948966e+18,46.051896647135415,0.1423584520816802,-0.2683663268884023,-0.4301262994607289,0.8497213125228882,-0.6030081510543823,0.9406688213348388,-0.017871624790132
1.1,1.6888759614381425e+18,46.095142578125,-5.86699899037679,6.41666046778361,-7.093315601348877,1.6888759614381425e+18,46.095142578125,-1.2961123784383135,-1.725823352734248,-3.965904076894125,1.6888759614381425e+18,46.095142578125,4.5480850537618,-8.126738548278809,3.0626981258392334,1.6888759614424735e+18,46.09947375488281,0.944244958460331,1.4616478029638529,-2.150474786758423,1.6888759614381425e+18,46.095142578125,0.6402376890182495,1.1846204002698262,-2.210823138554891,1.688875961429498e+18,46.08649780273438,0.0,0.0,1.437863826751709,5.383999824523926,1.3066492080688477,344.84527587890625,27.337181314898174,-122.7500602,49.1926309,1.6888759614411208e+18,46.098120800781246,-6.136599922180176,49.719879150390625,-7.0515998840332035,1.6888759614411208e+18,46.098120800781246,-261.76319580078126,144.5748748779297,-140.17799682617186,1.6888759614467983e+18,46.10379842122395,0.1195112690329551,-0.2405799875656763,-0.4647156198819478,0.8431975642840067,-0.5770151019096375,1.0009199579556782,0.0394363602002461
1.15,1.6888759614900503e+18,46.14705061848958,-12.162123680114746,-6.251797040303548,1.7191402912139893,1.6888759614900503e+18,46.14705061848958,-9.187043031056724,-15.388043403625488,3.6432718435923257,1.6888759614900503e+18,46.14705061848958,2.9522791703542075,-9.120501200358072,1.8594180742899575,1.6888759614857196e+18,46.142719563802075,0.417933627963066,4.71969747543335,-6.275316874186198,1.6888759614900503e+18,46.14705061848958,0.2572251815969744,4.553542296091716,-6.647130171457927,,,,,,,,,,,,1.6888759614911217e+18,46.14812158203125,3.206159898638725,50.25667877197266,-4.789719963073731,1.6888759614911217e+18,46.14812158203125,-252.4204315185547,145.11167907714844,-137.91611938476564,1.6888759614986964e+18,46.1556962890625,0.0518581500897804,-0.1506855140129725,-0.5919608076413473,0.7876991828282675,-0.6688658893108368,1.2531717220942178,0.3768951644500096
1.2,1.6888759615419433e+18,46.19894327799479,-3.551516056060791,-7.496005058288574,-2.8137670358022056,1.6888759615419433e+18,46.19894327799479,-2.952942589918772,-17.17269007364909,-1.165503998597463,1.6888759615419433e+18,46.19894327799479,0.5757718980312347,-9.660939852396648,1.583549539248149,1.6888759615376238e+18,46.194623616536454,-0.0460694187010327,3.058704137802124,-3.625281691551209,1.6888759615419433e+18,46.19894327799479,0.0131336015959581,2.9194267988204956,-3.143817941347758,,,,,,,,,,,,1.6888759615411151e+18,46.198115136718755,18.065759658813477,47.41163940429688,-6.651439952850342,1.6888759615411151e+18,46.198115136718755,-237.5608367919922,142.26663818359376,-139.77783813476563,1.688875961550594e+18,46.2075938313802,-0.0189463098843891,-0.0911642064650853,-0.6858644286791483,0.7214451233545939,-1.3191334803899128,1.4050635894139607,1.2165769338607788
1.25,1.6888759615938537e+18,46.25085359700521,1.2512872616449993,2.5658443768819175,-1.9396904508272808,1.6888759615938537e+18,46.25085359700521,0.6520441770553589,-7.149355411529541,-0.6171488364537555,1.6888759615938537e+18,46.25085359700521,-0.622044620414575,-9.699454625447592,1.2578280766805012,1.6888759615895265e+18,46.246526448567714,0.8302167654037476,0.002188932771484,-2.8205684820810952,1.6888759615938537e+18,46.25085359700521,0.8889107505480448,-0.0223474899927775,-2.88114595413208,,,,,,,,,,,,1.6888759615911214e+18,46.24812158203125,23.611879730224608,44.74959945678711,-6.9979198455810545,1.6888759615911214e+18,46.24812158203125,-232.01471557617188,139.60459899902344,-140.12431640625,1.6888759615938488e+18,46.25084875488281,-0.0216906275600194,-0.070577997714281,-0.7254680693149567,0.6841436922550201,-2.0218665599823,1.4250786900520325,1.9525312781333923
1.3,1.688875961645751e+18,46.302750813802085,5.734165668487549,5.7759450276692705,3.6486138502756753,1.688875961645751e+18,46.302750813802085,3.847658753395081,-3.819543202718099,4.569294134775798,1.688875961645751e+18,46.302750813802085,-1.9093084335327148,-9.579743067423502,0.8559668064117432,1.688875961641431e+18,46.29843090820312,1.0418306787808735,1.7641787926355998,-2.553569475809733,1.688875961645751e+18,46.302750813802085,0.9872091809908548,1.87555992603302,-2.459038019180298,,,,,,,,,,,,1.6888759616411195e+18,46.298119775390624,29.731399536132812,41.37751922607422,-6.109759902954101,1.6888759616411195e+18,46.298119775390624,-225.89519653320312,136.23251953125,-139.2361572265625,1.6888759616371028e+18,46.29410278320313,-0.0254349373281001,-0.0402762598047653,-0.7654543320337931,0.6413000623385111,-2.650028705596924,1.3701695203781128,2.62896720568339
1.35,1.688875961697651e+18,46.35465112304687,4.867361942927043,5.022194862365723,-0.9781999588012696,1.688875961697651e+18,46.35465112304687,2.5268206795056662,-4.443870504697164,0.2281157672405243,1.688875961697651e+18,46.35465112304687,-2.3633426825205484,-9.45032024383545,1.1416021784146626,1.6888759616933243e+18,46.35032421875,-0.563930431380868,2.428291161855062,-0.5812382797400156,1.688875961697651e+18,46.35465112304687,-0.6483316520849863,2.509790817896525,-0.4575889656941096,,,,,,,,,,,,1.6888759616911194e+18,46.34811948242187,33.09127960205078,38.63251876831055,-8.918199920654297,1.6888759616911194e+18,46.34811948242187,-222.53531799316409,133.48751220703124,-142.0445983886719,1.6888759616890012e+18,46.346001057942715,-0.0671683214604854,0.0004757558344862,-0.7875318924585978,0.6123239994049072,-2.730909585952759,1.3045734167099,2.827495892842611
1.4,1.6888759617495583e+18,46.40655818684896,1.3635549545288086,0.2397683461507161,-5.43314774831136,1.6888759617495583e+18,46.40655818684896,-1.100299636522929,-9.118249575297035,-3.710669755935669,1.6888759617495583e+18,46.40655818684896,-2.486656109491984,-9.342272758483888,1.657764474550883,1.6888759617452347e+18,46.40223461914062,-0.3893247842788696,2.0565287669499717,-1.0127127567927043,1.6888759617495583e+18,46.40655818684896,-0.3616831401983897,1.854790488878886,-1.0905980666478474,,,,,,,,,,,,1.688875961741118e+18,46.39811787109375,33.11567916870117,37.63699951171875,-13.61763973236084,1.688875961741118e+18,46.39811787109375,-222.51091613769532,132.49200134277345,-146.74403686523436,1.6888759617409032e+18,46.397903157552086,-0.1269942373037337,0.0314972785611947,-0.7889524102210999,0.6001203060150146,-2.559607664744059,1.2703993717829387,2.7868553002675376
1.45,1.6888759617928018e+18,46.44980187988281,4.194484114646912,-2.7103753089904785,-5.673807859420776,1.6888759617928018e+18,46.44980187988281,1.3666008338332176,-11.949756145477297,-3.8676986694335938,1.6888759617928018e+18,46.44980187988281,-2.8506847620010376,-9.22363567352295,1.7413957715034485,1.688875961797131e+18,46.454130777994784,0.0103338013092676,-0.2466368474997579,-0.4496477345625559,1.6888759617928018e+18,46.44980187988281,-0.0029016099870204,-0.2856558561325073,-0.6314819604158401,,,,,,,,,,,,1.6888759617911214e+18,46.448121435546874,34.694358825683594,35.770398712158205,-15.201199722290038,1.6888759617911214e+18,46.448121435546874,-220.93223266601564,130.62539978027343,-148.32760009765624,1.6888759617928046e+18,46.44980460611979,-0.1417382458845773,0.0436518316467602,-0.8014857172966003,0.5793180664380392,-2.592196464538574,1.2255916992823284,2.859123786290487
1.5,1.6888759618360492e+18,46.49304899088542,4.361303488413493,-6.530196189880371,-5.104453404744466,1.6888759618360492e+18,46.49304899088542,1.9826529026031496,-15.9040953318278,-3.391028563181559,1.6888759618360492e+18,46.49304899088542,-2.401451905568441,-9.35815397898356,1.6487114032109578,1.688875961849027e+18,46.50602734375,0.8333729101965824,1.378570129474004,2.8932613929112754,1.6888759618360492e+18,46.49304899088542,0.379907282690207,0.7208719054857889,2.1154772639274597,,,,,,,,,,,,1.6888759618411151e+18,46.49811513671875,32.974159240722656,37.24659957885742,-15.484239768981933,1.6888759618411151e+18,46.49811513671875,-222.6524353027344,132.10159606933593,-148.6106384277344,1.6888759618447004e+18,46.50170060221354,-0.1442215492328007,0.0500081715484459,-0.7788317799568176,0.6078383525212606,-2.487234671910604,1.2929919163386028,2.765507459640503
1.55,1.688875961887952e+18,46.544952392578125,-7.554283142089844,-9.132269859313965,4.204630692799887,1.688875961887952e+18,46.544952392578125,-8.234898885091146,-18.865811665852863,5.293721238772075,1.688875961887952e+18,46.544952392578125,-0.7034168392419815,-9.717796643575031,1.024377167224884,1.6888759618922798e+18,46.54927966308594,1.9343047738075256,0.1357648372650146,3.223917603492737,1.688875961887952e+18,46.544952392578125,1.830050468444824,0.329409042994181,3.2717432975769043,,,,,,,,,,,,1.6888759618911135e+18,46.54811376953125,25.10027961730957,42.92203979492187,-14.366719818115234,1.6888759618911135e+18,46.54811376953125,-230.52631225585935,137.77703857421875,-147.493115234375,1.688875961896602e+18,46.55360196940104,-0.1435226649045943,0.0852974901596704,-0.717533548672994,0.6756274104118347,-1.9295413891474409,1.4641112486521404,2.2551428079605103
1.6,1.688875961939854e+18,46.59685416666667,1.1266154448191326,-10.496661186218262,10.02392609914144,1.688875961939854e+18,46.59685416666667,2.1040887435277305,-20.23769696553548,10.76650587717692,1.688875961939854e+18,46.59685416666667,0.9546718895435332,-9.725290616353352,0.6778661807378134,1.6888759619355302e+18,46.59253043619791,0.19827667872111,-3.233564297358195,3.7552940050760903,1.688875961939854e+18,46.59685416666667,0.0461203157901763,-2.863532602787018,3.820402145385742,1.6888759619485046e+18,46.605504638671874,0.0,0.0,1.2441004514694214,5.331999778747559,1.314061164855957,345.207275390625,26.623489182512422,-122.7500557,49.1926349,1.688875961941113e+18,46.59811333007813,18.56107978820801,47.20179824829101,-10.033279609680177,1.688875961941113e+18,46.59811333007813,-237.06551208496097,142.05679931640626,-143.15967712402343,1.6888759619485033e+18,46.60550341796875,-0.0888691966732342,0.0301120976607004,-0.6585633556048075,0.7460097670555115,-0.5620559950669607,1.4200282494227092,0.7310337424278259
1.65,1.6888759619917558e+18,46.648755696614586,-3.843791484832764,-7.1604814529418945,2.0549006859461465,1.6888759619917558e+18,46.648755696614586,-1.2576276858647664,-16.58146381378174,3.182454066351056,1.6888759619917558e+18,46.648755696614586,2.563362201054891,-9.405237197875978,1.062839885552724,1.6888759619874312e+18,46.64443115234375,-0.4082616021235783,-1.4043283015489578,2.721913735071818,1.6888759619917558e+18,46.648755696614586,-0.2273436685403188,-1.6849700051049392,2.5398759047190347,,,,,,,,,,,,1.6888759619911137e+18,46.6481134765625,10.213839912414551,49.14403839111328,-9.913719940185548,1.6888759619911137e+18,46.6481134765625,-245.41275634765623,143.99903564453126,-143.0401184082031,1.6888759620004068e+18,46.65740681966145,-0.0780409462749957,-0.0109776513030131,-0.6008966565132141,0.7950851917266846,-0.3835677405198415,1.2674021323521931,0.4795068899790446
1.7,1.688875962043658e+18,46.70065779622396,-6.5227038860321045,3.014085133870443,-2.1084837714831033,1.688875962043658e+18,46.70065779622396,-3.0390841960906982,-6.12981356183688,-1.137986585497856,1.688875962043658e+18,46.70065779622396,3.460818290710449,-9.128153483072916,0.9057837327321372,1.6888759620393329e+18,46.696333007812505,1.3364204565684,-1.541823923587799,2.398918787638346,1.688875962043658e+18,46.70065779622396,1.3156001369158428,-1.46062970161438,2.489581346511841,,,,,,,,,,,,1.688875962041114e+18,46.6981142578125,5.738879776000976,49.82967910766602,-7.476159858703613,1.688875962041114e+18,46.6981142578125,-249.8877136230469,144.68467712402344,-140.60255432128906,1.6888759620436567e+18,46.700656494140624,-0.033243853598833,-0.0312855290248989,-0.5680680871009827,0.8216098248958588,-0.2497508898377418,1.1983168721199036,0.2525490745902061
1.75,1.6888759620955574e+18,46.752557210286454,-9.680428187052408,13.2183624903361,0.0273906787236531,1.6888759620955574e+18,46.752557210286454,-5.220341444015503,4.534598191579183,1.2394821643829346,1.6888759620955574e+18,46.752557210286454,4.437285264333089,-8.66801929473877,1.1473780075709026,1.6888759620912346e+18,46.748234619140625,0.2151772727568943,-3.126357396443685,2.2669209241867065,1.6888759620955574e+18,46.752557210286454,0.1569923696418602,-3.23982564608256,2.143373409907023,,,,,,,,,,,,1.688875962091114e+18,46.7481138671875,-0.4684799909591675,50.644639587402345,-4.967839908599854,1.688875962091114e+18,46.7481138671875,-256.09507751464844,145.49963989257813,-138.0942352294922,1.688875962086909e+18,46.743908447265625,0.0080061775321761,-0.0662211701273917,-0.5244188706080118,0.8483947515487671,-0.231584295630455,1.100913127263387,0.123379590610663
1.8,1.6888759621474665e+18,46.804466552734375,-6.357493877410889,10.57254441579183,-0.3784499565760295,1.6888759621474665e+18,46.804466552734375,-1.7258233626683552,2.102692904571692,1.5577275554339092,1.6888759621474665e+18,46.804466552734375,4.6088690757751465,-8.454106012980143,1.8714640537897749,1.6888759621431398e+18,46.80013997395833,0.4066326320171356,-2.936429262161255,0.3647883534431457,1.6888759621474665e+18,46.804466552734375,0.4755585839351018,-2.7779606183369956,0.2091195285320282,,,,,,,,,,,,1.6888759621411177e+18,46.798117578125,-3.0890398979187013,50.4274787902832,-5.053239917755127,1.6888759621411177e+18,46.798117578125,-258.71563720703125,145.28247985839843,-138.17963562011718,1.6888759621388137e+18,46.79581396484375,0.0579648676017919,-0.1394839237133661,-0.4933923880259196,0.856316328048706,-0.3661578396956125,1.0384608109792073,0.0756227622429529
1.85,1.688875962199372e+18,46.856371988932295,-1.8673591613769531,5.522350311279297,0.2287439902623494,1.688875962199372e+18,46.856371988932295,2.121037818491459,-3.2307094732920327,2.310469667116801,1.688875962199372e+18,46.856371988932295,3.965595563252767,-8.737314542134603,2.0170121987660727,1.6888759621950474e+18,46.85204728190104,0.9975429773330688,-1.886301000912984,-1.5516486763954165,1.688875962199372e+18,46.856371988932295,0.9875145554542542,-1.8632408380508425,-1.6875152587890625,,,,,,,,,,,,1.688875962191126e+18,46.84812622070312,-1.546959966421127,50.62267837524414,-3.791759920120239,1.688875962191126e+18,46.84812622070312,-257.1735565185547,145.47767639160156,-136.91815490722655,1.6888759621907254e+18,46.847725585937496,0.0984362959861755,-0.1825876881678899,-0.5058570603529612,0.8370817104975382,-0.4555539985497792,1.082593282063802,0.0430804702142874
1.9,1.688875962242623e+18,46.89962280273437,13.378721714019775,-8.816906452178955,4.194802165031433,1.688875962242623e+18,46.89962280273437,16.898412704467773,-17.762221336364746,6.31944477558136,1.688875962242623e+18,46.89962280273437,3.496888279914856,-8.929570198059082,2.0599290132522583,1.6888759622469466e+18,46.90394653320312,-0.5251404841740926,-1.2479977210362752,0.6680320501327515,1.688875962242623e+18,46.89962280273437,-0.4637994430959224,-0.2880229745060205,0.5996406078338623,,,,,,,,,,,,1.6888759622411177e+18,46.89811787109375,2.9426398873329163,50.73003997802734,-2.269199943542481,1.6888759622411177e+18,46.89811787109375,-252.68395385742187,145.58504333496094,-135.39559631347657,1.6888759622426227e+18,46.89962280273437,0.1190272942185401,-0.2078484296798705,-0.5250949263572693,0.8165565927823385,-0.5345984101295471,1.1364554166793823,0.0566144026815891
1.95,1.6888759622858678e+18,46.942867838541666,5.193647543589274,-3.8010479609171544,10.761873881022137,1.6888759622858678e+18,46.942867838541666,9.038289388020834,-12.383255879084269,13.68395455678304,1.6888759622858678e+18,46.942867838541666,3.821840445200602,-8.566462834676107,2.857367515563965,1.6888759622988506e+18,46.95585083007813,-0.3418809042001764,-2.804838679730892,1.315396507581075,1.6888759622858678e+18,46.942867838541666,-0.409636061017712,-3.8841358025868735,1.6077973047892251,,,,,,,,,,,,1.6888759622911214e+18,46.948121484374994,-0.9149999618530272,50.34695892333984,-4.6067197799682615,1.6888759622911214e+18,46.948121484374994,-256.5415924072266,145.20195617675782,-137.73311767578124,1.6888759622945242e+18,46.95152433268229,0.1535983930031458,-0.2753237287203471,-0.4768274625142415,0.8201154073079427,-0.6601056059201559,1.0497963031133015,0.0211979628074913
2.0,1.6888759623377723e+18,46.99477221679688,-9.84299659729004,-7.640284538269043,5.012905518213908,1.6888759623377723e+18,46.99477221679688,-5.584648768107097,-15.901303927103678,8.28355328241984,1.6888759623377723e+18,46.99477221679688,4.235546429951985,-8.245274225870768,3.205934206644694,1.6888759623421033e+18,46.99910327148437,-1.6072628498077393,3.6910769939422607,0.173103941604495,1.6888759623377723e+18,46.99477221679688,-1.3406965136528015,2.654514948527018,0.1281289756298065,,,,,,,,,,,,1.6888759623411213e+18,46.998121240234376,-4.104079914093018,50.0712387084961,-6.558719825744629,1.6888759623411213e+18,46.998121240234376,-259.7306762695313,144.92623901367188,-139.68511657714845,1.6888759623464307e+18,47.0034306640625,0.1215121125181515,-0.2605560670296351,-0.4620311657587687,0.8386892080307007,-0.6392844319343567,0.995016872882843,0.0679177691539128
2.05,1.688875962389674e+18,47.04667399088542,-4.137873808542888,-0.4760138193766277,-6.5356918176015215,1.688875962389674e+18,47.04667399088542,-0.2007977167765299,-9.06401220957438,-3.78484719991684,1.688875962389674e+18,47.04667399088542,3.914274613062541,-8.572253227233887,2.686131159464518,1.6888759623853537e+18,47.042353434244795,0.8705338686704636,2.203849077224731,-2.4648921887079873,1.688875962389674e+18,47.04667399088542,1.0380127827326455,2.510401646296183,-2.7057257890701294,,,,,,,,,,,,1.6888759623911206e+18,47.04812060546875,-0.8149600148200988,49.919959259033206,-5.926759910583496,1.6888759623911206e+18,47.04812060546875,-256.441552734375,144.77495727539062,-139.05315551757812,1.6888759623983227e+18,47.05532283528646,0.0891678060094515,-0.2079965074857075,-0.5149591863155365,0.8259986837704977,-0.5829641024271647,1.0952661832173665,0.1464775949716567
2.1,1.6888759624415754e+18,47.09857552083333,-9.987755139668783,-2.150541305541992,0.3297216494878133,1.6888759624415754e+18,47.09857552083333,-7.877371629079183,-11.592228571573893,1.9780667225519817,1.6888759624415754e+18,47.09857552083333,2.087581992149353,-9.425942103068031,1.583631594975789,1.6888759624372552e+18,47.094255289713544,0.4707734584808349,4.754924138387044,-5.50165589650472,1.6888759624415754e+18,47.09857552083333,0.254272644718488,4.804404258728027,-5.512040774027507,1.6888759624675151e+18,47.12451513671875,0.0,0.0,1.2441004514694214,5.328999996185303,1.3204872608184814,345.59356689453125,26.623489182512422,-122.7500542,49.1926478,1.6888759624411215e+18,47.098121630859374,9.8307599067688,49.16355972290039,-4.204119873046875,1.6888759624411215e+18,47.098121630859374,-245.79583740234375,144.0185546875,-137.330517578125,1.6888759624502244e+18,47.10722444661459,0.0183166433125734,-0.1145905082424481,-0.6311121980349222,0.765248715877533,-0.7632898290952047,1.33151113986969,0.5732628007729849
2.15,1.688875962493481e+18,47.150480794270834,-2.907007093230883,-2.9124507904052734,-2.4048925240834556,1.688875962493481e+18,47.150480794270834,-2.5060828626155853,-12.59522024790446,-0.74097740650177,1.688875962493481e+18,47.150480794270834,0.3781228791922331,-9.667024294535318,1.5992016792297363,1.6888759624891569e+18,47.14615698242187,-0.5714644143978754,3.4957271814346313,-2.9948686758677163,1.688875962493481e+18,47.150480794270834,-0.4516839683055877,3.157307982444763,-2.846224784851074,,,,,,,,,,,,1.6888759624911196e+18,47.14811958007813,19.039319610595705,46.10867919921875,-8.57171983718872,1.6888759624911196e+18,47.14811958007813,-236.58727111816407,140.96367797851562,-141.6981170654297,1.6888759624934807e+18,47.15048071289063,-0.0609103608876466,-0.0562869422137736,-0.6905117332935333,0.7183591425418854,-1.3364912867546082,1.3992066979408264,1.3430504202842712
2.2,1.688875962545382e+18,47.20238208007813,2.1329115529855094,2.9270342191060386,-2.1571115255355835,1.688875962545382e+18,47.20238208007813,1.2021939655145009,-6.74656343460083,-0.720040202140808,1.688875962545382e+18,47.20238208007813,-0.9535190264383951,-9.657852490743002,1.3723577658335369,1.6888759625410537e+18,47.1980537109375,0.5783875584602356,-0.0419969906409581,-2.945286750793457,1.688875962545382e+18,47.20238208007813,0.6075054804484049,0.0130317881703377,-2.9410107135772705,,,,,,,,,,,,1.6888759625411195e+18,47.19811943359375,24.375599670410157,43.366118621826175,-9.337879943847655,1.6888759625411195e+18,47.19811943359375,-231.2509948730469,138.2211181640625,-142.4642791748047,1.688875962536732e+18,47.193731933593746,-0.0690356890360514,-0.0325578264892101,-0.7311806480089823,0.6775613228480021,-2.015584429105123,1.4029242992401123,2.067360281944275
2.25,1.6888759625972838e+18,47.25428393554688,6.3579074541727705,4.398310502370198,1.1755636930465698,1.6888759625972838e+18,47.25428393554688,4.408975124359131,-5.1477592786153155,2.4644078811009726,1.6888759625972838e+18,47.25428393554688,-1.971733848253886,-9.530324618021648,1.2241307099660237,1.6888759625929646e+18,47.24996443684896,0.5179628257950147,2.5621724128723145,-1.8810068368911743,1.6888759625972838e+18,47.25428393554688,0.4202752883235613,2.689130624135335,-1.740355094273885,,,,,,,,,,,,1.6888759625911188e+18,47.24811870117187,30.236478805541992,40.294158935546875,-9.645319747924804,1.6888759625911188e+18,47.24811870117187,-225.3901153564453,135.14915466308594,-142.77171936035157,1.6888759625886305e+18,47.24563028971354,-0.0821486860513687,0.003527926824366,-0.7712510228157043,0.6307663520177206,-2.5657726923624673,1.3421321312586467,2.687877972920736
2.3,1.6888759626491853e+18,47.30618538411458,1.8859084844589231,2.1240197817484536,-3.770082473754883,1.6888759626491853e+18,47.30618538411458,-0.3477568825085957,-7.303293387095134,-2.107677936553955,1.6888759626491853e+18,47.30618538411458,-2.25646694501241,-9.41156800587972,1.5976911385854085,1.6888759626448617e+18,47.30186181640625,-0.5955936113993326,1.5394822359085083,-0.655000259478887,1.6888759626491853e+18,47.30618538411458,-0.6160575946172079,1.4003576636314392,-0.6036366720994314,,,,,,,,,,,,1.6888759626411187e+18,47.29811875,31.263719177246095,38.2518798828125,-13.1637996673584,1.6888759626411187e+18,47.29811875,-224.3628723144531,133.10687561035155,-146.29020080566406,1.6888759626405353e+18,47.29753515625,-0.1321900511781374,0.0423844282825787,-0.7820974389712015,0.60738738377889,-2.5424604415893555,1.2920434474945068,2.792445500691732
2.35,1.688875962692434e+18,47.34943408203125,3.2558505535125732,0.1036701202392578,-3.8119360208511353,1.688875962692434e+18,47.34943408203125,0.7869395166635513,-9.213264465332031,-1.8759729862213137,1.688875962692434e+18,47.34943408203125,-2.4917125701904297,-9.301189422607422,1.8712495565414429,1.6888759626967634e+18,47.35376350911458,-0.4382449189821879,0.4095342357953389,-1.212363878885905,1.688875962692434e+18,47.34943408203125,-0.437684953212738,0.6076582074165344,-1.2544118165969849,,,,,,,,,,,,1.688875962691122e+18,47.34812182617188,31.571160125732423,36.812278747558594,-15.85999927520752,1.688875962691122e+18,47.34812182617188,-224.05543212890623,131.66727600097656,-148.98639831542968,1.6888759626924332e+18,47.349433430989585,-0.1572677741448084,0.0502963190277417,-0.7907332181930542,0.5893858671188354,-2.502919912338257,1.246867299079895,2.8014838695526123
2.4,1.6888759627356826e+18,47.392682535807296,3.1553303400675454,-2.5718514124552407,-5.460989157358806,1.6888759627356826e+18,47.392682535807296,0.3451646566390991,-11.774282773335775,-3.44327179590861,1.6888759627356826e+18,47.392682535807296,-2.832967201868693,-9.186686197916666,1.953004002571106,1.688875962748661e+18,47.40566121419271,-0.029983306924502,-0.2605849256118138,0.2341650227705637,1.6888759627356826e+18,47.392682535807296,-0.2296853369722763,-0.2651155193646748,-0.2913318003217379,,,,,,,,,,,,1.6888759627411215e+18,47.39812153320313,33.5890396118164,34.957879638671876,-16.650559997558595,1.6888759627411215e+18,47.39812153320313,-222.0375549316406,129.81287841796876,-149.7769561767578,1.6888759627443377e+18,47.40133748372396,-0.1573897500832875,0.0471351779997348,-0.8011298974355062,0.5754871765772501,-2.539536396662394,1.213733156522115,2.834521691004435
2.45,1.688875962787591e+18,47.4445907389323,4.116364757219951,-6.966377894083659,-4.21888264020284,1.688875962787591e+18,47.4445907389323,1.8979071776072185,-16.360127449035645,-2.396212418874105,1.688875962787591e+18,47.4445907389323,-2.241258899370829,-9.37800439198812,1.7579567829767864,1.688875962800566e+18,47.45756599934896,1.2063570618629456,1.396488865216573,2.876666307449341,1.688875962787591e+18,47.4445907389323,0.8172868092854818,0.7798713048299154,2.2574525475502014,,,,,,,,,,,,1.6888759627911204e+18,47.44812041015625,31.788319778442386,36.45847930908203,-16.384599685668945,1.6888759627911204e+18,47.44812041015625,-223.83827514648436,131.3134796142578,-149.51099548339843,1.6888759627962376e+18,47.45323754882813,-0.1576104809840519,0.0589703395962714,-0.7732919057210287,0.6107462048530579,-2.4292151927948,1.3003917535146077,2.739609162012736
2.5,1.6888759628394834e+18,47.49648331705729,-5.978774865468343,-7.1151123046875,4.874031225840251,1.6888759628394834e+18,47.49648331705729,-6.55573574701945,-16.848262786865234,6.047460476557414,1.6888759628394834e+18,47.49648331705729,-0.5997622658809026,-9.717405319213867,1.1087156534194946,1.6888759628438175e+18,47.5008173828125,1.5955800414085388,0.425544023513794,3.066772699356079,1.6888759628394834e+18,47.49648331705729,1.6377297242482505,0.6191119352976481,3.140661875406901,,,,,,,,,,,,1.6888759628411192e+18,47.498119140625,23.48255920410156,42.24615859985352,-15.088959503173829,1.6888759628411192e+18,47.498119140625,-232.1440307617187,137.10115661621094,-148.2153564453125,1.6888759628481426e+18,47.50514249674479,-0.1601435790459314,0.0944627970457076,-0.712904671827952,0.675700306892395,-1.8198806842168171,1.4580316543579102,2.182569940884908
2.55,1.6888759628913933e+18,47.54839331054688,-0.8257576624552408,-9.162633260091146,7.770561854044597,1.6888759628913933e+18,47.54839331054688,0.2368894716103871,-18.894126256306965,8.541978041330973,1.6888759628913933e+18,47.54839331054688,1.0398456752300262,-9.715747833251951,0.706702709197998,1.6888759628870705e+18,47.54407039388021,0.512668639421463,-2.9909998575846353,3.722205559412638,1.6888759628913933e+18,47.54839331054688,0.3433571656545003,-2.801835298538208,3.7563122113545737,,,,,,,,,,,,1.6888759628911217e+18,47.54812163085938,16.223559951782228,46.42831954956055,-11.119079780578613,1.6888759628911217e+18,47.54812163085938,-239.4030334472656,141.28331298828124,-144.24547729492187,1.6888759629000458e+18,47.557045735677086,-0.1113884945710499,0.0485925190150737,-0.6547675927480062,0.7453527450561523,-0.5377993086973826,1.4132064978281658,0.7652823328971863
2.6,1.6888759629432952e+18,47.60029508463541,-3.3112515211105347,-6.854545593261719,2.574964125951131,1.6888759629432952e+18,47.60029508463541,-0.747158924738566,-16.282759348551433,3.693720559279124,1.6888759629432952e+18,47.60029508463541,2.5412913163503013,-9.412468592325846,1.0540429949760437,1.6888759629389673e+18,47.59596752929687,-0.2193006227413813,-2.1417444248994193,2.638683279355367,1.6888759629432952e+18,47.60029508463541,-0.0681114696587125,-2.3716334799925485,2.522720734278361,,,,,,,,,,,,1.688875962941116e+18,47.5981158203125,8.498519802093506,48.131439971923825,-10.179679679870606,1.688875962941116e+18,47.5981158203125,-247.128076171875,142.98643798828124,-143.3060791015625,1.6888759629432934e+18,47.60029357910156,-0.0987367704510688,0.0079847467131912,-0.607192724943161,0.7881763875484467,-0.3890760540962219,1.2834566831588743,0.5417114496231079
2.65,1.6888759629951928e+18,47.652192871093746,-4.9579605261484785,2.306610584259033,-2.354125360647837,1.6888759629951928e+18,47.652192871093746,-1.4636098543802898,-6.825327157974243,-1.298704465230306,1.6888759629951928e+18,47.652192871093746,3.4715490341186523,-9.116192499796549,0.9907074173291524,1.6888759629908728e+18,47.64787288411458,1.205033500989278,-1.867007811864217,2.4337889353434243,1.6888759629951928e+18,47.652192871093746,1.205797056357066,-1.6983580589294434,2.4420865376790366,1.6888759629865467e+18,47.643546630859376,0.0,0.0,1.2536935806274414,5.373000144958496,1.3264544010162354,345.8271484375,25.97021594292611,-122.750054,49.1926526,1.6888759629911217e+18,47.64812163085937,4.1577600002288815,48.99763946533203,-7.502999687194825,1.6888759629911217e+18,47.64812163085937,-251.46883239746097,143.85263366699218,-140.6293975830078,1.6888759629865472e+18,47.64354711914063,-0.0447227961073318,-0.0330789828052123,-0.5746837258338928,0.8161682685216268,-0.3083422829707463,1.2091472148895264,0.325019285082817
2.7,1.6888759630470984e+18,47.70409838867187,-9.117106755574545,11.322340647379557,1.8326900005340576,1.6888759630470984e+18,47.70409838867187,-4.875575542449951,2.5286152362823486,3.053441127141317,1.6888759630470984e+18,47.70409838867187,4.2187299728393555,-8.77798048655192,1.15603764851888,1.6888759630427763e+18,47.699776285807296,0.230398014265423,-2.488614082336426,1.5887078046798706,1.6888759630470984e+18,47.70409838867187,0.1824959907680749,-2.589915911356608,1.464854896068573,,,,,,,,,,,,1.6888759630411182e+18,47.69811811523438,-0.8954799830913543,49.44171829223633,-5.350919914245606,1.6888759630411182e+18,47.69811811523438,-256.52207641601564,144.29671630859374,-138.4773193359375,1.6888759630384463e+18,47.69544620768229,0.0006647876192194,-0.0643614952762921,-0.5330667297045389,0.8433423439661661,-0.2494670102993647,1.1189772685368855,0.1549592067797978
2.75,1.6888759630989988e+18,47.75599861653646,-6.249203205108643,11.242738087972006,0.4234057664871216,1.6888759630989988e+18,47.75599861653646,-1.960319916407267,2.5527429580688477,2.1561325788497925,1.6888759630989988e+18,47.75599861653646,4.266081809997559,-8.674249966939291,1.668013334274292,1.688875963094672e+18,47.751671956380214,0.4029165307680765,-2.246813257535299,0.136426568031311,1.6888759630989988e+18,47.75599861653646,0.4332052667935689,-2.1394536892573037,0.0276925563812255,,,,,,,,,,,,1.6888759630911217e+18,47.748121874999995,-2.012999939918518,49.73939895629883,-5.248439788818359,1.6888759630911217e+18,47.748121874999995,-257.63959350585935,144.59439697265626,-138.3748352050781,1.6888759630903493e+18,47.74734952799479,0.0404281932860612,-0.1213277677694956,-0.5155271291732788,0.8471174637476603,-0.3574568331241607,1.083275636037191,0.1211487626036008
2.8,1.6888759631422474e+18,47.79924743652344,-2.890040397644043,7.03106951713562,-0.4069052934646606,1.6888759631422474e+18,47.79924743652344,0.96370929479599,-1.829312950372696,1.475175142288208,1.6888759631422474e+18,47.79924743652344,3.830948233604431,-8.844637393951416,1.8173669576644895,1.6888759631465782e+18,47.803578125,0.5730934043725332,-1.5957327683766682,-1.578424910704295,1.6888759631422474e+18,47.79924743652344,0.6378960311412811,-1.5157856941223145,-1.5120441913604736,,,,,,,,,,,,1.6888759631411185e+18,47.79811831054688,0.1000399820506573,49.58079986572265,-4.047959995269776,1.6888759631411185e+18,47.79811831054688,-255.5265563964844,144.43580017089843,-137.1743591308594,1.6888759631422513e+18,47.79925113932291,0.0711389866967995,-0.1569704711437225,-0.529823362827301,0.8302445212999979,-0.4454389115174611,1.1251505215962727,0.1131540214022
2.85,1.6888759631854991e+18,47.842499104817705,9.114790519078571,-7.148636976877849,3.4365609089533486,1.6888759631854991e+18,47.842499104817705,12.467602729797363,-16.175082365671795,5.47956395149231,1.6888759631854991e+18,47.842499104817705,3.3300106525421143,-9.010700225830078,1.978289524714152,1.688875963198476e+18,47.855475911458335,-0.5705481568972269,-2.078723559776942,1.4735087553660076,1.6888759631854991e+18,47.842499104817705,-0.3098104894161224,-1.2589423656463623,0.2351831297079722,,,,,,,,,,,,1.6888759631911237e+18,47.8481236328125,3.433079957962036,49.50515975952148,-3.7283199310302737,1.6888759631911237e+18,47.8481236328125,-252.19351501464843,144.36015930175782,-136.85471801757814,1.6888759631941476e+18,47.85114746093749,0.0890888199210166,-0.188259149591128,-0.5397408803304037,0.8154332836469015,-0.547474225362142,1.153372486432393,0.1436539863546689
2.9,1.6888759632373993e+18,47.89439908854166,7.941368579864502,-1.7073930104573567,5.403196652730306,1.6888759632373993e+18,47.89439908854166,11.869198163350424,-10.24766214688619,8.336593945821127,1.6888759632373993e+18,47.89439908854166,3.905028263727824,-8.524524052937826,2.8686837355295816,1.688875963250385e+18,47.90738492838542,-0.5114978229006132,-2.355954527854919,1.7918713490168254,1.6888759632373993e+18,47.89439908854166,-0.3469714572032292,-3.975358247756958,2.2174408435821533,,,,,,,,,,,,1.688875963241119e+18,47.89811904296875,-0.3415999829769134,49.44171905517578,-5.3118799209594725,1.688875963241119e+18,47.89811904296875,-255.96819458007812,144.29671630859374,-138.4382751464844,1.6888759632460567e+18,47.903056884765626,0.1361541002988815,-0.2634151875972747,-0.4766336778799693,0.8272573947906494,-0.6457550326983134,1.0369266271591189,0.0509127620607613
2.95,1.6888759632893064e+18,47.94630631510416,-12.16152811050415,-9.048868815104166,3.745105743408203,1.6888759632893064e+18,47.94630631510416,-7.68993345896403,-17.210576057434082,6.982256333033244,1.6888759632893064e+18,47.94630631510416,4.448792616526286,-8.145962079366049,3.1724371910095215,1.688875963293632e+18,47.95063195800781,-0.95623317360878,2.700787901878357,0.2176970988512039,1.6888759632893064e+18,47.94630631510416,-0.8896234134833018,2.3406320412953696,0.3763438711563746,,,,,,,,,,,,1.6888759632911194e+18,47.94811938476563,-4.58475980758667,48.70239944458008,-7.183359813690186,1.6888759632911194e+18,47.94811938476563,-260.2113525390625,143.55740051269532,-140.30975952148438,1.688875963297955e+18,47.954955078125,0.1103310585021972,-0.2467702378829319,-0.4575156370798747,0.8469812472661337,-0.604094405968984,0.9785426457722982,0.0696915636459986
3.0,1.6888759633412042e+18,47.99820402018229,-3.5140411853790283,-0.7371377944946289,-3.740888555844625,1.6888759633412042e+18,47.99820402018229,0.6817550261815389,-9.291529655456545,-1.3036895593007405,1.6888759633412042e+18,47.99820402018229,4.172994772593181,-8.538646697998047,2.3724856774012246,1.688875963336883e+18,47.99388297526042,1.3704252640406291,2.4892249504725137,-2.39616988102595,1.6888759633412042e+18,47.99820402018229,1.4388930797576904,2.8852184613545737,-2.7325528860092163,,,,,,,,,,,,1.6888759633411223e+18,47.99812231445313,-3.4257599830627443,48.62187881469727,-4.977599954605102,1.6888759633411223e+18,47.99812231445313,-259.05235595703124,143.47687683105468,-138.10399780273437,1.688875963349851e+18,48.00685083007812,0.0936020861069361,-0.1871365507443745,-0.5105457206567129,0.8328514297803243,-0.4867897033691406,1.091325004895528,0.0742972803612549
3.05,1.6888759633931067e+18,48.05010677083334,-6.354963541030884,-1.5573625564575195,0.8382927974065145,1.6888759633931067e+18,48.05010677083334,-3.985644966363907,-11.00578753153483,2.059422731399536,1.6888759633931067e+18,48.05010677083334,2.3465172052383423,-9.432679812113443,1.1564164559046428,1.688875963388784e+18,48.04578393554687,0.2703078687191009,4.985525767008464,-5.07919184366862,1.6888759633931067e+18,48.05010677083334,0.0571668048699697,4.842532475789388,-4.994841575622559,,,,,,,,,,,,1.688875963391122e+18,48.04812177734375,6.544079828262329,48.507199096679685,-3.02315993309021,1.688875963391122e+18,48.04812177734375,-249.08251342773437,143.36219787597656,-136.1495574951172,1.6888759633931095e+18,48.050109375,0.033066383562982,-0.0969141758978366,-0.609249621629715,0.7857894599437714,-0.4494470655918121,1.3039306998252869,0.2635290622711181
3.1,1.6888759634450107e+18,48.10201090494792,-6.948744734128316,-1.3678884506225586,-0.571246345837911,1.6888759634450107e+18,48.10201090494792,-6.370292027791341,-11.083953221638998,0.7714858849843343,1.6888759634450107e+18,48.10201090494792,0.5556510308136543,-9.700319608052572,1.2780187527338664,1.688875963440686e+18,48.09768595377604,-1.0033461650212605,2.8913269440333047,-3.433673540751139,1.6888759634450107e+18,48.10201090494792,-0.9476555983225504,2.505667438109716,-3.3763539791107178,,,,,,,,,,,,1.688875963441122e+18,48.098122119140626,16.08935966491699,45.85735931396484,-6.4293999671936035,1.688875963441122e+18,48.098122119140626,-239.5372344970703,140.712353515625,-139.55579528808593,1.6888759634363607e+18,48.09336075846354,-0.04098309079806,-0.0460432494680086,-0.6746899882952372,0.7347287734349569,-0.9977791905403136,1.4143073956171672,0.9905686974525452
3.15,1.688875963496912e+18,48.153912027994785,3.136884530385335,2.3564387957255044,-1.7338448762893677,1.688875963496912e+18,48.153912027994785,2.1840489705403647,-7.318447907765706,-0.2991028626759847,1.688875963496912e+18,48.153912027994785,-0.975636879603068,-9.659141540527344,1.370028535525004,1.6888759634925888e+18,48.149588867187504,-0.0498364223167299,-0.8836675013105074,-2.660012722015381,1.688875963496912e+18,48.153912027994785,-0.0295251545806725,-0.6880887746810913,-2.56257963180542,1.688875963505563e+18,48.16256298828125,0.0,0.0,1.2536935806274414,5.49399995803833,1.333910346031189,346.3397521972656,25.97021594292611,-122.7500551,49.1926648,1.6888759634911217e+18,48.1481216796875,23.75095977783203,42.18272018432617,-8.095920085906982,1.6888759634911217e+18,48.1481216796875,-231.8756378173828,137.0377197265625,-141.22231750488282,1.6888759634882632e+18,48.14526326497395,-0.0578790927926698,-0.0407709342737992,-0.7324681878089905,0.6768079797426859,-2.051460027694702,1.406834562619527,2.075729171435038
3.2,1.6888759635488143e+18,48.20581437174479,5.503109455108643,4.177652676900228,2.0226505994796753,1.6888759635488143e+18,48.20581437174479,3.720041672388712,-5.362315495808919,3.5818560123443604,1.6888759635488143e+18,48.20581437174479,-1.805869181950887,-9.52422300974528,1.494491974512736,1.6888759635444908e+18,48.201490641276045,0.1225802948077519,2.786003589630127,-1.8279633124669392,1.6888759635488143e+18,48.20581437174479,0.0737110823392868,2.8964175383249917,-1.7552704016367595,,,,,,,,,,,,1.6888759635411195e+18,48.19811982421875,28.665119171142575,39.18151931762695,-9.794159889221191,1.6888759635411195e+18,48.19811982421875,-226.961474609375,134.03651428222656,-142.92055969238282,1.6888759635401638e+18,48.1971640625,-0.0807409311334291,-0.0182640936691313,-0.7656596700350443,0.6374065081278483,-2.435657183329264,1.3408212661743164,2.524701992670695
3.25,1.6888759635920658e+18,48.249065795898446,2.3065366744995117,2.6927123069763184,-4.3490599393844604,1.6888759635920658e+18,48.249065795898446,0.2297109961509704,-6.718746662139893,-2.40329122543335,1.6888759635920658e+18,48.249065795898446,-2.0996272563934326,-9.395713806152344,1.8810553550720217,1.6888759635963886e+18,48.253388671875,-0.5732970237731934,2.547562599182129,-1.102000872294108,1.6888759635920658e+18,48.249065795898446,-0.6013968288898468,2.741410493850708,-1.0546588897705078,,,,,,,,,,,,1.6888759635911212e+18,48.24812114257813,29.499599838256835,37.041639709472655,-14.103199577331544,1.6888759635911212e+18,48.24812114257813,-226.1269958496094,131.89663696289062,-147.22959594726564,1.688875963592066e+18,48.24906599934896,-0.1429707954327265,0.0261255692069728,-0.7785783608754476,0.6101478934288025,-2.414097229639689,1.2798583507537842,2.656473716100057
3.3,1.6888759636353175e+18,48.292317382812506,2.263835589090983,0.6316672960917156,-6.17487891515096,1.6888759636353175e+18,48.292317382812506,-0.2001995295286178,-8.617950280507406,-3.932205279668172,1.6888759636353175e+18,48.292317382812506,-2.4868365128835044,-9.233872413635254,2.177960236867269,1.6888759636482898e+18,48.30528987630208,-0.4950553675492604,-0.173434833685557,-1.3161091804504397,1.6888759636353175e+18,48.292317382812506,-0.5171992381413778,0.4239913870890935,-1.4097752173741658,,,,,,,,,,,,1.6888759636411218e+18,48.29812177734375,30.360919189453124,34.66020050048828,-17.075119400024413,1.6888759636411218e+18,48.29812177734375,-225.2656707763672,129.51520080566405,-150.2015167236328,1.6888759636439665e+18,48.30096655273437,-0.1718215097983677,0.0415611664454141,-0.7938843568166097,0.58171280225118,-2.435774008433024,1.2167234023412068,2.7435540358225503
3.35,1.688875963687219e+18,48.3442188313802,3.5583983659744263,-4.5381514231363935,-6.317621072133382,1.688875963687219e+18,48.3442188313802,0.7403791944185892,-13.666008313496908,-3.9870408376057944,1.688875963687219e+18,48.3442188313802,-2.840820630391439,-9.112111727396648,2.265866835912069,1.6888759637001956e+18,48.35719563802083,0.2609921743472417,0.451582133769989,0.0665334040919939,1.688875963687219e+18,48.3442188313802,-0.0306959748268127,0.2316197355588277,-0.1682933699000083,,,,,,,,,,,,1.688875963691119e+18,48.34811899414062,31.23443946838379,33.320639038085936,-17.450879669189455,1.688875963691119e+18,48.34811899414062,-224.39215698242188,128.1756362915039,-150.57727661132813,1.688875963695864e+18,48.35286417643229,-0.1723567098379135,0.0410810274382432,-0.8014420469601949,0.5712021787961324,-2.4692091941833496,1.193743626276652,2.777721961339315
3.4,1.6888759637391196e+18,48.396119710286456,3.2056690057118735,-6.0455983479817705,-2.8731868267059326,1.6888759637391196e+18,48.396119710286456,0.8135597705841064,-15.348162968953451,-0.7982057531674703,1.6888759637391196e+18,48.396119710286456,-2.4149105548858643,-9.286819458007812,2.0102675358454385,1.688875963743447e+18,48.400447143554686,1.0073167979717257,0.6448446214199066,2.044565916061402,1.6888759637391196e+18,48.396119710286456,0.952033499876658,0.6105089088280996,1.6873624821503956,,,,,,,,,,,,1.6888759637411172e+18,48.39811728515625,29.841199493408205,34.289319610595705,-17.306919479370116,1.6888759637411172e+18,48.39811728515625,-225.78539428710937,129.14432067871093,-150.43331909179688,1.6888759637477624e+18,48.40476261393229,-0.1737326184908548,0.0621882205208142,-0.780368447303772,0.5970815221468607,-2.4186395009358725,1.2657421032587688,2.757871945699056
3.45,1.6888759637910223e+18,48.448022379557294,-4.789081891377767,-6.110485394795735,2.916759451230367,1.6888759637910223e+18,48.448022379557294,-5.685346603393555,-15.789239565531412,4.30867604414622,1.6888759637910223e+18,48.448022379557294,-0.9190661708513896,-9.66300900777181,1.327203114827474,1.6888759637867e+18,48.44369995117188,1.788002570470174,0.1761837402979532,3.208467880884806,1.6888759637910223e+18,48.448022379557294,1.8301013708114624,-0.0539597670237223,3.208620548248291,,,,,,,,,,,,1.6888759637911196e+18,48.448119677734375,23.258079528808594,38.62031860351563,-15.664800071716307,1.6888759637911196e+18,48.448119677734375,-232.36851196289064,133.4753173828125,-148.79119873046875,1.6888759637996664e+18,48.45666642252604,-0.1591782420873641,0.0845338329672813,-0.7252810994784037,0.6638800303141276,-2.018631021181742,1.4312371412913003,2.3659961223602295
3.5,1.688875963842917e+18,48.4999169921875,-0.7946625153223673,-11.52411683400472,8.58545192082723,1.688875963842917e+18,48.4999169921875,-0.014955182870229,-21.291336059570312,9.196814060211182,1.688875963842917e+18,48.4999169921875,0.7569058984518051,-9.751474380493164,0.5466486116250356,1.688875963838593e+18,48.49559301757813,1.2252429723739624,-2.1375193198521933,3.694563865661621,1.688875963842917e+18,48.4999169921875,1.012458235025406,-1.9304360151290896,3.7011307080586753,,,,,,,,,,,,1.6888759638411205e+18,48.498120166015624,16.723759651184082,42.96107940673828,-11.123959732055663,1.6888759638411205e+18,48.498120166015624,-238.90283813476563,137.81607666015626,-144.25036010742187,1.688875963842924e+18,48.49992395019531,-0.110476616770029,0.0681975446641444,-0.6757166087627411,0.725379079580307,-0.6462379097938538,1.4750707149505615,0.8999080061912537
3.55,1.688875963894822e+18,48.55182194010416,-4.729846318562825,-6.347532908121745,5.015962302684784,1.688875963894822e+18,48.55182194010416,-2.42731910943985,-15.880167007446287,5.701298754662274,1.688875963894822e+18,48.55182194010416,2.2797255516052246,-9.516888936360678,0.6206230918566386,1.688875963890502e+18,48.547501790364585,0.2197078665097554,-2.46585942308108,2.6936102708180747,1.688875963894822e+18,48.55182194010416,0.3635666271050771,-2.8997773031393685,2.6220881938934326,,,,,,,,,,,,1.6888759638911212e+18,48.54812109375,10.123559951782228,44.75691909790039,-9.594079780578614,1.6888759638911212e+18,48.54812109375,-245.50303649902344,139.6119171142578,-142.72047729492186,1.6888759638861765e+18,48.54317626953125,-0.0964896356066067,0.0400917765994866,-0.625675896803538,0.7726132273674011,-0.2749949991703033,1.3475618362426758,0.469663659731547
3.6,1.6888759639467272e+18,48.60372713216146,-3.4604453245798745,4.357227484385172,-4.060750563939412,1.6888759639467272e+18,48.60372713216146,-0.0739781061808268,-4.854837854703267,-3.5431721210479736,1.6888759639467272e+18,48.60372713216146,3.3636656602223716,-9.196320215861002,0.4528651237487793,1.6888759639423987e+18,48.59939851888021,1.6020959218343098,-2.566804885864258,2.6245316664377847,1.6888759639467272e+18,48.60372713216146,1.6040303309758503,-2.259183327356974,2.617201248804728,,,,,,,,,,,,1.6888759639411213e+18,48.598121337890625,6.746599864959717,45.68411865234375,-5.180119800567627,1.6888759639411213e+18,48.598121337890625,-248.87999572753907,140.53911743164062,-138.3065185546875,1.6888759639380746e+18,48.59507486979167,-0.019955510739237,-0.0184535250688592,-0.5810301701227824,0.8129451274871826,-0.1710620199640591,1.2355834245681765,0.173120405524969
3.65,1.6888759639986214e+18,48.65562150065104,-10.14318052927653,10.715370814005531,0.8244394659996033,1.6888759639986214e+18,48.65562150065104,-5.901897112528483,1.8681962887446089,1.4957135518391926,1.6888759639986214e+18,48.65562150065104,4.218482335408528,-8.831429481506348,0.6065606474876404,1.6888759639943045e+18,48.651304361979165,-0.0313577403624852,-2.87697172164917,1.605404754479726,1.6888759639986214e+18,48.65562150065104,-0.1283326049645742,-3.011718432108561,1.4627677202224731,,,,,,,,,,,,1.6888759639911222e+18,48.6481220703125,2.078879952430725,46.359999084472655,-1.866599988937378,1.6888759639911222e+18,48.6481220703125,-253.54771423339844,141.21499938964843,-134.9929962158203,1.688875963989979e+18,48.646978759765624,0.032275321582953,-0.0491607741763194,-0.5348644653956095,0.8425431648890177,-0.1128781264026959,1.1313432455062866,-0.0053306131158023
3.7,1.6888759640505303e+18,48.7075302734375,-6.744995752970378,10.196833292643229,2.0477680365244546,1.6888759640505303e+18,48.7075302734375,-2.3904298345247903,1.4747763474782307,3.4021950562795005,1.6888759640505303e+18,48.7075302734375,4.331764539082845,-8.70631186167399,1.2897135019302368,1.688875964046208e+18,48.7032080078125,0.2850704391797383,-2.3416500886281333,0.3568471198280652,1.6888759640505303e+18,48.7075302734375,0.3542509451508522,-2.156710624694824,0.2789108877380689,,,,,,,,,,,,1.688875964041118e+18,48.69811791992188,0.2903599917888641,46.816279602050784,-1.417639970779419,1.688875964041118e+18,48.69811791992188,-255.33623352050785,141.67127990722656,-134.54403991699218,1.6888759640418803e+18,48.69888028971354,0.0709091573953628,-0.1166621247927347,-0.5143921772638956,0.8464389046033224,-0.2738389372825622,1.092196702957153,-0.0001210240491976
3.75,1.688875964093782e+18,48.75078210449219,-2.141014814376831,7.143399477005005,1.5598948001861572,1.688875964093782e+18,48.75078210449219,1.94327113032341,-1.6887345910072329,3.0364919900894165,1.688875964093782e+18,48.75078210449219,4.061484456062317,-8.816389083862305,1.4118837118148804,1.688875964098109e+18,48.755108886718745,0.6801984310150146,-1.360040585199992,-1.2985467910766602,1.688875964093782e+18,48.75078210449219,0.7013496458530426,-1.321912407875061,-1.2059243619441986,,,,,,,,,,,,1.6888759640911212e+18,48.74812133789062,1.4591199815273286,46.43319931030273,0.4611599802970886,1.6888759640911212e+18,48.74812133789062,-254.16747436523437,141.28819885253907,-132.6652374267578,1.688875964093786e+18,48.7507861328125,0.1003144706288973,-0.1487692445516586,-0.5208866000175476,0.834430972735087,-0.3353284200032551,1.118229627609253,-0.0281321971366802
3.8,1.6888759641370286e+18,48.794028727213544,8.60571058591207,-0.9830616315205886,2.43101171652476,1.6888759641370286e+18,48.794028727213544,11.99980608622233,-10.07498002052307,4.055435538291931,1.6888759641370286e+18,48.794028727213544,3.371293783187866,-9.076173146565756,1.5597102642059326,1.6888759641500116e+18,48.80701139322917,-0.93126405403018,-1.81762953599294,-0.2280054688453674,1.6888759641370286e+18,48.794028727213544,-0.3507893731196721,-1.3974560499191284,-1.241583635409673,,,,,,,,,,,,1.6888759641411215e+18,48.79812163085937,6.292759990692138,45.845158386230466,1.978839945793152,1.6888759641411215e+18,48.79812163085937,-249.3338348388672,140.70015563964844,-131.14755859375,1.6888759641456806e+18,48.80268074544271,0.1154513483246166,-0.1828150202830631,-0.5451318820317587,0.8098522226015726,-0.4654462436834971,1.1815627018610635,0.032095410550634
3.85,1.6888759641889354e+18,48.84593538411459,7.531451225280762,-7.788483301798503,7.228537559509277,1.6888759641889354e+18,48.84593538411459,11.099905331929524,-16.6031977335612,9.777472496032717,1.6888759641889354e+18,48.84593538411459,3.545652707417806,-8.798968950907389,2.4842216968536377,1.6888759641932616e+18,48.850261474609376,-0.195171445608139,-3.824703574180603,1.8627572059631348,1.6888759641889354e+18,48.84593538411459,-0.5420411104957262,-3.4485888481140137,1.92290194829305,,,,,,,,,,,,1.6888759641911186e+18,48.848118505859375,3.1549199342727663,45.532839965820315,1.549400019645691,1.6888759641911186e+18,48.848118505859375,-252.4716766357422,140.38783569335936,-131.57699890136718,1.6888759641975857e+18,48.85458553059896,0.1466179887453714,-0.2528840651114781,-0.5012676020463308,0.8140634298324585,-0.6226993600527445,1.0992108583450315,0.0328488854768996
3.9,1.6888759642408366e+18,48.89783683268229,-12.46105162302653,-10.968238512674969,5.356479088465373,1.6888759642408366e+18,48.89783683268229,-8.455836613972982,-19.512671152750652,8.180462439854939,1.6888759642408366e+18,48.89783683268229,3.982413530349731,-8.528687477111816,2.759269952774048,1.6888759642365176e+18,48.89351782226563,-0.8524624357620875,1.8950058221817017,0.5636249979337057,1.6888759642408366e+18,48.89783683268229,-0.8542950650056201,1.9374609192212424,0.3164281944433847,,,,,,,,,,,,1.6888759642411164e+18,48.89811625976562,-1.8568399965763092,44.742279052734375,2.8133199214935303,1.6888759642411164e+18,48.89811625976562,-257.4834381103516,139.59727478027344,-130.31307983398438,1.688875964249487e+18,48.90648706054687,0.1306512157122293,-0.2452861169974009,-0.4845212002595265,0.8293259143829346,-0.5996023615201315,1.051089644432068,0.0422556617607672
3.95,1.6888759642927378e+18,48.949737630208325,-3.7279906272888184,2.6779890060424805,-7.7007443110148115,1.6888759642927378e+18,48.949737630208325,-0.1276172399520874,-6.146961847941081,-5.2630133628845215,1.6888759642927378e+18,48.949737630208325,3.577571948369344,-8.809205691019693,2.37301766872406,1.6888759642884155e+18,48.94541536458333,1.2597059607505798,0.9351838131745656,-2.0262399911880493,1.6888759642927378e+18,48.949737630208325,1.4350242813428242,1.3489431341489155,-2.263153910636902,,,,,,,,,,,,1.6888759642911227e+18,48.948122802734375,-3.057319927215576,43.61743927001953,4.962959861755371,1.6888759642911227e+18,48.948122802734375,-258.6839172363281,138.47243957519532,-128.16343383789064,1.688875964292743e+18,48.94974279785156,0.1420415863394737,-0.2412846982479095,-0.5089316517114639,0.8138834536075592,-0.5954090058803558,1.11311537027359,0.0312848016619681
4.0,1.6888759643446405e+18,49.00164038085938,-6.897245566050212,-1.3819688161214192,2.187132954597473,1.6888759643446405e+18,49.00164038085938,-4.8891347249348955,-10.912068684895834,3.4295130570729575,1.6888759643446405e+18,49.00164038085938,1.9853094816207888,-9.514354705810549,1.1776666641235352,1.6888759643403162e+18,48.99731616210937,0.4280638297398886,5.831574122111003,-4.775591850280762,1.6888759643446405e+18,49.00164038085938,0.1475748589728027,6.061208566029866,-4.829449812571208,,,,,,,,,,,,1.6888759643411195e+18,48.99811948242187,4.223639917373657,42.4023193359375,7.21019983291626,1.6888759643411195e+18,48.99811948242187,-251.4029541015625,137.25731811523437,-125.91619873046876,1.6888759643359828e+18,48.99298282877604,0.1187575161457061,-0.1732302556435266,-0.5913589000701904,0.7770781318346659,-0.5115556120872498,1.2954320510228474,0.0908011166999737
4.05,1.6888759643965391e+18,49.05353914388021,-6.484752655029297,-1.9179801940917969,1.2500252723693848,1.6888759643965391e+18,49.05353914388021,-6.325426657994588,-11.64207935333252,2.6402803709109626,1.6888759643965391e+18,49.05353914388021,0.1365247865517934,-9.708353996276855,1.3255416949590046,1.6888759643922117e+18,49.049211832682296,-1.11029847462972,4.42505677541097,-3.75111985206604,1.6888759643965391e+18,49.05353914388021,-1.0504336754480998,3.761250068744024,-3.6221764087677,,,,,,,,,,,,1.688875964391114e+18,49.048113867187496,13.463919639587402,40.338078308105466,3.193959879875183,1.688875964391114e+18,49.048113867187496,-242.1626770019531,135.19307556152344,-129.93243560791015,1.6888759643878853e+18,49.04488549804688,0.0039873525189856,-0.0908439606428146,-0.6860598921775818,0.7209227482477824,-1.2598087986310322,1.4289977550506592,1.125203271706899
4.1,1.688875964448442e+18,49.10544205729167,-0.8005504608154297,3.1676762898763022,-3.701458772023519,1.688875964448442e+18,49.10544205729167,-2.196611245473226,-6.456234375635783,-2.316651145617167,1.688875964448442e+18,49.10544205729167,-1.418862283229828,-9.608165423075356,1.3200941880544026,1.6888759644441198e+18,49.10111954752605,0.3742567747831344,-1.464854876200358,-2.698548158009847,1.688875964448442e+18,49.10544205729167,0.4764748948315779,-1.4019866188367207,-2.6316583156585693,,,,,,,,,,,,1.68887596444112e+18,49.098119921875,18.31951904296875,37.92979965209961,1.7787600040435791,1.68887596444112e+18,49.098119921875,-237.3070770263672,132.78479919433593,-131.34763793945314,1.6888759644397908e+18,49.09679085286458,-0.0012129769505312,-0.1043260345856348,-0.7412097255388895,0.6625736355781555,-2.2648562590281167,1.380967338879903,2.1181801160176597
4.15,1.6888759645003456e+18,49.15734545898437,11.754597345987955,2.799280325571696,-1.012667695681254,1.6888759645003456e+18,49.15734545898437,9.363114992777506,-6.647660096486409,0.2416750987370808,1.6888759645003456e+18,49.15734545898437,-2.414283593495687,-9.431195259094238,1.189629316329956,1.6888759644960184e+18,49.15301839192709,0.3895793159802754,3.077182869116465,-2.084730346997579,1.6888759645003456e+18,49.15734545898437,0.3624467154343923,3.5724417765935264,-2.0162625710169473,,,,,,,,,,,,1.6888759644911163e+18,49.1481166015625,21.447599411010746,35.67523880004883,1.361519956588745,1.6888759644911163e+18,49.1481166015625,-234.1789978027344,130.53023986816407,-131.76487426757814,1.6888759644916918e+18,49.14869173177083,0.007794198890527,-0.1019539882739384,-0.7796037991841634,0.6173420548439026,-2.6909738381703696,1.3045007785161336,2.534238815307617
4.2,1.6888759645435973e+18,49.200597290039056,-0.28621506690979,1.0406203269958496,-4.105685234069824,1.6888759645435973e+18,49.200597290039056,-2.859422981739044,-8.304590225219727,-2.474776804447174,1.6888759645435973e+18,49.200597290039056,-2.596009373664856,-9.329465389251707,1.566195011138916,1.6888759645479178e+18,49.20491780598959,0.3421354393164317,4.142633517583211,-0.3275256007909775,1.6888759645435973e+18,49.200597290039056,0.3882812112569809,4.578587770462036,-0.4488332383334636,1.6888759645436145e+18,49.200614501953126,0.0,0.0,1.2658774852752686,5.710000038146973,1.3116943836212158,347.8802185058594,25.86057346063989,-122.7500561,49.1926801,1.6888759645411226e+18,49.198122460937505,20.757079315185543,34.22343978881836,-4.155319952964783,1.6888759645411226e+18,49.198122460937505,-234.86951904296876,129.07843933105468,-137.2817169189453,1.6888759645436014e+18,49.20060139973958,-0.0754130644102891,-0.0309467172871032,-0.7950086196263632,0.6005473335584005,-2.609202782313029,1.2560181220372515,2.6729060808817544
4.25,1.6888759645868485e+18,49.24384806315104,2.382440209388733,0.5590461095174154,-2.4253329038619995,1.6888759645868485e+18,49.24384806315104,-0.1916252175966899,-8.766704241434732,-0.6911269376675288,1.6888759645868485e+18,49.24384806315104,-2.5968669255574546,-9.31000518798828,1.669492483139038,1.6888759645998252e+18,49.25682511393229,-0.2025527382890383,-0.2479603787263234,-1.135751187801361,1.6888759645868485e+18,49.24384806315104,0.0351756562789281,0.4561636174718539,-0.8388197620709738,,,,,,,,,,,,1.6888759645911196e+18,49.248119580078125,17.33863945007324,33.5060791015625,-9.752679824829102,1.6888759645911196e+18,49.248119580078125,-238.28795776367187,128.36107940673827,-142.8790771484375,1.688875964595495e+18,49.25249503580729,-0.1064467603961626,0.0007789125277971,-0.7993041276931763,0.5913305679957072,-2.592743714650472,1.2391539812088013,2.7466537952423096
4.3,1.6888759646387466e+18,49.29574650065104,2.432736953099569,-2.1097052892049155,-4.8972422281901045,1.6888759646387466e+18,49.29574650065104,-0.4879364271958668,-11.299506505330404,-2.988635460535685,1.6888759646387466e+18,49.29574650065104,-2.943474849065145,-9.17405605316162,1.84389324982961,1.68887596464307e+18,49.300070068359375,-0.6495788395404816,0.480521872639656,-0.0097738429903983,1.6888759646387466e+18,49.29574650065104,-0.6437501609325409,0.2119702448447545,-0.1756237670779228,,,,,,,,,,,,1.6888759646411195e+18,49.29811958007812,15.830719375610352,31.88347930908203,-14.38379955291748,1.6888759646411195e+18,49.29811958007812,-239.7958770751953,126.7384750366211,-147.51019592285155,1.6888759646474004e+18,49.30440055338541,-0.1221402014295259,0.0053298542431244,-0.8075869679450989,0.5768471956253052,-2.58117945988973,1.2029637893040974,2.764810482660929
4.35,1.688875964690648e+18,49.347648030598954,4.877968708674113,-6.036007881164551,-3.724556843439738,1.688875964690648e+18,49.347648030598954,2.1294127106666565,-15.297913233439129,-1.9206389983495076,1.688875964690648e+18,49.347648030598954,-2.771357456843058,-9.246160189310707,1.739204367001851,1.6888759646863278e+18,49.343327718098955,0.4764748800856371,-0.554563840230306,0.7237734993298849,1.688875964690648e+18,49.347648030598954,0.590197632710139,-0.4281656344731648,0.9370672951141992,,,,,,,,,,,,1.688875964691116e+18,49.34811611328125,13.944599723815918,30.668359375,-19.4101993560791,1.688875964691116e+18,49.34811611328125,-241.68199768066407,125.52335815429689,-152.5365997314453,1.688875964699302e+18,49.35630200195313,-0.1314023385445276,0.0339143859843412,-0.7979250351587931,0.5869684020678202,-2.5900939305623374,1.240589618682861,2.827653249104818
4.4,1.6888759647425536e+18,49.399553466796874,-3.8507735331853232,-6.677243232727051,1.9066967964172363,1.6888759647425536e+18,49.399553466796874,-5.249454180399577,-16.30967903137207,3.187040328979492,1.6888759647425536e+18,49.399553466796874,-1.4214821457862854,-9.616690635681152,1.215630054473877,1.688875964738227e+18,49.39522696940104,1.5145386060078938,1.4354315201441448,3.237738529841105,1.6888759647425536e+18,49.399553466796874,1.5357661644617715,1.256448010603587,3.2590678532918296,,,,,,,,,,,,1.6888759647411205e+18,49.3981203125,7.949519920349121,32.37147979736328,-23.65335922241211,1.6888759647411205e+18,49.3981203125,-247.6770751953125,127.22647857666016,-156.77975158691407,1.6888759647425467e+18,49.399546630859376,-0.1589089259505271,0.089769784361124,-0.7526697516441345,0.6322719156742096,-2.436977505683899,1.373979568481445,2.7922699451446533
4.45,1.688875964794454e+18,49.4514541015625,-2.867854118347168,-7.419017473856608,5.014731407165527,1.688875964794454e+18,49.4514541015625,-2.699901615579923,-17.216159502665203,5.640481154123942,1.688875964794454e+18,49.4514541015625,0.1451510936021804,-9.781396865844728,0.5610362688700358,1.6888759647901286e+18,49.44712858072917,1.1492920517921448,-2.5410976012547812,3.329368352890014,1.688875964794454e+18,49.4514541015625,1.001462678114573,-2.601522366205851,3.3930509885152182,,,,,,,,,,,,1.6888759647911194e+18,49.44811958007813,5.026399993896485,35.24580001831055,-25.54679946899414,1.6888759647911194e+18,49.44811958007813,-250.6001953125,130.10079956054688,-158.673193359375,1.6888759647858012e+18,49.44280126953125,-0.1413997511068979,0.0984150891502697,-0.7065128286679586,0.6859196424484253,-1.6732537746429443,1.4919243256251018,2.0143711964289346
4.5,1.6888759648463542e+18,49.50335416666667,-5.763982792695363,-9.44340674082438,7.252400358517964,1.6888759648463542e+18,49.50335416666667,-4.004787544409434,-19.080965995788578,8.047062476476034,1.6888759648463542e+18,49.50335416666667,1.736393690109253,-9.621814092000326,0.7299486001332601,1.6888759648420332e+18,49.49903304036459,-0.2977968056996663,-2.528371254603068,2.9516499837239585,1.6888759648463542e+18,49.50335416666667,-0.2105448941389719,-2.9244155883789062,2.8266261418660483,,,,,,,,,,,,1.6888759648411187e+18,49.49811865234375,4.860479927062988,36.829359436035155,-26.910759353637697,1.6888759648411187e+18,49.49811865234375,-250.76611328125,131.68435363769532,-160.037158203125,1.6888759648377075e+18,49.494707519531254,-0.1324233661095301,0.070232710490624,-0.6471510529518127,0.7471411029497782,-0.4213287631670634,1.403931975364685,0.7099814414978027
4.55,1.6888759648982577e+18,49.555257486979166,-1.283497412999471,1.033016522725423,-2.825840632120768,1.6888759648982577e+18,49.555257486979166,1.6789639443159103,-8.292924801508585,-1.9032910267512004,1.6888759648982577e+18,49.555257486979166,2.939659913380941,-9.310196240743002,0.8578360875447592,1.6888759648939284e+18,49.55092830403646,0.9523898164431254,-3.284622391064962,3.119994242986043,1.6888759648982577e+18,49.555257486979166,0.9781988660494486,-2.861801862716675,3.1783318519592285,,,,,,,,,,,,1.688875964891114e+18,49.54811401367188,8.500959777832032,38.752079772949216,-23.45571975708008,1.688875964891114e+18,49.54811401367188,-247.125634765625,133.6070770263672,-156.58211364746094,1.6888759648896074e+18,49.54660774739583,-0.0779346028963724,0.0038965977728367,-0.6024033625920614,0.7938038309415182,-0.3208711147308349,1.2786467870076497,0.4378485679626465
4.6,1.6888759649501604e+18,49.607160400390626,-9.15707508722941,11.873530387878418,-0.3407997488975525,1.6888759649501604e+18,49.607160400390626,-5.103890736897786,2.9645078976949057,0.6352943976720175,1.6888759649501604e+18,49.607160400390626,4.030383110046387,-8.893277486165365,0.911380668481191,1.6888759649458296e+18,49.60282958984374,0.345800628264745,-2.4932974179585776,2.1426607370376587,1.6888759649501604e+18,49.607160400390626,0.2258165180683136,-2.643722971280416,2.005979617436727,,,,,,,,,,,,1.6888759649411218e+18,49.5981216796875,6.509919929504394,42.6560791015625,-17.780279922485352,1.6888759649411218e+18,49.5981216796875,-249.11667175292968,137.51107482910157,-150.90667724609375,1.6888759649415104e+18,49.59851041666667,-0.0409174772600332,-0.0233064995457728,-0.5478366613388062,0.835028608640035,-0.2075056433677673,1.151490290959676,0.2328928758700688
4.65,1.688875964993414e+18,49.65041418457031,-8.507422924041748,10.804089069366457,-0.1196643710136413,1.688875964993414e+18,49.65041418457031,-4.176671981811523,2.11405873298645,1.501197099685669,1.688875964993414e+18,49.65041418457031,4.3079493045806885,-8.674285411834717,1.5561479926109314,1.688875964997735e+18,49.654734700520834,0.0060068443417549,-2.961016575495402,0.7184793452421824,1.688875964993414e+18,49.65041418457031,-0.0131336078047752,-3.0818915367126465,0.8278751373291016,,,,,,,,,,,,1.6888759649911214e+18,49.64812138671875,6.29031982421875,44.61295928955078,-14.486279678344726,1.6888759649911214e+18,49.64812138671875,-249.3362762451172,139.46795959472655,-147.61267700195313,1.688875964993416e+18,49.650415771484376,-0.0105055392098923,-0.0860428263743717,-0.522035817305247,0.8482644359270731,-0.3425105114777882,1.0848064025243125,0.23233096798261
4.7,1.688875965036657e+18,49.69365690104166,-4.268778244654338,8.572120666503906,0.9917922019958496,1.688875965036657e+18,49.69365690104166,-0.1078764299551646,-0.1210369244217872,3.0039894183476767,1.688875965036657e+18,49.69365690104166,4.138100306193034,-8.677412033081055,1.947483738263448,1.6888759650496338e+18,49.70663370768229,0.5716171463330587,-1.7880534728368125,-0.991536115606626,1.688875965036657e+18,49.69365690104166,0.3922772953907649,-1.908444841702779,-0.4180354376633962,1.6888759650626058e+18,49.719605712890626,0.0,0.0,1.2745442390441897,5.958000183105469,1.2493497133255005,349.7279357910156,25.735562272002177,-122.7500555,49.1926916,1.688875965041113e+18,49.69811328125,7.3199999809265135,46.223358917236325,-12.214639663696287,1.688875965041113e+18,49.69811328125,-248.3065948486328,141.07835998535157,-145.34103698730468,1.688875965045305e+18,49.70230485026042,0.0159773711736003,-0.1305556595325469,-0.5251839359601339,0.8406661152839661,-0.4557403127352397,1.0914706786473591,0.2420263091723124
4.75,1.6888759650885622e+18,49.74556225585937,6.629770596822103,2.80941390991211,1.0227079391479492,1.6888759650885622e+18,49.74556225585937,9.900702317555746,-6.225725809733073,3.1475587685902915,1.6888759650885622e+18,49.74556225585937,3.2481298446655273,-9.019394556681316,2.0601373513539634,1.6888759650928896e+18,49.7498896484375,0.4005748964846134,-1.5419002771377563,-2.106645107269287,1.6888759650885622e+18,49.74556225585937,0.4283183564742406,-1.4895440141359966,-1.8576411604881289,,,,,,,,,,,,1.6888759650911176e+18,49.74811772460937,12.25611991882324,47.443359375,-9.29152011871338,1.6888759650911176e+18,49.74811772460937,-243.37047424316407,142.29835815429686,-142.417919921875,1.688875965097215e+18,49.75421508789063,0.0364119944473107,-0.1562117934226989,-0.5610717336336771,0.812006672223409,-0.5857677857081095,1.1747722625732422,0.3070288995901744
4.8,1.688875965140467e+18,49.79746712239584,7.967471599578857,-13.23660945892334,10.182774861653646,1.688875965140467e+18,49.79746712239584,11.522637367248535,-21.96172491709391,13.023136456807457,1.688875965140467e+18,49.79746712239584,3.532364288965861,-8.709369977315268,2.7756479581197104,1.6888759651361436e+18,49.793143636067704,-1.2116003036499023,-2.84968638420105,2.691981395085653,1.688875965140467e+18,49.79746712239584,-1.185740331808726,-3.160769542058309,2.84856645266215,,,,,,,,,,,,1.6888759651411215e+18,49.798121484375,11.02879981994629,48.91223831176758,-9.052400016784668,1.6888759651411215e+18,49.798121484375,-244.59779663085936,143.767236328125,-142.17879638671874,1.688875965149117e+18,49.806116699218755,0.0523597660164038,-0.2146289944648742,-0.5168126324812571,0.8263753255208334,-0.6790840824445089,1.0712393124898274,0.2863669047753016
4.85,1.6888759651923633e+18,49.849363444010415,-8.79205322265625,-5.0823923746744795,3.0472808678944907,1.6888759651923633e+18,49.849363444010415,-4.722435156504314,-13.378470738728842,6.470591147740682,1.6888759651923633e+18,49.849363444010415,4.046815872192383,-8.280333201090494,3.3585968017578125,1.6888759651880435e+18,49.84504361979166,-0.602618565162023,0.9427687327067056,0.6022113462289175,1.6888759651923633e+18,49.849363444010415,-0.5941682557264963,1.2862277030944824,0.2748384326696396,,,,,,,,,,,,1.6888759651911137e+18,49.848113671875,5.123999881744385,49.74427947998047,-8.840119743347168,1.6888759651911137e+18,49.848113671875,-250.50259399414065,144.59927368164062,-141.96651611328124,1.688875965192363e+18,49.849362915039066,0.0571662411093711,-0.2374931424856185,-0.4863535463809967,0.8387548923492432,-0.6917742192745209,1.003385603427887,0.2541682422161102
4.9,1.6888759652442665e+18,49.9012666015625,-6.233997344970703,-2.106738726298014,-5.65970253944397,1.6888759652442665e+18,49.9012666015625,-2.3900309403737388,-10.719646135965982,-2.846461991469065,1.6888759652442665e+18,49.9012666015625,3.8211653232574463,-8.597162246704102,2.74852720896403,1.688875965239941e+18,49.89694108072917,0.9216938614845276,2.16378649075826,-1.8874717950820925,1.6888759652442665e+18,49.9012666015625,1.0355184078216553,2.332487146059672,-2.1644482612609863,,,,,,,,,,,,1.688875965241123e+18,49.898122949218745,4.675039958953858,49.490518951416014,-7.849479961395264,1.688875965241123e+18,49.898122949218745,-250.95155639648436,144.34551696777345,-140.97587890625,1.688875965235615e+18,49.89261499023437,0.0322117762019236,-0.1967712094386418,-0.5096158186594645,0.8366972804069519,-0.6339236696561178,1.0469150543212893,0.2968586981296539
4.95,1.6888759652961718e+18,49.95317171223959,-5.264030575752258,-1.0647656122843423,0.8797201712926229,1.6888759652961718e+18,49.95317171223959,-3.064607540766398,-10.469595909118652,2.6572295824686685,1.6888759652961718e+18,49.95317171223959,2.176621596018473,-9.389085133870443,1.7127959330876668,1.688875965291848e+18,49.948847900390625,0.7364998670915762,4.051767349243164,-5.003495375315349,1.6888759652961718e+18,49.95317171223959,0.5848525613546371,4.2948408126831055,-4.993365287780762,,,,,,,,,,,,1.6888759652911132e+18,49.94811333007813,12.13411979675293,48.68775863647461,-6.078039932250976,1.6888759652911132e+18,49.94811333007813,-243.4924743652344,143.54275512695312,-139.20443725585938,1.6888759652875213e+18,49.94452132161458,-0.0040315747028216,-0.1143384898702303,-0.5958852767944336,0.7935147881507874,-0.6359801689783732,1.2422493696212769,0.4771986107031504
5.0,1.6888759653480666e+18,50.00506681315104,-4.508563121159871,-2.914443333943685,-0.6941080888112386,1.6888759653480666e+18,50.00506681315104,-3.926023840904236,-12.585050582885742,0.9657033383846284,1.6888759653480666e+18,50.00506681315104,0.559737853705883,-9.65486208597819,1.5950979789098103,1.6888759653437412e+18,50.0007411295573,-0.7084000507990519,4.509661753972371,-3.514765898386637,1.6888759653480666e+18,50.00506681315104,-0.644717365503311,4.019493341445923,-3.437593301137289,,,,,,,,,,,,1.6888759653411126e+18,49.998112548828125,21.62327995300293,44.79595947265625,-10.313879585266111,1.6888759653411126e+18,49.998112548828125,-234.0033172607422,139.6509582519531,-143.44027709960938,1.6888759653394102e+18,49.996409993489586,-0.0974309469262758,-0.0184217123314738,-0.6737590829531351,0.7306080460548401,-1.0792261958122251,1.3819826046625774,1.1915504336357117
5.05,1.6888759653999665e+18,50.05696638997396,-2.357682466506958,3.555741786956787,-3.119597832361857,1.6888759653999665e+18,50.05696638997396,-3.2348968336979547,-6.109075705210368,-1.571885108947754,1.6888759653999665e+18,50.05696638997396,-0.9000157614549001,-9.649072329203287,1.4829992453257244,1.6888759653956442e+18,50.052644205729166,0.3594432870546977,-0.5108869820833206,-2.5617143313090005,1.6888759653999665e+18,50.05696638997396,0.3807726701100667,-0.6316346575816473,-2.4452426036198935,,,,,,,,,,,,1.6888759653911132e+18,50.04811328125,28.028279113769532,40.972479248046874,-12.463519859313966,1.6888759653911132e+18,50.04811328125,-227.59831848144532,135.82747497558594,-145.58991394042968,1.6888759653913178e+18,50.04831754557292,-0.127891053756078,0.0230641067028045,-0.7286268671353658,0.6721934278806051,-1.9483644167582197,1.398136814435323,2.1630579630533853
5.1,1.6888759654432236e+18,50.10022338867188,10.137267589569092,5.057831048965454,2.0018356442451477,1.6888759654432236e+18,50.10022338867188,8.371888399124146,-4.523930311203003,3.2904303073883057,1.6888759654432236e+18,50.10022338867188,-1.7881808280944824,-9.56601619720459,1.223881185054779,1.6888759654475476e+18,50.104547444661456,0.5947791238625845,0.8717555701732635,-2.104990760485331,1.6888759654432236e+18,50.10022338867188,0.7251733839511871,0.1715004146099091,-2.1801780462265015,,,,,,,,,,,,1.6888759654411156e+18,50.09811572265625,32.91559982299805,38.12255935668945,-10.618879699707032,1.6888759654411156e+18,50.09811572265625,-222.71099853515625,132.97755432128906,-143.74527587890626,1.6888759654432182e+18,50.100217936197915,-0.1088174134492873,0.0320815046628316,-0.7662104964256287,0.6322709719340006,-2.511791547139486,1.350783745447795,2.7126311461130777
5.15,1.6888759654864704e+18,50.14347054036458,5.583688418070476,3.167325973510742,-0.3290595213572184,1.6888759654864704e+18,50.14347054036458,3.40079935391744,-6.29691219329834,1.1740783055623372,1.6888759654864704e+18,50.14347054036458,-2.205690622329712,-9.448493003845211,1.438424388567607,1.6888759654994496e+18,50.15644962565104,-0.1944587727387745,4.090710004170735,-0.472504270573457,1.6888759654864704e+18,50.14347054036458,-0.0643444756666819,4.154494444529216,-0.9723956386248268,,,,,,,,,,,,1.6888759654911135e+18,50.148113378906245,34.00871887207031,36.2364387512207,-14.26911964416504,1.6888759654911135e+18,50.148113378906245,-221.6178741455078,131.09143676757813,-147.39551696777343,1.6888759654951212e+18,50.15212141927083,-0.1693236778179804,0.089658111333847,-0.7761420408884684,0.5999936858812968,-2.531365076700846,1.2964316606521606,2.903425852457682
5.2,1.6888759655383685e+18,50.195368245442715,-1.1051675875981648,-0.5841999053955078,-4.269509474436442,1.6888759655383685e+18,50.195368245442715,-3.248854955037435,-9.978668530782064,-2.317049980163574,1.6888759655383685e+18,50.195368245442715,-2.1664888064066568,-9.37872346242269,1.8877460956573489,1.6888759655427e+18,50.1997001953125,-0.4931973367929458,1.0254136472940445,-0.8274169713258742,1.6888759655383685e+18,50.195368245442715,-0.4294891655445099,1.394910807410876,-0.688139698545759,1.688875965566073e+18,50.223072998046874,0.0,0.0,1.2745442390441897,6.142000198364258,1.2350744009017944,350.1455078125,25.735562272002177,-122.7500557,49.1926962,1.6888759655411144e+18,50.198114404296874,31.449159622192383,35.80943908691406,-18.72211952209473,1.6888759655411144e+18,50.198114404296874,-224.1774353027344,130.66443481445313,-151.84851684570313,1.6888759655470226e+18,50.20402270507813,-0.21902463833491,0.1229594921072323,-0.7733010053634644,0.582075834274292,-2.4276331265767417,1.2668922742207844,2.9219520886739097
5.25,1.6888759655902733e+18,50.24727335611979,3.3209495544433594,-2.7896095911661782,-6.144514083862305,1.6888759655902733e+18,50.24727335611979,0.6003990769386292,-12.00698471069336,-4.072185357411702,1.6888759655902733e+18,50.24727335611979,-2.743352015813192,-9.201629956563314,2.007615248362223,1.6888759655859497e+18,50.24294970703125,-0.4371758997440337,-0.8560767273108164,-0.967966894308726,1.6888759655902733e+18,50.24727335611979,-0.3999131023883819,-0.8209519882996877,-0.8015060999120277,,,,,,,,,,,,1.6888759655911153e+18,50.24811547851563,34.43327941894531,33.65979843139648,-19.17351951599121,1.6888759655911153e+18,50.24811547851563,-221.1933135986328,128.51479797363282,-152.29991760253907,1.6888759655989256e+18,50.255925374348955,-0.2077256490786869,0.1120977476239203,-0.7931711475054423,0.5613743464152018,-2.518409570058187,1.2142980098724363,2.9821361700693765
5.3,1.6888759656421778e+18,50.299177897135415,4.157170136769612,-7.394311904907227,-4.767336527506511,1.6888759656421778e+18,50.299177897135415,1.577268910904725,-16.69891134897868,-2.939781983693441,1.6888759656421778e+18,50.299177897135415,-2.602702776590983,-9.288854281107584,1.7628411451975503,1.688875965637849e+18,50.294848876953125,0.6991861909627914,-0.35923965771993,1.0264063080151875,1.6888759656421778e+18,50.299177897135415,0.8159123261769613,-0.2628756860891978,1.2686143964529035,,,,,,,,,,,,1.688875965641113e+18,50.29811293945313,34.7163200378418,34.25027923583984,-17.13367977142334,1.688875965641113e+18,50.29811293945313,-220.9102783203125,129.10527648925782,-150.26007995605468,1.6888759656421765e+18,50.29917639160156,-0.1938571259379386,0.1102380603551864,-0.7895741760730743,0.5716450214385986,-2.5554699897766113,1.239161491394043,2.9950523376464844
5.35,1.688875965694074e+18,50.351074137369785,-2.1555920044581094,-5.008280436197917,3.442231019337972,1.688875965694074e+18,50.351074137369785,-3.33300256729126,-14.678969701131184,4.663212537765503,1.688875965694074e+18,50.351074137369785,-1.2002119819323225,-9.6549441019694,1.1562679409980774,1.6888759656897523e+18,50.34675227864583,1.4273375670115154,0.9587020774682364,3.229033629099528,1.688875965694074e+18,50.351074137369785,1.3702725966771443,0.8213592171669006,3.268383582433065,,,,,,,,,,,,1.688875965691114e+18,50.34811381835938,29.24339904785156,39.613399505615234,-15.225599479675292,1.688875965691114e+18,50.34811381835938,-226.38319396972656,134.46839904785156,-148.35199890136718,1.6888759656854277e+18,50.34242740885417,-0.1951308598121006,0.1314759974678357,-0.747257649898529,0.620903750260671,-2.421143452326457,1.369697372118632,2.889767646789551
5.4,1.6888759657459863e+18,50.40298616536458,-2.422509034474691,-8.795352935791016,7.375604788462321,1.6888759657459863e+18,50.40298616536458,-1.8941185077031453,-18.56710720062256,8.173283894856771,1.6888759657459863e+18,50.40298616536458,0.5055890853206317,-9.756009101867678,0.7329656680425009,1.6888759657416635e+18,50.398663492838544,0.7735081116358439,-1.6457728147506714,3.6772051652272544,1.6888759657459863e+18,50.40298616536458,0.6981680691242218,-1.6063719590504963,3.728976011276245,,,,,,,,,,,,1.6888759657411208e+18,50.39812080078125,21.552519607543942,44.576358795166016,-12.541599464416503,1.6888759657411208e+18,50.39812080078125,-234.07407836914064,139.43135986328124,-145.66799621582032,1.6888759657373338e+18,50.39433374023437,-0.1822282224893569,0.124696301917235,-0.688367227713267,0.6903255780537924,-1.3293555974960327,1.4751142660776777,1.767450213432312
5.45,1.688875965797888e+18,50.45488793945312,-4.515307108561198,-7.555367787679036,4.873903314272563,1.688875965797888e+18,50.45488793945312,-2.3894328574339547,-17.10210132598877,5.877769390741984,1.688875965797888e+18,50.45488793945312,2.103072921435038,-9.530988375345864,0.9391525387763976,1.688875965793564e+18,50.45056412760417,-0.3374012311299642,-2.165008266766866,2.8415414889653525,1.688875965797888e+18,50.45488793945312,-0.2735149264335632,-2.509739875793457,2.646980961163839,,,,,,,,,,,,1.6888759657911163e+18,50.448116357421874,13.415119934082032,48.12167892456055,-10.34071979522705,1.6888759657911163e+18,50.448116357421874,-242.211474609375,142.97667846679687,-143.4671203613281,1.6888759657892324e+18,50.44623258463542,-0.1657113780577977,0.0802877247333526,-0.6287117799123129,0.7551206151644388,-0.4226574798425038,1.354515790939331,0.7744546333948771
5.5,1.6888759658497905e+18,50.50679036458333,-2.0401501655578613,0.491180419921875,-2.6935474077860513,1.6888759658497905e+18,50.50679036458333,1.036092201868693,-8.78006362915039,-1.5716856718063354,1.6888759658497905e+18,50.50679036458333,3.053440968195597,-9.255498886108398,1.057148297627767,1.6888759658454705e+18,50.502470540364584,0.9984083374341328,-2.941774288813273,2.60600209236145,1.6888759658497905e+18,50.50679036458333,1.021468500296275,-2.632981856664022,2.695188363393148,,,,,,,,,,,,1.6888759658411195e+18,50.49811943359375,8.832799911499023,49.16111831665039,-7.900719738006591,1.6888759658411195e+18,50.49811943359375,-246.7937957763672,144.01611938476563,-141.02711486816406,1.6888759658411397e+18,50.49813940429687,-0.106411596139272,0.01076986369056,-0.5938047568003336,0.7969533205032349,-0.3624816238880157,1.251097043355306,0.5304968456427256
5.55,1.6888759658930406e+18,50.550040527343754,-9.593615531921388,11.571937084197998,-1.8463698029518127,1.6888759658930406e+18,50.550040527343754,-5.574678659439087,2.6611177921295166,-0.7295117974281311,1.6888759658930406e+18,50.550040527343754,3.996135234832764,-8.895073890686035,1.0521445274353023,1.6888759658973683e+18,50.55436808268229,0.2301943823695182,-2.549293359120687,2.3672555685043335,1.6888759658930406e+18,50.550040527343754,0.2958878437057137,-2.488970398902893,2.520048141479492,,,,,,,,,,,,1.6888759658911186e+18,50.54811879882813,2.0886399507522584,50.237159729003906,-4.848279857635498,1.6888759658911186e+18,50.54811879882813,-253.53795471191407,145.0921600341797,-137.97467651367188,1.6888759658930455e+18,50.550045572916666,-0.0576944810648759,-0.0281603898232181,-0.5424666603406271,0.8372408548990885,-0.2624625811974207,1.1330467859903972,0.3051283061504364
5.6,1.6888759659362926e+18,50.593292561848955,-8.863195737202963,12.347858428955078,-1.2088783979415894,1.6888759659362926e+18,50.593292561848955,-4.3986062208811445,3.753341674804687,0.5435695399840673,1.6888759659362926e+18,50.593292561848955,4.441788037618001,-8.578771591186523,1.6877344846725464,1.6888759659492692e+18,50.60626944986979,-0.0015271628896394,-2.961576541264852,0.9390016992886862,1.6888759659362926e+18,50.593292561848955,-0.145385925968488,-3.1560353438059487,1.3440053860346477,,,,,,,,,,,,1.6888759659411238e+18,50.59812397460938,-2.256999969482422,50.39087905883789,-4.640879917144775,1.6888759659411238e+18,50.59812397460938,-257.88359985351565,145.24587707519532,-137.76727905273438,1.6888759659449428e+18,50.60194303385416,-0.0162962100779016,-0.0992102374633152,-0.5097343325614929,0.8541284203529358,-0.3839864432811737,1.0511874357859294,0.2624751230080922
5.65,1.688875965988189e+18,50.645189046223955,-3.3245569864908853,7.840104897816976,0.221162478129069,1.688875965988189e+18,50.645189046223955,0.997208853562673,-0.7339983582496643,2.403390963872274,1.688875965988189e+18,50.645189046223955,4.298964341481526,-8.558357874552408,2.1175150076548257,1.6888759659925197e+18,50.64951977539062,0.9636399447917938,-1.198746681213379,-0.8360454440116882,1.688875965988189e+18,50.645189046223955,0.8390233914057413,-1.404175579547882,-0.6458881845076879,,,,,,,,,,,,1.6888759659911214e+18,50.64812133789063,-2.525399923324585,50.55435943603515,-4.025999879837036,1.6888759659911214e+18,50.64812133789063,-258.15199584960936,145.40935363769532,-137.152392578125,1.6888759659968448e+18,50.65384456380209,0.0192062721277276,-0.1385851055383682,-0.5143949588139852,0.8459612925847372,-0.4608932038148244,1.0670815706253052,0.2299785415331522
5.7,1.6888759660400955e+18,50.6970957845052,5.917042255401611,1.2934034665425618,1.682520031929016,1.6888759660400955e+18,50.6970957845052,9.385647455851236,-7.730213006337483,3.510669549306234,1.6888759660400955e+18,50.6970957845052,3.445803642272949,-9.007871309916178,1.7634360790252686,1.6888759660357696e+18,50.692769694010416,1.0959431727727251,-0.2316197355588277,-2.249154885609945,1.6888759660400955e+18,50.6970957845052,0.9850202004114784,-0.1714495122432708,-2.188628315925598,,,,,,,,,,,,1.6888759660411218e+18,50.69812172851563,2.796239882707596,50.6007194519043,-1.6103999972343446,1.6888759660411218e+18,50.69812172851563,-252.83035888671876,145.45571594238282,-134.7367950439453,1.6888759660487496e+18,50.70574951171875,0.0410465536018212,-0.1357031563917795,-0.5579750537872314,0.8175487518310547,-0.4781489173571269,1.177466591199239,0.2225554088751475
5.75,1.688875966091998e+18,50.74899780273437,7.3566469351450605,-11.026196479797363,7.583726723988851,1.688875966091998e+18,50.74899780273437,10.796017011006674,-19.957536697387695,9.85763168334961,1.688875966091998e+18,50.74899780273437,3.4165685971577964,-8.915595054626465,2.20919140179952,1.6888759660876703e+18,50.74467041015625,-0.8003353079160055,-3.3458106915156045,2.037133733431498,1.688875966091998e+18,50.74899780273437,-0.8251771330833435,-3.650683482487997,2.34312637646993,1.6888759661006484e+18,50.7576484375,0.0,0.0,1.2863426208496094,6.28000020980835,1.439702033996582,353.22821044921875,25.735562272002177,-122.7500524,49.1927083,1.6888759660911173e+18,50.748117333984375,3.1061199963092805,50.84715881347656,-1.9910399675369264,1.6888759660911173e+18,50.748117333984375,-252.52047729492188,145.70215759277343,-135.11743774414063,1.688875966100645e+18,50.7576454264323,0.0710336975753306,-0.193777913848559,-0.5287844936052958,0.8224587043126425,-0.5895717541376749,1.1166702508926392,0.2022321124871571
5.8,1.6888759661438948e+18,50.80089493815104,-6.242194811503093,-6.143606503804524,6.8737335205078125,1.6888759661438948e+18,50.80089493815104,-2.2309081554412855,-14.65284792582194,9.79661480585734,1.6888759661438948e+18,50.80089493815104,3.9884846210479736,-8.493496259053549,2.858167807261149,1.6888759661395753e+18,50.796575276692714,-0.9383399486541748,1.2795589764912922,0.6451754967371622,1.6888759661438948e+18,50.80089493815104,-0.9097819725672404,1.7299195130666096,0.4344269931316375,,,,,,,,,,,,1.6888759661411264e+18,50.79812646484375,-2.3302000045776365,50.747119140625,-4.121159982681275,1.6888759661411264e+18,50.79812646484375,-257.956787109375,145.60211791992188,-137.24755859375,1.6888759661438996e+18,50.80089965820312,0.0704760402441024,-0.2192478403449058,-0.4993304014205932,0.8350328803062439,-0.6309464573860168,1.045489251613617,0.2033589854836463
5.85,1.6888759661957988e+18,50.852798583984374,-5.782691478729248,-0.5245838165283204,-6.164945284525554,1.6888759661957988e+18,50.852798583984374,-1.9607187708218892,-9.253444035847982,-3.7086757024129233,1.6888759661957988e+18,50.852798583984374,3.7991714477539062,-8.713115056355795,2.3915560245513916,1.6888759661914775e+18,50.84847745768229,0.8685994644959768,1.2245303392410278,-1.7453947365283966,1.6888759661957988e+18,50.852798583984374,1.0227920711040497,1.3430890838305156,-2.078570783138275,,,,,,,,,,,,1.6888759661911163e+18,50.84811650390625,-1.9129599511623383,50.31523895263672,-3.7039198875427246,1.6888759661911163e+18,50.84811650390625,-257.53955078125,145.1702392578125,-136.83031616210937,1.688875966187151e+18,50.84415112304688,0.0452685604492822,-0.1819238662719726,-0.5143803954124451,0.8366514643033346,-0.567503015200297,1.0704898436864216,0.2342476099729537
5.9,1.6888759662476997e+18,50.90469938151042,-6.497626940409343,-0.5753094355265299,0.4208548069000243,1.6888759662476997e+18,50.90469938151042,-4.421138683954875,-10.063214937845864,1.8211373935143151,1.6888759662476997e+18,50.90469938151042,2.053686817487081,-9.472160339355469,1.3355691035588582,1.6888759662433792e+18,50.90037915039062,0.5938628514607748,5.2774176597595215,-5.25379753112793,1.6888759662476997e+18,50.90469938151042,0.3813326358795166,5.519982020060222,-5.355201085408528,,,,,,,,,,,,1.6888759662411195e+18,50.8981197265625,7.136999940872192,49.91263961791992,-1.76899995803833,1.6888759662411195e+18,50.8981197265625,-248.4895965576172,144.76763916015625,-134.89539794921876,1.6888759662390523e+18,50.89605240885417,0.0103127177183827,-0.1013415170212586,-0.6009647448857626,0.790827751159668,-0.5461589097976685,1.270837903022766,0.3856133023897807
5.95,1.6888759662996047e+18,50.95660457356771,-4.210708061854045,-3.3028036753336587,-1.1327406565348308,1.6888759662996047e+18,50.95660457356771,-3.936193267504374,-12.987643241882324,0.522632377843062,1.6888759662996047e+18,50.95660457356771,0.2517133404811223,-9.6690944035848,1.590659538904826,1.6888759662952806e+18,50.95228059895834,-1.7660622994105022,4.440990447998047,-3.233818769454956,1.6888759662996047e+18,50.95660457356771,-1.7591391404469807,3.901494562625885,-2.967430671056112,,,,,,,,,,,,1.688875966291116e+18,50.94811616210937,18.426879692077637,46.79431915283203,-6.692919826507568,1.688875966291116e+18,50.94811616210937,-237.19971313476563,141.64931945800782,-139.8193145751953,1.6888759662909545e+18,50.94795450846354,-0.1059110388159751,-0.0012319938590128,-0.6879553000132242,0.7167676687240601,-1.216732402642568,1.407279411951701,1.3655163248380024
6.0,1.688875966342855e+18,50.99985461425781,-1.6889012455940249,0.6927769184112548,-3.2134902477264404,1.688875966342855e+18,50.99985461425781,-2.324328064918518,-8.924331426620483,-1.2583255767822266,1.688875966342855e+18,50.99985461425781,-0.6582282483577728,-9.601363182067873,1.8904511332511904,1.6888759663471788e+18,51.004178629557295,0.2121738692124684,-1.3968451817830403,-2.02288023630778,1.688875966342855e+18,50.99985461425781,0.1710422784090042,-1.4752395749092102,-1.969811379909515,,,,,,,,,,,,1.6888759663411195e+18,50.99811982421875,23.1799991607666,43.878518676757814,-10.643279838562012,1.6888759663411195e+18,50.99811982421875,-232.44659423828125,138.7335174560547,-143.769677734375,1.688875966342855e+18,50.999854410807295,-0.1368733495473861,0.0065738043437401,-0.7281534870465597,0.6713183124860128,-1.877493381500244,1.3669716517130537,2.081778407096863
6.05,1.6888759663861084e+18,51.04310831705729,4.7887686888376875,3.984435399373373,-1.072568456331889,1.6888759663861084e+18,51.04310831705729,3.095315416653951,-5.551946640014648,0.5744767983754474,1.6888759663861084e+18,51.04310831705729,-1.7162546714146931,-9.520636876424154,1.5823318163553874,1.6888759663990804e+18,51.056080647786466,0.5947791139284769,0.5933028856913248,-2.8342111110687256,1.6888759663861084e+18,51.04310831705729,0.6434447169303894,-0.3113885720570882,-2.7195211251576743,,,,,,,,,,,,1.6888759663911217e+18,51.0481216796875,29.45811882019043,41.28479919433594,-8.686399745941163,1.6888759663911217e+18,51.0481216796875,-226.1684753417969,136.139794921875,-141.81279602050782,1.688875966394752e+18,51.05175187174479,-0.1110018442074457,0.0117809917622556,-0.7716166774431864,0.6258593797683716,-2.4437424341837564,1.3188772201538086,2.619035323460897
6.1,1.6888759664380055e+18,51.09500553385416,7.790673096974691,4.680086771647136,0.5233932336171468,1.6888759664380055e+18,51.09500553385416,5.256632546583811,-4.661816596984863,2.2329023083051047,1.6888759664380055e+18,51.09500553385416,-2.556842009226481,-9.326158205668133,1.6447956164677937,1.6888759664423355e+18,51.09933581542968,-0.0018325932323932,3.151606559753418,-0.80000439286232,1.6888759664380055e+18,51.09500553385416,0.1212058492625753,2.8636344273885093,-1.2112948894500732,,,,,,,,,,,,1.6888759664411223e+18,51.09812231445313,33.62807922363281,37.888319396972655,-10.365119743347169,1.6888759664411223e+18,51.09812231445313,-221.9985137939453,132.74331970214843,-143.49151916503905,1.688875966446659e+18,51.10365934244792,-0.1520378589630126,0.0565556896229584,-0.791084865729014,0.5894066095352173,-2.549673875172933,1.2538671493530271,2.8496232827504477
6.15,1.6888759664899103e+18,51.14691056315104,-0.2765981356302897,0.4866056442260742,-4.233288447062175,1.6888759664899103e+18,51.14691056315104,-2.853441039721171,-8.764909426371256,-2.128615140914917,1.6888759664899103e+18,51.14691056315104,-2.599644343058268,-9.235769907633465,2.039959708849589,1.6888759664855867e+18,51.14258650716146,-0.2585996240377426,2.0828468799591064,-0.7467318475246429,1.6888759664899103e+18,51.14691056315104,-0.2874629994233449,1.8722511132558184,-0.8291477660338084,,,,,,,,,,,,1.6888759664911196e+18,51.14811953125,32.67403869628906,36.88547897338867,-14.79371967315674,1.6888759664911196e+18,51.14811953125,-222.9525573730469,131.7404815673828,-147.9201171875,1.6888759664985556e+18,51.1555555826823,-0.1994341065486271,0.090753324329853,-0.7911838491757711,0.5708739757537842,-2.4729652404785156,1.2215816179911296,2.8928089141845703
6.2,1.6888759665418117e+18,51.19881127929688,4.84338657061259,-1.9400997161865232,-5.919452508290608,1.6888759665418117e+18,51.19881127929688,1.9334007302920024,-11.06800111134847,-3.710270881652832,1.6888759665418117e+18,51.19881127929688,-2.9327872594197593,-9.11215623219808,2.1444682280222573,1.688875966537478e+18,51.19447810872395,-0.137241060535113,-0.3599523554245631,-0.4097887476285299,1.6888759665418117e+18,51.19881127929688,-0.0912225445111592,-0.3854559659957886,-0.1917098859945933,,,,,,,,,,,,1.6888759665411195e+18,51.19811958007813,33.93795928955078,35.13355941772461,-16.21867961883545,1.6888759665411195e+18,51.19811958007813,-221.68863525390623,129.98855590820312,-149.34507446289064,1.6888759665504632e+18,51.20746329752604,-0.1983540256818135,0.0908479069670041,-0.7997109691301981,0.5593072573343912,-2.5111589431762695,1.1961602767308552,2.9305125077565513
6.25,1.6888759665937142e+18,51.250714029947915,1.4107043743133545,-7.874472618103027,-4.1843461990356445,1.6888759665937142e+18,51.250714029947915,-0.6747759630282721,-17.264614423116047,-2.196611166000366,1.6888759665937142e+18,51.250714029947915,-2.1082818508148193,-9.374396642049154,1.92302147547404,1.6888759665893916e+18,51.24639135742188,0.7031059165795644,0.4681264013051986,2.5674157540003457,1.6888759665937142e+18,51.250714029947915,0.8460992872714996,0.5646431163574258,2.7401379346847534,,,,,,,,,,,,1.6888759665911173e+18,51.24811738281251,31.55164031982422,37.29539947509765,-15.371999549865723,1.6888759665911173e+18,51.24811738281251,-224.0749542236328,132.1503936767578,-148.49839477539064,1.6888759665937172e+18,51.25071716308594,-0.1993763372302055,0.0927926376461981,-0.7745249569416046,0.5928971767425537,-2.3964027166366577,1.2715051174163818,2.8173890113830566
6.3,1.6888759666456154e+18,51.30261539713541,-4.305432319641113,-6.15370496114095,3.876609206199646,1.6888759666456154e+18,51.30261539713541,-4.746961355209351,-15.88156255086263,5.149155060450236,1.6888759666456154e+18,51.30261539713541,-0.4643304472168286,-9.712112426757814,1.2078323761622112,1.688875966641285e+18,51.29828499348958,1.510517011086146,0.6243042945861816,3.277902921040853,1.6888759666456154e+18,51.30261539713541,1.340543786684672,0.432645320892334,3.3292664686838784,1.6888759666196652e+18,51.2766650390625,0.0,0.0,1.2863426208496094,6.715000152587891,1.3827165365219116,352.0146484375,25.735562272002177,-122.7500552,49.1927199,1.6888759666411177e+18,51.298117822265624,23.445959091186523,43.270958709716794,-13.54687957763672,1.6888759666411177e+18,51.298117822265624,-232.1806396484375,138.12595825195314,-146.67327880859375,1.6888759666369646e+18,51.293964274088545,-0.1995042165120442,0.1194691558678944,-0.7233620882034302,0.6496142745018005,-2.0373355944951377,1.413809100786845,2.4938607215881348
6.35,1.688875966697511e+18,51.35451098632813,-2.912589112917582,-13.55825138092041,12.625859260559082,1.688875966697511e+18,51.35451098632813,-1.4492529183626175,-23.215763092041016,13.640085856119793,1.688875966697511e+18,51.35451098632813,1.4405347108840942,-9.641766866048178,0.949513614177704,1.6888759666931968e+18,51.35019694010416,0.6601925939321518,-1.4620041449864705,4.106897910435994,1.688875966697511e+18,51.35451098632813,0.6920084953308105,-1.5079208215077715,4.042349815368652,,,,,,,,,,,,1.688875966691119e+18,51.348119140625,14.974279975891111,47.30427856445313,-10.789679718017576,1.688875966691119e+18,51.348119140625,-240.65231323242188,142.15927734375,-143.91607360839845,1.6888759666888684e+18,51.345868164062495,-0.1850881725549698,0.0997492646177609,-0.6572485566139221,0.7230318188667297,-0.7822306950887042,1.4110154310862224,1.1892059842745464
6.4,1.6888759667494193e+18,51.40641935221354,-1.5018947919209795,-3.756821632385254,0.9591832160949708,1.6888759667494193e+18,51.40641935221354,1.2757732868194582,-13.134801864624023,1.9726828734079995,1.6888759667494193e+18,51.40641935221354,2.754866679509481,-9.362235069274902,0.94878621896108,1.6888759667450962e+18,51.402096354166666,1.0460558533668518,-4.129347165425618,2.621731758117676,1.6888759667494193e+18,51.40641935221354,1.1537208159764607,-4.151694854100545,2.6546167532602944,,,,,,,,,,,,1.688875966741119e+18,51.398118994140624,7.659159851074219,49.385599517822264,-7.971479797363282,1.688875966741119e+18,51.398118994140624,-247.96743774414065,144.2405975341797,-141.0978790283203,1.6888759667407647e+18,51.397764567057294,-0.1343050375580787,0.042961435082058,-0.6042548219362894,0.7832725644111633,-0.3500692049662272,1.2851193745930989,0.6040688951810201
6.45,1.6888759667926682e+18,51.44966821289063,-3.3009111881256104,3.481212615966797,-2.912573993206024,1.6888759667926682e+18,51.44966821289063,0.5455635562539101,-5.540879726409912,-2.1834506392478943,1.6888759667926682e+18,51.44966821289063,3.823673248291016,-9.006347179412842,0.6644099354743958,1.6888759667969974e+18,51.453997151692704,1.2618439396222432,-1.2287554144859314,2.872593800226847,1.6888759667926682e+18,51.44966821289063,1.4380531907081604,-1.2797626852989197,2.9889636039733887,,,,,,,,,,,,1.6888759667911224e+18,51.4481224609375,1.2102399528026582,50.2810791015625,-3.128079962730408,1.6888759667911224e+18,51.4481224609375,-254.4163543701172,145.13607788085938,-136.25447692871094,1.6888759667926705e+18,51.449670572916666,-0.0612629031141598,-0.0008352894413595,-0.5516317486763,0.8315028746922811,-0.1795422534147898,1.1618414719899497,0.2667883882919947
6.5,1.68887596683592e+18,51.4929200032552,-8.172396341959635,11.488399187723797,1.762389063835144,1.68887596683592e+18,51.4929200032552,-3.5888352394104004,2.814757068951925,2.494318167368571,1.68887596683592e+18,51.4929200032552,4.560759703318278,-8.657896995544434,0.6672156651814779,1.6888759668488988e+18,51.50589868164062,-0.1296561459700266,-2.134159564971924,0.5727879802385966,1.68887596683592e+18,51.4929200032552,0.1504764705896377,-1.366861899693807,1.33148255944252,,,,,,,,,,,,1.688875966841118e+18,51.49811791992188,-4.270000028610229,50.42991943359375,-1.2687999963760377,1.688875966841118e+18,51.49811791992188,-259.89659423828124,145.28491821289063,-134.39519958496095,1.6888759668445727e+18,51.50157259114584,-0.0344551956901947,-0.0243053985759615,-0.5129698514938354,0.8572274446487427,-0.1614525914192199,1.0716233650843303,0.176244854927063
6.55,1.688875966887824e+18,51.544823893229164,-8.991058667500814,9.95024522145589,-0.9201178550720216,1.688875966887824e+18,51.544823893229164,-4.744967381159465,1.2207383314768474,0.674576590458552,1.688875966887824e+18,51.544823893229164,4.223290046056111,-8.713761647542318,1.529980977376302,1.6888759668921498e+18,51.54914978027344,-0.3229186460375786,-3.6966511011123657,-1.052291750907898,1.688875966887824e+18,51.544823893229164,-0.3277801026900609,-3.6132678985595703,-0.93304576476415,,,,,,,,,,,,1.6888759668911188e+18,51.54811889648438,-2.759639930725098,50.34939880371094,-2.469279980659485,1.6888759668911188e+18,51.54811889648438,-258.38623046875,145.20439758300782,-135.5956787109375,1.6888759668964713e+18,51.55347119140625,0.0008030372361341,-0.1026291027665137,-0.5278778274854025,0.8427296280860901,-0.3893907964229584,1.0979997714360554,0.2388285646835962
6.6,1.6888759669397256e+18,51.5967255859375,-1.2245426972707112,4.796377817789714,-0.9292764266331992,1.6888759669397256e+18,51.5967255859375,2.2753748893737793,-4.186841567357381,1.0600204169750214,1.6888759669397256e+18,51.5967255859375,3.4771161874135337,-8.967474301656088,1.924583355585734,1.688875966935398e+18,51.59239819335937,0.4919501344362895,-1.3001758207877476,-0.9828312595685323,1.6888759669397256e+18,51.5967255859375,0.5665775140126547,-0.9966266751289368,-0.9309586485226948,,,,,,,,,,,,1.6888759669411172e+18,51.598117333984376,0.0292800068855285,50.38111877441406,-2.410719966888428,1.6888759669411172e+18,51.598117333984376,-255.597314453125,145.23611755371093,-135.53711853027343,1.6888759669483712e+18,51.605371337890624,0.028798467790087,-0.1371485342582066,-0.5519823431968689,0.821951429049174,-0.5014340380827585,1.1563868522644043,0.2610381543636322
