seconds_elapsed_rounded,accelerometer_time,accelerometer_seconds_elapsed,accelerometer_z,accelerometer_y,accelerometer_x,accelerometeruncalibrated_time,accelerometeruncalibrated_seconds_elapsed,accelerometeruncalibrated_z,accelerometeruncalibrated_y,accelerometeruncalibrated_x,gravity_time,gravity_seconds_elapsed,gravity_z,gravity_y,gravity_x,gyroscope_time,gyroscope_seconds_elapsed,gyroscope_z,gyroscope_y,gyroscope_x,gyroscopeuncalibrated_time,gyroscopeuncalibrated_seconds_elapsed,gyroscopeuncalibrated_z,gyroscopeuncalibrated_y,gyroscopeuncalibrated_x,location_time,location_seconds_elapsed,location_altitude,location_speedAccuracy,location_bearingAccuracy,location_latitude,location_altitudeAboveMeanSeaLevel,location_bearing,location_horizontalAccuracy,location_verticalAccuracy,location_longitude,location_speed,magnetometer_time,magnetometer_seconds_elapsed,magnetometer_z,magnetometer_y,magnetometer_x,magnetometeruncalibrated_time,magnetometeruncalibrated_seconds_elapsed,magnetometeruncalibrated_z,magnetometeruncalibrated_y,magnetometeruncalibrated_x,orientation_time,orientation_seconds_elapsed,orientation_yaw,orientation_qx,orientation_qz,orientation_roll,orientation_qw,orientation_qy,orientation_pitch
0.0,1.689893286008804e+18,0.01980419921875,1.1947311783373356,-0.0084536478295922,-0.7272561437986791,1.6898932860088044e+18,0.0198045654296875,-0.806671142578125,-0.3063507080078125,0.1609725952148437,1.689893286008804e+18,0.01980419921875,-9.051752838951348,-2.9284836011633275,2.379105505572259,1.689893286008804e+18,0.01980419921875,0.0560326762497425,0.6191391944885254,0.4033383131027221,1.6898932860088044e+18,0.0198045654296875,0.0650692835915833,0.6548484116792679,0.4124119281768799,1.689893286005169e+18,0.0161689453125,65.92133903503418,-1.0,-1.0,49.18918236990352,85.33133888244629,-1.0,35.0,24.574003219604492,-122.84794719129856,-1.0,1.689893286008804e+18,0.01980419921875,-50.989891052246094,3.0504074096679688,21.46160888671875,1.689893286010534e+18,0.0215341796875,-23.175827026367188,19.567413330078125,101.44660949707033,1.689893286008804e+18,0.01980419921875,-1.6175413998038488,-0.1950690590230186,0.6958778799393216,0.2570204824250827,-0.6908437401928421,0.0209072137842198,0.3032486669751388
0.05,1.689893286038873e+18,0.049873095703125,1.0824242988711597,0.4110843081444502,-0.3729072838328778,1.6898932860438843e+18,0.05488447265625,-0.8021484375,-0.2702606201171875,0.218505859375,1.689893286038873e+18,0.049873095703125,-8.975328939962386,-3.0732269446885585,2.4817500043931604,1.689893286038873e+18,0.049873095703125,-0.141734043508768,0.2977287113666534,0.6751025795936585,1.6898932860438843e+18,0.05488447265625,-0.1590012609958648,0.2981238901615143,0.7202232599258422,,,,,,,,,,,,,1.689893286038873e+18,0.049873095703125,-50.90959930419922,2.432405471801758,21.94010772705078,1.6898932860417367e+18,0.052736572265625,-23.14154968261719,18.777337646484376,101.82828979492189,1.689893286038873e+18,0.049873095703125,-1.6209524291887896,-0.2045866810651591,0.6942048941655828,0.2697836292996263,-0.6897046309445374,0.0224610704176125,0.3187650056845141
0.1,1.6898932860889874e+18,0.099987548828125,1.388371706857085,0.7211300913599132,-0.1848156508380174,1.6898932860889876e+18,0.0999874877929687,-0.7430915832519531,-0.249603271484375,0.2534637451171875,1.6898932860889874e+18,0.099987548828125,-8.811833257433175,-3.4073644405615324,2.6267516481414437,1.6898932860889874e+18,0.099987548828125,-0.0493281055241823,0.1646220333874225,0.792800772190094,1.6898932860889876e+18,0.0999874877929687,-0.0412215385586023,0.1808765097521245,0.7876217067241669,,,,,,,,,,,,,1.6898932860889874e+18,0.099987548828125,-50.66240234375,0.8324958801269531,22.75420379638672,1.6898932860885394e+18,0.0995394287109375,-22.83906936645508,17.13897705078125,102.6218032836914,1.6898932860889874e+18,0.099987548828125,-1.632787594844293,-0.2231450630448312,0.692259787466823,0.2897217699067466,-0.6856044215018293,0.0299655571458802,0.3548755311332735
0.15,1.689893286139102e+18,0.15010205078125,0.9474318910574911,-0.0079509590044616,-0.3767595461207628,1.6898932861340905e+18,0.14509052734375,-0.7956512451171875,-0.40516357421875,0.21610107421875,1.689893286139102e+18,0.15010205078125,-8.679446180586218,-3.79841057844907,2.525585463631749,1.689893286139102e+18,0.15010205078125,0.2118172630667686,-0.6087586343288421,1.1479068994522097,1.6898932861340905e+18,0.14509052734375,0.1692429244518279,-0.5271145239472389,1.0530774116516113,,,,,,,,,,,,,1.689893286139102e+18,0.15010205078125,-50.67528762817383,-1.2587551116943358,22.681532287597655,1.6898932861353436e+18,0.1463435546875,-22.956097412109376,15.155783081054688,102.30134887695311,1.689893286139102e+18,0.15010205078125,-1.6353612379934623,-0.2346780375011403,0.6889545696180187,0.2831065400951341,-0.6840094700989039,0.0481202968520778,0.3977886079343479
0.2,1.6898932861892165e+18,0.20021630859375,1.117608892594576,1.6131923280861973,-1.1107824368014931,1.689893286184205e+18,0.195205126953125,-0.7961944580078125,-0.321258544921875,0.14295654296875,1.6898932861892165e+18,0.20021630859375,-8.3718603577435,-4.6447004842031,2.0897116113717855,1.6898932861892165e+18,0.20021630859375,0.2296999633312225,-0.8875929832458496,2.3126925230026245,1.689893286184205e+18,0.195205126953125,0.4336340034380555,-0.8605663537979126,2.482430100440979,,,,,,,,,,,,,1.6898932861892165e+18,0.20021630859375,-51.19438095092774,-6.196196174621582,20.665399169921876,1.6898932861873492e+18,0.1983491699218749,-23.480587768554688,9.8943359375,100.19493408203124,1.6898932861892165e+18,0.20021630859375,-1.6331286103544582,-0.2522016012700306,0.6809596233616414,0.2444079573939245,-0.6805321516860221,0.0958273560026344,0.4937807549409208
0.25,1.6898932862393308e+18,0.250330908203125,5.5654327012878655,1.2242249838471413,-1.264620736347586,1.6898932862343194e+18,0.2453193359375,-0.2914794921875,-0.34312744140625,0.0359893798828125,1.6898932862393308e+18,0.250330908203125,-8.316849366043806,-4.815168460736871,1.937451199440807,1.6898932862393308e+18,0.250330908203125,-1.7603219747543335,-0.783055579662323,-1.3778732478618625,1.6898932862343194e+18,0.2453193359375,-1.743743324279785,-0.829212737083435,-1.0995055139064789,,,,,,,,,,,,,1.6898932862393308e+18,0.250330908203125,-51.94503936767578,-7.484929656982421,18.87103729248047,1.6898932862393562e+18,0.2503561523437499,-24.2646484375,9.434463500976562,98.46951904296876,1.6898932862393308e+18,0.250330908203125,-1.686738407866836,-0.2502795266097843,0.6983365354807431,0.2288477303706655,-0.6604767498218899,0.1148745590272229,0.5134259399382077
0.3,1.689893286289445e+18,0.3004450195312499,2.181502795423269,-0.7828956426602601,2.205632998847216,1.689893286284434e+18,0.295433984375,-0.5794403076171875,-0.452655029296875,0.344451904296875,1.689893286289445e+18,0.3004450195312499,-8.885057834311127,-3.736578976175189,1.7517427498684826,1.689893286289445e+18,0.3004450195312499,-0.26147700548172,-1.5777395009994506,-2.628410530090332,1.689893286284434e+18,0.295433984375,-0.5291299000382423,-1.5098156809806824,-2.6510427474975584,,,,,,,,,,,,,1.689893286289445e+18,0.3004450195312499,-53.18393402099609,-0.2638124465942383,16.504425048828125,1.6898932862913618e+18,0.302361865234375,-25.548049926757812,16.988235473632812,95.91515197753908,1.689893286289445e+18,0.3004450195312499,-1.7206428346448015,-0.1984477629090432,0.7273718935468628,0.1950554280852285,-0.6510840420353345,0.0843889076552762,0.3912117470683632
0.35,1.6898932863395597e+18,0.35055966796875,-2.01724641610682,0.4478689136365055,0.6918902606111764,1.689893286334548e+18,0.345547998046875,-1.1194244384765626,-0.26865234375,0.2911529541015625,1.6898932863395597e+18,0.35055966796875,-9.270307093262076,-2.981502776071727,1.1547874220011385,1.6898932863395597e+18,0.35055966796875,1.55004403591156,0.1242724955081939,-0.5595000132918357,1.689893286334548e+18,0.345547998046875,1.5529463291168213,-0.1075760014355182,-0.842866188287735,,,,,,,,,,,,,1.6898932863395597e+18,0.35055966796875,-53.84462127685547,3.9131046295166017,14.114865112304688,1.6898932863381668e+18,0.3491666870117187,-26.116256713867188,20.79243850708008,93.77477645874023,1.6898932863395597e+18,0.35055966796875,-1.6503037762310064,-0.1491177677993579,0.7179652144258291,0.1239457213348949,-0.6760313288141917,0.0713317301343145,0.3089256782788661
0.4,1.6898932863896742e+18,0.400674169921875,-0.390985406063199,-0.7919503543490171,-2.770472545977235,1.6898932863846625e+18,0.39566259765625,-1.02886962890625,-0.413739013671875,-0.187811279296875,1.6898932863896742e+18,0.400674169921875,-9.245317028912307,-3.121701403452456,0.9399257970502226,1.6898932863896742e+18,0.400674169921875,0.2384080573916435,-1.5845375895500182,0.0912738740444183,1.6898932863846625e+18,0.39566259765625,0.3224582597613334,-1.2335910730063917,0.2256998240947723,,,,,,,,,,,,,1.6898932863896742e+18,0.400674169921875,-53.81576080322266,3.2015869140625,14.371501159667968,1.6898932863849713e+18,0.39597138671875,-26.103518676757812,19.74464111328125,93.92701416015623,1.6898932863896742e+18,0.400674169921875,-1.596307372662708,-0.148215693437062,0.7000204715848843,0.1013172233300646,-0.6937926892220085,0.080456186545603,0.3239654511984851
0.45,1.689893286439788e+18,0.450788232421875,-0.8689300167506933,-0.4985028885218501,-2.846698759663105,1.689893286434777e+18,0.4457770996093749,-1.0209381103515625,-0.32064208984375,-0.2329925537109375,1.689893286439788e+18,0.450788232421875,-9.373524540439249,-2.873670294766724,0.0443455733183491,1.689893286439788e+18,0.450788232421875,0.4531760275363922,-1.2556804180145265,-0.9777602434158326,1.689893286434777e+18,0.4457770996093749,0.4816616475582123,-1.365446722507477,-0.9050294518470764,,,,,,,,,,,,,1.689893286439788e+18,0.450788232421875,-54.82412261962891,4.483293151855468,9.649333190917968,1.689893286436976e+18,0.447976318359375,-27.129537963867183,21.29365234375,89.01672973632813,1.689893286439788e+18,0.450788232421875,-1.5726875669870082,-0.106344978092033,0.6996140254506978,0.0048062385719612,-0.6988881062355647,0.1032393595584063,0.2974259906804904
0.5,1.689893286489903e+18,0.500903125,-2.390260813575983,1.4702493412072957,-4.491931304419339,1.6898932864848911e+18,0.4958913085937499,-1.196307373046875,-0.1639923095703125,-0.517340087890625,1.689893286489903e+18,0.500903125,-9.492341590903996,-2.381153202656209,-0.5902705894064157,1.689893286489903e+18,0.500903125,-0.4374706223607063,-1.594665813446045,-0.7222613915801048,1.6898932864848911e+18,0.4958913085937499,-0.3646211627870798,-1.504383206367493,-0.8565467834472656,,,,,,,,,,,,,1.689893286489903e+18,0.500903125,-55.05690460205078,7.795444869995117,6.012370300292969,1.6898932864889818e+18,0.49998173828125,-27.3195556640625,24.658050537109375,85.38641052246093,1.689893286489903e+18,0.500903125,-1.5662638583906587,-0.0649149226838299,0.7024710448925784,-0.0620534973270032,-0.7003531258689067,0.1080530283111018,0.2452751509222319
0.55,1.6898932865400172e+18,0.55101708984375,0.9592586393558978,3.083266049691736,-1.1348376752930878,1.689893286535006e+18,0.5460060546875,-0.9353851318359376,0.052886962890625,-0.30618896484375,1.6898932865400172e+18,0.55101708984375,-9.347014836080673,-2.416480916564315,-1.6580285326390711,1.6898932865400172e+18,0.55101708984375,-0.2192425496876239,-3.391801357269287,0.6959801077842712,1.689893286535006e+18,0.5460060546875,-0.2973836433142423,-3.150894212722778,0.5855886459350585,1.689893286515673e+18,0.526673095703125,65.62056350708008,-1.0,-1.0,49.189197843709536,85.03056335449219,-1.0,35.0,24.596506118774418,-122.84792582966244,-1.0,1.6898932865400172e+18,0.55101708984375,-55.4522819519043,8.182143020629884,-0.5218368530273437,1.6898932865409897e+18,0.5519895019531249,-27.72774658203125,24.696240234375,78.49823608398438,1.6898932865400172e+18,0.55101708984375,-1.582125588552857,-0.025066280395343,0.7104131912088617,-0.175691045009238,-0.6869206250370603,0.1491060221817396,0.2489907553659017
0.6,1.6898932865901317e+18,0.6011318359375,4.344287212564349,4.526120808077752,-0.2749313321188092,1.6898932865851205e+18,0.596120166015625,-0.485345458984375,0.1617706298828125,-0.41463623046875,1.6898932865901317e+18,0.6011318359375,-8.542908881418109,-2.892586942873895,-3.759837102165818,1.6898932865901317e+18,0.6011318359375,0.330024853348732,-5.826137924194336,1.31917724609375,1.6898932865851205e+18,0.596120166015625,0.2630180984735488,-5.618662643432617,1.3176299810409546,,,,,,,,,,,,,1.6898932865901317e+18,0.6011318359375,-54.63281021118164,5.7471263885498045,-12.13267822265625,1.689893286592998e+18,0.6039982421875,-26.210736083984376,21.9064208984375,65.03735961914063,1.6898932865901317e+18,0.6011318359375,-1.55763323521725,0.0389675494998952,0.7011791886410231,-0.4150371480381409,-0.6661934328762825,0.2473634733483439,0.2994547027852695
0.65,1.6898932866402463e+18,0.6512461425781251,4.142305790487528,5.485305271605848,2.8269067315739393,1.6898932866352348e+18,0.6462346679687501,-0.2854095458984375,0.252490234375,-0.33070068359375,1.6898932866402463e+18,0.6512461425781251,-6.722925743598938,-3.064527914569676,-6.37738808350265,1.6898932866402463e+18,0.6512461425781251,1.7779820203781127,-6.490918254852295,0.92980660200119,1.6898932866352348e+18,0.6462346679687501,1.628198003768921,-6.548498916625976,1.0034841179847718,,,,,,,,,,,,,1.6898932866402463e+18,0.6512461425781251,-49.06273574829102,4.109093093872071,-26.554945373535155,1.6898932866398057e+18,0.6508056640625001,-19.77652359008789,20.667747497558594,50.197879791259766,1.6898932866402463e+18,0.6512461425781251,-1.479492269981137,0.1372241179748728,0.6607451571888756,-0.7587585715376371,-0.6370449693440248,0.3693037100652564,0.3178301877500963
0.7,1.6898932866903606e+18,0.701360546875,2.020207545547783,4.411870919398069,0.2513442956608533,1.689893286685349e+18,0.6963490234374999,-0.194818115234375,0.2071441650390625,-0.7534423828125,1.6898932866903606e+18,0.701360546875,-4.559766823283136,-2.314490293155312,-8.333211185875536,1.6898932866903606e+18,0.701360546875,2.54472393989563,-4.8896484375,-0.2863569125533104,1.689893286685349e+18,0.6963490234374999,2.5284334659576415,-5.026635837554932,-0.218752959370613,,,,,,,,,,,,,1.6898932866903606e+18,0.701360546875,-39.14949493408203,7.096358108520508,-39.26495208740234,1.68989328668661e+18,0.697609814453125,-10.584796142578124,24.134173583984374,39.66417236328125,1.6898932866903606e+18,0.701360546875,-1.393414872925492,0.2457337024903854,0.5938282412845431,-1.069512699126583,-0.6160114758015691,0.4538746215962682,0.2384044659340464
0.75,1.6898932867404754e+18,0.751475341796875,-1.6818754329161345,3.065257982409894,-0.651137043749094,1.689893286735464e+18,0.746463818359375,-0.48299560546875,0.20245361328125,-0.998370361328125,1.6898932867404754e+18,0.751475341796875,-2.768496423598677,-1.096835174604729,-9.325949719315767,1.6898932867404754e+18,0.751475341796875,2.647477388381958,-3.0428374767303468,-0.5934812992811203,1.689893286735464e+18,0.746463818359375,2.628139114379883,-3.333151412010193,-0.48432437479496,,,,,,,,,,,,,1.6898932867404754e+18,0.751475341796875,-29.589557266235353,13.4758113861084,-45.0507568359375,1.6898932867386158e+18,0.749615771484375,-1.170404052734375,30.625030517578125,34.39817504882812,1.6898932867404754e+18,0.751475341796875,-1.3557170002576664,0.3390997353908199,0.5274620005340787,-1.2820259911396497,-0.6021909311730645,0.4932580578638708,0.1121621387601851
0.8,1.68989328679059e+18,0.801589990234375,-3.2314168343468013,1.385516960400045,-1.4092461525815725,1.689893286785579e+18,0.7965789062499999,-0.4794525146484375,0.1653900146484375,-1.1336883544921874,1.68989328679059e+18,0.801589990234375,-1.9962925630836188,0.2908133199862542,-9.587950433547496,1.68989328679059e+18,0.801589990234375,2.63692569732666,-0.8058889865875244,-1.5862173080444335,1.689893286785579e+18,0.7965789062499999,2.6170708179473876,-0.8452642679214477,-1.590789270401001,,,,,,,,,,,,,1.68989328679059e+18,0.801589990234375,-24.30022850036621,21.21593017578125,-44.80263671875,1.6898932867906227e+18,0.801622900390625,3.752877807617187,38.472808837890625,35.067437744140626,1.68989328679059e+18,0.801589990234375,-1.3776234655292676,0.4096829594421898,0.4857020974291668,-1.365533751559749,-0.6048162928417729,0.4795424962467754,-0.0296840890736338
0.85,1.6898932868407045e+18,0.851704736328125,-5.554033706108331,0.4772346211741864,-0.1410305189341306,1.689893286835693e+18,0.8466930175781251,-0.7247711181640625,0.22061767578125,-0.9949981689453123,1.6898932868407045e+18,0.851704736328125,-1.334533105324581,1.7525752113307267,-9.54180921081066,1.6898932868407045e+18,0.851704736328125,3.1650121212005615,-2.1957995891571045,0.0615620240569114,1.689893286835693e+18,0.8466930175781251,3.0916290283203125,-2.0014643907546996,-0.1710789561271667,,,,,,,,,,,,,1.6898932868407045e+18,0.851704736328125,-20.25784912109375,28.50473403930664,-42.188130950927736,1.689893286842631e+18,0.8536305175781249,7.867532348632812,45.6534423828125,37.7322509765625,1.6898932868407045e+18,0.851704736328125,-1.391916405757997,0.4707820950998188,0.43612943655381,-1.432082326841803,-0.6142762747834061,0.4583157644602187,-0.1798559159507559
0.9,1.6898932868908188e+18,0.901818896484375,-3.601751169725657,-1.4317877131876346,-4.052598865364194,1.6898932868858076e+18,0.8968076171874999,-0.43648681640625,0.2146575927734375,-1.2855743408203124,1.6898932868908188e+18,0.901818896484375,-0.269373431303557,3.3267687503936885,-9.20687922015965,1.6898932868908188e+18,0.901818896484375,3.318330240249634,-2.4054677963256834,1.558536601066589,1.6898932868858076e+18,0.8968076171874999,3.389607572555542,-2.4887156009674074,1.4854844570159913,,,,,,,,,,,,,1.6898932868908188e+18,0.901818896484375,-16.602976989746093,33.55208282470703,-39.38120574951172,1.6898932868894351e+18,0.9004351806640625,11.620681762695312,50.93764877319336,40.851295471191406,1.6898932868908188e+18,0.901818896484375,-1.3219134402849515,0.5186140004673279,0.3385520355069707,-1.5419697457676058,-0.6310436471040604,0.4660565761944307,-0.3464949462049486
0.95,1.6898932869409334e+18,0.9519334472656252,-2.2406678672885896,-3.4196648853993414,-7.046657580791711,1.689893286935922e+18,0.9469218261718748,-0.228955078125,0.1247589111328125,-1.56873779296875,1.6898932869409334e+18,0.9519334472656252,0.2207697256166953,4.5720240719532965,-8.667535494944453,1.6898932869409334e+18,0.9519334472656252,2.111628699302673,-1.46597900390625,2.083010172843933,1.689893286935922e+18,0.9469218261718748,2.251541328430176,-1.549187278747559,2.0422935247421266,,,,,,,,,,,,,1.6898932869409334e+18,0.9519334472656252,-15.769373893737791,37.24176177978516,-35.94955673217773,1.6898932869362396e+18,0.94723984375,11.938296508789062,54.069967651367186,44.00990295410156,1.6898932869409334e+18,0.9519334472656252,-1.2134125410478682,0.5340357740546081,0.2448572818751737,-1.5963461207533771,-0.6543809708947232,0.4754489237092723,-0.4852544869098507
1.0,1.689893286991048e+18,1.0020478027343749,-0.6929855377280711,-3.781206053408981,-7.6200650205546605,1.6898932869860362e+18,0.997036181640625,-0.0911407470703125,0.1432830810546875,-1.615673828125,1.689893286991048e+18,1.0020478027343749,0.1692840530190429,5.2570228194850674,-8.275160329636336,1.689893286991048e+18,1.0020478027343749,1.0467034578323364,-1.2585139989852905,2.5794371128082276,1.6898932869860362e+18,0.997036181640625,1.1494767785072326,-1.204111433029175,2.530750608444214,,,,,,,,,,,,,1.689893286991048e+18,1.0020478027343749,-17.68242492675781,38.09206314086914,-34.00790634155273,1.6898932869882496e+18,0.9992497558593753,9.845440673828126,54.68459777832031,45.785256958007814,1.689893286991048e+18,1.0020478027343749,-1.0736032218102811,0.5186518096709892,0.1722091279977591,-1.591191047081446,-0.6791816014370173,0.489423071102981,-0.5658531590681144
1.05,1.689893287041162e+18,1.0521619628906251,3.9104811357152456,-3.5971819621139765,-7.457176773173212,1.689893287036151e+18,1.04715087890625,0.3041259765625,0.176953125,-1.612939453125,1.689893287041162e+18,1.0521619628906251,0.0410291011475445,5.474984134790897,-8.135780149805544,1.689893287041162e+18,1.0521619628906251,-0.0273401696234941,-0.8783764779567719,1.954589831829071,1.689893287036151e+18,1.04715087890625,0.0741099685430526,-1.132849532365799,2.1904672145843507,,,,,,,,,,,,,1.689893287041162e+18,1.0521619628906251,-20.32413330078125,36.392835235595705,-34.73547286987305,1.6898932870402586e+18,1.0512583984375,7.238177490234375,52.836578369140625,44.827273559570315,1.689893287041162e+18,1.0521619628906251,-0.9153849682819978,0.4842127896831371,0.1124538402043683,-1.5758413851053374,-0.696494523123114,0.5171779874542303,-0.5923277064621741
1.1,1.6898932870912763e+18,1.10227666015625,7.591514764892234,4.1191911061686275,1.574130191503167,1.689893287086265e+18,1.0972650390625,0.8677520751953125,0.8453948974609375,-0.885101318359375,1.6898932870912763e+18,1.10227666015625,-0.4281232363065611,5.352389670066237,-8.2038538028872,1.6898932870912763e+18,1.10227666015625,-0.2618063174188137,2.485351896286011,-1.5511672258377076,1.689893287086265e+18,1.0972650390625,-0.3286544144153595,2.487624001502991,-1.4715916313230992,,,,,,,,,,,,,1.6898932870912763e+18,1.10227666015625,-22.73373680114746,35.55547332763672,-34.54243698120117,1.6898932870922683e+18,1.10326845703125,4.858670043945312,52.23249816894531,45.31503601074219,1.6898932870912763e+18,1.10227666015625,-0.9075239028701932,0.4746707961278063,0.1286744020128384,-1.518693030396238,-0.7106215831552197,0.5026130715100152,-0.5773385623027276
1.15,1.6898932871413908e+18,1.152390869140625,1.1453167645356803,-0.1540040991801023,3.644690966072678,1.6898932871363796e+18,1.1473796386718749,0.0259979248046875,0.619384765625,-0.3617523193359375,1.6898932871413908e+18,1.152390869140625,-0.6969128160939737,5.3412210934156175,-8.194691305361985,1.6898932871413908e+18,1.152390869140625,-0.0177624926902353,-1.109503734111786,1.212149453163147,1.6898932871363796e+18,1.1473796386718749,0.0020547889173031,-0.8058886170387268,1.0371284201741218,,,,,,,,,,,,,1.6898932871413908e+18,1.152390869140625,-23.87593460083008,35.86080627441406,-33.77050704956055,1.6898932871390758e+18,1.1500758666992188,3.83182144165039,52.4860954284668,45.977272033691406,1.6898932871413908e+18,1.152390869140625,-0.9128208671553324,0.4735642579844447,0.1387483460708796,-1.4859500814515083,-0.7184670299861574,0.4899999097636079,-0.5759766387555703
1.2,1.6898932871915054e+18,1.20250546875,-1.9126338466963917,-1.5954498090988398,-2.4616895054000616,1.689893287186494e+18,1.197493798828125,-0.2165283203125,0.4029937744140625,-1.0132080078125,1.6898932871915054e+18,1.20250546875,-0.4545432549143209,5.273392588814497,-8.255355909683107,1.6898932871915054e+18,1.20250546875,-0.1622275456786155,-0.2357247233390808,0.5546410508453846,1.689893287186494e+18,1.197493798828125,-0.1369381479918956,-0.5844003319740295,0.6912539049983024,,,,,,,,,,,,,1.6898932871915054e+18,1.20250546875,-23.411224365234375,34.57860107421875,-35.05882949829102,1.6898932871858836e+18,1.19688369140625,4.389984130859375,51.096682739257815,44.56253662109375,1.6898932871915054e+18,1.20250546875,-0.8403296071385068,0.454880614524887,0.1086217469552659,-1.5157923767518025,-0.7150920820604091,0.5194954699880561,-0.5677519517251813
1.25,1.68989328724162e+18,1.252619873046875,-2.7490259848401695,-1.479897664101124,-2.466105802085399,1.6898932872366085e+18,1.247608203125,-0.37862548828125,0.362060546875,-1.1339599609375,1.68989328724162e+18,1.252619873046875,-0.945017654909566,5.167626509293913,-8.278592408363819,1.68989328724162e+18,1.252619873046875,-0.3279478996992111,1.2256067037582397,0.6024571120738983,1.6898932872366085e+18,1.247608203125,-0.3063382506370544,1.2461482048034669,0.5860940039157867,,,,,,,,,,,,,1.68989328724162e+18,1.252619873046875,-25.384632110595703,33.649384307861325,-34.44203186035156,1.689893287237891e+18,1.2488912109375,2.091107177734375,50.165872192382814,45.363949584960935,1.68989328724162e+18,1.252619873046875,-0.8063432296921024,0.4392349616919525,0.1136750195009212,-1.4572148050710862,-0.731584932291922,0.5087586195275413,-0.5550195168066377
1.3,1.689893287291734e+18,1.3027340332031252,-1.50347844617486,-2.349437804800272,-2.6457892338275903,1.689893287286723e+18,1.297722900390625,-0.265386962890625,0.2794769287109375,-1.116387939453125,1.689893287291734e+18,1.3027340332031252,-1.55822649070248,4.926077689912617,-8.332882100051641,1.689893287291734e+18,1.3027340332031252,-0.8157966315746308,1.2752668142318726,0.2911943063139915,1.689893287286723e+18,1.297722900390625,-0.7442185997962951,1.274401807785034,0.2587847447721287,,,,,,,,,,,,,1.689893287291734e+18,1.3027340332031252,-28.684992599487305,32.20627059936523,-33.53593978881836,1.6898932872898957e+18,1.300895703125,-1.2057861328125,48.71255187988281,46.19570617675781,1.689893287291734e+18,1.3027340332031252,-0.7830723130329094,0.4203311038340974,0.129801470547034,-1.38606433072266,-0.7500253194934192,0.4937869740621791,-0.5263235938043374
1.35,1.6898932873418486e+18,1.3528486328125,-1.6715844574306904,-0.9104747347036004,3.4796433779263496,1.6898932873368369e+18,1.347836865234375,-0.42479248046875,0.3375030517578125,-0.6663726806640625,1.6898932873418486e+18,1.3528486328125,-2.290130869472325,4.508451178970039,-8.39909942851603,1.6898932873418486e+18,1.3528486328125,-0.5568446069955826,1.3259317994117736,0.6799026608467102,1.6898932873368369e+18,1.347836865234375,-0.6897508203983307,1.4464553356170655,0.6750785708427429,,,,,,,,,,,,,1.6898932873418486e+18,1.3528486328125,-32.65215072631836,30.101263427734377,-32.916893005371094,1.6898932873419003e+18,1.352900146484375,-5.215060424804688,46.537600708007815,46.87894287109375,1.6898932873418486e+18,1.3528486328125,-0.7559546585748509,0.3923687994669419,0.1513538363213547,-1.3047392652694785,-0.7705823900670163,0.4787460191648548,-0.4777265606656797
1.4,1.6898932873919626e+18,1.402962841796875,1.0056565841066836,0.674977119733095,8.42500543866694,1.6898932873869517e+18,1.39795166015625,-0.1945709228515625,0.4992584228515625,0.037371826171875,1.6898932873919626e+18,1.402962841796875,-2.5213957860830427,4.429909732531309,-8.377540156945585,1.6898932873919626e+18,1.402962841796875,0.5858963668346405,-0.9710669994354248,1.0375311017036437,1.6898932873869517e+18,1.39795166015625,0.5290014147758484,-0.8453086316585541,1.003674817085266,,,,,,,,,,,,,1.6898932873919626e+18,1.402962841796875,-34.67691345214844,28.858902740478516,-32.94446029663086,1.6898932873887053e+18,1.399705383300781,-7.006923675537109,45.50603485107422,46.790985107421875,1.6898932873919626e+18,1.402962841796875,-0.7024481255684144,0.3745771714449056,0.1384969642643098,-1.2784642211998276,-0.7805488787319804,0.4807193192057126,-0.4687024320451825
1.45,1.6898932874420772e+18,1.453077294921875,1.9990821645760533,-0.0257465525794029,3.1760222501569983,1.6898932874370657e+18,1.4480658691406252,-0.0437957763671875,0.4699066162109375,-0.490960693359375,1.6898932874420772e+18,1.453077294921875,-2.6015232157650585,4.596906525823176,-8.260259814528823,1.6898932874420772e+18,1.453077294921875,0.754275119304657,0.9786973714828492,0.5860023766756057,1.6898932874370657e+18,1.4480658691406252,0.7137556672096252,0.6862679650075734,0.6905725210905075,1.6898932874253512e+18,1.43635107421875,68.30072021484375,0.5600000023841858,60.31435429601278,49.189233002298685,87.71072006225586,229.21875,4.31191118522549,12.0,-122.84795324329552,0.4600000083446502,1.6898932874420772e+18,1.453077294921875,-35.0899772644043,28.293804168701172,-32.92711715698242,1.6898932874355103e+18,1.446510498046875,-7.429910278320312,44.920736694335936,46.88292541503906,1.6898932874420772e+18,1.453077294921875,-0.63471879137267,0.3641877349516921,0.1084570628350548,-1.2656027519087696,-0.7879265139898605,0.4844252842192172,-0.4878939200885719
1.5,1.6898932874921915e+18,1.503191845703125,1.692606524158418,-0.8056707782134414,2.1855836934483053,1.6898932874871803e+18,1.4981802734375,-0.1379638671875,0.436578369140625,-0.507232666015625,1.6898932874921915e+18,1.503191845703125,-3.3815660408905144,5.135045551423728,-7.62760406698346,1.6898932874921915e+18,1.503191845703125,1.926313829421997,2.337641954421997,-0.6527540862560273,1.6898932874871803e+18,1.4981802734375,1.8222383737564087,2.468345642089844,-0.6362580418586731,,,,,,,,,,,,,1.6898932874921915e+18,1.503191845703125,-37.4932502746582,30.005384063720705,-28.15171127319336,1.689893287487513e+18,1.4985134765625,-9.910501098632812,46.8842041015625,52.11885070800781,1.6898932874921915e+18,1.503191845703125,-0.6078522879743286,0.3748001909566143,0.1000420577214081,-1.1528115638967815,-0.8138418409875185,0.4319990946039848,-0.551389451166646
1.55,1.689893287542306e+18,1.553305908203125,-0.4986734520092605,1.0008951856976749,-2.0763020654743913,1.6898932875372948e+18,1.54829482421875,-0.428076171875,0.651483154296875,-0.7792816162109375,1.689893287542306e+18,1.553305908203125,-3.806460204748511,5.902306694839597,-6.839644945001602,1.689893287542306e+18,1.553305908203125,1.8654500722885132,0.3882705867290497,0.1760615587234497,1.6898932875372948e+18,1.54829482421875,1.94013147354126,0.472760409116745,0.1629759268835186,,,,,,,,,,,,,1.689893287542306e+18,1.553305908203125,-38.5614013671875,33.31321258544922,-21.976299285888672,1.6898932875395187e+18,1.5505185546875002,-10.8416259765625,50.134463500976565,58.07825317382813,1.689893287542306e+18,1.553305908203125,-0.5568416893837493,0.3952792116780831,0.0700864890532011,-1.0626874213195696,-0.8300777108333289,0.3868057249769472,-0.6460226990456812
1.6,1.6898932875924209e+18,1.6034207031249998,0.3565707445728779,2.84054970628798,-9.60285024722874,1.689893287587409e+18,1.59840888671875,-0.408026123046875,0.9279449462890624,-1.7410369873046876,1.6898932875924209e+18,1.6034207031249998,-3.899629954450726,6.241554782498478,-6.4811568517261735,1.6898932875924209e+18,1.6034207031249998,0.126550833042711,0.0443358600139617,-0.0110831506550312,1.689893287587409e+18,1.59840888671875,0.2680578634142875,0.0879269808530807,0.0170264944434166,,,,,,,,,,,,,1.6898932875924209e+18,1.6034207031249998,-38.63563079833985,34.601435852050784,-19.671644592285155,1.6898932875915244e+18,1.6025242187499995,-10.897802734375,51.26231384277344,60.085818481445315,1.6898932875924209e+18,1.6034207031249998,-0.5154238530057663,0.4026893700708633,0.0478676567225302,-1.0291332659512766,-0.8345857147191126,0.372845772536139,-0.6899031208213536
1.65,1.689893287642535e+18,1.6535348144531248,2.0993211804643273,2.029965144808888,-4.386350109172463,1.6898932876375237e+18,1.6485234863281248,-0.1763671875,0.8720123291015625,-1.08538818359375,1.689893287642535e+18,1.6535348144531248,-3.737134739587902,6.270612651582956,-6.547340394825339,1.689893287642535e+18,1.6535348144531248,-0.2284718260169029,-0.5374126732349396,-0.7451098501682282,1.6898932876375237e+18,1.6485234863281248,-0.1567506767809391,-0.4370637759566307,-0.6156471014022827,,,,,,,,,,,,,1.689893287642535e+18,1.6535348144531248,-37.972293853759766,34.99320602416992,-20.19365463256836,1.6898932876383304e+18,1.6493302612304688,-10.357250213623049,51.53001022338867,59.59199523925781,1.689893287642535e+18,1.6535348144531248,-0.5295987722722495,0.4073517161446583,0.0480562280814869,-1.0521626146741014,-0.8295882497038795,0.3788086279076113,-0.6937513894135632
1.7,1.6898932876926492e+18,1.7036493164062498,1.8356063850171864,-0.8891151942628621,-3.2383580025607346,1.6898932876876378e+18,1.698637841796875,-0.1022064208984375,0.5953643798828125,-1.08636474609375,1.6898932876926492e+18,1.7036493164062498,-2.713350611925125,6.303243118457198,-6.984015071300267,1.6898932876926492e+18,1.7036493164062498,-1.0030938148498536,-2.6239779472351072,-2.79279568195343,1.6898932876876378e+18,1.698637841796875,-0.9850827217102052,-2.325993609428406,-2.5806936979293824,,,,,,,,,,,,,1.6898932876926492e+18,1.7036493164062498,-34.446997833251956,36.60251693725586,-23.14125061035156,1.689893287685133e+18,1.6961331054687498,-6.864535522460938,53.15671997070312,56.7675048828125,1.6898932876926492e+18,1.7036493164062498,-0.6458016263203098,0.4363883737792747,0.0624327539480462,-1.200267403286047,-0.796318661413559,0.4132134250513911,-0.6980851907002263
1.75,1.6898932877427635e+18,1.7537634277343748,0.7295781643119826,2.071299610238075,0.2186607541990279,1.6898932877377518e+18,1.7487517578125,0.049688720703125,0.7512908935546875,-0.733697509765625,1.6898932877427635e+18,1.7537634277343748,-0.7175771371589041,6.268661751323938,-7.495477102377414,1.6898932877427635e+18,1.7537634277343748,-0.650386106967926,-1.773321521282196,-2.8032579898834227,1.6898932877377518e+18,1.7487517578125,-0.6605476140975952,-2.0658963084220887,-2.974600076675415,,,,,,,,,,,,,1.6898932877427635e+18,1.7537634277343748,-26.048698043823244,39.52736587524414,-27.891128540039062,1.6898932877371338e+18,1.748133837890625,2.445196533203125,56.38784484863281,51.48519592285156,1.6898932877427635e+18,1.7537634277343748,-0.8544520290582961,0.4912171683048346,0.0800676667817823,-1.4751053029265258,-0.7279427779465937,0.4710343199084253,-0.693502904703974
1.8,1.6898932877928768e+18,1.8038767578125,-3.161817549906969,3.83953689563334,-1.2551738981491325,1.6898932877878656e+18,1.798865625,-0.318121337890625,1.0369598388671877,-0.92333984375,1.6898932877928768e+18,1.8038767578125,0.3072708323303685,5.980341302347779,-7.761150367642044,1.6898932877928768e+18,1.8038767578125,-1.1612205147743224,-0.7328384160995484,-1.7405694246292114,1.6898932877878656e+18,1.798865625,-1.0758524179458615,-0.7426637411117554,-1.7646053075790404,,,,,,,,,,,,,1.6898932877928768e+18,1.8038767578125,-20.66939506530762,40.959547424316405,-30.018099975585937,1.6898932877891338e+18,1.800133837890625,7.37069091796875,57.6096923828125,49.530783081054686,1.6898932877928768e+18,1.8038767578125,-0.9853486970215014,0.5196484329866518,0.1056881759893321,-1.609995891603766,-0.6877468892405505,0.4955482564345772,-0.6559587752433462
1.85,1.6898932878429914e+18,1.85399140625,-1.567694035588875,2.4392701683211326,1.0743603517854212,1.68989328783798e+18,1.8489798828125,-0.04290771484375,0.841021728515625,-0.7222137451171875,1.6898932878429914e+18,1.85399140625,1.075416524387896,5.403924860801101,-8.108495018708108,1.6898932878429914e+18,1.85399140625,-1.168439757823944,-0.4927534587681293,-1.5483425378799438,1.68989328783798e+18,1.8489798828125,-1.2231478929519652,-0.5857880055904389,-1.6073056697845458,,,,,,,,,,,,,1.6898932878429914e+18,1.85399140625,-17.038967514038085,40.57821960449219,-32.4869499206543,1.6898932878411338e+18,1.8521338378906251,10.970782470703124,57.14375610351563,47.02943115234375,1.6898932878429914e+18,1.85399140625,-1.0767243796970978,0.5322376765560911,0.1377837101459538,-1.702393266048873,-0.652707560050062,0.521068623585597,-0.5837395953305687
1.9,1.689893287893106e+18,1.9041058105468749,-2.515650841916352,-1.7094091319471594,0.815329943988323,1.6898932878880942e+18,1.89909423828125,-0.130126953125,0.386505126953125,-0.7866424560546875,1.689893287893106e+18,1.9041058105468749,1.4235660620960593,4.987669872020483,-8.322109712337852,1.689893287893106e+18,1.9041058105468749,-0.5340693861246109,-0.3299795664846897,-0.3133019730448723,1.6898932878880942e+18,1.89909423828125,-0.6233303248882294,-0.2480535894632339,-0.4257328145205974,,,,,,,,,,,,,1.689893287893106e+18,1.9041058105468749,-15.460843658447263,40.23374633789062,-34.05986099243164,1.6898932878931354e+18,1.9041352539062504,12.333090209960938,56.83075866699219,45.557470703125,1.689893287893106e+18,1.9041058105468749,-1.1193945379108166,0.5355281530233434,0.1594385184183169,-1.7401855303840637,-0.6340229758183816,0.5345817057029191,-0.533579686308539
1.95,1.68989328794322e+18,1.954220068359375,-3.2014103154614566,-0.762229988154769,2.6382818684852123,1.6898932879382088e+18,1.949208740234375,-0.1166900634765625,0.3981048583984375,-0.59403076171875,1.68989328794322e+18,1.954220068359375,1.8130724231956896,5.028397720632553,-8.219135543171166,1.68989328794322e+18,1.954220068359375,0.574932724237442,-1.7164472579956054,0.6531504780054093,1.6898932879382088e+18,1.949208740234375,0.5198028642684221,-1.5873019456863404,0.5208946406841278,,,,,,,,,,,,,1.68989328794322e+18,1.954220068359375,-14.895978736877442,40.32972640991211,-34.43025283813476,1.6898932879399383e+18,1.9509382934570312,12.864158630371094,56.962425231933594,45.25790786743164,1.68989328794322e+18,1.954220068359375,-1.1072177061332436,0.5367052478163475,0.1410163485565139,-1.788052424933212,-0.6224923064683513,0.5516750153832422,-0.5384265332537627
2.0,1.6898932879933343e+18,2.004334619140625,-2.7390242453987894,-1.083510808159709,3.9998153696817154,1.6898932879883228e+18,1.99932294921875,-0.084857177734375,0.4527984619140625,-0.4319580078125,1.6898932879933343e+18,2.004334619140625,2.200987452676743,5.440418666653036,-7.854210811750889,1.6898932879933343e+18,2.004334619140625,0.7531760454177856,-1.8989116668701171,2.029238533973694,1.6898932879883228e+18,1.99932294921875,0.7180962920188904,-1.872695159912109,1.9489892959594728,1.689893288000352e+18,2.01135205078125,68.50067138671875,1.059999942779541,80.3230587902958,49.189231200189504,87.91067123413086,229.21875,4.316613432221765,12.0,-122.8479563445997,0.4600000083446502,1.6898932879933343e+18,2.004334619140625,-15.031586265563964,40.30174789428711,-34.489539337158206,1.6898932879867412e+18,1.997741162109375,12.681423950195311,56.91026916503906,45.23743286132813,1.6898932879933343e+18,2.004334619140625,-1.030463529884078,0.5280767366050112,0.0838921961753244,-1.844135180907973,-0.6167417329113551,0.5773041466345372,-0.5881993662202579
2.05,1.6898932880434488e+18,2.054448828125,-3.069769497711062,-1.388789172390699,7.535661228727697,1.6898932880384376e+18,2.049437646484375,-0.0773590087890625,0.45377197265625,-0.03787841796875,1.6898932880434488e+18,2.054448828125,2.2877935125659405,5.965216213930249,-7.438007845418452,1.6898932880434488e+18,2.054448828125,0.8891222953796387,-0.9111344665288924,1.461914110183716,1.6898932880384376e+18,2.049437646484375,0.8467658042907715,-1.1503041476011275,1.5646432638168335,,,,,,,,,,,,,1.6898932880434488e+18,2.054448828125,-16.389685821533202,40.08364334106445,-34.22121810913086,1.6898932880387448e+18,2.049744775390625,11.244964599609377,56.69774475097656,45.53099060058594,1.6898932880434488e+18,2.054448828125,-0.9279715470361036,0.5115424880375083,0.0207303270962229,-1.869206285746015,-0.6186598163753546,0.5957800306805503,-0.6540069887141796
2.1,1.6898932880935634e+18,2.10456328125,-0.1955789492364227,-1.2322870604628324,5.379461801387071,1.689893288088552e+18,2.099551806640625,0.1041290283203125,0.5338623046875,-0.0901519775390625,1.6898932880935634e+18,2.10456328125,1.7800315927287935,6.585901537696719,-7.035142031947375,1.6898932880935634e+18,2.10456328125,2.1852455139160156,1.562800443172455,0.7050625920295716,1.689893288088552e+18,2.099551806640625,1.999698543548584,1.487759774923325,0.750862455368042,,,,,,,,,,,,,1.6898932880935634e+18,2.10456328125,-19.077501678466795,40.89414672851562,-31.256907653808593,1.6898932880907474e+18,2.1017472167968747,8.360415649414062,57.65318603515625,48.8581787109375,1.6898932880935634e+18,2.10456328125,-0.8800576086031657,0.5137942705689132,-0.0127232008115552,-1.817863395335938,-0.639494052762863,0.5714017028556335,-0.7367954538512089
2.15,1.689893288143678e+18,2.154677783203125,8.459859193000792,1.8878974502336976,-8.524189100283383,1.6898932881386665e+18,2.14966630859375,0.9252166748046876,0.8704833984375,-1.28115234375,1.689893288143678e+18,2.154677783203125,1.2428823818831891,7.472323138187527,-6.220621183158755,1.689893288143678e+18,2.154677783203125,2.124222254753113,0.3976984858512878,0.2934975372161716,1.6898932881386665e+18,2.14966630859375,2.3521981954574587,0.485453125834465,0.3607996349222958,,,,,,,,,,,,,1.689893288143678e+18,2.154677783203125,-21.76980056762695,43.5048583984375,-24.749801635742188,1.6898932881427497e+18,2.153749609375,5.875570678710938,60.315042114257814,55.42832641601562,1.689893288143678e+18,2.154677783203125,-0.8781553478879033,0.5393183858994253,-0.0493274355977549,-1.7679199756653372,-0.6588495077480389,0.5218937562334766,-0.866912766406629
2.2,1.6898932881937915e+18,2.204791796875,2.8983403626079856,2.1684839731830357,-8.03258842159152,1.689893288188781e+18,2.199780810546875,0.49044189453125,1.1013336181640625,-1.63052978515625,1.6898932881937915e+18,2.204791796875,1.152199758208543,7.727469865645169,-5.9265948653042315,1.6898932881937915e+18,2.204791796875,-0.3440013244748116,-0.1467650532722473,0.0917583582922816,1.689893288188781e+18,2.199780810546875,-0.1898398697376251,-0.0489829361438751,0.0681342077907174,,,,,,,,,,,,,1.6898932881937915e+18,2.204791796875,-22.40039825439453,43.72760391235352,-22.327439880371095,1.6898932881895537e+18,2.200553527832031,5.333465576171875,60.403419494628906,57.5276985168457,1.6898932881937915e+18,2.204791796875,-0.875103416972298,0.5464208171142255,-0.0641487807731697,-1.7628125083893031,-0.6611643099233631,0.5100507981619252,-0.9075549455848814
2.25,1.6898932882439066e+18,2.2549064453125,-2.7520703063590823,-0.0193124863308668,1.842826837790012,1.6898932882388946e+18,2.2498947265625,-0.1175201416015625,0.726025390625,-0.4688140869140625,1.6898932882439066e+18,2.2549064453125,1.1657921133269369,7.648555552693009,-6.025556642411351,1.6898932882439066e+18,2.2549064453125,0.2096175491809845,-0.864292049407959,0.8058373332023621,1.6898932882388946e+18,2.2498947265625,0.0551198158878832,-0.7973391890525818,0.7370148539543152,,,,,,,,,,,,,1.6898932882439066e+18,2.2549064453125,-23.15055923461914,42.450984191894534,-23.781587982177733,1.6898932882363566e+18,2.247356640625,4.720242309570312,59.16246337890625,56.04496765136719,1.6898932882439066e+18,2.2549064453125,-0.831381374853249,0.5326591602397586,-0.0734974314515869,-1.7619010212221131,-0.659617653313622,0.5250577446934838,-0.8945857402929829
2.3,1.6898932882890092e+18,2.30000927734375,0.2463175060476177,0.9833547651536764,1.1326879791393876,1.6898932882890094e+18,2.3000094726562503,0.0869293212890625,0.8874267578125,-0.435028076171875,1.6898932882890092e+18,2.30000927734375,1.1577695759638211,7.893820966831594,-5.70056273478046,1.6898932882890092e+18,2.30000927734375,1.260176718235016,-0.4524496309459209,0.4558810368180274,1.6898932882890094e+18,2.3000094726562503,1.2796122670173644,-0.3573543429374695,0.5217789769172668,,,,,,,,,,,,,1.6898932882890092e+18,2.30000927734375,-23.70110321044922,41.8650426864624,-23.794723510742188,1.689893288288358e+18,2.299357861328125,3.8908294677734374,58.532293701171874,56.22256774902344,1.6898932882890092e+18,2.30000927734375,-0.7842121113153199,0.5277993775650334,-0.106860452205488,-1.7712304102171874,-0.6553520563287768,0.529576009903767,-0.9357280546622712
2.35,1.6898932883341125e+18,2.345112255859375,-3.1899812174046036,-1.9263256728273628,4.901438981670737,1.6898932883391237e+18,2.350123779296875,-0.2364990234375,0.6615692138671875,0.00347900390625,1.6898932883341125e+18,2.345112255859375,0.7948517675724253,8.319831830533742,-5.121435719100832,1.6898932883341125e+18,2.345112255859375,1.9032096862792969,1.7479105949401856,0.2533205457031727,1.6898932883391237e+18,2.350123779296875,1.9418502807617188,1.8027054786682128,0.1666253566741943,,,,,,,,,,,,,1.6898932883341125e+18,2.345112255859375,-25.078259658813476,42.53689956665039,-20.58545913696289,1.6898932883403607e+18,2.351360595703125,2.1793701171875,59.46798400878906,60.772283935546874,1.6898932883341125e+18,2.345112255859375,-0.767222116161812,0.5414507435334021,-0.1284990885701645,-1.7236639511578928,-0.6655182503793176,0.4970654982958594,-1.0135388645212149
2.4,1.6898932883842268e+18,2.39522685546875,-5.679549728142023,-1.9927651196098324,5.123560280813277,1.689893288389238e+18,2.400238037109375,-0.5661651611328125,0.6906219482421875,0.0805572509765625,1.6898932883842268e+18,2.39522685546875,0.3323695384073408,8.832819814456105,-4.228068887968957,1.6898932883842268e+18,2.39522685546875,2.5893060207366942,1.1157467007637023,0.9364027336239816,1.689893288389238e+18,2.400238037109375,2.6641937732696532,1.0666963100433349,1.2004170730710029,,,,,,,,,,,,,1.6898932883842268e+18,2.39522685546875,-26.714001846313476,43.71504211425781,-14.132558441162107,1.6898932883923643e+18,2.4033646484375,0.2736572265625,60.42474365234375,67.53524780273438,1.6898932883842268e+18,2.39522685546875,-0.7585581384360778,0.566415121754472,-0.1494389333579083,-1.6462615705964552,-0.6786419679521054,0.4425459001543294,-1.1228569820651202
2.45,1.6898932884343406e+18,2.4453407226562502,-4.929831080322861,-2.480211367422938,3.733444886707067,1.6898932884393526e+18,2.45035244140625,-0.5566192626953125,0.708660888671875,0.0828765869140625,1.6898932884343406e+18,2.4453407226562502,-0.6784966319754906,9.310030265650152,-2.9664323112247883,1.6898932884343406e+18,2.4453407226562502,2.7976836204528808,0.0290980502963066,2.208034610748291,1.6898932884393526e+18,2.45035244140625,2.7653220653533936,-0.2135388672351837,2.1788525581359863,,,,,,,,,,,,,1.6898932884343406e+18,2.4453407226562502,-30.3437198638916,42.73489761352539,-7.126193237304688,1.6898932884391667e+18,2.450166748046875,-3.3221702575683594,58.98344421386719,73.75610733032227,1.6898932884343406e+18,2.4453407226562502,-0.4581076248771104,0.5638581779105454,-0.2085115926916729,-1.334241522157687,-0.7004741006805043,0.3837440317208256,-1.252701764525383
2.5,1.6898932884844554e+18,2.495455517578125,-0.071114394403994,9.61024140961945,1.5813457342921198,1.689893288489467e+18,2.500466796875,-0.1429962158203125,1.962548828125,-0.0358428955078125,1.6898932884844554e+18,2.495455517578125,-1.4886781181192397,9.514282204555272,-1.8243869841882585,1.6898932884844554e+18,2.495455517578125,2.653763508796692,-1.9902323961257935,1.5913155555725098,1.689893288489467e+18,2.500466796875,2.784765672683716,-2.027364468574524,1.5031417608261108,,,,,,,,,,,,,1.6898932884844554e+18,2.495455517578125,-33.59145278930664,40.507320404052734,-3.2810928344726564,1.6898932884859694e+18,2.4969693359375,-6.057098388671875,56.94529418945312,76.61015625,1.6898932884844554e+18,2.495455517578125,0.0826217224743444,0.5435719517221497,-0.2911823229780478,-0.8800968305464331,-0.7003363582953475,0.3585824042604663,-1.3263030624289955
2.55,1.6898932885345695e+18,2.54556982421875,2.3211500433054564,0.733255004274249,-5.122769831861854,1.689893288539581e+18,2.55058095703125,0.041436767578125,1.0456329345703126,-0.606658935546875,1.6898932885345695e+18,2.54556982421875,-2.072631998659521,9.55822036428988,-0.6355245882864669,1.6898932885345695e+18,2.54556982421875,2.100489950180054,-1.3574407815933227,1.5980365037918092,1.689893288539581e+18,2.55058095703125,1.7521553218364716,-1.3518779039382935,1.6143872499465943,,,,,,,,,,,,,1.6898932885345695e+18,2.54556982421875,-35.849351501464845,38.3755744934082,-0.7030364990234375,1.6898932885379735e+18,2.548973486328125,-8.707742309570312,54.43184204101563,79.20189514160157,1.6898932885345695e+18,2.54556982421875,0.7662534258269423,0.5278470714740439,-0.3772105474670922,-0.3051586044134167,-0.6804480682695201,0.3400289123127009,-1.3456589197146775
2.6,1.689893288584684e+18,2.595683837890625,4.929486680025458,1.4691671281546357,-1.7081652328332886,1.6898932885896955e+18,2.60069560546875,0.218670654296875,1.1036163330078126,-0.1890411376953125,1.689893288584684e+18,2.595683837890625,-2.696504632612169,9.41723789305508,-0.4411694086913392,1.689893288584684e+18,2.595683837890625,-0.0784830480813979,-0.9744376182556151,0.9659533023834228,1.6898932885896955e+18,2.60069560546875,-0.1221726235002279,-0.6928348921239376,0.8676503479480744,,,,,,,,,,,,,1.689893288584684e+18,2.595683837890625,-38.22576751708984,36.05883636474609,-1.690924072265625,1.6898932885899753e+18,2.600975390625,-10.9620361328125,52.106753540039065,77.40754089355468,1.689893288584684e+18,2.595683837890625,0.9922382986807214,0.4956813944699431,-0.4219254418023485,-0.1615067829223483,-0.6778047868373729,0.3416563045143948,-1.288380617566384
2.65,1.6898932886347986e+18,2.6457984375000003,2.2431426160651444,-0.9122179543352128,1.9670379147049784,1.6898932886398098e+18,2.650809814453125,-0.0833343505859375,0.8615997314453125,0.163568115234375,1.6898932886347986e+18,2.6457984375000003,-2.866682452479899,9.369585681233406,-0.3902166867130249,1.6898932886347986e+18,2.6457984375000003,0.2061662055552005,1.447513222694397,-0.3614465117454529,1.6898932886398098e+18,2.650809814453125,0.2808863651007414,1.4557062625885009,-0.460043816268444,,,,,,,,,,,,,1.6898932886347986e+18,2.6457984375000003,-39.445404815673825,34.86392669677734,-1.8438919067382813,1.6898932886419786e+18,2.652978564453125,-11.649053955078124,51.57872924804688,78.60570983886718,1.6898932886347986e+18,2.6457984375000003,1.0044426758331089,0.4930718307609479,-0.4214371989298969,-0.1346872535140531,-0.6844900088326874,0.3326127664434374,-1.271188862041188
2.7,1.689893288684913e+18,2.69591279296875,-2.3183598280650375,0.0243196177423,-0.7419677268183976,1.689893288689924e+18,2.7009240234375,-0.5208984375,0.9672454833984376,-0.0953643798828125,1.689893288684913e+18,2.69591279296875,-2.682918064260482,9.431969247527718,-0.0193583217518438,1.689893288684913e+18,2.69591279296875,0.5792026281356811,0.4439865201711654,-0.0043145388364791,1.689893288689924e+18,2.7009240234375,0.5468238174915314,0.3677664548158645,0.1414365857839584,,,,,,,,,,,,,1.689893288684913e+18,2.69591279296875,-38.953860473632815,35.24696655273438,0.8303009033203125,1.689893288688782e+18,2.699782043457031,-11.19001007080078,51.854515075683594,80.87656021118164,1.689893288684913e+18,2.69591279296875,1.090529023515488,0.5137742922239934,-0.4157056894328483,-0.007146127642811,-0.6811551256258911,0.3150014974001445,-1.2934941678829772
2.75,1.6898932887350272e+18,2.746027099609375,-0.1837899902781844,1.0231094724977017,-2.6887902880686516,1.689893288740039e+18,2.751038720703125,-0.307794189453125,1.064703369140625,-0.2601104736328125,1.6898932887350272e+18,2.746027099609375,-2.979339226749241,9.340790379381776,0.1386061943037155,1.6898932887350272e+18,2.746027099609375,-0.0412713527679443,-0.058359407633543,1.1149511218070984,1.689893288740039e+18,2.751038720703125,-0.0838749285787343,-0.0400592122692614,1.1790193796157835,,,,,,,,,,,,,1.6898932887350272e+18,2.746027099609375,-40.27463226318359,33.559960174560544,1.1196319580078125,1.6898932887355878e+18,2.746587890625,-12.692428588867188,49.98560485839844,80.77362670898438,1.6898932887350272e+18,2.746027099609375,1.1485948396787968,0.5053161343239596,-0.4269319430329966,0.0468199896142799,-0.6852810307946109,0.3044802051734222,-1.2617153676841333
2.8,1.6898932887851418e+18,2.796141748046875,5.320730269407331,1.881463267080784,-2.63799521895051,1.689893288790153e+18,2.801153076171875,0.2320037841796875,1.123431396484375,-0.255865478515625,1.6898932887851418e+18,2.796141748046875,-3.5406711456975337,9.143326376277209,0.1230658560558594,1.6898932887851418e+18,2.796141748046875,0.1038308978080749,-0.1427954714745283,0.7964397072792053,1.689893288790153e+18,2.801153076171875,0.1216692268848418,-0.1982541874051094,0.5696030035614967,,,,,,,,,,,,,1.6898932887851418e+18,2.796141748046875,-42.62061233520508,31.079199981689452,0.2292831420898437,1.6898932887875922e+18,2.7985921874999997,-15.0138671875,47.527444458007814,79.8444610595703,1.6898932887851418e+18,2.796141748046875,1.1453732399845975,0.4826173522155083,-0.438783847243972,0.0346335534601934,-0.6985496840237593,0.2941478336489296,-1.2011323463143508
2.85,1.689893288835256e+18,2.846256103515625,5.402168547879159,3.011596359492541,-3.2612332667136195,1.6898932888402673e+18,2.8512673828125,0.172906494140625,1.2501373291015625,-0.32855224609375,1.689893288835256e+18,2.846256103515625,-3.4081575198614593,9.193534702322482,0.095560102651054,1.689893288835256e+18,2.846256103515625,-0.3646087057888508,0.2016988098621368,-1.1173117756843567,1.6898932888402673e+18,2.8512673828125,-0.4592008836567401,0.1540444219484925,-1.2090679287910462,,,,,,,,,,,,,1.689893288835256e+18,2.846256103515625,-42.7413948059082,30.906793212890623,-0.7795608520507813,1.6898932888395963e+18,2.8505965332031247,-14.630267333984374,47.92872924804688,78.4792266845703,1.689893288835256e+18,2.846256103515625,1.1489398786265324,0.4855648742241598,-0.4394033856540297,0.0277077520999903,-0.693301019890108,0.3006941721921903,-1.2156490298670088
2.9,1.6898932888853704e+18,2.8963703125,6.841094910001158,2.5737889964997764,-2.9088517905241247,1.6898932888903818e+18,2.9013819335937496,0.447161865234375,1.238861083984375,-0.3319732666015625,1.6898932888853704e+18,2.8963703125,-2.508697369516641,9.462281383683084,-0.3496865124442614,1.6898932888853704e+18,2.8963703125,-1.047520923614502,-1.2201850235462188,-2.9788386106491087,1.6898932888903818e+18,2.9013819335937496,-1.0731564283370971,-1.098538707010448,-3.1870443344116213,,,,,,,,,,,,,1.6898932888853704e+18,2.8963703125,-40.518881225585936,33.319705200195315,-4.753753662109375,1.6898932888916004e+18,2.902600341796875,-11.616314697265626,51.08341979980469,73.048974609375,1.6898932888853704e+18,2.8963703125,1.0029784421518655,0.5032366281278344,-0.4224349134529968,-0.1541484832401587,-0.6702804741931044,0.3440554632049505,-1.3079706222730727
2.95,1.689893288935485e+18,2.946484716796875,-2.976020837529301,5.490858229557872,0.1266279287983477,1.689893288940496e+18,2.951496142578125,-0.442315673828125,1.55887451171875,-0.059271240234375,1.689893288935485e+18,2.946484716796875,-0.8373136624757013,9.706217215105294,-1.0088313124591857,1.689893288935485e+18,2.946484716796875,-1.407799196243286,0.0300198286771774,-3.2363196849822997,1.689893288940496e+18,2.951496142578125,-1.4073156356811525,-0.0094180047512054,-3.0894906520843506,,,,,,,,,,,,,1.689893288935485e+18,2.946484716796875,-35.56246719360352,37.56940078735352,-11.61014404296875,1.6898932889384028e+18,2.94940283203125,-6.861774444580078,54.85382461547851,66.80949401855469,1.689893288935485e+18,2.946484716796875,0.2752827486087446,0.5397598065649675,-0.3802576967512923,-0.908896680505764,-0.6307113936331301,0.4069847394881017,-1.4283470079488183
3.0,1.6898932889855992e+18,2.9965990722656253,-4.763602757959366,3.470268698955178,2.2227620328852535,1.6898932889906102e+18,3.00161025390625,-0.4104522705078125,1.3062347412109374,0.0404876708984375,1.6898932889855992e+18,2.9965990722656253,0.4283918901019136,9.653488079958558,-1.639354826442301,1.6898932889855992e+18,2.9965990722656253,-1.1954851627349854,0.914412885904312,-2.214255619049072,1.6898932889906102e+18,3.00161025390625,-1.203089666366577,1.135833728313446,-2.170532202720642,1.689893289000357e+18,3.011357177734375,73.05108642578125,1.100000023841858,68.26110864059336,49.189254669518384,92.46108627319336,355.78125,5.2883531135023185,8.0,-122.84795776952323,0.4600000083446502,1.6898932889855992e+18,2.9965990722656253,-29.67558898925781,39.15286560058594,-19.03648910522461,1.6898932889852042e+18,2.9962040527343747,-1.4415771484375,55.79111938476562,60.14517822265625,1.6898932889855992e+18,2.9965990722656253,-0.6204795487760142,0.5635544223421479,-0.336127646291989,-1.807695993373719,-0.6041228517446788,0.4518223284787908,-1.395429763663091
3.05,1.689893289035713e+18,3.04671318359375,-1.6120515459401903,1.154474337463975,0.0325959216305613,1.6898932890407245e+18,3.051724658203125,-0.039385986328125,1.080499267578125,-0.2449066162109375,1.689893289035713e+18,3.04671318359375,1.2306252501174062,9.436396533224585,-2.3488362148714064,1.689893289035713e+18,3.04671318359375,-1.5482701301574706,1.3338042825460434,-1.651768112182617,1.6898932890407245e+18,3.051724658203125,-1.590111494064331,1.155496733263135,-1.560670018196106,,,,,,,,,,,,,1.689893289035713e+18,3.04671318359375,-23.50151252746582,37.92394256591797,-23.622606658935545,1.6898932890372073e+18,3.04820732421875,4.7768096923828125,54.37083129882812,55.77137145996094,1.689893289035713e+18,3.04671318359375,-0.9217702440721351,0.5838109163201518,-0.2786284478147572,-2.0511888332604253,-0.5994439906959423,0.4710290188789064,-1.296799952931987
3.1,1.6898932890858276e+18,3.096827685546875,-3.450647175901234,-1.45270535507977,-0.2878632359540462,1.689893289090839e+18,3.101839111328125,-0.17364501953125,0.7644989013671875,-0.3499725341796875,1.6898932890858276e+18,3.096827685546875,1.7632739638994632,9.116425392965674,-3.1430874811869858,1.6898932890858276e+18,3.096827685546875,-1.68897705078125,-0.4101337388157844,-0.9374306678771972,1.689893289090839e+18,3.101839111328125,-1.6660183906555175,-0.5328391537070274,-0.908756411075592,,,,,,,,,,,,,1.6898932890858276e+18,3.096827685546875,-16.83243885040283,34.9327880859375,-26.345104217529297,1.6898932890892083e+18,3.100208251953125,12.555099487304688,50.79214172363281,53.191064453125,1.6898932890858276e+18,3.096827685546875,-0.9680234694426452,0.5835787557780221,-0.234892891262887,-2.0816719017850844,-0.5956825074856871,0.4992257549512348,-1.1943255887626016
3.15,1.689893289135942e+18,3.146942041015625,-4.717098371772468,-2.319578906918168,2.343439265811741,1.689893289140953e+18,3.151953369140625,-0.2479095458984375,0.6536834716796875,-0.1192474365234375,1.689893289135942e+18,3.146942041015625,2.314636832793057,8.786227691533565,-3.684252050540745,1.689893289135942e+18,3.146942041015625,-1.2992417812347412,-2.2263509750366213,-0.3681713819503784,1.689893289140953e+18,3.151953369140625,-1.2395580291748047,-2.313874936103821,-0.3033000662922859,,,,,,,,,,,,,1.689893289135942e+18,3.146942041015625,-9.341936302185058,31.856270599365235,-26.26768798828125,1.68989328914121e+18,3.1522099121093747,20.44093933105469,47.776885986328125,53.76624450683594,1.689893289135942e+18,3.146942041015625,-0.9487695344102052,0.5666317587905477,-0.2224860363155611,-2.1309213126205035,-0.5765476293143889,0.5446575809483383,-1.110894880153381
3.2,1.6898932891860562e+18,3.1970560546875,-5.229422514184714,-3.7100204057866337,5.463139733931422,1.6898932891910676e+18,3.20206767578125,-0.250836181640625,0.49454345703125,0.177923583984375,1.6898932891860562e+18,3.1970560546875,2.776862071657777,8.604726630523205,-3.7959374078816177,1.6898932891860562e+18,3.1970560546875,-0.5260397404432297,-2.308958101272583,0.3281154662370681,1.6898932891910676e+18,3.20206767578125,-0.4410662412643432,-2.275098180770874,0.4242946043610572,,,,,,,,,,,,,1.6898932891860562e+18,3.1970560546875,-3.5855125427246093,30.060352325439453,-24.32287673950195,1.6898932891880095e+18,3.1990096435546875,24.90331268310547,46.49441146850586,55.87643051147461,1.6898932891860562e+18,3.1970560546875,-0.8970871279671329,0.5405437984761801,-0.2409544231706354,-2.202265258559808,-0.5479341893532792,0.5909545753806095,-1.070508844985647
3.25,1.6898932892361702e+18,3.2471704589843755,-5.070853883568049,-3.701539694593549,6.6042474586308,1.6898932892411822e+18,3.25218212890625,-0.228955078125,0.5147216796875,0.3144989013671875,1.6898932892361702e+18,3.2471704589843755,2.7600304715833066,8.700003698542117,-3.582854862980246,1.6898932892361702e+18,3.2471704589843755,0.3261227808892727,-0.8977358549833298,1.3308962225914,1.6898932892411822e+18,3.25218212890625,0.4274275474250316,-0.6433369576931,1.4193292140960694,,,,,,,,,,,,,1.6898932892361702e+18,3.2471704589843755,-1.2290878295898438,29.998470306396484,-21.22963180541992,1.689893289234809e+18,3.2458091308593753,26.599652099609376,46.652490234375,58.73325805664062,1.6898932892361702e+18,3.2471704589843755,-0.821260402282863,0.5163397352291501,-0.2762799194247587,-2.22685133119128,-0.5318242039045751,0.611622723208975,-1.0913679386362372
3.3,1.6898932892862848e+18,3.297284912109375,-0.5239283924533427,-1.477172155433893,3.813045545262098,1.689893289291296e+18,3.3022960449218752,0.197662353515625,0.8004241943359375,0.020294189453125,1.6898932892862848e+18,3.297284912109375,2.010188606549799,9.031835255560278,-3.23322964130938,1.6898932892862848e+18,3.297284912109375,1.269585168361664,1.0702605724334715,1.665822434425354,1.689893289291296e+18,3.3022960449218752,1.3322529792785645,1.1023450136184691,1.6293348312377929,,,,,,,,,,,,,1.6898932892862848e+18,3.297284912109375,-2.295233154296875,30.795022583007817,-17.368666076660155,1.6898932892868116e+18,3.2978115234375003,25.30671081542969,47.49772338867187,62.70411376953125,1.6898932892862848e+18,3.297284912109375,-0.7217651201787871,0.5091784433924822,-0.3084299268950869,-2.124231773610216,-0.5497754710125846,0.5857122618038894,-1.1715556737155175
3.35,1.689893289336399e+18,3.347399169921875,10.709614271395209,7.822777328802346,-10.478403423059284,1.6898932893414106e+18,3.3524104003906254,1.2242431640625,1.7708892822265625,-1.419879150390625,1.689893289336399e+18,3.347399169921875,1.3294492846412211,9.31452874611318,-2.761621481714845,1.689893289336399e+18,3.347399169921875,0.4993969142436981,0.3945469766855239,0.6682052910327911,1.6898932893414106e+18,3.3524104003906254,0.2804992526769637,0.3959667176008224,0.5344920426607132,,,,,,,,,,,,,1.689893289336399e+18,3.347399169921875,-3.4479278564453124,31.502324676513673,-12.633518981933594,1.689893289338814e+18,3.349814111328125,24.25849304199219,48.142880249023435,67.40459289550782,1.689893289336399e+18,3.347399169921875,-0.6506182003277635,0.5149221354388589,-0.3324478566929371,-2.018985392561171,-0.5671647411586651,0.5501042626428936,-1.2528578679696871
3.4,1.6898932893865132e+18,3.39751328125,3.251034061164856,1.2430461210775374,-5.52523618307352,1.689893289391525e+18,3.4025250976562504,0.4106475830078125,1.0479583740234375,-0.77694091796875,1.6898932893865132e+18,3.39751328125,1.2089448363853246,9.268905760483742,-2.963525629997849,1.6898932893865132e+18,3.39751328125,-0.7764319121837616,-0.0605262391269206,0.0452856391668319,1.689893289391525e+18,3.4025250976562504,-0.7192192405462265,-0.104417809844017,0.1250016443431377,,,,,,,,,,,,,1.6898932893865132e+18,3.39751328125,-3.8459259033203126,31.41719436645508,-10.45202178955078,1.689893289390816e+18,3.4018161132812503,23.621966552734374,47.980255126953125,69.68574523925781,1.6898932893865132e+18,3.39751328125,-0.5994560310798995,0.508759977800875,-0.3261536089631844,-1.9584109427357872,-0.5761712791912246,0.5502483923904846,-1.2382925863725682
3.45,1.6898932894366277e+18,3.4476278320312503,1.5474354275143147,6.20732868776977,5.657376124065518,1.6898932894416392e+18,3.452639111328125,0.3180755615234375,1.627978515625,0.27122802734375,1.6898932894366277e+18,3.4476278320312503,1.0035862660256027,9.266995192235113,-3.0449427487772702,1.6898932894366277e+18,3.4476278320312503,0.4918951064348221,-0.3987581253051758,0.2873138755559921,1.6898932894416392e+18,3.452639111328125,0.5252309739589691,-0.6132687896490097,0.1158397853374481,,,,,,,,,,,,,1.6898932894366277e+18,3.4476278320312503,-5.535977935791015,31.288368225097656,-8.649371337890624,1.6898932894428196e+18,3.4538197265625,21.810464477539064,47.855865478515625,71.66159362792969,1.6898932894366277e+18,3.4476278320312503,-0.5237216439938069,0.499301441259411,-0.3303549011811862,-1.8889714717253736,-0.5828061112300448,0.5494138653294225,-1.2376452662653634
3.5,1.689893289486742e+18,3.497742041015625,-5.9010115696886185,-0.5500283177411553,3.1322597977024316,1.6898932894917535e+18,3.502753466796875,-0.5621124267578125,0.7885772705078125,0.0428741455078125,1.689893289486742e+18,3.497742041015625,1.2146909203696996,9.31852219966352,-2.8030570109787583,1.689893289486742e+18,3.497742041015625,0.3418084517121315,0.0316853317432105,-0.1423640787601471,1.6898932894917535e+18,3.502753466796875,0.399585798382759,0.4658056795597076,-0.0299441548995674,,,,,,,,,,,,,1.689893289486742e+18,3.497742041015625,-6.0944572448730465,30.744487762451172,-7.113023376464843,1.6898932894896236e+18,3.5006234130859375,21.613170623779297,47.189353942871094,72.73662185668945,1.689893289486742e+18,3.497742041015625,-0.577791668763075,0.5014908823133352,-0.3435358355952112,-1.979756594793,-0.5657254601802821,0.5571609444060128,-1.2539842395547365
3.55,1.6898932895368563e+18,3.54785625,-5.673429550148248,-5.2802022688293455,5.428195612513423,1.689893289541868e+18,3.5528680175781253,-0.470556640625,0.48621826171875,0.2950225830078125,1.6898932895368563e+18,3.54785625,0.8503103276830538,9.440456622270345,-2.49984747429803,1.6898932895368563e+18,3.54785625,1.4641456127166748,2.5411019325256348,0.7799086719751358,1.689893289541868e+18,3.5528680175781253,1.5962433338165285,2.4750276803970337,0.8208247482776642,,,,,,,,,,,,,1.6898932895368563e+18,3.54785625,-7.277701568603516,30.268424224853515,-5.056861877441406,1.6898932895364262e+18,3.547426171875,20.334283447265623,46.869528198242186,74.91249084472656,1.6898932895368563e+18,3.54785625,-0.5739505279536993,0.5218063735757978,-0.3384816698995104,-1.8938953882169505,-0.5847973648725658,0.5202583699701616,-1.2976723964526342
3.6,1.689893289586971e+18,3.597970751953125,-4.833311435670852,2.007247467757463,0.6997180024012923,1.689893289591982e+18,3.602982080078126,-0.463922119140625,1.16448974609375,-0.1231842041015625,1.689893289586971e+18,3.597970751953125,0.4204088716701045,9.65383142811656,-1.6486896410205958,1.689893289586971e+18,3.597970751953125,1.929391074180603,-1.6150196701288224,0.4373917162418365,1.689893289591982e+18,3.602982080078126,1.8729812383651736,-2.159631872177124,0.5247720070183277,,,,,,,,,,,,,1.689893289586971e+18,3.597970751953125,-7.938737106323242,30.13173065185547,-1.22232666015625,1.6898932895884283e+18,3.599428466796875,19.810061645507812,46.73107299804688,78.74281311035156,1.689893289586971e+18,3.597970751953125,-0.5557192262511117,0.5437494294844946,-0.3608668882587086,-1.8265236548295731,-0.5898969743737482,0.475132832927981,-1.396218533460495
3.65,1.6898932896370852e+18,3.64808515625,-2.466153148358464,-2.079884833945036,-3.2220207326483723,1.689893289642096e+18,3.6530962890625,-0.2269866943359375,0.791864013671875,-0.4243408203125,1.6898932896370852e+18,3.64808515625,0.0083850852385628,9.76150082781434,-0.9007044659305364,1.6898932896370852e+18,3.64808515625,0.7988458096981048,-2.5635303020477296,1.977301263809204,1.689893289642096e+18,3.6530962890625,0.6663297712802887,-2.238106071949005,2.0779226541519167,,,,,,,,,,,,,1.6898932896370852e+18,3.64808515625,-9.037997817993164,29.67943878173828,0.3107345581054687,1.6898932896404308e+18,3.651430712890625,18.065518188476563,46.18613891601562,80.07256469726562,1.6898932896370852e+18,3.64808515625,-0.1341048497692143,0.5150771267360094,-0.4351326624651775,-1.552686271199704,-0.5566223903762318,0.4847133873330755,-1.475511348210919
3.7,1.6898932896871992e+18,3.698199072265625,1.409301638321951,1.4731340444111822,-3.1924823281183836,1.6898932896922107e+18,3.7032107421875,0.045489501953125,1.15411376953125,-0.3974822998046875,1.6898932896871992e+18,3.698199072265625,-0.9956132340132818,9.72011726254642,-0.78814738186948,1.6898932896871992e+18,3.698199072265625,-0.2504339575767517,0.5052181124687196,1.994410514831543,1.6898932896922107e+18,3.7032107421875,-0.3126174554228783,0.8350988675840199,1.9590312004089356,,,,,,,,,,,,,1.6898932896871992e+18,3.698199072265625,-12.121303749084474,29.376753997802737,0.4266098022460937,1.689893289692434e+18,3.703434033203125,14.741546630859377,45.940060424804685,80.23091430664063,1.6898932896871992e+18,3.698199072265625,0.7820459984446563,0.4766370265008518,-0.4772558922352454,-0.691989524611561,-0.5682313639268877,0.4711086524702971,-1.4399439452725662
3.75,1.6898932897373135e+18,3.748313427734375,5.602602185218185,1.180567745332718,-0.8481737467392534,1.689893289742325e+18,3.753324951171875,0.40931396484375,1.0796722412109374,-0.156011962890625,1.6898932897373135e+18,3.748313427734375,-2.013963273556828,9.559401916837691,-0.804363962624669,1.6898932897373135e+18,3.748313427734375,-0.3213008888065815,3.138455533981323,1.6100429475307465,1.689893289742325e+18,3.753324951171875,-0.2629502452909946,3.0780385017395018,1.3820869490504264,,,,,,,,,,,,,1.6898932897373135e+18,3.748313427734375,-15.175575256347656,29.006167602539065,1.2045028686523438,1.6898932897392374e+18,3.750237487792969,12.053340911865234,45.53053665161133,81.14654159545898,1.6898932897373135e+18,3.748313427734375,0.9842119332318704,0.4683057678480648,-0.468563432716185,-0.3879002454380784,-0.618699341041069,0.4214559458068498,-1.347195664877907
3.8,1.6898932897874276e+18,3.798427734375,4.212550065606534,-1.0882297702795265,-0.6053484484552591,1.6898932897924388e+18,3.803438916015625,0.1468841552734375,0.855767822265625,-0.1265899658203125,1.6898932897874276e+18,3.798427734375,-2.2642385663597286,9.520308274524808,-0.6331720849566161,1.6898932897874276e+18,3.798427734375,0.0781893298029899,-0.0811466753482818,-0.5239973843097687,1.6898932897924388e+18,3.803438916015625,0.084302894771099,-0.3857887357473373,-0.5554473698139191,,,,,,,,,,,,,1.6898932897874276e+18,3.798427734375,-15.830819511413576,29.36207504272461,2.7608734130859376,1.6898932897860416e+18,3.797041650390625,11.998541259765624,46.05072937011719,82.55931701660157,1.6898932897874276e+18,3.798427734375,1.0080028686099856,0.4831380103262392,-0.450135724595719,-0.2728926284564558,-0.6425036323192815,0.3887385866785288,-1.3286739646227648
3.85,1.689893289837542e+18,3.8485418945312504,-3.757898886031806,-0.7973284233516453,2.1137236683087792,1.689893289842553e+18,3.853553271484375,-0.6203460693359375,0.901654052734375,0.1704620361328125,1.689893289837542e+18,3.8485418945312504,-2.0871256573057173,9.56408744430542,-0.5751497241595387,1.689893289837542e+18,3.8485418945312504,0.5030433535575867,0.7218915462493897,0.2121181219816207,1.689893289842553e+18,3.853553271484375,0.5858817487955094,1.0908932715654374,0.360480422899127,,,,,,,,,,,,,1.689893289837542e+18,3.8485418945312504,-14.65349464416504,29.991773223876955,3.6732818603515622,1.6898932898380447e+18,3.8490447265625,13.146124267578124,46.63853149414062,83.50306091308593,1.689893289837542e+18,3.8485418945312504,1.031443912478846,0.4863270490920305,-0.4547374387848819,-0.269360326744132,-0.6321552112928417,0.3962491206832707,-1.347942139941673
3.9,1.6898932898876562e+18,3.898656103515625,-0.6918484672960638,0.9534379703783988,0.1388546791255986,1.689893289892668e+18,3.9036677734375,-0.2931671142578125,1.075994873046875,-0.016094970703125,1.6898932898876562e+18,3.898656103515625,-2.449852995586097,9.493811312743423,-0.0823812420848506,1.6898932898876562e+18,3.898656103515625,0.7834457516670227,0.1413723722100258,0.9929223537445068,1.689893289892668e+18,3.9036677734375,0.7480645179748535,-0.2340054631233215,1.0543272614479064,,,,,,,,,,,,,1.6898932898876562e+18,3.898656103515625,-15.1216215133667,29.84899139404297,6.276423645019531,1.6898932898900467e+18,3.901046630859375,12.549462890625,46.4267333984375,86.15766296386718,1.6898932898876562e+18,3.898656103515625,1.209752202151417,0.4956764934644614,-0.4586704315740608,-0.0358511253366978,-0.6438091221551813,0.35964628185031,-1.3178606633015533
3.95,1.6898932899377705e+18,3.948770458984375,3.2083423359078167,2.0040788914978505,-3.4760090253989397,1.689893289942782e+18,3.95378203125,0.029791259765625,1.1435150146484374,-0.3636932373046875,1.6898932899377705e+18,3.948770458984375,-3.102548608501851,9.299516119707226,0.095156941464059,1.6898932899377705e+18,3.948770458984375,0.5165064871311188,-0.7380295634269715,1.5603622436523437,1.689893289942782e+18,3.95378203125,0.4949191331863403,-0.505018512904644,1.4677393794059754,,,,,,,,,,,,,1.6898932899377705e+18,3.948770458984375,-16.78058624267578,29.072206878662108,7.150064086914062,1.6898932899420475e+18,3.95304775390625,10.279278564453126,45.36997680664062,87.12963562011718,1.6898932899377705e+18,3.948770458984375,1.3223017326146302,0.4688490182802263,-0.4912520154751257,0.030038223420698,-0.6455767943673928,0.3491362564171051,-1.2486291363732864
4.0,1.689893289987885e+18,3.998884912109375,7.180281564409434,1.720005695476532,-6.8321703128850455,1.689893289992896e+18,4.00389609375,0.3762115478515625,1.1344268798828123,-0.67032470703125,1.689893289987885e+18,3.998884912109375,-3.323402079665661,9.221286164983509,0.2681072399861178,1.689893289987885e+18,3.998884912109375,-0.2304480584338308,0.8796107664704322,-0.8129989564418793,1.689893289992896e+18,4.00389609375,-0.333690732717514,0.7838731497526169,-1.002512276172638,1.6898932900003622e+18,4.0113623046875,75.88580322265625,0.8899999856948853,75.18269257189006,49.189271768600854,95.29580307006836,269.296875,4.961290640407082,8.0,-122.84796548087417,0.4600000083446502,1.689893289987885e+18,3.998884912109375,-18.227986907958982,28.767904663085936,8.930654907226563,1.6898932899888486e+18,3.9998486328125,9.527851104736328,45.55815124511719,89.09730529785156,1.689893289987885e+18,3.998884912109375,1.3568224763068342,0.4675833793729284,-0.4951949559545596,0.0807258767962452,-0.6512913574500759,0.3344517881737023,-1.2238263036266688
4.05,1.689893290037999e+18,4.04899892578125,3.77707950422436,2.8285241036427022,-4.741178861609697,1.6898932900430106e+18,4.054010546875,0.150531005859375,1.2382781982421875,-0.4707427978515625,1.689893290037999e+18,4.04899892578125,-2.677661984976232,9.429189612133502,-0.0244196609470085,1.689893290037999e+18,4.04899892578125,-0.9732206344604492,-0.727892416715622,-1.8890604496002197,1.6898932900430106e+18,4.054010546875,-1.0268977642059327,-0.8167677998542786,-2.084212064743042,,,,,,,,,,,,,1.689893290037999e+18,4.04899892578125,-17.556855392456054,30.367298126220703,9.692185974121092,1.689893290035651e+18,4.046651025390625,10.25718994140625,47.13799133300781,89.35345153808593,1.689893290037999e+18,4.04899892578125,1.253859415397126,0.4849442563584674,-0.4720590003371931,-0.0147968570691671,-0.6431294524932877,0.3579510099672583,-1.2935950420723097
4.1,1.6898932900881134e+18,4.099113330078125,3.661341905044093,5.04190882720828,0.0060118953137099,1.6898932900931249e+18,4.104124707031249,0.173541259765625,1.53084716796875,-0.046826171875,1.6898932900881134e+18,4.099113330078125,-1.308769338575527,9.674590372315643,-0.7512968715343623,1.6898932900881134e+18,4.099113330078125,-1.6047621726989747,-0.962728351354599,-3.3903771877288817,1.6898932900931249e+18,4.104124707031249,-1.6144019603729247,-0.8092736005783081,-3.3815523624420165,,,,,,,,,,,,,1.6898932900881134e+18,4.099113330078125,-15.110419082641602,32.95195770263672,7.683747863769531,1.689893290087654e+18,4.09865390625,12.903836059570311,49.79031982421875,87.1546844482422,1.6898932900881134e+18,4.099113330078125,0.7357953219150655,0.5046805522089918,-0.4365058232841515,-0.5740793749776872,-0.6131050284219739,0.4219931027747471,-1.409015221131966
4.15,1.6898932901382277e+18,4.1492274902343755,-6.72524933501482,5.698044117636084,3.825290051355064,1.689893290143239e+18,4.15423896484375,-0.6493927001953125,1.5334075927734374,0.22109375,1.6898932901382277e+18,4.1492274902343755,0.1723193838606402,9.683564186174868,-1.4937266921326515,1.6898932901382277e+18,4.1492274902343755,-1.275745439529419,1.7473612785339356,-2.633302927017212,1.689893290143239e+18,4.15423896484375,-1.2730257511138916,1.9352166414260863,-2.5114232540130614,,,,,,,,,,,,,1.6898932901382277e+18,4.1492274902343755,-11.41382122039795,34.77581634521484,4.8575897216796875,1.6898932901396552e+18,4.15065517578125,16.625454711914063,51.50118713378906,84.37449645996094,1.6898932901382277e+18,4.1492274902343755,-0.3746435395874279,0.5373160805329309,-0.3751031547724256,-1.65859100583875,-0.5916526454251028,0.4689548677784553,-1.4136113505828003
4.2,1.6898932901883418e+18,4.199341943359375,-0.3451526209145039,0.7503000132906437,0.1887987875770032,1.6898932901933532e+18,4.204353125,0.0862518310546875,1.0474639892578126,-0.2163299560546875,1.6898932901883418e+18,4.199341943359375,1.0603904393654315,9.490419098408818,-2.2070507859167456,1.6898932901883418e+18,4.199341943359375,-1.4601245164871215,1.6608389735221862,-2.0612223863601686,1.6898932901933532e+18,4.204353125,-1.4700932264328004,1.4790589928627014,-2.0244820594787596,,,,,,,,,,,,,1.6898932901883418e+18,4.199341943359375,-8.60201301574707,35.6806282043457,2.861158752441406,1.6898932901916575e+18,4.2026577636718745,19.703448486328124,52.471630859375,81.99453735351562,1.6898932901883418e+18,4.199341943359375,-0.8367868604822226,0.5711550708138445,-0.301049593328932,-2.013199426946297,-0.5957310271885217,0.477262533344977,-1.318056473369127
4.25,1.689893290238456e+18,4.24945595703125,-4.605546051613688,-0.8370099777811765,-0.1380118725392221,1.6898932902434675e+18,4.254467529296875,-0.3031402587890625,0.8292449951171875,-0.3241607666015625,1.689893290238456e+18,4.24945595703125,1.763538898445964,9.191158503936528,-2.919084430724978,1.689893290238456e+18,4.24945595703125,-1.5282320976257324,-0.7583569332957267,-0.9398553729057312,1.6898932902434675e+18,4.254467529296875,-1.5490739345550537,-0.8520478725433349,-0.8280564665794372,,,,,,,,,,,,,1.689893290238456e+18,4.24945595703125,-6.50299301147461,36.31642990112304,-0.019970703125,1.6898932902384584e+18,4.249458435058594,21.539390563964844,53.012176513671875,79.09112548828125,1.689893290238456e+18,4.24945595703125,-0.960556012099947,0.5792654300309147,-0.2544243956339916,-2.113509253194681,-0.5876250543617461,0.5041979957470666,-1.215466837418032
4.3,1.6898932902885704e+18,4.2995703125,-4.369640791077316,-1.6420021845328807,0.7517805487850309,1.6898932902935818e+18,4.304581884765625,-0.2177337646484375,0.73770751953125,-0.2591217041015625,1.6898932902885704e+18,4.2995703125,2.22904476641655,8.864649953958988,-3.5451554222786426,1.6898932902885704e+18,4.2995703125,-1.7253198623657229,-1.8570460200309753,-0.2751405954360962,1.6898932902935818e+18,4.304581884765625,-1.711742639541626,-2.025340032577515,-0.2211441040039062,,,,,,,,,,,,,1.6898932902885704e+18,4.2995703125,-5.496418762207031,36.712580871582034,-3.5366729736328124,1.6898932902852562e+18,4.29625634765625,22.33092041015625,53.36504211425781,75.8870361328125,1.6898932902885704e+18,4.2995703125,-0.9167764591126348,0.5591565260261089,-0.2391695127914609,-2.1317999316104896,-0.5736846351309731,0.5483416172149164,-1.1294599284218427
4.35,1.689893290338685e+18,4.349684716796875,-5.824184993569851,-2.4118285022616384,5.603312993062138,1.689893290343696e+18,4.3546958984375,-0.3239990234375,0.620147705078125,0.187017822265625,1.689893290338685e+18,4.349684716796875,2.6780544914251565,8.581925834459065,-3.9157897050651904,1.689893290338685e+18,4.349684716796875,-1.1745128870010375,-2.4903174877166747,0.3241325933486223,1.689893290343696e+18,4.3546958984375,-1.0860909819602966,-2.4570509433746337,0.4112633384764194,,,,,,,,,,,,,1.689893290338685e+18,4.349684716796875,-4.795032119750976,37.18796997070312,-6.579411315917969,1.689893290337257e+18,4.348257226562501,23.000717163085938,53.85411987304688,72.9144073486328,1.689893290338685e+18,4.349684716796875,-0.827414890626714,0.5232195360654123,-0.2496910589116462,-2.1704073857407793,-0.5486538659528948,0.6020698091175152,-1.0657879044318028
4.4,1.689893290388799e+18,4.39979892578125,-5.794252679738402,-3.4665056639337535,7.831309477921724,1.6898932903938104e+18,4.40481025390625,-0.3058990478515625,0.5158935546875,0.4073760986328125,1.689893290388799e+18,4.39979892578125,2.7689695648422834,8.552987675457597,-3.916759894497692,1.689893290388799e+18,4.39979892578125,-0.1672623686492443,-1.3669107496738433,1.221117329597473,1.6898932903938104e+18,4.40481025390625,-0.0543941050767898,-1.1172176215797662,1.3173637866973875,,,,,,,,,,,,,1.689893290388799e+18,4.39979892578125,-5.376379013061523,37.81768951416016,-8.058233642578125,1.6898932903892608e+18,4.400260546875,22.24403381347656,54.479470825195314,71.60687255859375,1.689893290388799e+18,4.39979892578125,-0.7234359550178305,0.4885228899284169,-0.2793466771894456,-2.186043654361929,-0.52980031966123,0.6343844469036315,-1.0596667869277034
4.45,1.689893290438913e+18,4.4499130859375,-2.798608419459015,-3.2026644071757793,7.322137954321503,1.6898932904439247e+18,4.4549248046875,-0.0440826416015625,0.5912139892578125,0.3465545654296875,1.689893290438913e+18,4.4499130859375,2.0778935432234404,8.834156265304685,-3.7009078848829864,1.689893290438913e+18,4.4499130859375,1.109648323059082,1.167064356803894,1.833953332901001,1.6898932904439247e+18,4.4549248046875,1.2436750173568725,1.271690309047699,1.820745015144348,,,,,,,,,,,,,1.689893290438913e+18,4.4499130859375,-8.33518180847168,38.41661148071289,-6.4483642578125,1.689893290441267e+18,4.4522669921875,19.121160888671874,55.070779418945314,73.51246337890625,1.689893290438913e+18,4.4499130859375,-0.600810618127191,0.4738319690117853,-0.3115147352479996,-2.0796001435967555,-0.5448497948484249,0.6174612597184433,-1.122432923081965
4.5,1.6898932904890276e+18,4.500027587890625,10.851125384227036,6.609222090625167,-6.450174444319903,1.689893290489027e+18,4.50002734375,1.2432708740234375,1.5197029113769531,-0.8008460998535156,1.6898932904890276e+18,4.500027587890625,1.207630407398939,9.212380506376624,-3.1288467743885517,1.6898932904890276e+18,4.500027587890625,1.1110876500606537,0.7088096186518669,0.9784647703170776,1.689893290489027e+18,4.50002734375,1.2364566996693611,0.52714703977108,0.9428399726748466,,,,,,,,,,,,,1.6898932904890276e+18,4.500027587890625,-10.69070930480957,38.665408325195315,-2.985467529296875,1.6898932904880727e+18,4.49907275390625,16.70633316040039,55.341827392578125,77.55045318603516,1.6898932904890276e+18,4.500027587890625,-0.5017198720132551,0.4823091738282584,-0.3427213790341496,-1.937765718658547,-0.5664844843724726,0.5734699714182171,-1.221565802606696
4.55,1.689893290539142e+18,4.55014189453125,5.14126562420845,3.9910554908341167,-11.127737333683074,1.6898932905341302e+18,4.545130322265625,0.8074188232421875,1.5706634521484375,-1.73724365234375,1.689893290539142e+18,4.55014189453125,0.7934813194694369,9.209465495712758,-3.2705422454243895,1.689893290539142e+18,4.55014189453125,-1.0441590666770937,1.0306730623357,0.2290772460401058,1.6898932905341302e+18,4.545130322265625,-1.0086424350738523,1.2117486733943224,0.2484730273485183,,,,,,,,,,,,,1.689893290539142e+18,4.55014189453125,-12.355072593688964,38.98464279174805,-1.4184738159179688,1.689893290534878e+18,4.5458779296875,15.245474243164065,55.6347900390625,78.22492065429688,1.689893290539142e+18,4.55014189453125,-0.4296024928197699,0.4830734113172785,-0.3323960972501599,-1.8099273812786827,-0.590719815365117,0.5541518891860756,-1.2202988423386407
4.6,1.689893290589256e+18,4.600255908203126,-2.0450693073427675,2.781507734732628,4.3092744682765005,1.6898932905842447e+18,4.59524453125,-0.222381591796875,1.1014312744140624,-0.036651611328125,1.689893290589256e+18,4.600255908203126,0.5655124998750909,9.117764883328078,-3.564976910271048,1.689893290589256e+18,4.600255908203126,0.11483835875988,-0.5028101678937673,0.5578694969415665,1.6898932905842447e+18,4.59524453125,-0.0490984085248783,-0.2547522336244583,0.6547054052352905,,,,,,,,,,,,,1.689893290589256e+18,4.600255908203126,-14.476201438903807,39.10224609375,-3.124501037597656,1.6898932905868836e+18,4.59788359375,13.084149169921876,55.70260314941406,76.47090148925781,1.689893290589256e+18,4.600255908203126,-0.3527891158330368,0.4697516907648496,-0.326548485580151,-1.727979267936579,-0.6037434969371651,0.5551169291276953,-1.1937693399060465
4.65,1.6898932906393702e+18,4.6503701171875,-0.3583448854124542,5.156309347178936,3.1752364773806927,1.689893290634359e+18,4.645358935546875,0.255767822265625,1.623602294921875,-0.0079437255859375,1.6898932906393702e+18,4.6503701171875,0.8691181158947945,9.165625184942485,-3.3752121125930543,1.6898932906393702e+18,4.6503701171875,0.2446363812312483,-0.8462157189846039,-0.5066499561071396,1.689893290634359e+18,4.645358935546875,0.2689236585050821,-1.1580359414219856,-0.5759880445897579,,,,,,,,,,,,,1.6898932906393702e+18,4.6503701171875,-15.211459732055664,39.054934692382815,-4.566276550292969,1.689893290638889e+18,4.6498888671875,12.562814331054687,55.68052368164062,75.00200805664062,1.6898932906393702e+18,4.6503701171875,-0.3858380524487442,0.4660610825954783,-0.3436441242786012,-1.8228188115268575,-0.5809981269446839,0.5719050202765099,-1.2072292213210258
4.7,1.6898932906894843e+18,4.700484423828125,-6.018247196180821,-7.920420775239466,5.8233788209795945,1.6898932906844728e+18,4.695472998046875,-0.6089019775390625,0.16680908203125,0.274615478515625,1.6898932906894843e+18,4.700484423828125,0.6509560173198581,9.256834565131069,-3.162433285265565,1.6898932906894843e+18,4.700484423828125,0.9552946329116822,2.694631028175354,0.6137578219175339,1.6898932906844728e+18,4.695472998046875,0.8899290800094605,2.430344986915588,0.5231079399585724,,,,,,,,,,,,,1.6898932906894843e+18,4.700484423828125,-15.83534507751465,38.685743713378905,-4.039768981933594,1.6898932906908933e+18,4.701893505859375,11.802874755859374,55.26573181152344,75.86522827148437,1.6898932906894843e+18,4.700484423828125,-0.3883824891658095,0.4813776276399169,-0.3401027710581111,-1.7712699347705982,-0.592465892179154,0.5487434554628015,-1.234687349941143
4.75,1.689893290739599e+18,4.750599169921875,-2.8972411984205246,3.0006812315332887,3.317366072824001,1.6898932907345874e+18,4.74558740234375,-0.2720672607421875,1.1124603271484377,0.129718017578125,1.689893290739599e+18,4.750599169921875,0.0097741905496176,9.461168454005122,-2.5670529662430286,1.689893290739599e+18,4.750599169921875,1.7448045492172242,0.1623993813991546,0.184400437772274,1.6898932907345874e+18,4.74558740234375,1.6775609254837036,0.8338226795196533,0.2962706416845321,,,,,,,,,,,,,1.689893290739599e+18,4.750599169921875,-16.963787460327147,38.290802764892575,-0.5405441284179687,1.689893290742896e+18,4.753896337890625,10.883535766601565,54.94625244140625,79.74725036621093,1.689893290739599e+18,4.750599169921875,-0.302147767419563,0.5086298691276274,-0.3409054471323424,-1.5740552914264436,-0.6190231745756859,0.4916070235035329,-1.3057619287591316
4.8,1.6898932907897134e+18,4.800713330078125,-3.379955507727862,-0.5874734914207458,-1.5896223304413255,1.689893290784702e+18,4.795702099609374,-0.401824951171875,1.0199127197265625,-0.3067596435546875,1.6898932907897134e+18,4.800713330078125,0.040074457000492,9.645097151327729,-1.7600752263103423,1.6898932907897134e+18,4.800713330078125,1.3213085651397705,-2.854622030258178,1.0970544338226318,1.689893290784702e+18,4.795702099609374,1.4198314547538755,-3.0073811531066896,0.9070056587457656,,,,,,,,,,,,,1.6898932907897134e+18,4.800713330078125,-17.082157135009766,38.18847885131836,0.898388671875,1.6898932907896996e+18,4.800699645996094,10.423175811767578,54.67981719970703,80.64190292358398,1.6898932907897134e+18,4.800713330078125,-0.2078192513484786,0.5033712162986637,-0.3984103402717995,-1.5890819677894792,-0.5819993129744822,0.4985729484255951,-1.3900369369995826
4.85,1.6898932908398277e+18,4.850827685546875,1.2544285012223573,-0.9606605566561222,-2.9011912804466484,1.6898932908348165e+18,4.84581640625,0.0119140625,0.854901123046875,-0.4068695068359375,1.6898932908398277e+18,4.850827685546875,-0.6951728405588492,9.688543377439974,-1.3189780864441394,1.6898932908398277e+18,4.850827685546875,0.5219319254159928,0.0767794724553823,1.8361881256103516,1.6898932908348165e+18,4.84581640625,0.6032353281974793,-0.0690396219491959,1.9294410228729248,,,,,,,,,,,,,1.6898932908398277e+18,4.850827685546875,-19.631445693969727,37.03564910888672,1.3877273559570311,1.6898932908365036e+18,4.847503515625,7.884146118164063,53.546566772460935,81.16487121582031,1.6898932908398277e+18,4.850827685546875,0.3601991265107413,0.4766858127128932,-0.4490971573490434,-1.0920014546771324,-0.5776303143077075,0.4870501263423658,-1.415541818640915
4.9,1.689893290889942e+18,4.900942041015625,1.8055730365771057,-0.676907444821596,-2.90802659174636,1.6898932908849303e+18,4.8959304687500005,0.07364501953125,0.9239410400390624,-0.4527008056640625,1.689893290889942e+18,4.900942041015625,-1.322692737666145,9.636548869404198,-1.238790436394438,1.689893290889942e+18,4.900942041015625,-0.1978014208376407,0.837997093424201,0.946735942363739,1.6898932908849303e+18,4.8959304687500005,-0.1516354888677597,0.6546359263360501,0.9597386717796326,,,,,,,,,,,,,1.689893290889942e+18,4.900942041015625,-21.69243965148926,36.17975234985352,1.6657821655273437,1.689893290888509e+18,4.899508544921875,5.945095825195312,52.76756896972656,81.36688232421875,1.689893290889942e+18,4.900942041015625,0.6837694886678102,0.4637299846551183,-0.4619958366059443,-0.7560223681533935,-0.5949389915654502,0.4663393630587985,-1.384663592648557
4.95,1.6898932909400563e+18,4.951056396484375,1.634423565972149,0.3052064680385589,-0.8162185049389302,1.6898932909350446e+18,4.946044775390625,0.0031982421875,0.9976287841796876,-0.256988525390625,1.6898932909400563e+18,4.951056396484375,-1.7891188622868062,9.558844399859307,-1.259793520773798,1.6898932909400563e+18,4.951056396484375,-0.259984540939331,1.4393044352531432,0.5835474967956543,1.6898932909350446e+18,4.946044775390625,-0.2893166631460189,1.5616380095481872,0.5985141277313233,,,,,,,,,,,,,1.6898932909400563e+18,4.951056396484375,-22.262732315063477,36.246832275390624,2.2792984008789063,1.6898932909405135e+18,4.9515134765625,5.4687957763671875,52.89259643554688,82.04346313476563,1.6898932909400563e+18,4.951056396484375,0.7536753466373138,0.465276730626228,-0.4495956160370716,-0.6145368158004805,-0.6237070876308272,0.4384527824658436,-1.3456797599250483
5.0,1.6898932909901704e+18,5.001170361328126,0.381467256194204,-0.689524349810481,2.5140536943049727,1.6898932909851592e+18,4.9961591796875,-0.1672576904296875,0.902459716796875,0.098541259765625,1.6898932909901704e+18,5.001170361328126,-2.191214275907278,9.48480347971022,-1.1761138200507313,1.6898932909901704e+18,5.001170361328126,0.297103925421834,0.7615086436271667,0.926135230064392,1.6898932909851592e+18,4.9961591796875,0.226379558444023,0.7337934494018554,0.8884968042373658,1.6898932910003674e+18,5.011367431640625,72.89312744140625,1.059999942779541,81.23070213853129,49.18928467673174,92.30312728881836,209.8828125,4.70687856412809,8.0,-122.8479664028835,0.4600000083446502,1.6898932909901704e+18,5.001170361328126,-22.888050842285157,36.310839080810545,2.8842422485351564,1.689893290992517e+18,5.00351708984375,4.7881591796875,52.89619750976563,82.65345764160156,1.6898932909901704e+18,5.001170361328126,0.8294346080028105,0.4640322412916601,-0.4462605781542881,-0.4944343562868652,-0.6423007788171106,0.4158095511752687,-1.3140776175036926
5.05,1.6898932910402847e+18,5.051284765625001,1.2625286448261142,0.2960128739488125,1.992213257880732,1.6898932910352737e+18,5.04627333984375,-0.1648162841796875,0.9819732666015624,0.1710418701171875,1.6898932910402847e+18,5.051284765625001,-2.6987504241645333,9.39523590460539,-0.7584813762109727,1.6898932910402847e+18,5.051284765625001,0.9464991450309752,0.5539641380310059,0.963908302783966,1.6898932910352737e+18,5.04627333984375,0.918096661567688,0.6884757202118635,0.9678327322006226,,,,,,,,,,,,,1.6898932910402847e+18,5.051284765625001,-23.60342483520508,35.670570373535156,4.257133483886719,1.6898932910393208e+18,5.050320861816406,3.993095397949219,52.12413024902344,84.38206100463867,1.6898932910402847e+18,5.051284765625001,1.0128985053957578,0.4640855977500341,-0.4572996987145229,-0.2759870821471072,-0.6545570133521921,0.3833330720267239,-1.28025188213762
5.1,1.689893291090399e+18,5.101399072265624,3.177996122126281,1.2923045990520714,-3.2092974446755647,1.6898932910853875e+18,5.096387548828124,-0.0207550048828125,1.074298095703125,-0.299066162109375,1.689893291090399e+18,5.101399072265624,-3.163181999354064,9.274534589377046,-0.3531548205691203,1.689893291090399e+18,5.101399072265624,0.7473169922828674,-0.4845305263996124,0.897742223739624,1.6898932910853875e+18,5.096387548828124,0.7923589706420898,-0.4602685868740082,0.9674931049346924,,,,,,,,,,,,,1.689893291090399e+18,5.101399072265624,-24.437958908081058,34.55886383056641,5.8397705078125,1.6898932910861263e+18,5.097126318359375,3.2415985107421874,51.117733764648435,85.6126953125,1.689893291090399e+18,5.101399072265624,1.189709416346039,0.4550410878806454,-0.4824198439372432,-0.1122197575000864,-0.6545911851746478,0.3628091662239018,-1.2400851224001386
5.15,1.6898932911405133e+18,5.15151337890625,2.875841968943477,0.6984777054035664,-6.598018091948032,1.6898932911355018e+18,5.146501708984375,-0.0150177001953125,1.0007965087890625,-0.6657440185546875,1.6898932911405133e+18,5.15151337890625,-3.3178114785039425,9.22659549421191,-0.1772132605026848,1.6898932911405133e+18,5.15151337890625,0.0251259639859199,0.3732548862695694,-0.0951055347919464,1.6898932911355018e+18,5.146501708984375,0.1216168172657489,0.2933126231655478,-0.056573049724102,,,,,,,,,,,,,1.6898932911405133e+18,5.15151337890625,-24.553782272338868,34.5952033996582,6.729255676269531,1.6898932911381312e+18,5.149131005859376,3.273583984375,51.2544677734375,86.53809814453125,1.6898932911405133e+18,5.15151337890625,1.2597993245989632,0.4516105020394784,-0.494164373270739,-0.0533214496329234,-0.651888176919074,0.356199641423147,-1.225138436549765
5.2,1.6898932911906273e+18,5.201627392578125,5.2270357944047445,3.56427513329029,-4.055621603412329,1.689893291185616e+18,5.19661611328125,0.0586212158203125,1.28624267578125,-0.5006103515625,1.6898932911906273e+18,5.201627392578125,-3.2038454336538913,9.261403188220855,-0.333428711936064,1.6898932911906273e+18,5.201627392578125,-0.8160589456558227,0.0365765690803528,-0.7622469514608383,1.689893291185616e+18,5.19661611328125,-0.7554278016090393,0.0709681298583746,-0.5327630802989006,,,,,,,,,,,,,1.6898932911906273e+18,5.201627392578125,-22.810362243652342,35.586918640136716,7.664657592773437,1.6898932911901368e+18,5.20113681640625,5.10684814453125,52.32215270996094,87.40027465820313,1.6898932911906273e+18,5.201627392578125,1.191265415660835,0.4551577122913861,-0.4817634432242245,-0.1045560384790291,-0.6566759460047968,0.3597964033412613,-1.2358681454794906
5.25,1.6898932912407416e+18,5.251741748046875,6.433450279368758,3.701482762161493,-2.1791438112069663,1.6898932912357304e+18,5.246730419921875,0.6153350830078125,1.3030731201171877,-0.3164215087890625,1.6898932912407416e+18,5.251741748046875,-2.093271320453882,9.52384802218437,-0.8852545002467185,1.6898932912407416e+18,5.251741748046875,-1.534041953086853,-0.7618334755301476,-3.4335865497589113,1.6898932912357304e+18,5.246730419921875,-1.4388396739959717,-0.5618381500244141,-3.3770021915435793,,,,,,,,,,,,,1.6898932912407416e+18,5.251741748046875,-18.101694107055664,38.492950439453125,7.508866882324218,1.6898932912421425e+18,5.2531424804687505,10.145474243164063,55.37588806152344,87.167919921875,1.6898932912407416e+18,5.251741748046875,0.8651805252379301,0.4802663819895163,-0.4429274914767925,-0.4275237183528813,-0.6404988239703735,0.4026589345553654,-1.3329274923468262
5.3,1.6898932912908562e+18,5.301856201171875,-5.289821979376674,7.202735563636422,3.369135481480062,1.6898932912858445e+18,5.2968445312500005,-0.5549652099609375,1.6932525634765625,0.0740570068359375,1.6898932912908562e+18,5.301856201171875,-0.5639713138414406,9.62529974563718,-1.7412279024992885,1.6898932912908562e+18,5.301856201171875,-1.4368202686309814,0.4112193405628204,-2.7742448806762696,1.6898932912858445e+18,5.2968445312500005,-1.5054393053054809,-0.0208704382181167,-2.808079957962036,,,,,,,,,,,,,1.6898932912908562e+18,5.301856201171875,-13.898566818237304,40.71717987060547,6.186769104003906,1.6898932912889462e+18,5.2999462890625,14.190044403076172,57.54692459106445,85.78736114501953,1.6898932912908562e+18,5.301856201171875,0.0653734959586778,0.5022935430399195,-0.3929121036388067,-1.250246143065714,-0.6116074005744891,0.4676931333179372,-1.378300485052908
5.35,1.6898932913409705e+18,5.351970263671875,-1.0793297230827807,1.9508847107356784,2.855317008856833,1.6898932913359588e+18,5.3469587890625,-0.1895355224609375,1.2571746826171877,0.1063140869140625,1.6898932913409705e+18,5.351970263671875,0.4420834018240403,9.494058331694006,-2.3963186815363167,1.6898932913409705e+18,5.351970263671875,-1.4020164966583253,2.3709740161895754,-2.2986590385437013,1.6898932913359588e+18,5.3469587890625,-1.3785131454467774,2.436553382873535,-2.318029594421387,,,,,,,,,,,,,1.6898932913409705e+18,5.351970263671875,-10.850489616394045,41.78383560180664,6.056172180175781,1.6898932913357517e+18,5.346751611328125,17.138653564453126,58.459835815429685,85.74728393554688,1.6898932913409705e+18,5.351970263671875,-0.5383800103329232,0.5413563226466904,-0.3173698156041483,-1.7457421728638,-0.6133593119846816,0.4789193421776639,-1.3188562538010271
5.4,1.6898932913910843e+18,5.402084374999999,-3.0771292128241066,1.0384550425720214,1.33927198502779,1.689893291386073e+18,5.39707314453125,-0.122039794921875,1.0812896728515624,-0.1355224609375,1.6898932913910843e+18,5.402084374999999,1.2153379276493936,9.220519038455487,-3.098890319803058,1.6898932913910843e+18,5.402084374999999,-1.3526622295379638,0.1118109047412872,-1.4939297676086425,1.689893291386073e+18,5.39707314453125,-1.3490174770355223,0.3915997385978699,-1.6287583708763125,,,,,,,,,,,,,1.6898932913910843e+18,5.402084374999999,-9.323867797851562,41.96301803588867,5.134585571289063,1.689893291387758e+18,5.398758154296875,18.43577880859375,58.57487182617187,84.71853942871094,1.6898932913910843e+18,5.402084374999999,-0.8211973862248628,0.5673066152349613,-0.2504727885973571,-1.9420980631545668,-0.6125032721518722,0.4899526973886043,-1.2241468135617168
5.45,1.6898932914411986e+18,5.452198779296874,-3.9048199827614423,-2.424263036420941,-0.4845688219067455,1.6898932914361871e+18,5.447187353515625,-0.2167633056640625,0.6811920166015625,-0.43995361328125,1.6898932914411986e+18,5.452198779296874,1.8032794019080696,8.90808963342607,-3.675176939038038,1.6898932914411986e+18,5.452198779296874,-1.3675773859024047,-0.6881170853972435,-0.9616818189620971,1.6898932914361871e+18,5.447187353515625,-1.3773728370666505,-0.5691624268889427,-1.0006067514419557,,,,,,,,,,,,,1.6898932914411986e+18,5.452198779296874,-10.260977935791017,41.81552734375,2.214556884765625,1.6898932914397624e+18,5.450762451171874,17.412228393554688,58.421453857421874,81.62232055664063,1.6898932914411986e+18,5.452198779296874,-0.8873423819597102,0.564653327614556,-0.2222088411516504,-2.0260854984606698,-0.5988421930811837,0.5225093348974983,-1.139971534467047
5.5,1.689893291491313e+18,5.502312939453125,-4.7124164098882675,-2.544303374296427,3.6239081733804936,1.6898932914863017e+18,5.497301611328124,-0.2260101318359375,0.640252685546875,-0.112408447265625,1.689893291491313e+18,5.502312939453125,2.3730422307844456,8.592535491278767,-4.08347500669092,1.689893291491313e+18,5.502312939453125,-1.1538764715194705,-2.0694294452667235,-0.2051064983010292,1.6898932914863017e+18,5.497301611328124,-1.2054019927978517,-2.049943375587463,-0.2850866474211216,,,,,,,,,,,,,1.689893291491313e+18,5.502312939453125,-11.281278610229492,41.37481002807617,-2.375811767578125,1.6898932914917668e+18,5.502766845703126,16.400302124023437,57.93453674316406,76.93538208007813,1.689893291491313e+18,5.502312939453125,-0.8793066603728381,0.5472912048000487,-0.2162903615053853,-2.0966666860764556,-0.5763377673370447,0.5667771735899608,-1.0681390249886875
5.55,1.6898932915414277e+18,5.5524273925781245,-5.419378216711879,-3.2573272576379773,6.610276685018539,1.6898932915364155e+18,5.5474157226562495,-0.2778778076171875,0.5337554931640625,0.2234954833984375,1.6898932915414277e+18,5.5524273925781245,2.668290813136399,8.45911918828845,-4.182466302153467,1.6898932915414277e+18,5.5524273925781245,-0.4436198726296425,-1.683182692527771,0.7824199616909027,1.6898932915364155e+18,5.5474157226562495,-0.5255740284919739,-1.7754411697387695,0.6804818570613861,,,,,,,,,,,,,1.6898932915414277e+18,5.5524273925781245,-12.186123847961426,40.3443099975586,-6.496464538574219,1.6898932915385718e+18,5.549571838378906,15.610469818115234,57.02167892456055,73.15338516235352,1.6898932915414277e+18,5.5524273925781245,-0.8138569353123692,0.5205275419991058,-0.2351306194942777,-2.138660319198914,-0.5555088152774117,0.6041368694404176,-1.040371743790847
5.6,1.6898932915915412e+18,5.60254130859375,-4.108106408409178,-3.4740085869097705,7.309879945772886,1.68989329158653e+18,5.59753017578125,-0.222247314453125,0.5185943603515625,0.3410308837890625,1.6898932915915412e+18,5.60254130859375,2.3095521645529566,8.631477625517844,-4.033983362934589,1.6898932915915412e+18,5.60254130859375,0.6490134507417679,0.1494189143180847,1.6541809797286988,1.68989329158653e+18,5.59753017578125,0.5281885828822851,-0.0655365511775016,1.6030814170837402,,,,,,,,,,,,,1.6898932915915412e+18,5.60254130859375,-13.598359298706054,39.38054656982422,-7.422694396972656,1.6898932915853773e+18,5.59637724609375,13.978872680664065,55.894378662109375,72.29656066894532,1.6898932915915412e+18,5.60254130859375,-0.7074813635761091,0.498898023633047,-0.2666202142711021,-2.0895607775459166,-0.5577121266896852,0.6072904644649769,-1.0765832216713762
5.65,1.6898932916416558e+18,5.652655810546875,5.943241610331088,1.6571227136796711,0.3081750793597102,1.6898932916366444e+18,5.647644287109375,0.4992645263671875,0.9154144287109376,-0.1165496826171875,1.6898932916416558e+18,5.652655810546875,1.4789631305038928,9.011440117785334,-3.562433655529022,1.6898932916416558e+18,5.652655810546875,1.539680576324463,0.6607756227254867,1.1547121107578278,1.6898932916366444e+18,5.647644287109375,1.5609893321990966,0.7588488698005676,1.3018972396850583,,,,,,,,,,,,,1.6898932916416558e+18,5.652655810546875,-16.142100524902343,38.1336181640625,-4.8190673828125,1.6898932916373806e+18,5.64838076171875,11.443560791015624,54.66486511230469,75.18326110839844,1.6898932916416558e+18,5.652655810546875,-0.6056829536947415,0.4992708183657567,-0.2984117768825797,-1.962654345172195,-0.5791743121909929,0.5709672699442108,-1.1662286847709549
5.7,1.68989329169177e+18,5.702769970703125,8.592188635989427,6.934266880886554,-13.84885244212985,1.689893291686759e+18,5.697758544921875,1.1316680908203125,1.7654022216796874,-1.7392333984375,1.68989329169177e+18,5.702769970703125,1.1032806828692556,9.167308257271646,-3.3014427028617264,1.68989329169177e+18,5.702769970703125,-0.4557824492454528,0.9416812479496002,0.1662748374044894,1.689893291686759e+18,5.697758544921875,-0.2414758399128914,0.9260425835847854,0.2139500007033347,,,,,,,,,,,,,1.68989329169177e+18,5.702769970703125,-17.21148338317871,37.14445037841797,-2.748799133300781,1.689893291689388e+18,5.700388134765626,10.483074951171876,53.68105773925781,76.97557678222657,1.68989329169177e+18,5.702769970703125,-0.5671618948797018,0.5053719475592229,-0.3079181396855427,-1.8937161110817633,-0.5906502700717646,0.548486684525696,-1.2077578558322215
5.75,1.6898932917418842e+18,5.75288427734375,-1.5376072764611242,0.8946384585028888,0.9686568161070348,1.6898932917368727e+18,5.74787275390625,0.094354248046875,0.9407440185546876,-0.496551513671875,1.6898932917418842e+18,5.75288427734375,0.8881500024925172,9.04797261898637,-3.6736259686559434,1.6898932917418842e+18,5.75288427734375,-0.458401533961296,0.5084023714065552,0.6315206751227379,1.6898932917368727e+18,5.74787275390625,-0.6139839082956315,0.4854862749576568,0.5005427226424217,,,,,,,,,,,,,1.6898932917418842e+18,5.75288427734375,-17.854576110839844,36.14569320678711,-4.434806823730469,1.689893291741395e+18,5.75239482421875,9.816598510742187,52.68193359375,75.11145935058593,1.6898932917418842e+18,5.75288427734375,-0.51105985921574,0.4969094198627021,-0.2914298599459924,-1.808331379043017,-0.6080726396095567,0.5462077246002258,-1.1749048465238616
5.8,1.6898932917919985e+18,5.802998388671875,2.7711334064257143,6.5811093934363125,4.1237358223131295,1.689893291786987e+18,5.797987109375,0.424029541015625,1.6205230712890626,0.118731689453125,1.6898932917919985e+18,5.802998388671875,0.7854232979743554,9.092681529284716,-3.583065290860534,1.6898932917919985e+18,5.802998388671875,0.377492132782936,-1.328779713064432,-0.4136062741279602,1.689893291786987e+18,5.797987109375,0.4103406086564064,-1.193573260307312,-0.299202761054039,,,,,,,,,,,,,1.6898932917919985e+18,5.802998388671875,-18.461305236816408,34.99252090454102,-5.604330444335938,1.6898932917882012e+18,5.799201232910156,9.138416290283203,51.59730911254883,74.20714569091797,1.6898932917919985e+18,5.802998388671875,-0.4730387209251502,0.4920672722652542,-0.3019770793384553,-1.7869128738653337,-0.6071563168007297,0.5457588938120405,-1.1868722191949113
5.85,1.6898932918421125e+18,5.853112548828125,-6.185773975470066,-4.513105317612291,5.130731195355951,1.6898932918371013e+18,5.84810126953125,-0.61129150390625,0.629876708984375,0.1074554443359375,1.6898932918421125e+18,5.853112548828125,0.9264312908961624,9.151871969400048,-3.3969100912079213,1.6898932918421125e+18,5.853112548828125,0.6524445593357087,1.2084845688194037,0.3035643994808196,1.6898932918371013e+18,5.84810126953125,0.5664070636034012,0.8974911153316498,0.2709065452218056,,,,,,,,,,,,,1.6898932918421125e+18,5.853112548828125,-17.944207763671876,34.38502044677735,-6.751945495605469,1.6898932918350057e+18,5.846005810546875,9.845123291015623,51.011087036132814,73.00922241210938,1.6898932918421125e+18,5.853112548828125,-0.5053674877167922,0.4965876267568399,-0.3102890469116056,-1.8364491455190524,-0.5970471777244626,0.5482233452536699,-1.2034432476923036
5.9,1.6898932918922268e+18,5.903226904296875,-3.211096719956398,-0.4033261829113961,4.775142330653369,1.6898932918872154e+18,5.8982152832031245,-0.282171630859375,0.711968994140625,0.228228759765625,1.6898932918922268e+18,5.903226904296875,0.3944982474495283,9.335493909634948,-2.9657542950588462,1.6898932918922268e+18,5.903226904296875,1.5109896183013916,2.3840542316436766,0.3453508496284485,1.6898932918872154e+18,5.8982152832031245,1.4333478450775146,2.5657104015350343,0.4005925923585892,,,,,,,,,,,,,1.6898932918922268e+18,5.903226904296875,-18.238628387451172,33.66352157592773,-3.980032348632813,1.6898932918870118e+18,5.8980119140625,9.4896484375,50.21803283691406,76.0796142578125,1.6898932918922268e+18,5.903226904296875,-0.4783743984715021,0.5217656529518047,-0.3035959218629361,-1.6998830154048927,-0.6226226601816883,0.4974715792004815,-1.2603415620000622
5.95,1.689893291942341e+18,5.953341113281249,-4.390532363293171,1.2087982821345329,-0.4620335449109971,1.6898932919373297e+18,5.948329736328125,-0.4093505859375,1.2048095703125,-0.2130706787109375,1.689893291942341e+18,5.953341113281249,0.27382210319506,9.56169628215909,-2.145132294463962,1.689893291942341e+18,5.953341113281249,1.7448222398757935,-2.2517122864723205,0.3376383751630782,1.6898932919373297e+18,5.948329736328125,1.7832453727722168,-1.8458678126335144,0.1967155050486326,,,,,,,,,,,,,1.689893291942341e+18,5.953341113281249,-17.901039123535156,33.20990676879883,-0.6262237548828125,1.6898932919390193e+18,5.95001923828125,9.8974609375,49.78657836914063,79.2127471923828,1.689893291942341e+18,5.953341113281249,-0.4912523603144067,0.5419425182731221,-0.329753664176069,-1.7009746577119678,-0.6138669359550429,0.4692962168265294,-1.3482729046792843
6.0,1.6898932919924552e+18,6.0034552734375,-1.1455830580955744,-2.201600528460741,-2.4839590295186635,1.689893291987444e+18,5.998443994140625,-0.1851837158203125,0.754376220703125,-0.39864501953125,1.6898932919924552e+18,6.0034552734375,-0.0977556737266248,9.69293711158037,-1.458931828379184,1.6898932919924552e+18,6.0034552734375,0.8836692094802856,-1.021920982375741,1.9013254165649416,1.689893291987444e+18,5.998443994140625,0.978295922279358,-1.3803051590919495,1.824921822547913,1.689893292000373e+18,6.011373046875,71.78607177734375,0.8399999737739563,91.89831015031064,49.18929611802957,91.19607162475586,194.765625,4.362508057698503,8.0,-122.84796833072124,0.2000000029802322,1.6898932919924552e+18,6.0034552734375,-19.032171630859377,32.078469848632814,-0.391864013671875,1.6898932919910287e+18,6.0020286621093755,8.5419677734375,48.562835693359375,79.333984375,1.6898932919924552e+18,6.0034552734375,-0.1630446214612805,0.5196308124434778,-0.3956276297377662,-1.492650505779029,-0.590132604391934,0.474244679942096,-1.418741404894286
6.05,1.6898932920425697e+18,6.053569580078125,1.7555292826698718,-0.744926152845621,-2.8476994026860596,1.6898932920375583e+18,6.0485583007812505,0.0992706298828125,0.9187530517578124,-0.4185821533203125,1.6898932920425697e+18,6.053569580078125,-0.899961187895611,9.690262339413165,-1.198740720852688,1.6898932920425697e+18,6.053569580078125,0.1891054712235927,0.1837676741182804,1.1139240741729737,1.6898932920375583e+18,6.0485583007812505,0.2497437310405075,0.2060625199927017,1.2157122015953064,,,,,,,,,,,,,1.6898932920425697e+18,6.053569580078125,-21.165071105957033,30.48008804321289,0.5884902954101563,1.6898932920430351e+18,6.054035107421875,6.462258911132812,47.01326293945313,80.35712890625,1.6898932920425697e+18,6.053569580078125,0.4067915181087758,0.5007625467939298,-0.4232375942920426,-0.9305872940573912,-0.6055813055912747,0.4509101312211708,-1.416719446945056
6.1,1.6898932920926838e+18,6.103683837890625,0.004228811289221,-0.0544904165047407,-1.7379798020365833,1.6898932920876723e+18,6.098672314453125,-0.129180908203125,0.934381103515625,-0.2996612548828125,1.6898932920926838e+18,6.103683837890625,-1.4367994623219966,9.633003744143249,-1.130513104705289,1.6898932920926838e+18,6.103683837890625,-0.1014295294880866,2.1391545057296755,1.0502872228622435,1.6898932920876723e+18,6.098672314453125,-0.0924539811909198,1.956865119934082,1.0243361353874207,,,,,,,,,,,,,1.6898932920926838e+18,6.103683837890625,-22.038219833374026,29.772441101074214,1.899041748046875,1.6898932920898406e+18,6.100840759277344,5.688194274902344,46.41128158569336,81.50144958496094,1.6898932920926838e+18,6.103683837890625,0.6194750176412128,0.4960004667359167,-0.4219711625935204,-0.671473248695293,-0.6285272154876476,0.4249128513784311,-1.382729824362962
6.15,1.689893292142798e+18,6.153798046875,1.5966335536037384,0.24598294398427,0.2071734523750096,1.6898932921377866e+18,6.1487865234375,-0.0738037109375,1.029254150390625,-0.13692626953125,1.689893292142798e+18,6.153798046875,-2.1246147578053174,9.519306754719018,-0.9982176662775876,1.689893292142798e+18,6.153798046875,0.1387945406138896,0.729245389252901,1.4007758140563964,1.6898932921377866e+18,6.1487865234375,0.0865327641367912,0.9717997550964356,1.3792134046554565,,,,,,,,,,,,,1.689893292142798e+18,6.153798046875,-22.76076469421387,29.094898223876953,3.587921142578125,1.689893292136647e+18,6.147646630859375,4.891226196289063,45.62608947753906,83.42796325683594,1.689893292142798e+18,6.153798046875,0.7630318393452826,0.4940045806900787,-0.411880453896239,-0.4427723348375639,-0.6622931827322467,0.3841288672665056,-1.3287270804286395
6.2,1.689893292192912e+18,6.2039122558593744,2.88513376271069,0.6524704550838469,1.4853193822758644,1.689893292187901e+18,6.19890087890625,0.00960693359375,0.9940093994140624,0.0888153076171875,1.689893292192912e+18,6.2039122558593744,-2.7675485336762664,9.373967491127251,-0.7797479192190616,1.689893292192912e+18,6.2039122558593744,0.778512179851532,-0.4252686083316803,1.1671807289123537,1.689893292187901e+18,6.19890087890625,0.7376605212688446,-0.3916321218013763,1.2266649842262267,,,,,,,,,,,,,1.689893292192912e+18,6.2039122558593744,-24.289030838012696,27.43958511352539,4.261094665527343,1.689893292188652e+18,6.199652099609375,3.3671295166015627,43.91111755371094,83.98983154296874,1.689893292192912e+18,6.2039122558593744,0.9367336837478002,0.4754263715221979,-0.4328106233015532,-0.2764735169403973,-0.6735798194845722,0.3644489383538958,-1.2729060361728752
6.25,1.6898932922430264e+18,6.254026416015625,3.0564224079775806,1.20806505787611,-2.0865323310550674,1.6898932922380152e+18,6.249015185546876,-0.0046417236328125,1.066748046875,-0.2103179931640625,1.6898932922430264e+18,6.254026416015625,-3.154644355728924,9.273001388460395,-0.4672428697505965,1.6898932922430264e+18,6.254026416015625,0.6223755180835724,0.0411022529006004,0.4840812936425209,1.6898932922380152e+18,6.249015185546876,0.6627167701721192,-0.0293485693633556,0.570393443107605,,,,,,,,,,,,,1.6898932922430264e+18,6.254026416015625,-25.262448501586913,25.826016998291017,4.68121337890625,1.689893292240658e+18,6.251657763671875,2.4157623291015624,42.33351135253906,84.43746337890624,1.6898932922430264e+18,6.254026416015625,1.0867380982605923,0.4648521769524002,-0.4564004457554985,-0.1475258060142335,-0.6726987015411665,0.3507915571738163,-1.2394311945457308
6.3,1.689893292293141e+18,6.3041407714843745,1.9048940023854375,1.1591026986908912,-4.670373679285348,1.6898932922881293e+18,6.299129296875,-0.1052825927734375,1.074920654296875,-0.4655548095703125,1.689893292293141e+18,6.3041407714843745,-3.1809136462342735,9.2738104836601,-0.2090091177967376,1.689893292293141e+18,6.3041407714843745,0.2990570962429046,0.3537348002195358,-0.2487918123602867,1.6898932922881293e+18,6.299129296875,0.3381211102008819,0.3834107726812362,-0.2289303880184889,,,,,,,,,,,,,1.689893292293141e+18,6.3041407714843745,-24.84508171081543,25.328085327148436,5.362942504882812,1.689893292292664e+18,6.303664111328125,2.99869384765625,41.935305786132815,85.11021118164062,1.689893292293141e+18,6.3041407714843745,1.1582993132711077,0.4713435966418559,-0.4611256799691179,-0.0653941271152969,-0.670479830034421,0.3400574491393134,-1.2396634659316068
6.35,1.689893292343255e+18,6.354255175781249,2.0387173079675436,2.027229933078289,-5.058257203036546,1.6898932923382436e+18,6.349243505859375,-0.149896240234375,1.1155303955078124,-0.5552978515625,1.689893292343255e+18,6.354255175781249,-3.110212274997532,9.298570714002846,-0.1764551173454522,1.689893292343255e+18,6.354255175781249,-0.3224973019212483,-0.061384854838252,-0.0510525453835725,1.6898932923382436e+18,6.349243505859375,-0.2451571322977543,-0.0428356178104877,-0.0417753021232783,,,,,,,,,,,,,1.689893292343255e+18,6.354255175781249,-24.0154483795166,25.222867584228517,5.093600463867188,1.6898932923394703e+18,6.3504704589843755,3.7668685913085938,41.83720397949219,84.88357925415039,1.689893292343255e+18,6.354255175781249,1.1602275692641817,0.4757331196158015,-0.4585635821285301,-0.0566780929330511,-0.6695475072279045,0.3392599250703331,-1.2474905668041398
6.4,1.689893292393369e+18,6.404369287109375,10.446295226493476,2.475889763283729,-2.640245072930008,1.6898932923883576e+18,6.399357763671875,0.7470977783203125,1.2051910400390624,-0.35106201171875,1.689893292393369e+18,6.404369287109375,-2.579607268937528,9.439304062008262,-0.4779630523531138,1.689893292393369e+18,6.404369287109375,-1.0225658297538758,0.1296907752752304,-2.750056278705597,1.6898932923883576e+18,6.399357763671875,-0.9476493954658508,0.1820413842797279,-2.4217719614505766,,,,,,,,,,,,,1.689893292393369e+18,6.404369287109375,-22.53269691467285,26.007759857177735,3.714710998535156,1.689893292386276e+18,6.397276123046875,5.274710083007813,42.66996765136719,83.35437927246093,1.689893292393369e+18,6.404369287109375,1.0099638679696628,0.489958298081524,-0.4357817443549233,-0.1947708072055966,-0.6643811701312192,0.3579512949198361,-1.298883323874827
6.45,1.6898932924434834e+18,6.454483349609374,-1.622667135657072,5.458632251831292,0.2421884909112751,1.6898932924384722e+18,6.4494720703125,-0.07230224609375,1.5019256591796877,-0.158251953125,1.6898932924434834e+18,6.454483349609374,-0.9830023130672424,9.671405078729986,-1.18511500414744,1.6898932924434834e+18,6.454483349609374,-1.5654016733169551,-1.2114399075508118,-3.132423496246338,1.6898932924384722e+18,6.4494720703125,-1.580544662475586,-1.244666087627411,-3.18127965927124,,,,,,,,,,,,,1.6898932924434834e+18,6.454483349609374,-17.35590515136719,28.14532165527344,0.0238784790039061,1.6898932924382822e+18,6.4492822265625,10.859210205078124,44.90208435058594,79.33489990234375,1.6898932924434834e+18,6.454483349609374,0.3295866071156964,0.5222979653243254,-0.3909536137739303,-0.8971280367613907,-0.6300955326357659,0.4202546870802874,-1.4049204320993791
6.5,1.6898932924935974e+18,6.504597460937499,-5.941327622629403,4.258828008013367,3.0497282294881343,1.6898932924885865e+18,6.499586279296875,-0.678472900390625,1.4967498779296875,0.1452728271484375,1.6898932924935974e+18,6.504597460937499,0.3408409646072051,9.609735213662985,-1.896740564998388,1.6898932924935974e+18,6.504597460937499,-1.3559293746948242,1.9768528938293457,-2.3418122291564942,1.6898932924885865e+18,6.499586279296875,-1.3288314580917358,1.6974369257688522,-2.4439636707305907,,,,,,,,,,,,,1.6898932924935974e+18,6.504597460937499,-11.497290420532227,28.840351867675786,-3.9371597290039064,1.6898932924902863e+18,6.5012863281249995,16.67454833984375,45.47489013671875,75.54965515136719,1.6898932924935974e+18,6.504597460937499,-0.5314223572971388,0.5514593216003035,-0.3344850385443533,-1.7344373999155795,-0.6084990019332948,0.461689360508887,-1.3715408733675931
6.55,1.689893292543712e+18,6.554711962890624,1.3871854489080608,1.9278969845712184,1.545376039992571,1.6898932925387003e+18,6.549700244140626,0.2374114990234375,1.142388916015625,-0.107122802734375,1.689893292543712e+18,6.554711962890624,1.0979960350776463,9.354089889033435,-2.7112923349949716,1.689893292543712e+18,6.554711962890624,-1.5530468702316285,2.3090017318725584,-2.194197845458985,1.6898932925387003e+18,6.549700244140626,-1.5730059385299682,2.527707266807556,-2.2169992446899416,,,,,,,,,,,,,1.689893292543712e+18,6.554711962890624,-7.284275817871094,28.588736724853515,-6.062721252441406,1.689893292542293e+18,6.55329296875,20.778948974609374,45.16480407714844,73.4677734375,1.689893292543712e+18,6.554711962890624,-0.885965617840138,0.5863187202563951,-0.2495644792545077,-1.95190230174244,-0.6173513048702867,0.4605716460231831,-1.267543955299359
6.6,1.6898932925938263e+18,6.604826171875,-4.491092106342316,-1.4396619829201698,0.4914992056918144,1.6898932925888148e+18,6.599814697265626,-0.22711181640625,0.859771728515625,-0.22032470703125,1.6898932925938263e+18,6.604826171875,1.766789921518117,9.042689359434243,-3.3504752046737076,1.6898932925938263e+18,6.604826171875,-1.1898289442062375,-0.867792421579361,-1.00092693567276,1.6898932925888148e+18,6.599814697265626,-1.1961899518966674,-0.7593746066093445,-1.0802050232887268,,,,,,,,,,,,,1.6898932925938263e+18,6.604826171875,-3.70941047668457,27.72599868774414,-8.398283386230469,1.689893292589099e+18,6.600098876953125,23.97641372680664,44.36943435668945,71.32196807861328,1.6898932925938263e+18,6.604826171875,-1.0192130742676206,0.5977464822574885,-0.2038308763072207,-2.0547973342992285,-0.6068925589816988,0.4823495281276772,-1.1740143134510714
6.65,1.6898932926439404e+18,6.654940283203125,-4.632084806710184,-2.2000818236869573,1.088859592615664,1.689893292638929e+18,6.649928955078126,-0.2583770751953125,0.656280517578125,-0.3568267822265625,1.6898932926439404e+18,6.654940283203125,2.305698820899576,8.733469213387966,-3.8131317622408263,1.6898932926439404e+18,6.654940283203125,-1.3241737127304076,-1.5333179235458374,-0.4475627928972244,1.689893292638929e+18,6.649928955078126,-1.3307118892669678,-1.3604447484016418,-0.5323953002691268,,,,,,,,,,,,,1.6898932926439404e+18,6.654940283203125,-0.0897918701171874,27.002925872802734,-9.822041320800782,1.689893292635903e+18,6.646902929687499,27.18729248046875,43.666070556640626,69.98049621582031,1.6898932926439404e+18,6.654940283203125,-1.0297634601267656,0.5890680385191359,-0.1894289055030188,-2.114096785021271,-0.5886593439186892,0.5199642634102186,-1.0989600530620791
6.7,1.689893292689043e+18,6.700043090820312,-5.269931868514418,-3.1871931356690824,5.316529003712162,1.6898932926890432e+18,6.700043310546874,-0.258331298828125,0.5544158935546875,0.1112060546875,1.689893292689043e+18,6.700043090820312,2.690778057045862,8.52401812763065,-4.0330872031994165,1.689893292689043e+18,6.700043090820312,-0.8526196330785751,-2.1863868832588196,0.3612435208633542,1.6898932926890432e+18,6.700043310546874,-0.847435998916626,-2.1572344303131104,0.3624772503972053,,,,,,,,,,,,,1.689893292689043e+18,6.700043090820312,2.550381660461426,26.85214614868164,-10.09440803527832,1.6898932926879096e+18,6.698909716796875,30.870550537109377,43.56797790527344,69.73343200683594,1.689893292689043e+18,6.700043090820312,-0.9785059944356976,0.5675025687174078,-0.1996278455749275,-2.1590543609534985,-0.5682465974307911,0.5612537924942735,-1.053628311159028
