seconds_elapsed_rounded,accelerometer_time,accelerometer_seconds_elapsed,accelerometer_z,accelerometer_y,accelerometer_x,accelerometeruncalibrated_time,accelerometeruncalibrated_seconds_elapsed,accelerometeruncalibrated_z,accelerometeruncalibrated_y,accelerometeruncalibrated_x,gravity_time,gravity_seconds_elapsed,gravity_z,gravity_y,gravity_x,gyroscope_time,gyroscope_seconds_elapsed,gyroscope_z,gyroscope_y,gyroscope_x,gyroscopeuncalibrated_time,gyroscopeuncalibrated_seconds_elapsed,gyroscopeuncalibrated_z,gyroscopeuncalibrated_y,gyroscopeuncalibrated_x,location_time,location_seconds_elapsed,location_bearingAccuracy,location_speedAccuracy,location_verticalAccuracy,location_horizontalAccuracy,location_speed,location_bearing,location_altitude,location_longitude,location_latitude,magnetometer_time,magnetometer_seconds_elapsed,magnetometer_z,magnetometer_y,magnetometer_x,magnetometeruncalibrated_time,magnetometeruncalibrated_seconds_elapsed,magnetometeruncalibrated_z,magnetometeruncalibrated_y,magnetometeruncalibrated_x,orientation_time,orientation_seconds_elapsed,orientation_qz,orientation_qy,orientation_qx,orientation_qw,orientation_roll,orientation_pitch,orientation_yaw
0.0,1.6887550083429647e+18,209.99996484375,-5.949864864349365,0.9846820831298828,-0.1983425021171569,1.6887550083429676e+18,209.9999675292969,-0.3732803606738646,-7.875178178151448,0.7357929547627767,1.6887550083429647e+18,209.99996484375,3.647208333015442,-8.867679595947266,2.065466582775116,1.6887550083429647e+18,209.99996484375,-0.0024434626102447,2.7569875717163086,-1.789453387260437,1.6887550083386458e+18,209.9956455891927,-0.118253340323766,2.7833056449890137,-1.3181963165601094,,,,,,,,,,,,1.6887550083380618e+18,209.99506196289065,1.6079599499702453,49.27579879760742,-9.91127986907959,1.6887550083380618e+18,209.99506196289065,-252.9206390380859,142.59360046386718,-141.91527709960937,1.6887550083429647e+18,209.99996484375,-0.0794427134096622,-0.0718651954084634,-0.5565170645713806,0.8237578272819519,-0.5099203586578369,1.132977306842804,0.520848959684372
0.05,1.688755008386226e+18,210.04322583007811,-5.389820734659831,-0.0832487742106119,0.5790069103240967,1.6887550083948795e+18,210.05187955729164,-5.45124872525533,-9.715657552083334,2.0386849641799927,1.688755008386226e+18,210.04322583007811,2.354063113530477,-9.368643124898275,1.594996690750122,1.688755008386226e+18,210.04322583007811,-0.2323324183622996,4.013231833775838,-4.706105788548787,1.688755008390556e+18,210.04755590820312,-0.3399465183417002,4.087961117426555,-4.813210964202881,,,,,,,,,,,,1.6887550083880666e+18,210.04506650390627,8.554640007019042,47.95087890625,-10.88484001159668,1.6887550083880666e+18,210.04506650390627,-245.9739532470703,141.2686767578125,-142.8888366699219,1.688755008386226e+18,210.04322583007811,-0.1249447042743364,-0.0020904489016781,-0.6166198054949442,0.7758420904477438,-0.6111374497413635,1.2792035738627117,0.7868616978327433
0.1,1.6887550084381335e+18,210.0951333821615,-10.07012383143107,-2.5562737782796225,-2.6332948207855225,1.6887550084467835e+18,210.10378336588545,-5.482754230499268,-12.555339813232422,-1.5078770915667217,1.6887550084381335e+18,210.0951333821615,0.5498166431983312,-9.623435338338217,1.7897496620814006,1.6887550084381335e+18,210.0951333821615,-1.169145166873932,1.1084659298261006,-2.6544639666875205,1.688755008442456e+18,210.09945629882813,-1.134834905465444,0.7195992569128672,-2.3249531189600625,,,,,,,,,,,,1.688755008438068e+18,210.09506811523437,16.10155963897705,45.02287979125977,-14.513119506835938,1.688755008438068e+18,210.09506811523437,-238.42703247070312,138.3406768798828,-146.51711730957032,1.6887550084381335e+18,210.0951333821615,-0.1868506570657093,0.0548121457298596,-0.6863390803337097,0.7004623810450236,-1.2856863339742024,1.379285256067912,1.6307414770126345
0.15,1.688755008490036e+18,210.14703580729164,7.108602225780487,-0.4181798299153645,-4.459804534912109,1.68875500849869e+18,210.1556898600261,4.26480766137441,-9.329814751942951,-2.2440687815348306,1.688755008490036e+18,210.14703580729164,-0.3315936587750911,-9.60140895843506,1.959628343582153,1.688755008490036e+18,210.14703580729164,0.3521638115247091,1.2060006807247798,-2.2865195274353027,1.6887550084943654e+18,210.15136555989585,0.4678209722042084,1.4202616810798645,-2.418364644050598,1.6887550084684e+18,210.12539990234376,0.0,0.0,2.462393999099731,6.309999942779541,1.3486579656600952,80.75696563720703,332.79998779296875,-122.9161071,49.278498,1.6887550084880686e+18,210.1450685058594,20.417919540405272,43.17091903686523,-16.121079444885254,1.6887550084880686e+18,210.1450685058594,-234.1106750488281,136.48871459960938,-148.1250732421875,1.688755008490036e+18,210.14703580729164,-0.1983305116494496,0.06624561175704,-0.7172074516614279,0.6643767158190409,-1.7634827693303423,1.3662493626276653,2.141903360684713
0.2,1.6887550085419418e+18,210.1989418945313,0.8034271399180094,3.185204188028971,-0.9438325961430868,1.6887550085505938e+18,210.20759383138025,0.1964108496904373,-6.06500768661499,1.4000006516774497,1.6887550085419418e+18,210.1989418945313,-1.2860430876413982,-9.602797190348308,1.5194305976231892,1.6887550085419418e+18,210.1989418945313,1.3220651149749756,1.9616410334904988,-1.8630372285842896,1.688755008546266e+18,210.20326611328127,1.3536773522694905,1.9155715703964231,-1.8014416297276816,,,,,,,,,,,,1.6887550085380667e+18,210.19506669921876,24.07547950744629,41.343359375,-16.157679748535156,1.6887550085380667e+18,210.19506669921876,-230.45311584472657,134.6611541748047,-148.16167602539062,1.6887550085419418e+18,210.1989418945313,-0.2116169979174932,0.1302661870916684,-0.741919994354248,0.6223704218864441,-2.2981656392415366,1.3639830350875854,2.7892421086629233
0.25,1.6887550085938445e+18,210.25084456380208,3.791548808415731,3.142413775126139,0.9782569805781046,1.6887550085938478e+18,210.25084790039065,2.3527427911758423,-6.340381622314453,2.422134757041931,1.6887550085938445e+18,210.25084456380208,-1.9539243777592976,-9.53508154551188,1.2148892084757488,1.6887550085938445e+18,210.25084456380208,0.131845086812973,1.03399125734965,-1.3324498335520427,1.6887550085981745e+18,210.25517439778648,-0.0436259508132934,1.0294606685638428,-1.2278900345166524,,,,,,,,,,,,1.6887550085880663e+18,210.24506611328124,26.254399490356445,40.18191909790039,-15.664799880981445,1.6887550085880663e+18,210.24506611328124,-228.2741943359375,133.49971618652344,-147.66879577636718,1.6887550085938445e+18,210.25084456380208,-0.2190442581971486,0.1767156223456064,-0.7552485267321268,0.5918343861897787,-2.60112730662028,1.3314110040664673,-1.0161491235097249
0.3,1.6887550086457518e+18,210.302751953125,0.9105916817982992,-0.168730099995931,-1.9890387455622356,1.688755008637105e+18,210.29410498046877,-1.1563315490881605,-9.170692443847656,0.0271186692019304,1.6887550086457518e+18,210.302751953125,-2.2869269053141275,-9.4002103805542,1.617477814356486,1.6887550086457518e+18,210.302751953125,-0.8491026957829794,0.2494366392493248,-0.7938702901204427,1.6887550086500687e+18,210.3070685221354,-0.8373944362004598,0.1170825064182281,-0.8625417153040568,,,,,,,,,,,,1.68875500863807e+18,210.29507001953124,27.20843925476074,38.68619995117187,-17.851039505004884,1.68875500863807e+18,210.29507001953124,-227.32015991210935,132.00399780273438,-149.85503540039062,1.6887550086457518e+18,210.302751953125,-0.2399907459815343,0.1796953131755192,-0.7656378746032715,0.5690741340319315,-2.5397931734720864,1.278969128926595,-1.0396960576375325
0.35,1.6887550086976584e+18,210.35465828450523,3.818483591079712,-2.6139955520629883,-4.841342926025391,1.6887550086890094e+18,210.34600927734377,0.8490531841913859,-11.361720085144045,-2.294318159421285,1.6887550086976584e+18,210.35465828450523,-2.858227491378784,-9.1908384958903,1.8897210359573364,1.6887550086976584e+18,210.35465828450523,-0.6030767063299814,-0.2047925690809885,-1.0728829900423686,1.6887550086933345e+18,210.35033435058597,-0.6448446214199066,-0.4030183330178261,-1.3488668203353882,,,,,,,,,,,,1.6887550086880668e+18,210.34506669921876,29.15067901611328,36.43895950317383,-19.124719619750977,1.6887550086880668e+18,210.34506669921876,-225.3779174804687,129.7567596435547,-151.12871398925782,1.6887550086976584e+18,210.35465828450523,-0.2382826556762059,0.1696556508541106,-0.7865463693936666,0.5438012282053629,-2.568302075068156,1.2121078570683796,-3.119811216990153
0.4,1.6887550087495616e+18,210.40656144205727,3.62801742553711,-6.768028577168782,-5.101637681325276,1.6887550087409098e+18,210.39790958658855,0.2991028428077698,-15.677574475606283,-3.644268910090128,1.6887550087495616e+18,210.40656144205727,-3.003753582636515,-9.14667797088623,1.8822190364201865,1.6887550087495616e+18,210.40656144205727,0.4543310323109229,0.0736601625879605,-0.0238237405816713,1.6887550087365896e+18,210.39358943684897,0.1565342197815577,0.1289434755841891,-0.270053337017695,,,,,,,,,,,,1.6887550087380705e+18,210.39507036132812,30.743999862670897,35.02131881713867,-19.82011947631836,1.6887550087380705e+18,210.39507036132812,-223.78459777832032,128.33911743164063,-151.82411499023436,1.6887550087495616e+18,210.40656144205727,-0.2376440813144047,0.1735299577315648,-0.7903008659680685,0.537411093711853,-2.5932412147521973,1.19960355758667,-3.089306195576986
0.45,1.6887550087928166e+18,210.4498167724609,2.349462628364563,-6.301651954650879,-0.2518511116504669,1.6887550087928123e+18,210.44981225585937,-0.1918246199687321,-15.603995323181152,1.1617153783639271,1.6887550087928166e+18,210.4498167724609,-2.342746376991272,-9.382546424865724,1.616482436656952,1.6887550087928166e+18,210.4498167724609,0.7593055069446564,0.6281985342502594,3.138091206550598,1.688755008788492e+18,210.44549186197915,0.7640906174977621,0.5321654379367828,2.6280949115753174,,,,,,,,,,,,1.6887550087880658e+18,210.44506572265627,29.770439529418944,36.38283920288086,-19.22963981628418,1.6887550087880658e+18,210.44506572265627,-224.7581512451172,129.7006378173828,-151.23363647460937,1.6887550087928166e+18,210.4498167724609,-0.2404583469033241,0.1823339238762855,-0.7665160298347473,0.5666740238666534,-2.546959638595581,1.275059938430786,0.0195498466491699
0.5,1.688755008836071e+18,210.49307063802084,-2.5098997751871743,-3.441255569458008,1.0179683764775591,1.6887550088447204e+18,210.50172037760413,-3.212364355723063,-12.970095952351889,2.4638097286224365,1.688755008836071e+18,210.49307063802084,-0.7924583454926809,-9.691594759623207,1.2042904297510784,1.688755008836071e+18,210.49307063802084,1.1223121881484983,-0.3201952079931895,3.5155293941497803,1.6887550088403978e+18,210.49739770507813,1.085202117760976,-0.4021020581324895,3.4266995588938394,,,,,,,,,,,,1.6887550088380657e+18,210.49506552734377,21.6135196685791,41.77279815673828,-17.292279624938963,1.6887550088380657e+18,210.49506552734377,-232.91507873535156,135.0905975341797,-149.29627685546876,1.688755008836071e+18,210.49307063802084,-0.2436065475145975,0.1805490801731745,-0.7134874860445658,0.6311511794726054,-2.127882401148478,1.4210166136423747,2.739024559656779
0.55,1.688755008887971e+18,210.54497119140623,-3.6709017753601074,-7.828919728597005,5.405032475789388,1.688755008896627e+18,210.5536270345052,-2.7258237997690835,-17.76910146077474,7.249654452006022,1.688755008887971e+18,210.54497119140623,0.8674473563830057,-9.709516843159994,0.9667794704437256,1.688755008887971e+18,210.54497119140623,-0.0566068440675735,-0.0710639959822098,3.6663623650868735,1.6887550088923e+18,210.54929972330729,-0.1439096728960672,-0.1702277660369872,3.769904057184855,,,,,,,,,,,,1.688755008888068e+18,210.54506821289064,14.615599632263184,45.18635864257813,-15.523279571533203,1.688755008888068e+18,210.54506821289064,-239.9129943847656,138.50415954589843,-147.52727661132812,1.688755008887971e+18,210.54497119140623,-0.2470876822868982,0.1644597053527831,-0.6556685169537863,0.6937435666720072,-0.925348699092865,1.436191439628601,1.517388939857483
0.6,1.688755008939875e+18,210.5968748372396,-2.1761016845703125,-3.889425277709961,2.8938743273417153,1.6887550089485292e+18,210.6055291341146,2.5902303059895835,-12.593425750732422,2.8955147663752236,1.688755008939875e+18,210.5968748372396,2.5545033613840737,-9.360673268636068,1.3909974098205566,1.688755008939875e+18,210.5968748372396,-0.1671225479803979,-3.803959767023722,3.46065346399943,1.6887550089442066e+18,210.60120662434895,-0.1210531263301769,-3.7914879322052,3.403639316558838,,,,,,,,,,,,1.6887550089380662e+18,210.59506611328123,6.1975998878479,47.043199157714845,-15.306119918823242,1.6887550089380662e+18,210.59506611328123,-248.33099670410155,140.36099853515626,-147.31011657714845,1.688755008939875e+18,210.5968748372396,-0.2314426253239313,0.0927432291209697,-0.601369301478068,0.7580307324727377,-0.4953470329443614,1.2735573450724285,0.9633503754933676
0.65,1.688755008991787e+18,210.64878686523437,-6.750128269195557,0.7925378481547037,-2.3446412881215415,1.688755009000436e+18,210.65743595377603,-5.631109192967415,-6.304090738296509,-0.7766703367233276,1.688755008991787e+18,210.64878686523437,3.933712720870972,-8.854398727416992,1.4893314838409424,1.688755008991787e+18,210.64878686523437,0.6841181615988413,-0.5960008551677068,3.0744338830312095,1.6887550089961116e+18,210.6531114908854,0.7060075004895529,-0.7925976266463598,3.024139324824015,,,,,,,,,,,,1.6887550089880684e+18,210.6450682128906,0.35135999917984,47.83131942749024,-14.112959861755373,1.6887550089880684e+18,210.6450682128906,-254.1772338867187,141.14911804199218,-146.11695861816406,1.688755008991787e+18,210.64878686523437,-0.1998346149921416,0.0430915479858715,-0.5464971661567688,0.8118511835734049,-0.3605636457602183,1.130707859992981,0.7144581278165182
0.7,1.6887550090436892e+18,210.70068912760416,-10.524703661600748,9.28122075398763,-2.736820101737976,1.68875500904369e+18,210.70069006347657,-5.571687459945679,1.273280769586563,-1.379163146018982,1.6887550090436892e+18,210.70068912760416,5.031118233998616,-8.15823221206665,2.0274723768234253,1.6887550090436892e+18,210.70068912760416,-0.3192279910047849,-3.531921068827311,3.443294604619344,1.6887550090480128e+18,210.7050128580729,-0.369318942228953,-3.4508795738220215,3.430262883504232,,,,,,,,,,,,1.6887550090380623e+18,210.6950623046875,-5.629079914093017,47.86547927856445,-13.78111972808838,1.6887550090380623e+18,210.6950623046875,-260.157666015625,141.18327941894532,-145.78511962890624,1.6887550090436892e+18,210.70068912760416,-0.1603079984585444,-0.0257943635806441,-0.4930478930473327,0.8539799253145853,-0.3763670027256012,0.9881199598312378,0.575035572052002
0.75,1.6887550090955886e+18,210.75258854166668,-3.577638546625773,10.242996533711752,0.677042563756307,1.6887550090869394e+18,210.7439395345052,1.6470595796902974,3.3551361560821533,3.499702533086141,1.6887550090955886e+18,210.75258854166668,5.609480381011963,-7.518412113189697,2.86745015780131,1.6887550090955886e+18,210.75258854166668,0.1981239666541417,-1.855706771214803,0.5908085505167643,1.6887550090999214e+18,210.7569215494792,0.3015128970146179,-1.695049285888672,0.2497929781675338,,,,,,,,,,,,1.688755009088068e+18,210.7450681640625,-10.077199935913086,46.877279663085936,-15.645279502868652,1.688755009088068e+18,210.7450681640625,-264.6057922363281,140.19507751464843,-147.64927673339844,1.6887550090955886e+18,210.75258854166668,-0.1315011183420816,-0.096897967159748,-0.4531362454096476,0.8762491742769877,-0.4689484139283497,0.8769500056902567,0.5209828019142151
0.8,1.6887550091474962e+18,210.80449609375,-1.4646932284037273,5.518541971842448,0.2367225488026937,1.6887550091388498e+18,210.7958498535156,2.9407790501912436,-2.062812566757202,3.2835508982340493,1.6887550091474962e+18,210.80449609375,4.978290557861328,-7.991367816925049,2.723123868306478,1.6887550091474962e+18,210.80449609375,1.4944818019866943,0.0337503055731455,-2.416226585706075,1.6887550091431752e+18,210.80017529296876,1.410029649734497,0.0676533281803131,-2.214081108570099,,,,,,,,,,,,1.688755009138064e+18,210.79506381835935,-7.890959644317627,47.389678192138675,-14.869359588623048,1.688755009138064e+18,210.79506381835935,-262.4195495605469,140.7074768066406,-146.87335815429688,1.6887550091474962e+18,210.80449609375,-0.107649303972721,-0.0987286046147346,-0.4866436024506886,0.8610392808914185,-0.4968860149383545,0.9564503828684487,0.5101094841957092
0.85,1.6887550091994048e+18,210.85640462239584,8.21018679936727,-3.7997512817382817,0.2973628441492716,1.6887550091907502e+18,210.84775016276043,11.611969312032064,-7.990233103434245,1.6666009823481245,1.6887550091994048e+18,210.85640462239584,3.80790106455485,-8.784744262695312,2.121306816736857,1.6887550091994048e+18,210.85640462239584,0.8344419300556183,-0.611221581697464,-1.8093319336573284,1.6887550091864282e+18,210.84342838541667,1.4490232666333516,-0.2588541507720947,-2.9071077505747476,,,,,,,,,,,,1.6887550091880678e+18,210.8450676757812,-0.4660399705171586,48.77071838378906,-11.082479667663574,1.6887550091880678e+18,210.8450676757812,-254.9946411132813,142.08851623535156,-143.08647766113282,1.6887550091994048e+18,210.85640462239584,-0.0784675205747286,-0.0768095801273981,-0.5481310685475668,0.8290501832962036,-0.5041777988274893,1.1128148635228474,0.5066022475560507
0.9,1.6887550092426586e+18,210.8996585693359,7.328755617141724,-17.786826610565186,5.299747705459595,1.688755009242652e+18,210.8996520182292,10.17707347869873,-23.545174598693848,7.22592560450236,1.6887550092426586e+18,210.8996585693359,3.819242477416992,-8.665671348571777,2.5566112995147705,1.6887550092426586e+18,210.8996585693359,-0.1713477075099945,-3.693825721740722,1.7983872890472412,1.6887550092383352e+18,210.89533512369792,-0.1983784735202789,-3.0612494150797525,1.5801047484079995,,,,,,,,,,,,1.688755009238064e+18,210.89506401367188,1.3541999369859696,48.87563858032227,-10.267519760131837,1.688755009238064e+18,210.89506401367188,-253.1743957519531,142.1934387207031,-142.27151794433593,1.6887550092426586e+18,210.8996585693359,-0.0527433156967162,-0.12057551369071,-0.5393578410148621,0.8315276205539703,-0.5849452912807465,1.0856188535690308,0.4860106706619262
0.95,1.6887550092859092e+18,210.9429090983073,-3.707011858622233,5.11240291595459,5.769917329152425,1.6887550092945595e+18,210.95155940755208,-2.505285263061523,-5.008177955945333,9.012367248535156,1.6887550092859092e+18,210.9429090983073,3.8698596159617105,-8.579845110575357,2.7644079526265464,1.6887550092859092e+18,210.9429090983073,0.4979569874703884,-0.8536842068036398,0.109803020954132,1.688755009290232e+18,210.94723217773435,0.4202243760228157,-0.4591670731703439,-0.0443895459175109,,,,,,,,,,,,1.688755009288067e+18,210.94506704101565,0.2561999917030334,49.43683853149414,-9.413519859313965,1.688755009288067e+18,210.94506704101565,-254.27239379882812,142.754638671875,-141.41751708984376,1.6887550092859092e+18,210.9429090983073,-0.0154522949208815,-0.1573504408200581,-0.527325431505839,0.8347998062769572,-0.6158015529314677,1.0666685501734416,0.4082015554110209
1.0,1.688755009337818e+18,210.99481754557291,-4.3356116612752285,-5.520120302836101,-2.808890422185262,1.6887550093464627e+18,211.00346272786456,0.4869394302368164,-13.849856694539389,-1.3391829927762349,1.688755009337818e+18,210.99481754557291,3.769246737162272,-8.698274294535318,2.517887910207113,1.688755009337818e+18,210.99481754557291,-0.036957347067073,1.9545142253239949,-1.0548115471998851,1.6887550093421394e+18,210.99913940429687,0.0399607643485069,2.088955561319987,-1.410538762807846,,,,,,,,,,,,1.688755009338064e+18,210.99506396484375,-0.2366799980401993,49.00495910644531,-9.396439933776856,1.688755009338064e+18,210.99506396484375,-254.76527404785156,142.3227569580078,-141.400439453125,1.688755009337818e+18,210.99481754557291,-0.0325657911598682,-0.131645215054353,-0.5391511718432108,0.8310186664263407,-0.5849091609319051,1.0926109155019124,0.4404761791229248
1.05,1.688755009389722e+18,211.0467218424479,-7.399921258290608,-0.112733523050944,-1.249778727690379,1.6887550093983693e+18,211.05536930338545,-4.652444839477539,-8.85643482208252,0.6400800546010336,1.688755009389722e+18,211.0467218424479,2.5218895276387534,-9.32260767618815,1.595665772755941,1.688755009389722e+18,211.0467218424479,1.3091351588567095,3.9328013261159263,-4.3378050327301025,1.6887550093940462e+18,211.0510465494791,1.2401073376337688,4.138917605082194,-4.3963972727457685,,,,,,,,,,,,1.6887550093880684e+18,211.04506831054687,5.145959973335266,48.77071838378906,-8.254519748687745,1.6887550093880684e+18,211.04506831054687,-249.38263854980468,142.08851928710936,-140.2585205078125,1.688755009389722e+18,211.0467218424479,-0.067052791515986,-0.0488008192429939,-0.6069381435712179,0.7891299724578857,-0.5597374041875204,1.2639560302098591,0.5855746666590372
1.1,1.6887550094416177e+18,211.09861767578127,-5.292701085408528,1.1562859217325845,0.0716176827748616,1.688755009450268e+18,211.10726822916664,-4.808975378672282,-9.343573252360024,0.7734799385070801,1.6887550094416177e+18,211.09861767578127,0.8509607116381327,-9.6923246383667,1.213252862294515,1.6887550094416177e+18,211.09861767578127,-1.1487321158250172,5.351637522379558,-2.945694088935852,1.6887550094459446e+18,211.1029444986979,-1.303230067094167,5.188027699788411,-2.69264304637909,,,,,,,,,,,,1.688755009438062e+18,211.0950619628906,13.659119796752927,46.67231826782226,-9.452559757232669,1.688755009438062e+18,211.0950619628906,-240.86947631835935,139.99011840820313,-141.45655517578126,1.6887550094416177e+18,211.09861767578127,-0.1512609471877415,0.0579985640943049,-0.6738596359888712,0.719519317150116,-0.9748996496200562,1.419211784998576,1.2730175654093423
1.15,1.6887550094935265e+18,211.1505263671875,-3.342661619186402,-3.0854689280192056,-3.640587488810221,1.6887550094935227e+18,211.15052270507812,-3.816552221775055,-13.217952251434326,-1.742872178554535,1.6887550094935265e+18,211.1505263671875,-0.1415509631236394,-9.649774233500162,1.7184775670369463,1.6887550094935265e+18,211.1505263671875,-0.658512756228447,-1.2225449085235596,-2.1429152488708496,1.688755009497853e+18,211.1548529459635,-0.4871141463518142,-1.6191492180029552,-2.176818291346232,1.688755009506513e+18,211.1635129394531,0.0,0.0,2.47198748588562,6.25600004196167,1.272253155708313,73.3971939086914,332.79998779296875,-122.9161047,49.2785112,1.6887550094880635e+18,211.14506376953128,17.397199440002442,43.79555816650391,-15.237799644470217,1.6887550094880635e+18,211.14506376953128,-237.131396484375,137.1133575439453,-147.241796875,1.6887550094935265e+18,211.1505263671875,-0.201212520400683,0.0828080127636591,-0.7083726326624552,0.6710507671038309,-1.664215922355652,1.3914286692937214,2.07032573223114
1.2,1.6887550095454298e+18,211.2024297688802,6.923684120178223,1.918498357137044,-1.0761701067288716,1.6887550095367862e+18,211.1937861328125,5.346562782923381,-8.418947060902914,-0.1449651817480723,1.6887550095454298e+18,211.2024297688802,-1.2112825711568196,-9.613459904988607,1.517171859741211,1.6887550095454298e+18,211.2024297688802,0.8754208087921143,1.1465431650479634,-1.871742049853007,1.6887550095497595e+18,211.20675992838545,0.9304495851198832,1.5904894669850669,-1.8338683446248372,,,,,,,,,,,,1.6887550095380644e+18,211.19506430664063,23.56307907104492,41.626399230957034,-14.339879608154297,1.6887550095380644e+18,211.19506430664063,-230.96551513671875,134.94419860839844,-146.3438751220703,1.6887550095454298e+18,211.2024297688802,-0.1762958069642385,0.0867645591497421,-0.7453031539916992,0.6368228395779928,-2.260763088862101,1.370002706845601,2.6369313398996987
1.25,1.6887550095973417e+18,211.25434163411455,2.2492133378982544,3.7895119984944663,-0.2958209911982218,1.688755009588691e+18,211.24569091796872,1.737388590971629,-5.825725555419922,1.4971093436082203,1.6887550095973417e+18,211.25434163411455,-1.7075018485387166,-9.56662623087565,1.3382188479105632,1.6887550095973417e+18,211.25434163411455,0.5193372728923956,3.195690631866455,-1.2125165859858196,1.688755009593012e+18,211.25001208496096,0.6569855809211731,3.394578218460083,-1.2930490374565125,,,,,,,,,,,,1.688755009588066e+18,211.24506611328124,25.066119766235353,40.28683929443359,-15.657479667663576,1.688755009588066e+18,211.24506611328124,-229.4624755859375,133.604638671875,-147.6614776611328,1.6887550095973417e+18,211.25434163411455,-0.2161700824896494,0.1572638750076293,-0.7506262461344401,0.6037632425626119,-2.4894736607869468,1.346347093582153,3.0275694529215493
1.3,1.688755009649243e+18,211.30624291992183,-0.4569623470306396,0.3644790649414064,-1.5186521609624226,1.6887550096405914e+18,211.29759122721353,-2.5284159580866494,-8.346165498097738,0.1355932851632436,1.688755009649243e+18,211.30624291992183,-2.0356245835622153,-9.458045641581217,1.6156856218973796,1.688755009649243e+18,211.30624291992183,-0.5511531631151835,0.9544260203838348,-1.009098490079244,1.6887550096362714e+18,211.2932714029948,-0.4217006439963977,1.575726846853892,-0.8541423281033834,,,,,,,,,,,,1.6887550096380662e+18,211.29506611328125,25.15884017944336,39.04731903076172,-18.53667907714844,1.6887550096380662e+18,211.29506611328125,-229.3697540283203,132.36511840820313,-150.54067687988282,1.688755009649243e+18,211.30624291992183,-0.2525810996691386,0.1893518169720967,-0.7545847296714783,0.5751974582672119,-2.4814887841542563,1.3009703954060872,3.1232031981150308
1.35,1.688755009692507e+18,211.3495069580078,2.7619948387145996,-2.0344152450561523,-3.113534450531006,1.6887550096925007e+18,211.34950056966144,0.496909499168396,-11.32542896270752,-1.3475579371054969,1.688755009692507e+18,211.3495069580078,-2.627262592315674,-9.278693199157717,1.7934187054634094,1.688755009692507e+18,211.3495069580078,-0.5137376636266708,-0.8834638595581055,-1.6548339128494265,1.6887550096881766e+18,211.3451766764323,-0.5351688663164774,-0.6189592232306799,-1.575217882792155,,,,,,,,,,,,1.6887550096880684e+18,211.34506826171872,27.06935920715332,37.14167938232422,-20.164159774780273,1.6887550096880684e+18,211.34506826171872,-227.45923767089843,130.45948181152343,-152.16815795898438,1.688755009692507e+18,211.3495069580078,-0.2499578446149825,0.187273547053337,-0.7747647762298584,0.5496501922607422,-2.5504279136657715,1.2387401461601255,-3.0950347185134888
1.4,1.6887550097357545e+18,211.39275447591143,4.281303882598877,-6.463533401489258,-5.99745241800944,1.6887550097444032e+18,211.40140315755207,1.0261220633983612,-16.357535044352215,-3.928217093149821,1.6887550097357545e+18,211.39275447591143,-2.929821252822876,-9.16483211517334,1.912230650583903,1.6887550097357545e+18,211.39275447591143,-0.2732603947321574,-0.0363464864591757,-0.2627738639712333,1.688755009740079e+18,211.39707910156253,-0.1357648074626922,0.0461712318162123,-0.2121229569117228,,,,,,,,,,,,1.688755009738065e+18,211.3950648925781,29.294639587402344,35.223838806152344,-20.056799697875977,1.688755009738065e+18,211.3950648925781,-225.23395690917968,128.54163818359376,-152.06079711914063,1.6887550097357545e+18,211.39275447591143,-0.245134135087331,0.1788771500190098,-0.786538302898407,0.5378343065579733,-2.5714056491851807,1.2047518094380696,-3.09208337465922
1.45,1.6887550097876595e+18,211.44465934244792,5.9560933113098145,-4.040273348490397,-1.459842085838318,1.6887550097963123e+18,211.45331225585937,2.8323043386141458,-12.609776496887209,1.1595219771067302,1.6887550097876595e+18,211.44465934244792,-2.784071365992228,-9.254292170206703,1.6649514436721802,1.6887550097876595e+18,211.44465934244792,0.7747807304064432,0.5098179380098978,1.0538952747980754,1.6887550097919867e+18,211.44898665364585,0.742455800374349,0.6074545929829279,1.4225524465243022,,,,,,,,,,,,1.688755009788067e+18,211.4450669921875,29.175079345703125,35.71915893554687,-19.334559631347656,1.688755009788067e+18,211.4450669921875,-225.353515625,129.03695678710938,-151.33855895996095,1.6887550097876595e+18,211.44465934244792,-0.2428727497657139,0.1925124128659566,-0.7784074544906616,0.5457413593928019,-2.609391212463379,1.2324196100234983,-3.03847599029541
1.5,1.688755009839564e+18,211.4965642089844,-3.0828216075897217,-3.800082842508952,-0.2734472751617431,1.6887550098482158e+18,211.5052159016927,-5.271787007649739,-13.573286374409994,1.096909781297048,1.688755009839564e+18,211.4965642089844,-1.2103643616040547,-9.626087506612144,1.3621064027150471,1.688755009839564e+18,211.4965642089844,0.961705525716146,0.1499165097872416,3.5787540276845298,1.6887550098438902e+18,211.50088997395835,1.018872340520223,-0.047800213098526,3.5400149822235107,,,,,,,,,,,,1.6887550098380662e+18,211.4950660644531,23.597239685058593,40.1379997253418,-19.217439651489254,1.6887550098380662e+18,211.4950660644531,-230.93135681152344,133.45579528808594,-151.221435546875,1.688755009839564e+18,211.4965642089844,-0.259779026110967,0.1966840724150339,-0.7238040765126547,0.6076710025469462,-2.2792180379231772,1.3816335995992024,2.9397618770599365
1.55,1.6887550098914683e+18,211.54846834309896,-2.6722927490870156,-6.167445182800293,2.8832430839538574,1.688755009900116e+18,211.55711588541664,-1.8969101309776304,-16.243876457214355,4.5601216952006025,1.6887550098914683e+18,211.54846834309896,0.4421185255050659,-9.7486572265625,0.8716188470522562,1.6887550098914683e+18,211.54846834309896,0.5860742852091789,-0.3954334259033203,3.505552053451538,1.688755009895792e+18,211.5527918294271,0.4395684599876404,-0.2412917762994765,3.582164684931437,,,,,,,,,,,,1.6887550098880655e+18,211.545065625,16.71155948638916,44.15667877197266,-16.21867961883545,1.6887550098880655e+18,211.545065625,-237.81703491210936,137.47447814941407,-148.2226776123047,1.6887550098914683e+18,211.54846834309896,-0.249074563384056,0.1812389840682347,-0.6674443682034811,0.67747962474823,-1.1752553979555769,1.4627918402353923,1.79457684357961
1.6,1.6887550099433748e+18,211.60037491861976,-4.592988650004069,-5.27933915456136,5.963090737660726,1.688755009943374e+18,211.60037414550783,-2.5250260829925537,-14.796916007995604,7.933104515075684,1.6887550099433748e+18,211.60037491861976,2.302794615427653,-9.45809841156006,1.1090210477511089,1.6887550099433748e+18,211.60037491861976,-0.4707225958506266,-2.002569009860357,3.780390501022339,1.6887550099477005e+18,211.6047006022135,-0.4167628151675065,-2.4056383172671,3.681532144546509,,,,,,,,,,,,1.6887550099380677e+18,211.595067578125,8.33259973526001,46.606439208984376,-15.920999717712402,1.6887550099380677e+18,211.595067578125,-246.19599609375,139.9242370605469,-147.925,1.6887550099433748e+18,211.60037491861976,-0.2604259848594665,0.1376575132211049,-0.6034496227900187,0.7403033375740051,-0.4512978494167328,1.309760292371114,1.027193824450175
1.65,1.6887550099952786e+18,211.65227872721357,-0.445400317509969,-1.9772221247355144,-1.2252365748087566,1.6887550099866324e+18,211.64363256835935,3.4424743354320526,-11.575279553731283,1.321037491162618,1.6887550099952786e+18,211.65227872721357,3.579535881678263,-9.009864489237469,1.4504855076471963,1.6887550099952786e+18,211.65227872721357,0.5868887702624003,-1.3105604648590088,2.745126565297445,1.68875500999961e+18,211.6566097005208,0.688394233584404,-0.942361409465472,2.732196569442749,,,,,,,,,,,,1.6887550099880678e+18,211.6450679199219,2.508319914340973,47.37503890991211,-15.774599647521972,1.6887550099880678e+18,211.6450679199219,-252.0202789306641,140.69283752441407,-147.77859497070312,1.6887550099952786e+18,211.65227872721357,-0.2270412296056747,0.0684178744753201,-0.5600400765736898,0.7935330669085184,-0.3862722516059875,1.1681968768437705,0.8160572449366251
1.7,1.6887550100471826e+18,211.7041825358073,-12.77248732248942,6.665950775146484,-1.8363108237584431,1.688755010038535e+18,211.6955349934896,-8.012366453806559,-3.888735567529997,-0.2350948303937912,1.6887550100471826e+18,211.7041825358073,4.577804247538249,-8.57546583811442,1.2874816258748372,1.6887550100471826e+18,211.7041825358073,0.7300348629554113,-2.6051875750223794,2.406452735265096,1.6887550100428595e+18,211.699859375,0.9111055135726928,-2.403143882751465,2.258903384208679,,,,,,,,,,,,1.6887550100380662e+18,211.69506616210936,-3.0695199966430664,48.02895889282227,-13.883599853515625,1.6887550100380662e+18,211.69506616210936,-257.5981201171875,141.3467529296875,-145.88759765625,1.6887550100471826e+18,211.7041825358073,-0.1947473386923471,0.0433596335351466,-0.5151546796162924,0.83306356271108,-0.2701852023601532,1.067451039950053,0.6196122169494629
1.75,1.6887550100990856e+18,211.75608561197916,-5.187652667363484,10.761626243591309,-0.5164691607157389,1.6887550100904343e+18,211.7474342447917,-1.2999008496602376,2.8937201499938965,0.7692924638589224,1.6887550100990856e+18,211.75608561197916,5.309224446614583,-7.968247890472412,2.115597049395243,1.6887550100990856e+18,211.75608561197916,-0.0873537212610244,-2.723135471343994,1.7717637320359547,1.6887550100861133e+18,211.74311328125,-0.1749110793073971,-3.2151874701182046,2.435723304748535,,,,,,,,,,,,1.6887550100880655e+18,211.7450653320313,-7.683559799194336,47.61903839111328,-13.332159805297852,1.6887550100880655e+18,211.7450653320313,-262.2121520996094,140.93683776855468,-145.3361602783203,1.6887550100990856e+18,211.75608561197916,-0.153299182653427,-0.0384315963213642,-0.4778985480467478,0.8637967109680176,-0.3754549324512481,0.9514896074930826,0.54612269004186
1.8,1.688755010142343e+18,211.79934265136717,-1.2876722812652588,8.046198844909668,0.8092663288116455,1.6887550101423424e+18,211.7993425292969,3.79960290590922,-0.0608175819118817,3.307080348332723,1.688755010142343e+18,211.79934265136717,5.1193156242370605,-8.027797222137451,2.3565622568130493,1.688755010142343e+18,211.79934265136717,0.9632581472396852,-0.6356816291809082,-1.6258941888809204,1.688755010138018e+18,211.79501822916663,0.8428922096888224,-0.8757262254754702,-1.2473359579841297,,,,,,,,,,,,1.6887550101380662e+18,211.79506606445312,-7.554239749908447,47.63611907958985,-13.55907974243164,1.6887550101380662e+18,211.79506606445312,-262.0828369140625,140.95391540527345,-145.56307678222657,1.688755010142343e+18,211.79934265136717,-0.1299549341201782,-0.0648866444826126,-0.4852553904056548,0.8621772527694702,-0.4288428574800491,0.9613288342952728,0.5253584086894989
1.85,1.6887550101855903e+18,211.84259041341147,3.668691635131836,3.3091748555501304,0.0553162892659505,1.6887550101942464e+18,211.8512462565104,10.563514550526936,-8.432307163874308,2.310868422190348,1.6887550101855903e+18,211.84259041341147,4.221179087956746,-8.636837323506674,1.9093153079350789,1.6887550101855903e+18,211.84259041341147,1.186911145846049,0.007686711847782,-2.7601436773935952,1.6887550101899226e+18,211.84692260742187,1.076446354389191,0.0072285756468772,-2.634254535039266,,,,,,,,,,,,1.6887550101880663e+18,211.84506625976564,-0.7198000073432922,48.83415908813477,-11.038559913635254,1.6887550101880663e+18,211.84506625976564,-255.248388671875,142.1519561767578,-143.0425567626953,1.6887550101855903e+18,211.84259041341147,-0.1113922894001006,-0.0441791055103142,-0.5321546594301859,0.8378496170043945,-0.421917458375295,1.0807098944981892,0.5199635823567709
1.9,1.6887550102375012e+18,211.89450105794273,9.767323652903238,-16.939679781595867,3.083977142969767,1.6887550102461522e+18,211.9031521809896,11.935399214426676,-21.310876687367756,4.586043993631999,1.6887550102375012e+18,211.89450105794273,4.09483273824056,-8.644820849100748,2.1392800410588584,1.6887550102375012e+18,211.89450105794273,-0.3135774880647659,-2.927877108256022,2.135432163874308,1.6887550102418227e+18,211.89882275390627,-0.2468404571215311,-3.191872755686442,2.3516275882720947,,,,,,,,,,,,1.6887550102380672e+18,211.8950671875,-0.3294000029563904,48.88783950805664,-10.723799705505373,1.6887550102380672e+18,211.8950671875,-254.85799255371097,142.20563659667968,-142.72779541015626,1.6887550102375012e+18,211.89450105794273,-0.0891727755467096,-0.0715454332530498,-0.5345045526822408,0.8366712331771851,-0.4757204850514729,1.0818345149358113,0.50115038951238
1.95,1.6887550102894008e+18,211.94640096028647,-0.4680479367574056,9.439229011535645,3.724353114763895,1.6887550102980564e+18,211.95505639648437,-0.474576473236084,-2.5942185123761496,8.29491917292277,1.6887550102894008e+18,211.94640096028647,4.389820575714111,-8.385831514994303,2.574477752049764,1.6887550102894008e+18,211.94640096028647,0.6733262042204539,-0.9860892097155252,-0.2460768421490987,1.68875501029373e+18,211.95072981770832,0.5701408957441648,-0.5897394716739655,-0.6191628177960714,,,,,,,,,,,,1.6887550102880627e+18,211.94506259765623,-2.5473598718643187,49.1562385559082,-10.489559555053711,1.6887550102880627e+18,211.94506259765623,-257.0759552001953,142.47403564453126,-142.4935546875,1.6887550102894008e+18,211.94640096028647,-0.0417260204752286,-0.1281288315852482,-0.5098666548728943,0.8495823343594869,-0.5271968841552734,1.026952068010966,0.4002581139405568
2.0,1.6887550103413074e+18,211.99830737304688,-7.607833862304688,-9.049442291259766,0.4373593330383301,1.6887550103499633e+18,212.00696321614583,-2.65982178846995,-15.269598007202148,1.0225329498449962,1.6887550103413074e+18,211.99830737304688,4.1485466957092285,-8.627179145812988,2.130463043848674,1.6887550103413074e+18,211.99830737304688,-0.0240782598654429,2.913878122965494,-0.4205807447433472,1.6887550103456358e+18,212.00263582356772,-0.0217366168896357,2.8800768852233887,-0.4670064846674601,,,,,,,,,,,,1.6887550103380687e+18,211.99506865234375,-1.4347199559211732,49.0122787475586,-9.813679504394532,1.6887550103380687e+18,211.99506865234375,-255.96331176757812,142.330078125,-141.81767578125,1.6887550103413074e+18,211.99830737304688,-0.0640964296956856,-0.0877099509040514,-0.5299325188000997,0.8407248258590698,-0.4717423220475514,1.0764124790827434,0.4373034238815307
2.05,1.688755010393206e+18,212.05020629882813,-4.103850285212199,0.6918339729309081,-0.0675240357716878,1.6887550103932037e+18,212.05020385742188,0.069990063086152,-8.001598596572876,1.4668002724647522,1.688755010393206e+18,212.05020629882813,3.3241255283355713,-9.077523549397789,1.5671504338582356,1.688755010393206e+18,212.05020629882813,0.4308636238177617,2.601776957511902,-3.9161043961842856,1.6887550103975345e+18,212.0545346679687,0.456010897954305,2.866892377535502,-4.124256610870361,,,,,,,,,,,,1.688755010388062e+18,212.04506206054688,1.1882800102233886,48.97567901611328,-9.61359977722168,1.688755010388062e+18,212.04506206054688,-253.34031677246097,142.29347534179686,-141.6175994873047,1.688755010393206e+18,212.05020629882813,-0.0972906673947969,-0.0277419330086559,-0.5739954113960266,0.8117508292198181,-0.4386791686216989,1.1882446606953938,0.5387290914853414
2.1,1.6887550104451126e+18,212.10211287434893,-9.311988353729248,0.6422602335611979,-0.8087209065755209,1.6887550104364618e+18,212.0934619140625,-6.658427715301514,-8.892526626586914,1.09730859597524,1.6887550104451126e+18,212.10211287434893,1.300754725933075,-9.63552729288737,1.1829230388005574,1.6887550104451126e+18,212.10211287434893,-0.9455175927529732,3.651905218760173,-4.244902531305949,1.6887550104494377e+18,212.1064376627604,-1.1544335385163624,3.376150290171305,-4.0197986761728925,,,,,,,,,,,,1.6887550104380616e+18,212.09506166992188,10.240679836273191,47.072479248046875,-10.25287971496582,1.6887550104380616e+18,212.09506166992188,-244.2879150390625,140.39027709960936,-142.25687561035156,1.6887550104451126e+18,212.10211287434893,-0.1575431128342946,0.0607119972507158,-0.656042238076528,0.7345197399457296,-0.7820074359575907,1.387425661087036,1.0932915409406023
2.15,1.6887550104970166e+18,212.15401643880213,-1.7294408480326335,-4.21376101175944,-3.9966952006022134,1.688755010488366e+18,212.1453661295573,-4.681358337402344,-13.625529925028482,-2.2009980281194053,1.6887550104970166e+18,212.15401643880213,0.1323677152395248,-9.63554032643636,1.8253329992294312,1.6887550104970166e+18,212.15401643880213,-1.0144944617059082,-1.0120510061581929,-1.301397482554118,1.6887550104926925e+18,212.1496926269531,-1.295797884464264,-0.887892653234303,-1.0054842233657837,,,,,,,,,,,,1.6887550104880602e+18,212.14506015625005,16.694479560852052,44.55195999145508,-14.603399848937988,1.6887550104880602e+18,212.14506015625005,-237.83411560058593,137.86975708007813,-146.6074005126953,1.6887550104970166e+18,212.15401643880213,-0.1945836047331491,0.0641650644441445,-0.7001588344573975,0.683803657690684,-1.5065242449442546,1.3838709195454917,1.87617293993632
2.2,1.6887550105489224e+18,212.20592236328125,7.004674116770427,-0.0260677337646484,-0.627689520517985,1.6887550105402703e+18,212.19727018229165,7.233901659647624,-10.554341952006022,0.1714855978886286,1.6887550105489224e+18,212.20592236328125,-0.936938226222992,-9.625026384989422,1.6194392442703247,1.6887550105489224e+18,212.20592236328125,1.099659283955892,1.3003284732500713,-2.478942076365153,1.688755010535946e+18,212.1929459635417,0.8041022966305414,-0.1173370579878489,-2.5054638385772705,1.6887550105445952e+18,212.20159521484376,0.0,0.0,2.1132776737213135,6.210000038146973,1.2335965633392334,68.29542541503906,332.79998779296875,-122.9161032,49.2785233,1.6887550105380623e+18,212.19506240234372,21.15723991394043,42.39011993408203,-14.454559707641602,1.6887550105380623e+18,212.19506240234372,-233.37135620117184,135.70791931152343,-146.45855712890625,1.6887550105489224e+18,212.20592236328125,-0.1754832416772842,0.0737991829713185,-0.7368869185447693,0.6482233007748922,-2.1077483097712197,1.37664798895518,2.46388578414917
2.25,1.688755010592176e+18,212.2491759033203,1.5735363364219666,5.273688793182373,0.5614013671875,1.6887550105921748e+18,212.2491748046875,0.3375873391826947,-4.661617279052734,1.9635103940963743,1.688755010592176e+18,212.2491759033203,-1.358943521976471,-9.625478267669678,1.3182849884033203,1.688755010592176e+18,212.2491759033203,0.98219496011734,3.5497379302978516,-0.9301950335502625,1.6887550105878505e+18,212.24485034179688,1.0140363375345869,3.4867679278055825,-1.106429656346639,,,,,,,,,,,,1.6887550105880602e+18,212.24506030273437,24.48051986694336,40.94563980102539,-14.844959831237793,1.6887550105880602e+18,212.24506030273437,-230.0480743408203,134.26343994140626,-146.8489562988281,1.688755010592176e+18,212.2491759033203,-0.2082022428512573,0.1414608657360076,-0.7417486310005188,0.6214534640312195,-2.383953213691711,1.375804603099823,2.8861294984817505
2.3,1.688755010635429e+18,212.29242911783857,-0.7637619972229004,3.6435861587524414,-0.2487680912017822,1.6887550106440788e+18,212.30107885742183,-2.630310297012329,-6.803592363993327,1.212562878926595,1.688755010635429e+18,212.29242911783857,-1.6061927874883015,-9.57025178273519,1.4293514490127563,1.688755010635429e+18,212.29242911783857,-0.3182607814669609,1.8267415761947632,-0.9761117895444232,1.6887550106397555e+18,212.29675553385417,-0.4151338301599026,1.7013614972432454,-1.011745552221934,,,,,,,,,,,,1.6887550106380618e+18,212.29506176757815,23.73875961303711,40.31611862182617,-17.34839973449707,1.6887550106380618e+18,212.29506176757815,-230.78983459472656,133.63391723632813,-149.35239868164064,1.688755010635429e+18,212.29242911783857,-0.2417159676551818,0.1789462715387344,-0.7422795494397482,0.5986398259798685,-2.424913167953491,1.3486353953679402,3.0329105059305825
2.35,1.688755010687344e+18,212.34434391276045,-0.151760458946228,-0.3614136377970378,-1.742148180802663,1.6887550106959951e+18,212.3529949544271,-0.7001000245412191,-10.032706578572592,-0.3856432437896728,1.688755010687344e+18,212.34434391276045,-2.2564794619878135,-9.381205558776855,1.749650239944458,1.688755010687344e+18,212.34434391276045,-0.5965099136034647,-1.0734429558118184,-1.6282103856404622,1.6887550106916646e+18,212.34866455078125,-0.568461020787557,-1.3983723570903142,-1.6890933116277058,,,,,,,,,,,,1.6887550106880684e+18,212.34506826171872,25.89571952819824,37.676039123535155,-19.519999694824214,1.6887550106880684e+18,212.34506826171872,-228.63287658691405,130.99383544921875,-151.5239990234375,1.688755010687344e+18,212.34434391276045,-0.2513013780117035,0.1820000410079955,-0.7635075648625692,0.5661134322484335,-2.4856611092885337,1.2735540469487507,1.0212897459665935
2.4,1.688755010739248e+18,212.3962481282552,8.258456269900005,-3.4519294102986655,-5.897366762161255,1.688755010747895e+18,212.40489518229165,3.716053724288941,-13.871591885884603,-4.427320241928101,1.688755010739248e+18,212.3962481282552,-2.8890257676442466,-9.200960477193195,1.79340132077535,1.688755010739248e+18,212.3962481282552,-0.3571016490459442,0.3520619471867879,-0.2961678231755892,1.6887550107435738e+18,212.40057364908853,-0.2845104883114497,0.7305439313252767,-0.0980947812398274,,,,,,,,,,,,1.6887550107380646e+18,212.3950646484375,29.743599700927735,35.648400115966794,-18.52447967529297,1.6887550107380646e+18,212.3950646484375,-224.78499450683591,128.96619567871093,-150.52847900390626,1.688755010739248e+18,212.3962481282552,-0.2289622674385706,0.1639231840769449,-0.7882867058118185,0.5469957788785299,-2.591932535171509,1.215401570002238,-3.1189417839050293
2.45,1.6887550107911475e+18,212.44814729817708,-1.218704303105672,-7.411104838053386,-4.443130771319072,1.6887550107998044e+18,212.4568041992187,-3.094717433055242,-16.557136217753094,-1.7698911428451538,1.6887550107911475e+18,212.44814729817708,-2.668698787689209,-9.295626004536947,1.6308908065160117,1.6887550107911475e+18,212.44814729817708,1.254411776860555,0.0988074565927188,0.2016364373266697,1.688755010795481e+18,212.4524815266927,1.3314826091130574,-0.1590285797913868,0.340201032658418,,,,,,,,,,,,1.6887550107880648e+18,212.44506494140623,28.589479827880854,36.30963973999023,-19.317480087280273,1.6887550107880648e+18,212.44506494140623,-225.9391143798828,129.62744140625,-151.32147521972655,1.6887550107911475e+18,212.44814729817708,-0.2414705206950505,0.1897451678911844,-0.7752383748690287,0.5518776575724283,-2.601970593134562,1.2446169058481853,-3.052881638209025
2.5,1.6887550108430548e+18,212.5000546061198,1.4581406116485596,-4.425933202107747,1.0620619058609009,1.688755010843058e+18,212.50005798339845,-0.4579264521598817,-13.69532060623169,2.2295124530792236,1.6887550108430548e+18,212.5000546061198,-1.6697693665822346,-9.604026158650717,0.9593991835912068,1.6887550108430548e+18,212.5000546061198,0.848440925280253,-0.6215044558048249,3.4967454274495444,1.6887550108473802e+18,212.5043799641927,0.7928521831830343,-0.5552255908648173,3.659846385320028,,,,,,,,,,,,1.6887550108380662e+18,212.49506621093752,25.881079483032227,39.56215896606445,-16.41631965637207,1.6887550108380662e+18,212.49506621093752,-228.64751586914065,132.8799560546875,-148.42031555175782,1.6887550108430548e+18,212.5000546061198,-0.2206914077202478,0.1911384264628092,-0.7411161462465922,0.6039295792579651,-2.606803814570109,1.371084252993266,-0.9877278804779052
2.55,1.6887550108949627e+18,212.5519626464844,-2.7279300689697266,-5.248227119445801,2.489454587300618,1.688755010886307e+18,212.543307047526,-2.527219533920288,-14.654244105021158,2.77587366104126,1.6887550108949627e+18,212.5519626464844,0.1884836355845133,-9.77993806203206,0.563113788763682,1.6887550108949627e+18,212.5519626464844,0.7286095221837362,-0.2275982076923052,3.5612425804138184,1.6887550108992904e+18,212.55629036458333,0.6591745068629582,-0.1500692268212636,3.531768321990967,,,,,,,,,,,,1.6887550108880666e+18,212.5450665527343,17.9022798538208,44.407999420166014,-13.990959739685058,1.6887550108880666e+18,212.5450665527343,-236.626318359375,137.72579956054688,-145.99495849609374,1.6887550108949627e+18,212.5519626464844,-0.2186670502026875,0.177236850063006,-0.6779804428418478,0.6785960594813029,-1.3012326558430989,1.4951927264531453,1.8691411018371584
2.6,1.6887550109468613e+18,212.6038614908854,-7.982990900675456,-5.859441757202148,7.711780707041423,1.6887550109382167e+18,212.5952168782552,-5.317250808080038,-15.904294649759928,7.911070505777995,1.6887550109468613e+18,212.6038614908854,1.7763442595799763,-9.618574778238932,0.6528534591197968,1.6887550109468613e+18,212.6038614908854,-0.4417064674198627,-1.3620258929828803,2.8618528048197427,1.6887550109425434e+18,212.59954321289064,-0.7116580009460449,-0.1443169116973877,2.924899101257324,,,,,,,,,,,,1.6887550109380682e+18,212.59506816406252,9.921039962768557,46.80407867431641,-13.632279777526856,1.6887550109380682e+18,212.59506816406252,-244.60755615234376,140.12187805175782,-145.636279296875,1.6887550109468613e+18,212.6038614908854,-0.2314435144265492,0.1522895296414692,-0.6220210591952006,0.7319807807604471,-0.348848541577657,1.3788595994313555,0.9011377294858296
2.65,1.6887550109987725e+18,212.6557725423177,0.9258431593577068,-0.8710924784342448,0.0524636705716451,1.688755010990118e+18,212.6471179199219,3.4402808292458453,-10.625727653503416,2.789432962735494,1.6887550109987725e+18,212.6557725423177,3.236208995183309,-9.167439460754396,1.1827558676401777,1.6887550109987725e+18,212.6557725423177,-0.1070541342099507,-2.054797902703285,3.9316815535227456,1.6887550109857966e+18,212.64279663085935,-0.2194024274746576,-3.4087807536125183,3.556253751118978,,,,,,,,,,,,1.688755010988063e+18,212.645062890625,4.667720007896423,47.73127899169922,-13.419999885559085,1.688755010988063e+18,212.645062890625,-249.86087341308593,141.0490753173828,-145.4239990234375,1.6887550109987725e+18,212.6557725423177,-0.1992751906315485,0.0698870060344536,-0.5747951070467631,0.7899720668792725,-0.3535649478435516,1.2133126656214397,0.7429179151852926
2.7,1.6887550110506734e+18,212.7076735839844,-9.51930809020996,5.1138715744018555,-2.6651343504587808,1.6887550110420232e+18,212.69902311197916,-3.789034684499105,-5.212564865748087,-1.4951153198877971,1.6887550110506734e+18,212.7076735839844,4.790229479471843,-8.485600789388021,1.0696446498235066,1.6887550110506734e+18,212.7076735839844,0.9869546095530192,-1.8876245419184368,3.227557420730591,1.688755011037702e+18,212.6947021484375,0.9965757330258688,-0.938390796383222,3.4171802202860513,,,,,,,,,,,,1.6887550110380703e+18,212.6950703125,-3.8771598815917967,48.17535934448242,-12.178039932250975,1.6887550110380703e+18,212.6950703125,-258.40576171875,141.49315795898437,-144.18203735351562,1.6887550110506734e+18,212.7076735839844,-0.1745998561382293,0.0411742844929297,-0.5045661826928457,0.84409099817276,-0.2178862492243448,1.0486695369084675,0.5349908371766409
2.75,1.6887550110939264e+18,212.7509263916016,-7.198365926742554,9.387135982513428,-1.6125906109809875,1.6887550110939313e+18,212.75093139648436,-1.532004674275716,1.1597213645776112,0.7527420620123545,1.6887550110939264e+18,212.7509263916016,5.688032388687134,-7.812502384185791,1.663263201713562,1.6887550110939264e+18,212.7509263916016,-0.1866956949234008,-3.5056029558181763,2.981709599494934,1.688755011089607e+18,212.74660693359377,0.0066177099943161,-3.438255071640014,2.9625437259674072,,,,,,,,,,,,1.688755011088068e+18,212.7450682128906,-10.677439880371091,47.5702392578125,-11.277679824829102,1.688755011088068e+18,212.7450682128906,-265.2060302734375,140.88803405761718,-143.28167724609375,1.6887550110939264e+18,212.7509263916016,-0.1364767625927924,-0.0240930086001753,-0.4581594914197922,0.8777832090854645,-0.2812824547290802,0.9241132736206056,0.4490033239126205
2.8,1.6887550111371855e+18,212.7941853841146,-3.3480470180511475,7.995372454325358,2.2364792823791504,1.6887550111458335e+18,212.80283398437496,2.6739793618520102,-0.1072782178719838,4.256632169087728,1.6887550111371855e+18,212.7941853841146,5.922062714894612,-7.485345363616943,2.263746658960978,1.6887550111371855e+18,212.7941853841146,0.3336851398150126,-1.3570371121168137,0.1022181361913681,1.688755011141509e+18,212.79850919596356,0.386626789967219,-1.0812314640109737,-0.1904372374216715,,,,,,,,,,,,1.6887550111380682e+18,212.7950682617187,-13.317519760131836,46.90411911010742,-12.734359741210938,1.6887550111380682e+18,212.7950682617187,-267.8461120605469,140.22191772460937,-144.7383544921875,1.6887550111371855e+18,212.7941853841146,-0.1132230460643767,-0.0728814800580342,-0.4397086997826894,0.8879496057828268,-0.3631709317366282,0.8701683481534322,0.4239308933417002
2.85,1.68875501118909e+18,212.84609008789064,-2.1999922593434653,5.0837992032368975,1.0889576276143391,1.6887550111977408e+18,212.85474064127604,3.65822696685791,-3.162314494450887,2.9491539001464844,1.68875501118909e+18,212.84609008789064,5.292253335316976,-7.997103850046794,2.0302108923594155,1.68875501118909e+18,212.84609008789064,0.791019598642985,0.7493789394696554,-2.547359029452006,1.6887550111934167e+18,212.85041666666663,0.8020660479863485,0.7723372975985209,-2.693813959757487,,,,,,,,,,,,1.6887550111880635e+18,212.8450639160156,-10.330959701538086,47.660519409179685,-11.71200008392334,1.6887550111880635e+18,212.8450639160156,-264.85955200195315,140.9783172607422,-143.71600036621095,1.68875501118909e+18,212.84609008789064,-0.1049842089414596,-0.0604467640320459,-0.4762473503748576,0.8706770936648051,-0.3641518553098042,0.9561647375424704,0.4301751454671224
2.9,1.6887550112409948e+18,212.89799479166663,8.38477881749471,-3.810557206471761,-1.4210299253463743,1.6887550112496486e+18,212.9066486002604,10.855239073435463,-18.61954991022746,0.215154637893041,1.6887550112409948e+18,212.89799479166663,4.025133450826009,-8.775334358215332,1.703905979792277,1.6887550112409948e+18,212.89799479166663,0.2889901598294576,-0.2439897668858369,-2.396780699491501,1.6887550112453217e+18,212.90232169596356,0.1747583746910095,-0.3584760862092177,-1.8440494934717817,,,,,,,,,,,,1.6887550112380687e+18,212.89506865234375,-2.5815199613571167,48.68287887573242,-9.725839614868164,1.6887550112380687e+18,212.89506865234375,-257.11011657714846,142.00067443847655,-141.7298370361328,1.6887550112409948e+18,212.89799479166663,-0.0976141343514124,-0.0398752888043721,-0.5418663422266642,0.8336296876271566,-0.4002269705136617,1.1103851397832234,0.4841498732566833
2.95,1.6887550112928965e+18,212.9498964029948,8.586101214090982,-9.323288281758629,1.1275501251220703,1.6887550112928998e+18,212.94989978027343,16.08395528793335,-17.59352731704712,2.955135941505432,1.6887550112928965e+18,212.9498964029948,4.182136217753093,-8.611358960469564,2.1323960622151694,1.6887550112928965e+18,212.9498964029948,0.2557998100916545,-3.1245247522989907,1.8012888828913372,1.6887550112972257e+18,212.95422542317704,0.3751730819543202,-3.1679981549580893,1.57633775472641,,,,,,,,,,,,1.6887550112880645e+18,212.94506411132815,-0.644159996509552,48.968359375,-9.92103977203369,1.6887550112880645e+18,212.94506411132815,-255.1727508544922,142.2861541748047,-141.92503662109374,1.6887550112928965e+18,212.9498964029948,-0.068220446507136,-0.0850704871118068,-0.5287812948226929,0.8412913680076599,-0.4686336517333984,1.0733803908030193,0.4439157048861186
3.0,1.6887550113448038e+18,213.00180395507812,-11.421502908070885,0.228609561920166,8.158766905466715,1.688755011336154e+18,212.99315372721352,-3.779862326259414,-6.77826847632726,10.793823719024658,1.6887550113448038e+18,213.00180395507812,4.015055100123088,-8.673920631408691,2.2018799781799316,1.6887550113448038e+18,213.00180395507812,0.229634424050649,0.4787656267484029,-0.947706510623296,1.688755011349128e+18,213.0061280924479,0.1168279784421126,0.6578509509563446,-0.9530515919129052,,,,,,,,,,,,1.6887550113380646e+18,212.99506474609376,-1.3956799745559691,49.16843872070312,-9.008479690551756,1.6887550113380646e+18,212.99506474609376,-255.9242706298828,142.48623657226562,-141.0124725341797,1.6887550113448038e+18,213.00180395507812,-0.0422400012612342,-0.1060162236293156,-0.5332748095194498,0.838110109170278,-0.4996103346347809,1.0866390466690063,0.4066284398237864
3.05,1.68875501139671e+18,213.0537101236979,0.3584900697072347,-0.6841233571370443,-6.533994197845459,1.6887550113880586e+18,213.0450585123698,2.284946203231811,-9.826724211374918,-3.7840495904286704,1.68875501139671e+18,213.0537101236979,3.6049579779307046,-8.907548904418945,1.9496695200602217,1.68875501139671e+18,213.0537101236979,0.5455535675088564,0.9753990769386292,-1.6590081850687664,1.68875501139239e+18,213.04938989257812,0.5498550832271576,0.6648504874901846,-1.1535427123308184,,,,,,,,,,,,1.688755011388071e+18,213.04507075195315,0.7588399767875671,48.83171844482422,-8.239879703521728,1.688755011388071e+18,213.04507075195315,-253.7697540283203,142.14952392578124,-140.24387817382814,1.68875501139671e+18,213.0537101236979,-0.0509399672349293,-0.0850566079219182,-0.5560794075330099,0.824990471204122,-0.4925991396109263,1.1412713130315144,0.44313645362854
3.1,1.688755011448614e+18,213.1056143391927,-6.499952952067058,0.1325480143229166,1.026171584924062,1.6887550114399654e+18,213.09696533203123,-2.8189445845782757,-9.85464064280192,1.7712869594494502,1.688755011448614e+18,213.1056143391927,2.4440553188323975,-9.423721631368002,1.131680428981781,1.688755011448614e+18,213.1056143391927,0.4100433066487312,4.6244025230407715,-3.086803913116455,1.6887550114356357e+18,213.0926356608073,0.6280712783336639,3.9874228636423745,-3.156951586405436,,,,,,,,,,,,1.6887550114380664e+18,213.09506640625,5.777919912338257,48.47791976928711,-7.293159866333008,1.6887550114380664e+18,213.09506640625,-248.75067443847655,141.79571838378905,-139.29715881347656,1.688755011448614e+18,213.1056143391927,-0.0907404050230979,-0.0009094822065283,-0.6123590071996053,0.7842557032903036,-0.4282622238000234,1.2943222125371296,0.5565138459205627
3.15,1.6887550115005156e+18,213.15751554361975,-3.870789567629496,2.53072182337443,-0.665054460366567,1.6887550114918684e+18,213.1488682454427,-3.8261234064896903,-6.981658299763997,0.5924229944745699,1.6887550115005156e+18,213.15751554361975,1.0248623887697856,-9.694077809651692,1.007950484752655,1.6887550115005156e+18,213.15751554361975,-1.1524481773376465,2.3548345963160195,-3.117550770441691,1.688755011487544e+18,213.1445437825521,-0.7206682587663332,3.054835240046183,-3.1218268871307373,,,,,,,,,,,,1.68875501148807e+18,213.14506982421875,11.743719673156738,47.02367935180664,-9.008479690551756,1.68875501148807e+18,213.14506982421875,-242.78487854003907,140.3414764404297,-141.0124755859375,1.6887550115005156e+18,213.15751554361975,-0.1537855118513106,0.0714970616002877,-0.6658345659573873,0.726022203763326,-0.8135914405186971,1.4201546510060628,1.134501616160075
3.2,1.6887550115437665e+18,213.2007664794922,-3.419526219367981,-2.20553207397461,-1.117677092552185,1.68875501154377e+18,213.20076969401043,-2.5178475777308145,-10.9322083791097,0.2606182744105657,1.6887550115437665e+18,213.2007664794922,-0.0307879298925399,-9.682153224945068,1.567053735256195,1.6887550115437665e+18,213.2007664794922,-1.2408200204372406,1.1380419433116913,-2.192548096179962,1.6887550115394424e+18,213.1964423828125,-1.2809844017028809,1.2540045579274497,-2.325665831565857,,,,,,,,,,,,1.6887550115380626e+18,213.19506254882813,17.12635955810547,44.36163864135742,-13.468799781799316,1.6887550115380626e+18,213.19506254882813,-237.40223388671876,137.67943725585937,-145.4727996826172,1.6887550115437665e+18,213.2007664794922,-0.1957463324069976,0.0861736759543418,-0.7036712467670441,0.6774869859218597,-1.5975425243377686,1.4103522300720217,2.000250816345215
3.25,1.688755011587024e+18,213.2440241699219,2.0224988957246146,0.1467008590698242,-2.6903369426727295,1.6887550115956744e+18,213.25267431640623,1.781456470489502,-9.039884567260742,-1.1569297313690186,1.688755011587024e+18,213.2440241699219,-0.7904580434163412,-9.64246114095052,1.60332190990448,1.688755011587024e+18,213.2440241699219,0.3475314229726791,0.1113810949027538,-1.8260289430618288,1.6887550115913526e+18,213.2483527018229,0.4391612062851588,0.2231185336907704,-1.830864946047465,1.688755011582693e+18,213.2396931152344,0.0,0.0,2.5023603439331055,6.214000225067139,1.2014714479446411,63.203975677490234,332.79998779296875,-122.9161027,49.2785346,1.688755011588066e+18,213.24506616210937,21.310959243774413,42.19491882324219,-14.700999641418456,1.688755011588066e+18,213.24506616210937,-233.21763610839844,135.5127166748047,-146.7049987792969,1.688755011587024e+18,213.2440241699219,-0.1952516734600066,0.0944795534014701,-0.7295906941095988,0.6484346787134806,-2.038175622622172,1.385731220245361,2.452641725540161
3.3,1.6887550116389345e+18,213.2959344889323,2.6676930586496987,2.5366477966308594,-1.6729498108228047,1.688755011647583e+18,213.3045828450521,1.2861421803633373,-7.106284459431966,0.0925224870443344,1.6887550116389345e+18,213.2959344889323,-1.5566891034444172,-9.595317840576172,1.3075702985127766,1.6887550116389345e+18,213.2959344889323,0.7225008805592855,1.5492560863494873,-1.6007723808288574,1.6887550116432591e+18,213.30025919596355,0.6951646407445272,1.5570955276489258,-1.5694655577341716,,,,,,,,,,,,1.6887550116380623e+18,213.29506230468752,24.536639785766603,40.69187927246094,-14.713199806213378,1.6887550116380623e+18,213.29506230468752,-229.9919586181641,134.00968017578126,-146.71719665527343,1.6887550116389345e+18,213.2959344889323,-0.1990720977385839,0.1349502652883528,-0.7496354977289835,0.6163901885350546,-2.449362277984619,1.3604416052500408,2.9290055433909097
3.35,1.688755011690836e+18,213.3478359375,3.315584897994995,0.674396832784017,-0.6872591574986776,1.6887550116994867e+18,213.35648657226565,0.8005985915660858,-9.031310399373371,0.603390117486318,1.688755011690836e+18,213.3478359375,-2.113055388132731,-9.49478276570638,1.2666458288828533,1.688755011690836e+18,213.3478359375,-0.0547742495934168,1.0585276285807292,-1.1072950561841328,1.688755011695154e+18,213.35215380859373,-0.1204931686321894,1.0160216291745503,-1.0225884119669597,,,,,,,,,,,,1.6887550116880676e+18,213.34506752929687,26.593559646606444,39.16931991577148,-15.52083969116211,1.6887550116880676e+18,213.34506752929687,-227.9350372314453,132.48711853027345,-147.52483825683595,1.688755011690836e+18,213.3478359375,-0.2143883456786473,0.1687874396642048,-0.7616675496101379,0.5876308878262838,-2.608027378718058,1.315643310546875,-1.0273566246032717
3.4,1.6887550117427407e+18,213.39974072265625,2.0402913093566895,-0.500028928120931,-1.6406675577163696,1.6887550117427402e+18,213.399740234375,-0.4612165465950965,-9.929914951324465,0.0628115981817245,1.6887550117427407e+18,213.39974072265625,-2.416825453440348,-9.38715680440267,1.5032044649124146,1.6887550117427407e+18,213.39974072265625,-0.4426736831665039,0.5401575962702433,-0.8038477500279745,1.6887550117470666e+18,213.40406632486977,-0.4754567941029866,0.5134322245915731,-0.8385652899742126,,,,,,,,,,,,1.6887550117380644e+18,213.39506459960936,27.34751968383789,37.79804000854492,-17.30203971862793,1.6887550117380644e+18,213.39506459960936,-227.1810760498047,131.11583862304687,-149.30603637695313,1.6887550117427407e+18,213.39974072265625,-0.2305806130170822,0.1782278617223104,-0.7696274121602377,0.5680535038312277,-2.59090805053711,1.2751888434092205,-3.0990792910257974
3.45,1.688755011794643e+18,213.45164290364585,1.1306380033493042,-3.647111256917318,-5.717005729675293,1.6887550117859955e+18,213.44299552408856,-1.560718576113383,-11.862418174743652,-3.365903894106547,1.688755011794643e+18,213.45164290364585,-2.732496738433838,-9.255230267842611,1.7625917196273804,1.688755011794643e+18,213.45164290364585,-0.4480696668227513,-0.2111557597915331,-0.4320853551228841,1.6887550117989673e+18,213.45596736653647,-0.3582724556326866,-0.3305799166361491,-0.3757330377896626,,,,,,,,,,,,1.6887550117880663e+18,213.44506625976564,28.57483940124512,36.30231857299805,-18.8392391204834,1.6887550117880663e+18,213.44506625976564,-225.95375366210936,129.62012329101563,-150.8432373046875,1.688755011794643e+18,213.45164290364585,-0.2383435616890589,0.175544907649358,-0.7805965344111124,0.5504788557688395,-2.573782761891683,1.231835126876831,-3.106473128000895
3.5,1.6887550118465513e+18,213.50355126953124,4.452550490697225,-6.490058898925781,-2.7787996530532837,1.6887550118378998e+18,213.4948997395833,0.9365906914075216,-16.08774407704671,-2.1736799776554108,1.6887550118465513e+18,213.50355126953124,-2.855404853820801,-9.268715858459473,1.4664607048034668,1.6887550118465513e+18,213.50355126953124,0.8141306440035502,-0.4038328329722087,0.1880955894788106,1.6887550118422272e+18,213.49922729492187,0.8507061898708345,-0.5552765354514122,-0.2309834081679583,,,,,,,,,,,,1.688755011838059e+18,213.4950588867187,29.31415901184082,35.60447998046875,-18.23411979675293,1.688755011838059e+18,213.4950588867187,-225.2144348144531,128.92228088378906,-150.2381164550781,1.6887550118465513e+18,213.50355126953124,-0.2184640765190124,0.175642117857933,-0.7845313747723898,0.5530568559964498,-2.6729915936787925,1.2361549536387126,-3.0371310710906982
3.55,1.6887550118984558e+18,213.55545581054687,-0.9955275456110636,-3.825608253479004,0.4597092469533284,1.6887550118898053e+18,213.5468051757813,-1.4470594724019368,-13.980664571126304,1.3680963516235352,1.6887550118984558e+18,213.55545581054687,-1.7054344813028972,-9.584012031555176,1.0921604235967,1.6887550118984558e+18,213.55545581054687,0.8553640643755595,0.4753040615469217,3.484528064727783,1.6887550118854758e+18,213.54247583007813,0.8287914196650187,0.6058256129423777,2.8958067099253335,,,,,,,,,,,,1.688755011888068e+18,213.5450682617187,27.013239669799805,38.222599029541016,-16.31383934020996,1.688755011888068e+18,213.5450682617187,-227.5153564453125,131.54039611816407,-148.31783447265624,1.6887550118984558e+18,213.55545581054687,-0.2243071794509887,0.1854906479517618,-0.7436501383781433,0.6012711723645529,-2.5573083559672036,1.3608287970225017,-1.0399712721506755
3.6,1.688755011950362e+18,213.60736189778643,-2.4105588595072427,-4.491893450419108,3.72786283493042,1.6887550119417108e+18,213.59871085611977,-2.561716079711914,-13.40140183766683,3.7972100575764975,1.688755011950362e+18,213.60736189778643,0.2216609368721643,-9.756810188293455,0.835772971312205,1.688755011950362e+18,213.60736189778643,0.110566617300113,-0.5649485439062119,3.97306752204895,1.6887550119373824e+18,213.59438256835935,0.413657583296299,-0.6018040776252747,3.9409971237182617,,,,,,,,,,,,1.6887550119380682e+18,213.5950682128906,18.15115947723389,43.5247184753418,-14.901079559326172,1.6887550119380682e+18,213.5950682128906,-236.3774383544922,136.84252014160157,-146.90508117675782,1.688755011950362e+18,213.60736189778643,-0.2283544540405273,0.1671180129051208,-0.6791070898373922,0.676708976427714,-1.3915774027506511,1.469117800394694,1.9591986735661824
3.65,1.6887550119936148e+18,213.65061499023437,-4.1548731327056885,-5.802902698516846,7.632130861282349,1.6887550119936115e+18,213.65061149088535,-2.504088878631592,-15.456438064575195,8.096912860870361,1.6887550119936148e+18,213.65061499023437,1.7666731476783752,-9.596848011016846,0.9731815457344056,1.6887550119936148e+18,213.65061499023437,-0.4634940028190613,0.1111011244356632,3.287065863609314,1.6887550119892902e+18,213.64629036458336,-0.4248058795928955,0.007737619181474,3.4146858056386313,,,,,,,,,,,,1.6887550119880678e+18,213.64506772460936,9.808799839019777,46.20139923095703,-14.903519630432127,1.6887550119880678e+18,213.64506772460936,-244.71979675292968,139.51919860839843,-146.9075164794922,1.6887550119936148e+18,213.65061499023437,-0.2447345554828643,0.1425767987966537,-0.6247730255126953,0.7275008261203766,-0.5084918737411499,1.3653783798217771,1.066385805606842
3.7,1.6887550120368645e+18,213.6938642578125,-0.9249804814656576,-2.554567019144694,0.7650931278864542,1.6887550120455196e+18,213.70251928710937,2.652444044748942,-11.60678513844808,0.5812565187613169,1.6887550120368645e+18,213.6938642578125,2.91415023803711,-9.249668757120768,1.4043240944544475,1.6887550120368645e+18,213.6938642578125,-0.4463897844155629,-2.410932461420695,3.3683110078175864,1.688755012041187e+18,213.69818693033855,-0.3969096938769023,-2.3304508924484253,3.4535775979359946,,,,,,,,,,,,1.6887550120380603e+18,213.6950602050781,3.3061999440193177,46.96755828857422,-15.635519790649417,1.6887550120380603e+18,213.6950602050781,-251.22239379882816,140.2853576660156,-147.63952026367187,1.6887550120368645e+18,213.6938642578125,-0.2370540797710418,0.0888236487905184,-0.5861766934394836,0.7689308921496073,-0.4491443634033203,1.236251950263977,0.9209711949030558
3.75,1.688755012088775e+18,213.74577465820315,-5.818305333455403,-0.060343583424886,-2.9057305256525674,1.6887550120974244e+18,213.7544243977865,-2.6977082192897797,-6.999604384104411,-0.9994022597869238,1.688755012088775e+18,213.74577465820315,4.385738849639893,-8.648975372314453,1.4386556545893352,1.688755012088775e+18,213.74577465820315,0.7648542026678721,-0.5315545797348024,2.975779136021932,1.6887550120931028e+18,213.75010270182293,0.820290207862854,-0.7387396891911825,2.8547768592834473,,,,,,,,,,,,1.6887550120880653e+18,213.74506508789065,-4.116279864311219,47.21399841308594,-14.61803970336914,1.6887550120880653e+18,213.74506508789065,-258.644873046875,140.53179931640625,-146.62203979492188,1.688755012088775e+18,213.74577465820315,-0.2220807224512099,0.0531642461816469,-0.5235504706700643,0.8205592234929403,-0.3180550138155619,1.0821777979532878,0.7219678163528442
3.8,1.688755012140679e+18,213.79767879231773,-10.10094197591146,8.31339406967163,-1.448021372159322,1.6887550121493297e+18,213.80632950846356,-4.3676988283793134,1.1890334288279216,0.3076771100362142,1.688755012140679e+18,213.79767879231773,5.166080633799235,-8.16189161936442,1.689820647239685,1.688755012140679e+18,213.79767879231773,0.434427003065745,-3.0043371518452964,2.1032599608103433,1.6887550121450053e+18,213.8020051269531,0.3736459054052829,-3.0393600463867188,2.0784180959065757,,,,,,,,,,,,1.6887550121380664e+18,213.79506645507817,-9.05483989715576,47.24571914672852,-13.43464012145996,1.6887550121380664e+18,213.79506645507817,-263.58343505859375,140.56351318359376,-145.43863830566406,1.688755012140679e+18,213.79767879231773,-0.1801231602827707,0.0028260769322514,-0.4867195387681325,0.8543806274731954,-0.313804676135381,0.9851685365041096,0.5847878654797872
3.85,1.6887550121925814e+18,213.8495814615885,-3.976627985636393,9.51461617151896,-0.7077182531356812,1.6887550121925837e+18,213.84958361816405,1.617548070847988,1.9806589782238009,1.8448662757873535,1.6887550121925814e+18,213.8495814615885,5.490423679351807,-7.777070999145508,2.364872137705485,1.6887550121925814e+18,213.8495814615885,0.37593666339914,-1.999005635579427,0.5342016418774923,1.6887550121969098e+18,213.85390991210937,0.463493996610244,-1.8097391525904336,0.2542217473189036,,,,,,,,,,,,1.6887550121880684e+18,213.84506821289065,-10.997080039978028,46.35755844116211,-13.83723964691162,1.6887550121880684e+18,213.84506821289065,-265.5256713867187,139.67536010742188,-145.84123840332032,1.6887550121925814e+18,213.8495814615885,-0.1426482697327931,-0.0613189401725927,-0.4656470417976379,0.8711315393447876,-0.4052769641081492,0.9173185626665752,0.5267884532610575
3.9,1.6887550122444849e+18,213.90148478190105,0.9610746701558432,6.391639868418376,0.7118995587031046,1.6887550122358362e+18,213.89283626302085,5.553342501322429,-1.57387908299764,2.8933213551839194,1.6887550122444849e+18,213.90148478190105,4.846441904703776,-8.25190289815267,2.1105589469273887,1.6887550122444849e+18,213.90148478190105,1.5745560725529988,0.214108278354009,-2.6412795384724936,1.6887550122488113e+18,213.9058112792969,1.6240870555241902,0.2950479214390119,-2.7993408838907876,,,,,,,,,,,,1.6887550122380616e+18,213.89506152343748,-7.956839752197266,47.46775894165039,-12.607479858398438,1.6887550122380616e+18,213.89506152343748,-262.4854370117188,140.78555603027343,-144.61147766113282,1.6887550122444849e+18,213.90148478190105,-0.1141481523712475,-0.0582654662430285,-0.4996904730796814,0.8563675681749979,-0.4081496099630992,1.002748390038808,0.490494300921758
3.95,1.688755012296393e+18,213.95339322916664,5.735338846842448,-2.2529932657877603,1.2046950260798135,1.6887550122877422e+18,213.94474218749997,8.165906111399332,-7.090332269668579,2.317049980163574,1.688755012296393e+18,213.95339322916664,3.589427947998047,-8.983346303304037,1.5988202492396038,1.688755012296393e+18,213.95339322916664,0.311032215754191,-0.6830491404980421,-2.2003875275452933,1.6887550122920689e+18,213.94906896972657,0.6541602946817875,-0.4714352488517761,-2.8697686195373535,,,,,,,,,,,,1.6887550122880663e+18,213.94506645507812,-0.2635200142860412,48.60479888916016,-9.2768798828125,1.6887550122880663e+18,213.94506645507812,-254.7921112060547,141.92259826660157,-141.28087463378907,1.688755012296393e+18,213.95339322916664,-0.0915597801407177,-0.0358212329447268,-0.5622124274571737,0.8209698994954427,-0.4190791845321655,1.15975554784139,0.4996547202269236
4.0,1.688755012348298e+18,214.00529809570313,8.478555679321289,-13.479866663614908,3.9833131631215415,1.6887550123396472e+18,213.9966472981771,12.151351610819498,-25.860830307006836,6.267400582631429,1.688755012348298e+18,214.00529809570313,3.699651797612508,-8.784792264302572,2.3051488399505615,1.688755012348298e+18,214.00529809570313,-0.145335012425979,-3.483102718989054,1.986279288927714,1.6887550123353193e+18,213.99231941731773,-0.6246606310208639,-3.0797789494196572,1.7567466497421265,,,,,,,,,,,,1.6887550123380657e+18,213.995065625,2.608359932899475,48.69507904052735,-9.92591972351074,1.6887550123380657e+18,213.995065625,-251.92023315429688,142.01287841796875,-141.92992248535157,1.688755012348298e+18,214.00529809570313,-0.063073548177878,-0.0989845817287762,-0.5490167339642843,0.8269880811373392,-0.5545263290405273,1.1116680304209392,0.5021887222925822
4.05,1.6887550124001984e+18,214.0571984049479,-7.447862148284912,-1.313901424407959,2.782872200012207,1.6887550123915515e+18,214.04855175781253,-0.8301099141438802,-9.613563696543377,6.641079902648926,1.6887550124001984e+18,214.0571984049479,3.8410173257191977,-8.686146100362143,2.4555393060048423,1.6887550124001984e+18,214.0571984049479,0.1535308013359705,0.0330885450045267,0.2608903745810191,1.6887550123872276e+18,214.0442274576823,0.4403320314983527,-0.8379544119040171,0.4167628288269043,,,,,,,,,,,,1.6887550123880696e+18,214.04506953125,0.8979199528694153,48.812198638916016,-9.26467971801758,1.6887550123880696e+18,214.04506953125,-253.63067626953125,142.12999877929687,-141.2686767578125,1.6887550124001984e+18,214.0571984049479,-0.030993495757381,-0.1293904582659402,-0.5364466508229574,0.8333689570426941,-0.5669979453086853,1.0888803005218506,0.423582782347997
4.1,1.6887550124434542e+18,214.10045422363285,-6.10459566116333,4.17823600769043,-3.081687748432159,1.6887550124434534e+18,214.1004532063802,-0.6997011502583822,-5.919643719991048,-0.7334001660346985,1.6887550124434542e+18,214.10045422363285,3.684391498565674,-8.797722816467285,2.2870956659317017,1.6887550124434542e+18,214.10045422363285,0.2167044430971145,1.5080735981464386,-1.6531540751457214,1.6887550124391288e+18,214.0961285807292,0.1007927656173706,1.363705764214198,-1.2463687521715958,,,,,,,,,,,,1.6887550124380703e+18,214.09507041015627,0.0805200114846229,48.65848007202148,-8.901119613647461,1.6887550124380703e+18,214.09507041015627,-254.4480773925781,141.97627868652344,-140.90511474609374,1.6887550124434542e+18,214.10045422363285,-0.0417342968285083,-0.1122391261160373,-0.5476201474666595,0.8280227482318878,-0.5537503361701965,1.1144065856933594,0.4513005763292312
4.15,1.6887550124867103e+18,214.14371069335937,-4.595876296361287,-0.2104520797729493,-1.0105126301447551,1.688755012495362e+18,214.15236222330728,-3.288535952568054,-9.763713200887045,0.7563313438246647,1.6887550124867103e+18,214.14371069335937,2.8011959393819175,-9.24702231089274,1.6176162163416543,1.6887550124867103e+18,214.14371069335937,0.3920227599640687,4.163199345270793,-3.5938220818837485,1.6887550124910374e+18,214.14803735351563,0.3008511364459991,4.256356398264567,-3.806403160095215,,,,,,,,,,,,1.688755012488069e+18,214.145069140625,4.050399875640869,48.024079132080075,-8.383839797973632,1.688755012488069e+18,214.145069140625,-250.4781982421875,141.3418731689453,-140.3878387451172,1.6887550124867103e+18,214.14371069335937,-0.0802187832693258,-0.0416676293437679,-0.5956506927808126,0.7970117131868998,-0.5231493016084036,1.235966682434082,0.578207274278005
4.2,1.6887550125386158e+18,214.19561564127605,-7.013964335123698,-1.4743029276529949,-1.0612436135609944,1.6887550125472632e+18,214.20426310221356,-6.8412792682647705,-12.35932763417562,0.0420737862586975,1.6887550125386158e+18,214.19561564127605,1.0228712956110635,-9.63402016957601,1.486093799273173,1.6887550125386158e+18,214.19561564127605,-1.274061282475789,3.847941954930623,-3.5539122422536216,1.688755012542943e+18,214.19994287109375,-1.322777767976125,3.6546031634012857,-3.286302328109741,,,,,,,,,,,,1.6887550125380616e+18,214.1950615722656,13.581039810180664,45.693878173828125,-11.851079940795898,1.6887550125380616e+18,214.1950615722656,-240.9475555419922,139.0116760253906,-143.85507507324218,1.6887550125386158e+18,214.19561564127605,-0.1581386427084604,0.0428626934687296,-0.6680947542190552,0.7248144745826721,-0.9832783341407776,1.3832125663757324,1.2698764006296794
4.25,1.6887550125905175e+18,214.2475174967448,-1.597600184381008,-3.5684337615966797,-3.872704903284709,1.688755012599168e+18,214.2561678873698,1.3170494238535564,-11.933804194132486,-1.5892330408096311,1.6887550125905175e+18,214.2475174967448,-0.0186155854413906,-9.633609771728516,1.8249717156092329,1.6887550125905175e+18,214.2475174967448,-0.2401209473609924,-0.8695157567660013,-1.9656625191370647,1.688755012594847e+18,214.25184700520833,-0.0900517180562019,-1.088714559872945,-2.0451260010401406,,,,,,,,,,,,1.6887550125880704e+18,214.24507055664063,17.711959266662596,43.59303970336914,-15.164599800109864,1.6887550125880704e+18,214.24507055664063,-236.8166351318359,136.91083679199218,-147.1686004638672,1.6887550125905175e+18,214.2475174967448,-0.1910718629757563,0.0620254687964916,-0.7055613795916239,0.679348369439443,-1.5895302693049114,1.3818156719207764,1.9510469039281209
4.3,1.6887550126424256e+18,214.29942537434897,4.73392669359843,2.7343626022338867,-0.5030626853307089,1.688755012642425e+18,214.2994255371094,3.917349755764008,-6.653841495513916,1.0166504979133606,1.6887550126424256e+18,214.29942537434897,-1.2231210072835286,-9.610181172688804,1.5121604204177856,1.6887550126424256e+18,214.29942537434897,1.154077152411143,1.328937311967214,-2.482149044672648,1.688755012646753e+18,214.3037530110677,1.2140437761942546,1.6771813929080963,-2.4062999884287515,1.6887550126208005e+18,214.2778005371094,0.0,0.0,2.5119528770446777,6.260000228881836,1.180107355117798,57.908897399902344,332.79998779296875,-122.9161006,49.2785486,1.6887550126380662e+18,214.29506606445312,23.060439682006837,41.30919876098633,-13.71035976409912,1.6887550126380662e+18,214.29506606445312,-231.46815490722656,134.6269958496094,-145.7143585205078,1.6887550126424256e+18,214.29942537434897,-0.1725963701804478,0.0820884692172208,-0.7456793586413065,0.6378807425498962,-2.25449808438619,1.3685050408045452,2.6185938517252603
4.35,1.68875501269433e+18,214.3513301595052,2.1542434692382812,5.47141710917155,1.153446873029073,1.6887550126856786e+18,214.34267846679683,0.3417748274902503,-4.021936019261678,2.22293229897817,1.68875501269433e+18,214.3513301595052,-1.9343666235605876,-9.552618344624838,1.099719246228536,1.68875501269433e+18,214.3513301595052,1.2767592668533323,2.7036894957224527,-1.5338317155838013,1.6887550126986568e+18,214.35565657552084,1.1707232395807905,2.4982352256774902,-1.516574780146281,,,,,,,,,,,,1.6887550126880663e+18,214.34506625976564,25.473599243164063,39.90863876342773,-14.242279815673829,1.6887550126880663e+18,214.34506625976564,-229.05499572753905,133.2264373779297,-146.24627685546875,1.68875501269433e+18,214.3513301595052,-0.2003908554712931,0.1602661609649657,-0.757187028725942,0.600236972173055,-2.628055969874064,1.3402880430221558,-1.0413288275400798
4.4,1.6887550127462351e+18,214.40323510742184,2.149857441584269,1.2843761444091797,0.0616254011789957,1.6887550127375852e+18,214.3945851236979,-0.1465603858232498,-7.302894592285156,1.697308897972107,1.6887550127462351e+18,214.40323510742184,-2.4336697260538735,-9.428590138753256,1.180573145548503,1.6887550127462351e+18,214.40323510742184,-0.6122905910015106,0.6536258061726888,-0.8090401291847229,1.6887550127505644e+18,214.407564453125,-0.7053457399209341,0.5935573975245158,-0.7509570022424062,,,,,,,,,,,,1.688755012738069e+18,214.39506884765623,27.2596794128418,38.5275993347168,-15.457399559020995,1.688755012738069e+18,214.39506884765623,-227.26891479492187,131.84539794921875,-147.46139831542968,1.6887550127462351e+18,214.40323510742184,-0.2185885508855183,0.1885693420966465,-0.7676458756128947,0.5721086661020914,-2.695394436518351,1.289984901746114,-2.99771253267924
4.45,1.6887550127981391e+18,214.45513899739584,3.418967048327128,-1.7414884567260742,-3.408362706502279,1.6887550127894856e+18,214.44648551432292,0.0532402992248535,-10.88574759165446,-1.034895807504654,1.6887550127981391e+18,214.45513899739584,-2.845949331919352,-9.254172325134276,1.5705997149149578,1.6887550127981391e+18,214.45513899739584,-0.8840747475624084,-0.4321362587312857,-1.0096075336138408,1.688755012793809e+18,214.45080871582033,-0.8637634813785553,-0.6725626289844513,-1.160643994808197,,,,,,,,,,,,1.6887550127880635e+18,214.44506337890624,28.67975959777832,36.87815933227539,-17.36059989929199,1.6887550127880635e+18,214.44506337890624,-225.84884033203124,130.19595947265626,-149.36459655761718,1.6887550127981391e+18,214.45513899739584,-0.2254637827475865,0.1760480999946594,-0.7840707699457804,0.5507354338963827,-2.6409781773885093,1.2318516572316487,-3.057835817337036
4.5,1.688755012850041e+18,214.5070410970052,1.154715935389201,-5.933638572692871,-7.669106483459473,1.6887550128413878e+18,214.4983876139323,-1.0817552407582602,-14.12941805521647,-5.583651542663574,1.688755012850041e+18,214.5070410970052,-2.945009469985962,-9.171097755432127,1.8576630353927612,1.688755012850041e+18,214.5070410970052,-0.1737911502520243,0.4621704642971356,0.0836885439542432,1.6887550128370688e+18,214.49406892903644,-0.5936083098252615,0.4841616104046504,-0.0369064360857009,,,,,,,,,,,,1.6887550128380662e+18,214.49506616210937,29.90219955444336,34.9261589050293,-18.275599670410156,1.6887550128380662e+18,214.49506616210937,-224.6263916015625,128.24396057128905,-150.27959594726562,1.688755012850041e+18,214.5070410970052,-0.2359641194343566,0.1693488111098607,-0.7887683709462484,0.5417301654815674,-2.58248504002889,1.206924517949422,-3.109299341837565
4.55,1.688755012893292e+18,214.5502921142578,2.219122052192688,-7.091837406158447,-4.319209098815918,1.6887550128932923e+18,214.55029215494793,-1.016550789276759,-16.31007671356201,-2.319442788759867,1.688755012893292e+18,214.5502921142578,-2.8850879669189453,-9.259958744049072,1.4623030424118042,1.688755012893292e+18,214.5502921142578,1.4587461948394775,-0.6602689772844315,0.5244277864694595,1.6887550128889715e+18,214.5459715169271,1.2719232837359111,-0.4977533767620722,0.5104288309812546,,,,,,,,,,,,1.6887550128880622e+18,214.54506215820317,29.74847984313965,35.433678436279294,-17.91203956604004,1.6887550128880622e+18,214.54506215820317,-224.78011474609377,128.75147705078126,-149.9160369873047,1.688755012893292e+18,214.5502921142578,-0.2228002846240997,0.1826240867376327,-0.7838402986526489,0.5500260293483734,-2.6774898767471313,1.233528196811676,-3.015541911125183
4.6,1.688755012936543e+18,214.59354305013025,1.0245814720789594,-6.4914960861206055,2.8230985403060913,1.688755012945196e+18,214.60219604492184,-0.9517452120780944,-16.00180212656657,4.244867324829102,1.688755012936543e+18,214.59354305013025,-1.758443792661031,-9.59090773264567,0.9030492703119912,1.688755012936543e+18,214.59354305013025,1.0840821663538616,0.1070541540781656,3.7064249515533447,1.6887550129408694e+18,214.5978693033854,1.0192286570866902,0.2751438816388448,3.8676934242248535,,,,,,,,,,,,1.6887550129380598e+18,214.595059765625,25.761519622802737,39.29131927490234,-15.091399765014648,1.6887550129380598e+18,214.595059765625,-228.76707458496097,132.60911560058594,-147.09539794921875,1.688755012936543e+18,214.59354305013025,-0.2123225529988606,0.1863420059283574,-0.7451395789782206,0.6033803423245748,-2.6513635317484536,1.3660170237223308,-0.96255095799764
4.65,1.688755012988454e+18,214.64545434570311,-2.5173141956329346,-7.3151200612386065,6.303640524546306,1.688755012997107e+18,214.65410693359377,-2.3643081982930503,-17.289140701293945,7.660422484079997,1.688755012988454e+18,214.64545434570311,0.2372895777225494,-9.7750612894694,0.6155295968055725,1.688755012988454e+18,214.64545434570311,0.4339179495970407,1.1708250840504963,3.628183205922445,1.688755012992778e+18,214.6497778320312,0.4114177425702413,1.1679234107335408,3.559969981511434,,,,,,,,,,,,1.6887550129880622e+18,214.6450621582031,16.667639923095702,43.73211822509766,-14.50823974609375,1.6887550129880622e+18,214.6450621582031,-237.8609588623047,137.04991760253907,-146.51223754882812,1.688755012988454e+18,214.64545434570311,-0.2376916209856668,0.1905904461940129,-0.6722594499588013,0.6742039322853088,-1.2938217322031658,1.488311489423116,1.909744103749593
4.7,1.6887550130403625e+18,214.69736254882812,-5.5276875495910645,-5.82656987508138,5.702190637588501,1.6887550130490132e+18,214.70601326497396,-2.372483571370442,-14.712469418843588,5.063212752342224,1.6887550130403625e+18,214.69736254882812,1.807383179664612,-9.616950035095217,0.6000302831331888,1.6887550130403625e+18,214.69736254882812,0.1332704375187555,-2.367102841536204,2.8770735263824463,1.6887550130446856e+18,214.70168570963543,0.1162171123238901,-2.856558546423912,2.8747317790985107,,,,,,,,,,,,1.688755013038065e+18,214.69506474609375,8.701039695739746,46.51859970092774,-13.89823989868164,1.688755013038065e+18,214.69506474609375,-245.82755432128903,139.83639221191407,-145.90223388671876,1.6887550130403625e+18,214.69736254882812,-0.2474241505066553,0.168330689271291,-0.61622554063797,0.72787477572759,-0.3238061467806498,1.3768147230148315,0.923692266146342
4.75,1.688755013092267e+18,214.749267171224,-1.9434232314427693,-1.2971146901448567,-2.2727075020472207,1.6887550130922732e+18,214.74927294921875,2.443370997905731,-10.98006534576416,-1.9384854435920715,1.688755013092267e+18,214.749267171224,3.3208281993865967,-9.188276608784994,0.7033393979072571,1.688755013092267e+18,214.749267171224,0.7803294459978739,-0.9961684892574946,3.757024923960368,1.6887550130965934e+18,214.75359342447916,0.8484918077786764,-0.6954192121823629,3.761453628540039,,,,,,,,,,,,1.688755013088066e+18,214.74506611328124,2.698639988899231,47.650759887695315,-12.016999816894533,1.688755013088066e+18,214.74506611328124,-251.82994995117187,140.9685546875,-144.02099609375,1.688755013092267e+18,214.749267171224,-0.206858014067014,0.1032265325387318,-0.565912127494812,0.7909037073453268,-0.2169514695803324,1.2176543871561687,0.6662947138150533
4.8,1.6887550131441684e+18,214.80116845703125,-12.404469807942707,10.3490940729777,-1.5106993118921916,1.6887550131355185e+18,214.79251839192708,-8.298109531402588,0.6195417245229083,-0.6183452506860098,1.6887550131441684e+18,214.80116845703125,4.818360646565755,-8.491309801737467,0.7997563978036245,1.6887550131441684e+18,214.80116845703125,0.0991128819684187,-3.2680273056030273,3.5379278659820557,1.6887550131484987e+18,214.80549861653648,-0.0589993943770726,-3.421761671702067,3.600999673207601,,,,,,,,,,,,1.688755013138064e+18,214.7950640625,-5.9828798294067385,48.18755874633789,-10.16259994506836,1.688755013138064e+18,214.7950640625,-260.5114807128906,141.50535278320314,-142.16659545898438,1.6887550131441684e+18,214.80116845703125,-0.1766388863325118,0.0576213281601666,-0.5006919403870901,0.8446568846702576,-0.159550500412782,1.0499760905901592,0.5039801299571991
4.85,1.6887550131960763e+18,214.8530763346354,-4.314652840296428,9.70975430806478,0.3289455970128377,1.6887550131874222e+18,214.84442236328127,0.3882354895273844,2.7108686765034995,1.45084814230601,1.6887550131960763e+18,214.8530763346354,6.0047197341918945,-7.516775290171306,1.8829443454742432,1.6887550131960763e+18,214.8530763346354,-0.3754276086886725,-2.488257726033529,2.354427397251129,1.6887550132004058e+18,214.85740592447917,-0.2674062699079513,-2.3831380208333335,2.0048087735970817,,,,,,,,,,,,1.6887550131880632e+18,214.84506328125,-13.068639755249023,46.484439086914065,-12.109719848632812,1.6887550131880632e+18,214.84506328125,-267.59723510742185,139.80223999023437,-144.11371765136718,1.6887550131960763e+18,214.8530763346354,-0.1524340162674585,-0.0320703626299897,-0.4391958018143971,0.8844655553499857,-0.3017076055208842,0.8750880757967631,0.4828711052735646
4.9,1.6887550132479816e+18,214.90498177083336,-2.5184547106424966,5.500918865203857,1.0401043891906738,1.6887550132393308e+18,214.89633081054689,3.1936206022898355,-1.737388647782306,3.1926236152648926,1.6887550132479816e+18,214.90498177083336,5.8294596672058105,-7.578928947448731,2.173381249109904,1.6887550132479816e+18,214.90498177083336,0.904335081577301,-0.2337577765186627,-1.6552921334902446,1.6887550132436572e+18,214.9006573486328,0.8297077417373657,-0.3543781898915767,-1.4622586965560913,,,,,,,,,,,,1.6887550132380672e+18,214.89506723632812,-13.334599876403807,46.20139846801758,-12.961279678344727,1.6887550132380672e+18,214.89506723632812,-267.8631896972656,139.51919860839843,-144.96527709960938,1.6887550132479816e+18,214.90498177083336,-0.1305642848213513,-0.0588942418495813,-0.4468100170294443,0.8829554915428162,-0.3557776113351186,0.8848605751991272,0.4634711543718973
4.95,1.6887550132998874e+18,214.9568875325521,2.2395445505777993,3.7692580223083496,0.6621659994125366,1.688755013291235e+18,214.94823486328127,6.177869160970052,-3.8321053981781006,2.6538397471110025,1.6887550132998874e+18,214.9568875325521,4.716526985168457,-8.443679809570312,1.5722562869389851,1.6887550132998874e+18,214.9568875325521,0.9952012697855632,0.646346335609754,-3.276986598968506,1.6887550132869112e+18,214.94391113281253,1.209716796875,0.7705047130584717,-3.1546099185943604,,,,,,,,,,,,1.688755013288066e+18,214.94506596679685,-7.876319885253906,47.59707946777344,-10.716479873657226,1.688755013288066e+18,214.94506596679685,-262.4049133300781,140.91487731933594,-142.72047729492186,1.6887550132998874e+18,214.9568875325521,-0.1162952234347661,-0.0240009448801477,-0.5089340806007385,0.8522258003552755,-0.3202392657597859,1.0399642586708069,0.4555826286474864
5.0,1.6887550133431404e+18,215.00014038085936,6.879286289215088,-19.24485731124878,4.18673574924469,1.6887550133431345e+18,215.00013444010415,11.348958333333334,-24.73660182952881,5.48514707883199,1.6887550133431404e+18,215.00014038085936,3.931024670600891,-8.82877779006958,1.6746076941490171,1.6887550133431404e+18,215.00014038085936,-0.9352346956729888,-1.6350571513175964,-0.0549778938293457,1.6887550133388152e+18,214.99581534830727,-0.533896212776502,-1.432275368521611,-0.6292421023050944,,,,,,,,,,,,1.6887550133380662e+18,214.99506616210937,-1.0638399749994278,48.55843811035156,-9.71851978302002,1.6887550133380662e+18,214.99506616210937,-255.5924346923828,141.87623596191406,-141.72251586914064,1.6887550133431404e+18,215.00014038085936,-0.1138217598199844,-0.027296332642436,-0.5470184087753296,0.8288214206695557,-0.4008743464946747,1.121207416057587,0.5264632105827332
5.05,1.6887550133863944e+18,215.04339428710935,10.435304482777914,-1.685472011566162,3.2253664334615073,1.6887550133950415e+18,215.0520417480469,12.209976037343344,-5.779464408755302,6.043273051579793,1.6887550133863944e+18,215.04339428710935,4.334330240885417,-8.512980143229166,2.2282000382741294,1.6887550133863944e+18,215.04339428710935,0.3433062717861805,-2.2395337224006653,1.1965323289235434,1.6887550133907218e+18,215.0477218424479,0.3834706544876098,-1.8595247467358904,0.93645641207695,,,,,,,,,,,,1.6887550133880632e+18,215.04506303710937,-2.183799958229065,48.33151931762696,-10.648159790039063,1.6887550133880632e+18,215.04506303710937,-256.71239318847654,141.64931945800782,-142.65215759277345,1.6887550133863944e+18,215.04339428710935,-0.081215572853883,-0.0835704952478408,-0.5218566656112671,0.844894289970398,-0.4737362265586853,1.052100340525309,0.4702463944753011
5.1,1.6887550134382945e+18,215.09529435221353,-8.714833418528238,-2.4865236282348633,1.2605121930440264,1.68875501344695e+18,215.10395019531248,-4.673382043838501,-11.028918107350668,0.7643074989318848,1.6887550134382945e+18,215.09529435221353,4.147469838460286,-8.627382596333822,2.1418070793151855,1.6887550134382945e+18,215.09529435221353,0.2026545504728952,0.8786787589391073,-0.7425067077080408,1.688755013442618e+18,215.0996181640625,0.1896736621856689,1.0112365086873372,-0.7008151362339655,,,,,,,,,,,,1.6887550134380662e+18,215.0950661621094,-1.2248799804598094,48.56332015991211,-9.820999908447266,1.6887550134380662e+18,215.0950661621094,-255.75347900390625,141.88111572265626,-141.8249938964844,1.6887550134382945e+18,215.09529435221353,-0.0754613329966862,-0.0816742877165475,-0.5312687357266744,0.8398314714431763,-0.4755478004614512,1.0760541756947837,0.4664674699306488
5.15,1.6887550134902024e+18,215.1472022298177,-6.301517009735107,1.41720183690389,-1.76836895942688,1.688755013498855e+18,215.15585498046875,-2.6125635504722595,-8.255238056182861,1.14955190072457,1.6887550134902024e+18,215.1472022298177,3.8149121602376304,-8.892422676086426,1.579858899116516,1.6887550134902024e+18,215.1472022298177,0.3675372538467248,3.0637946128845215,-1.751554310321808,1.6887550134945303e+18,215.15153043619793,0.3952807188034057,3.225928465525309,-1.9771671692530317,,,,,,,,,,,,1.688755013488066e+18,215.14506606445312,0.2269199848175049,48.385198974609374,-8.725439834594727,1.688755013488066e+18,215.14506606445312,-254.30167236328128,141.70299682617187,-140.72943420410155,1.6887550134902024e+18,215.1472022298177,-0.0994995112220445,-0.0301239766413345,-0.5518291791280111,0.8269918362299601,-0.3892252047856648,1.1371715863545735,0.4896141489346822
5.2,1.688755013542101e+18,215.19910099283857,-4.218662261962891,0.0254529317220052,0.7523675163586935,1.6887550135421092e+18,215.19910913085937,-2.3231316804885864,-9.546165943145752,1.7521443963050842,1.688755013542101e+18,215.19910099283857,2.4215891361236572,-9.4450413386027,0.9121642311414084,1.688755013542101e+18,215.19910099283857,-0.4345797300338745,3.875074625015259,-4.144873380661011,1.6887550135464356e+18,215.203435546875,-0.6039930259188017,3.886019229888916,-4.2037709554036455,,,,,,,,,,,,1.688755013538069e+18,215.19506909179685,5.5534398555755615,47.90695877075195,-8.622959899902344,1.688755013538069e+18,215.19506909179685,-248.97515563964845,141.22475891113282,-140.62695922851563,1.688755013542101e+18,215.19910099283857,-0.1501094748576481,0.0598418079316615,-0.6104478041330973,0.7742671966552734,-0.3729509611924489,1.3042694330215454,0.6736826300621033
5.25,1.688755013594014e+18,215.25101399739583,-6.4355701605478925,-1.6387821833292644,-0.8018084168434143,1.6887550135853612e+18,215.24236124674476,-4.843073050181071,-10.404191970825195,1.1998011814430354,1.688755013594014e+18,215.25101399739583,0.7704993387063342,-9.681903521219889,1.3265589475631714,1.688755013594014e+18,215.25101399739583,-1.666644016901652,2.7565803130467734,-2.7887016932169595,1.6887550135983404e+18,215.25534033203124,-1.587842384974162,2.39240284760793,-2.645148277282715,,,,,,,,,,,,1.688755013588065e+18,215.2450650390625,12.77827968597412,45.69143905639648,-12.746559715270996,1.688755013588065e+18,215.2450650390625,-241.7503173828125,139.00924377441407,-144.75055847167968,1.688755013594014e+18,215.25101399739583,-0.2273840506871541,0.1216788515448569,-0.6681649287541708,0.6972981691360474,-1.049167235692342,1.410051663716634,1.549721399943034
5.3,1.688755013645919e+18,215.30291878255207,2.007375697294871,-0.4956944783528645,-3.5995306968688965,1.6887550136372672e+18,215.29426700846355,0.1579262415568033,-10.986645062764486,-2.0169501304626465,1.688755013645919e+18,215.30291878255207,-0.3631711571166913,-9.659288088480633,1.6457157532374065,1.688755013645919e+18,215.30291878255207,-0.0906625837087631,-0.5495751053094864,-2.1721859773000083,1.6887550136502415e+18,215.30724153645835,0.0257581571737925,-0.4634940177202225,-2.168571631113688,1.6887550136588874e+18,215.31588745117188,0.0,0.0,2.5119528770446777,6.236000061035156,1.1791884899139404,53.090553283691406,332.79998779296875,-122.9160942,49.2785636,1.6887550136380667e+18,215.2950666015625,16.994599914550783,43.28559875488281,-16.438279724121095,1.6887550136380667e+18,215.2950666015625,-237.53399353027345,136.60340270996093,-148.44227905273436,1.688755013645919e+18,215.30291878255207,-0.2375068962574004,0.1298677871624628,-0.7086988687515259,0.6513230999310812,-1.79092280069987,1.3954317569732666,2.3185763359069824
5.35,1.68875501369782e+18,215.35481990559893,2.2129859924316406,2.4652837117513022,-1.4771418968836467,1.6887550136891732e+18,215.34617342122397,1.2570295265565317,-7.722236792246501,-0.3856432437896728,1.68875501369782e+18,215.35481990559893,-1.2981935739517212,-9.624053637186686,1.3699878454208374,1.68875501369782e+18,215.35481990559893,0.9676105578740438,1.8015434344609575,-1.8774434328079224,1.6887550136935025e+18,215.35050231933593,0.9570731222629548,1.840842366218567,-1.918727695941925,,,,,,,,,,,,1.688755013688062e+18,215.34506181640623,21.85751953125,41.172559356689455,-16.22599983215332,1.688755013688062e+18,215.34506181640623,-232.67107849121095,134.4903564453125,-148.22999572753906,1.68875501369782e+18,215.35481990559893,-0.2350250432888666,0.1675719420115152,-0.7338164448738098,0.6146306395530701,-2.332005262374878,1.3751553694407146,2.912292242050171
5.4,1.6887550137497244e+18,215.40672428385415,3.3765149116516113,2.3647669156392417,0.1401792367299398,1.6887550137410767e+18,215.39807682291664,1.4145570198694866,-6.779664198557536,1.359920859336853,1.6887550137497244e+18,215.40672428385415,-2.0064879655838013,-9.529119809468588,1.170414129892985,1.6887550137497244e+18,215.40672428385415,0.238593781987826,1.2877039114634197,-1.5898786385854085,1.688755013736752e+18,215.39375195312505,0.5772676554818948,1.5866206884384155,-1.6955583095550537,,,,,,,,,,,,1.6887550137380705e+18,215.39507045898435,24.52199935913086,39.53531951904297,-16.562719345092773,1.6887550137380705e+18,215.39507045898435,-230.0065948486328,132.85311889648438,-148.56671752929688,1.6887550137497244e+18,215.40672428385415,-0.2488681326309839,0.2177174985408782,-0.7453011274337769,0.5787987311681112,-2.614905834197998,1.3304561773935957,-2.9906744162241616
5.45,1.6887550137929774e+18,215.44997717285156,2.013129949569702,-0.5223078727722168,-1.0982516407966614,1.6887550137929797e+18,215.44997973632815,-0.2215354939301808,-9.790831883748371,0.2572284340858459,1.6887550137929774e+18,215.44997717285156,-2.409006118774414,-9.413731098175049,1.3451356291770935,1.6887550137929774e+18,215.44997717285156,-0.4249331355094909,0.4454734846949577,-0.8303949534893036,1.6887550137886536e+18,215.44565340169268,-0.3981314202149709,0.5183191498120626,-0.9400707085927328,,,,,,,,,,,,1.6887550137880645e+18,215.44506411132812,26.60575942993164,38.07863922119141,-17.804680252075194,1.6887550137880645e+18,215.44506411132812,-227.92283630371097,131.396435546875,-149.80867919921874,1.6887550137929774e+18,215.44997717285156,-0.2596595138311386,0.2296410799026489,-0.7554498910903931,0.5559876561164856,-2.635142683982849,1.2845593690872192,-2.9338290691375732
5.5,1.6887550138362337e+18,215.49323380533855,2.802402973175049,-1.6262919108072915,-4.066127777099609,1.6887550138448873e+18,215.50188704427083,-0.2213360915581385,-11.536994616190592,-3.1098718643188477,1.6887550138362337e+18,215.49323380533855,-2.714530070622762,-9.298381805419922,1.5472081104914348,1.6887550138362337e+18,215.49323380533855,-0.615803082784017,0.0741692222654819,-0.6920594076315562,1.6887550138405645e+18,215.4975646158854,-0.6201809446016947,0.1296561509370804,-0.6235915968815485,,,,,,,,,,,,1.688755013838067e+18,215.49506694335935,27.79647903442383,36.55119934082031,-19.197919845581055,1.688755013838067e+18,215.49506694335935,-226.73211669921875,129.8689971923828,-151.20191650390626,1.6887550138362337e+18,215.49323380533855,-0.2622829079627991,0.2262715846300124,-0.7666692932446798,0.5405470728874207,-2.6263152758280435,1.2455275853474934,-2.9415446122487388
5.55,1.6887550138881362e+18,215.54513631184895,0.0009581247965494,-7.736718495686849,-6.584427674611409,1.688755013896784e+18,215.55378393554687,-2.7804598808288574,-17.742979685465496,-4.587240378061931,1.6887550138881362e+18,215.54513631184895,-2.79105273882548,-9.260540962219238,1.636992335319519,1.6887550138881362e+18,215.54513631184895,0.2965241769949596,-0.1750128964583079,0.0198022155091165,1.6887550138924595e+18,215.54945947265625,0.4570799171924591,-0.2843577762444814,0.0542142912745475,,,,,,,,,,,,1.6887550138880666e+18,215.5450665527344,28.3186393737793,36.116879272460935,-19.890879821777343,1.6887550138880666e+18,215.5450665527344,-226.20995483398437,129.43468017578124,-151.8948760986328,1.6887550138881362e+18,215.54513631184895,-0.2653329571088154,0.2256459941466649,-0.7693901658058167,0.5354401667912801,-2.613998015721639,1.2335317134857178,-2.9494040807088218
5.6,1.6887550139400328e+18,215.5970329589844,1.8585267066955569,-6.05759334564209,-0.4502707521120707,1.688755013948687e+18,215.60568701171871,-0.1573280791441599,-13.999607721964518,1.8358931144078572,1.6887550139400328e+18,215.5970329589844,-2.396775762240092,-9.458309491475424,0.9375337958335876,1.6887550139400328e+18,215.5970329589844,1.3189598719278972,-0.9929105440775552,1.9664770166079204,1.6887550139443638e+18,215.6013635253906,1.2419399619102478,-1.0096584558486938,2.2686516841252646,,,,,,,,,,,,1.68875501393806e+18,215.59506000976563,27.955078887939457,37.77363891601563,-16.77987995147705,1.68875501393806e+18,215.59506000976563,-226.57351379394532,131.09143981933593,-148.78387756347655,1.6887550139400328e+18,215.5970329589844,-0.2377289086580276,0.2326530963182448,-0.7540134191513062,0.5660272439320883,-2.775646130243937,1.303886850674947,-2.82288392384847
5.65,1.6887550139919404e+18,215.64894059244793,-0.1767028570175171,-0.6074336369832357,4.111504157384236,1.6887550140005926e+18,215.6575925292969,-1.0027920802434285,-11.304691314697266,5.154139995574951,1.6887550139919404e+18,215.64894059244793,-0.6777975720663866,-9.75373077392578,0.6016828020413717,1.6887550139919404e+18,215.64894059244793,0.1533271794517835,-0.5935573987662792,3.893196980158488,1.6887550139962668e+18,215.65326700846353,0.1281798866887887,-0.4526002506415049,3.894622246424357,,,,,,,,,,,,1.6887550139880604e+18,215.64506025390625,21.623279571533203,41.78987884521485,-14.535079765319823,1.6887550139880604e+18,215.64506025390625,-232.9053161621094,135.10767822265626,-146.53907775878906,1.6887550139919404e+18,215.64894059244793,-0.2332625935475031,0.2079171538352966,-0.7011229793230692,0.6403363148371378,-2.263390143712362,1.4696320295333862,0.8044789632161459
5.7,1.688755014043846e+18,215.70084602864583,-3.508511543273926,-5.607577323913574,7.883976300557454,1.6887550140438426e+18,215.70084240722656,-2.16071879863739,-15.763317108154297,8.822935581207275,1.688755014043846e+18,215.70084602864583,1.290700376033783,-9.695563316345217,0.5297106901804606,1.688755014043846e+18,215.70084602864583,0.1200859248638153,0.7535532017548879,3.8723766009012857,1.688755014048173e+18,215.70517317708337,0.0576758633057276,0.6271040836970011,3.832670370737711,,,,,,,,,,,,1.688755014038059e+18,215.69505908203124,12.905159759521483,45.35227890014649,-14.061719512939453,1.688755014038059e+18,215.69505908203124,-241.6234375,138.67007751464843,-146.0657165527344,1.688755014043846e+18,215.70084602864583,-0.2584639588991801,0.1925377001365026,-0.6303288141886393,0.705724855264028,-0.456349899371465,1.4268810749053955,1.1074718634287517
5.75,1.6887550140957512e+18,215.75275138346356,-5.526425361633301,-0.8002694447835287,4.782715956370036,1.6887550140870996e+18,215.7440998535156,-3.442075332005819,-10.846665382385254,6.870192368825276,1.6887550140957512e+18,215.75275138346356,2.854177236557007,-9.310047149658203,1.0836124022801716,1.6887550140957512e+18,215.75275138346356,-1.0449868241945903,-3.6758816242218018,3.1200451056162515,1.6887550141000794e+18,215.7570791829427,-1.1229230364163716,-3.910912036895752,3.1119511127471924,,,,,,,,,,,,1.6887550140880625e+18,215.74506259765627,4.770199871063232,47.13835906982422,-14.500919723510744,1.6887550140880625e+18,215.74506259765627,-249.75838928222657,140.4561553955078,-146.50491638183593,1.6887550140957512e+18,215.75275138346356,-0.2613594730695088,0.1280983164906501,-0.580952525138855,0.7591541806856791,-0.3542648653189341,1.2545040051142375,0.9196940461794536
5.8,1.6887550141476557e+18,215.80465576171875,-0.3546419143676758,-1.5840717951456706,-4.317831913630168,1.6887550141390042e+18,215.79600439453125,4.550151574114959,-10.586246490478516,-1.2532409032185872,1.6887550141476557e+18,215.80465576171875,4.201240460077922,-8.634519894917807,1.9504575332005816,1.6887550141476557e+18,215.80465576171875,-0.4362596074740092,-0.3528256018956502,3.363373200098674,1.688755014143329e+18,215.8003291015625,-0.76885025203228,-0.2600758671760559,3.495065450668335,,,,,,,,,,,,1.6887550141380593e+18,215.795059375,-0.3415999885648489,46.40147933959961,-16.513919830322266,1.6887550141380593e+18,215.795059375,-254.8701965332031,139.71927795410156,-148.51791687011718,1.6887550141476557e+18,215.80465576171875,-0.2506925414005915,0.0426025552054245,-0.5330654581387838,0.8065916895866394,-0.4383746981620788,1.0792779922485352,0.8694591720898946
5.85,1.6887550141995712e+18,215.8565708821615,-9.933659871419271,4.973488171895345,-4.551224549611409,1.6887550141909184e+18,215.84791845703128,-4.2773698170979815,-3.925226132074992,-3.20857572555542,1.6887550141995712e+18,215.8565708821615,5.224322001139323,-8.079813639322916,1.8969106674194336,1.6887550141995712e+18,215.8565708821615,0.4022547453641891,-2.166179080804189,2.0446168581644693,1.6887550141865925e+18,215.843592203776,0.6199264029661814,-1.0427469710508983,2.3676119248072305,,,,,,,,,,,,1.6887550141880663e+18,215.84506621093752,-7.090639972686768,45.96227951049805,-16.130839538574218,1.6887550141880663e+18,215.84506621093752,-261.6192260742188,139.2800750732422,-148.13483581542968,1.6887550141995712e+18,215.8565708821615,-0.2335975219806034,0.0196913440401355,-0.4832032819588978,0.843243141969045,-0.3475026388963063,0.9694681564966836,0.7247294783592224
5.9,1.6887550142428175e+18,215.8998176269531,-5.932156801223755,8.442987442016602,-0.9045618176460266,1.6887550142428183e+18,215.89981852213543,-1.026919702688853,0.2789632479349772,1.5088741183280945,1.6887550142428175e+18,215.8998176269531,5.408563852310181,-7.755492687225342,2.6110676527023315,1.6887550142428175e+18,215.8998176269531,0.3465133160352707,-3.2005521059036255,1.2408200204372406,1.6887550142384988e+18,215.8954987792969,0.2621629933516184,-3.2724050680796304,1.287856638431549,,,,,,,,,,,,1.6887550142380662e+18,215.89506616210937,-9.78927993774414,45.55479888916015,-16.69203987121582,1.6887550142380662e+18,215.89506616210937,-264.3178649902344,138.87259521484376,-148.69603881835937,1.6887550142428175e+18,215.8998176269531,-0.1963459178805351,-0.0467682462185621,-0.4716641455888748,0.8582555055618286,-0.4493400156497955,0.9131534099578856,0.6733042001724243
5.95,1.688755014286078e+18,215.9430780436198,-1.3458463350931804,8.53230349222819,0.4706743558247884,1.688755014294731e+18,215.9517311197917,3.995614926020304,0.2133600115776061,3.2301112016042075,1.688755014286078e+18,215.9430780436198,5.174299240112305,-7.8450080553690595,2.8056228955586753,1.688755014286078e+18,215.9430780436198,1.0041097402572632,-0.8661050995190939,-1.0476338925460975,1.688755014290406e+18,215.94740584309895,1.0308350920677185,-0.6398304402828217,-1.2942198465267818,,,,,,,,,,,,1.6887550142880612e+18,215.94506108398437,-8.510719966888427,46.06963958740234,-16.408999824523924,1.6887550142880612e+18,215.94506108398437,-263.03931884765626,139.38743591308594,-148.41300048828126,1.688755014286078e+18,215.9430780436198,-0.1655387381712595,-0.0736120243867238,-0.4808231691519419,0.8578089276949564,-0.496690571308136,0.928403397401174,0.6338490843772888
6.0,1.6887550143379796e+18,215.9949795735677,4.464859962463379,2.10445499420166,1.3258533477783203,1.688755014346634e+18,216.0036338704427,10.546964168548584,-10.275378545125326,5.043073018391927,1.6887550143379796e+18,215.9949795735677,4.167782306671143,-8.53700319925944,2.4078718026479087,1.6887550143379796e+18,215.9949795735677,0.6419175378978252,0.4476624230543772,-3.0854294300079346,1.6887550143423089e+18,215.99930875651043,0.5138903806606928,0.4650211632251739,-2.958369493484497,,,,,,,,,,,,1.6887550143380654e+18,215.9950653808594,-1.6250399470329284,47.26279907226562,-14.266679763793944,1.6887550143380654e+18,215.9950653808594,-256.15363159179685,140.58059692382812,-146.2706756591797,1.6887550143379796e+18,215.9949795735677,-0.1530705988407134,-0.0489202812314032,-0.5340574781099955,0.8297133247057596,-0.5254169305165609,1.0585161447525024,0.6777987480163574
6.05,1.6887550143898806e+18,216.04688053385416,7.03319255510966,-14.09229564666748,6.455874601999919,1.6887550143985385e+18,216.05553849283856,11.49492049217224,-18.44148405392965,7.908079226811727,1.6887550143898806e+18,216.04688053385416,3.818793217341105,-8.582334836324057,2.8022797107696533,1.6887550143898806e+18,216.04688053385416,-0.5502368609110514,-3.412751336892446,1.906866768995921,1.6887550143942075e+18,216.051207438151,-0.4908302227656045,-3.678019722302755,2.0616702238718667,,,,,,,,,,,,1.6887550143880689e+18,216.04506865234376,-0.0658799767494201,47.2505989074707,-14.605839729309082,1.6887550143880689e+18,216.04506865234376,-254.59447326660157,140.56839904785156,-146.60983581542968,1.6887550143898806e+18,216.04688053385416,-0.1399836068352063,-0.0799758632977803,-0.5461540023485819,0.8211724559466044,-0.6307237148284912,1.0673893292744954,0.7181362311045328
6.1,1.6887550144417933e+18,216.09879313151043,-2.9154338041941332,6.978748003641765,4.5813056627909345,1.688755014450443e+18,216.10744278971353,-5.075176477432251,-4.169692834218343,9.675976753234863,1.6887550144417933e+18,216.09879313151043,3.852160612742106,-8.418472290039062,3.2413543065389,1.6887550144417933e+18,216.09879313151043,0.3282891611258189,-0.0054977809389433,-0.7960592210292816,1.688755014446119e+18,216.1031190592448,0.2476040522257487,0.4305072824160258,-1.0144944203396635,,,,,,,,,,,,1.6887550144380677e+18,216.0950674804687,-0.5489999890327454,47.35795974731445,-14.6399995803833,1.6887550144380677e+18,216.0950674804687,-255.07759704589844,140.6757598876953,-146.6439971923828,1.6887550144417933e+18,216.09879313151043,-0.1031726896762847,-0.1324036171038945,-0.5351701378822327,0.8278374274571737,-0.699502428372701,1.0329540570576985,0.6565973957379659
6.15,1.6887550144936973e+18,216.15069742838543,-7.411222219467163,-6.323756217956543,0.3859837849934895,1.6887550144936924e+18,216.1506922607422,-1.2607183456420898,-15.37388563156128,1.5580265522003174,1.6887550144936973e+18,216.15069742838543,3.6235198179880777,-8.535515785217285,3.1995856761932373,1.6887550144936973e+18,216.15069742838543,-0.9558513561884562,1.2039644519488018,-0.8450302531321844,1.6887550144980237e+18,216.15502384440103,-0.932689388593038,0.8504262566566467,-0.9137525657812754,,,,,,,,,,,,1.6887550144880645e+18,216.14506459960936,0.7881199851632118,46.83335800170899,-15.930759811401368,1.6887550144880645e+18,216.14506459960936,-253.74047241210937,140.15115661621093,-147.93475646972655,1.6887550144936973e+18,216.15069742838543,-0.1399799287319183,-0.1049081335465113,-0.5519830385843912,0.815213660399119,-0.7235226035118103,1.0565266609191892,0.7748280763626099
6.2,1.6887550145455987e+18,216.20259871419273,0.5320377349853516,-2.672858238220215,-4.636789361635844,1.6887550145369503e+18,216.19395060221356,5.125824928283691,-12.876177151997885,-2.4707887768745422,1.6887550145455987e+18,216.20259871419273,2.5466639200846353,-8.995584805806478,2.9204622904459634,1.6887550145455987e+18,216.20259871419273,0.7488189786672592,4.799720893303554,-4.484056313832601,1.6887550145499277e+18,216.2069275716146,0.7766642371813456,5.533268292744954,-4.575940767923991,,,,,,,,,,,,1.6887550145380667e+18,216.19506665039063,5.675439882278442,46.16967849731445,-16.487079620361328,1.6887550145380667e+18,216.19506665039063,-248.85315551757813,139.4874755859375,-148.49107360839844,1.6887550145455987e+18,216.20259871419273,-0.1773393799861271,-0.0520426688405374,-0.6046386957168579,0.7727100451787313,-0.855278491973877,1.1651434898376465,1.036178509394328
6.25,1.6887550145975053e+18,216.2545052897135,-12.198050498962402,-1.4096035957336426,-3.169441302617391,1.6887550145888525e+18,216.2458524576823,-10.59581724802653,-9.566903591156006,-0.3980061610539754,1.6887550145975053e+18,216.2545052897135,1.2673738201459248,-9.435508728027344,2.3426458835601807,1.6887550145975053e+18,216.2545052897135,-0.9272934198379515,3.612860652307669,-3.1738520860671997,1.6887550145931827e+18,216.2501826171875,-1.066188931465149,4.556138515472412,-3.603952288627625,,,,,,,,,,,,1.6887550145880645e+18,216.24506455078125,9.938119888305664,44.634918975830075,-18.512279510498047,1.6887550145880645e+18,216.24506455078125,-244.5904754638672,137.9527160644531,-150.51627502441406,1.6887550145975053e+18,216.2545052897135,-0.2719025363524754,0.0845016787449518,-0.6546072363853455,0.6996410687764486,-1.0814754764238994,1.2944949467976887,1.5961251258850098
6.3,1.688755014649411e+18,216.3064112141927,0.4879575769106547,0.505778948465983,-2.2339781125386553,1.688755014640762e+18,216.29776171875,-1.3778670231501262,-10.552746454874674,-0.4091726541519165,1.688755014649411e+18,216.3064112141927,0.3777819847067197,-9.495058059692385,2.4207425117492676,1.688755014649411e+18,216.3064112141927,0.6397286156813303,-2.145715037981669,-1.3054699500401814,1.6887550146364334e+18,216.29343326822917,0.0463239401578903,-1.4918347398440044,-1.1328495740890503,,,,,,,,,,,,1.688755014638069e+18,216.29506889648437,14.25691967010498,42.84640045166016,-20.535039520263673,1.688755014638069e+18,216.29506889648437,-240.2716735839844,136.16419677734376,-152.5390380859375,1.688755014649411e+18,216.3064112141927,-0.2611957391103108,0.0841273019711176,-0.6885936856269836,0.6709362069765726,-1.4263805548350017,1.317639152208964,1.9238921403884888
6.35,1.688755014692666e+18,216.34966577148435,8.753334522247314,4.707040786743164,0.402772843837738,1.6887550146926623e+18,216.34966276041663,7.289335250854492,-5.083950519561768,2.3238296111424765,1.688755014692666e+18,216.34966577148435,-0.7767242789268494,-9.5981125831604,1.851091146469116,1.688755014692666e+18,216.34966577148435,1.4690545797348022,-2.2017110586166377,-2.9263498783111572,1.688755014688338e+18,216.34533789062505,1.418632706006368,-2.1887301405270896,-2.685414552688598,1.688755014696993e+18,216.35399291992184,0.0,0.0,2.53192138671875,6.1570000648498535,1.1991034746170044,47.85431671142578,332.79998779296875,-122.9160825,49.2785798,1.6887550146880684e+18,216.345068359375,20.46183967590332,41.975318908691406,-16.655439376831055,1.6887550146880684e+18,216.345068359375,-234.06675415039064,135.29311828613282,-148.65943908691406,1.688755014692666e+18,216.34966577148435,-0.1991602703928947,0.0791222751140593,-0.7306236922740936,0.6480940580368042,-1.9747321009635923,1.3625027537345886,2.373064160346985
6.4,1.6887550147359204e+18,216.3929206542969,3.349823832511902,2.630010445912679,0.510399063428243,1.688755014744563e+18,216.40156282552084,1.2249257862567902,-7.380860805511475,2.101097742716471,1.6887550147359204e+18,216.3929206542969,-1.280494491259257,-9.586187998453775,1.6424678564071655,1.6887550147359204e+18,216.3929206542969,0.4614577889442444,2.7889052629470825,-0.642935668428739,1.6887550147402437e+18,216.39724357096352,0.4214970171451568,3.094236175219218,-0.4467970182498296,,,,,,,,,,,,1.688755014738064e+18,216.39506376953128,24.265799713134765,40.516197967529294,-15.123119735717774,1.688755014738064e+18,216.39506376953128,-230.26279907226564,133.83399658203126,-147.1271179199219,1.6887550147359204e+18,216.3929206542969,-0.2068399538596471,0.11228609085083,-0.7435641686121622,0.6254077752431234,-2.2375948429107666,1.3563543160756428,2.695636749267578
6.45,1.6887550147878188e+18,216.44481901041664,-0.1237805684407552,0.8781277338663737,-1.8299241463343303,1.6887550147964762e+18,216.45347615559896,-1.7896319230397542,-8.876972834269205,-0.2592224677403767,1.6887550147878188e+18,216.44481901041664,-1.148068070411682,-9.582660992940268,1.754873792330424,1.6887550147878188e+18,216.44481901041664,-0.1384627918402353,2.3384430408477783,-0.714865043759346,1.6887550147921457e+18,216.44914558919268,-0.2037235597769419,2.0583613514900208,-0.8439103563626608,,,,,,,,,,,,1.688755014788066e+18,216.44506611328129,22.04783935546875,40.52595901489258,-18.46103973388672,1.688755014788066e+18,216.44506611328129,-232.4807556152344,133.84375610351563,-150.46503601074218,1.6887550147878188e+18,216.44481901041664,-0.2635757078727085,0.1685102780659993,-0.7284108996391296,0.6093418796857198,-2.1540023485819497,1.3547955751419067,2.7788490454355874
6.5,1.6887550148397302e+18,216.49673022460945,-1.7712501684824626,-1.3782215118408203,-2.2273866335550943,1.6887550148483791e+18,216.50537931315105,-3.4777682622273765,-11.30828062693278,0.032303096105655,1.6887550148397302e+18,216.49673022460945,-1.7388846079508464,-9.432593981424969,2.0462544759114585,1.6887550148397302e+18,216.49673022460945,-0.8295550147692362,-0.4525493383407593,-1.325119415918986,1.6887550148440586e+18,216.5010585123698,-0.8672759334246317,-0.6385578115781149,-1.2868385314941406,,,,,,,,,,,,1.6887550148380657e+18,216.495065625,23.023839950561523,38.92531890869141,-20.522840118408205,1.6887550148380657e+18,216.495065625,-231.50475463867187,132.243115234375,-152.52683715820314,1.6887550148397302e+18,216.49673022460945,-0.2757887840270996,0.175891081492106,-0.7471022009849548,0.5785262982050577,-2.276099522908529,1.2926575342814128,2.932870388031006
6.55,1.6887550148916344e+18,216.54863452148436,6.6165664990743,-2.9260517756144204,-2.8470072746276855,1.6887550149002854e+18,216.55728523763025,5.7371909964519245,-13.12842051188151,-0.745563675959905,1.6887550148916344e+18,216.54863452148436,-2.5137370427449546,-9.191444079081217,2.315924803415934,1.6887550148916344e+18,216.54863452148436,-1.1934779683748882,-2.3763676087061563,-1.210225840409597,1.688755014895961e+18,216.5529611002604,-1.1983139912287395,-2.244420727094014,-1.1459831992785137,,,,,,,,,,,,1.6887550148880684e+18,216.545068359375,27.16695899963379,36.375518798828125,-20.796119689941406,1.6887550148880684e+18,216.545068359375,-227.36163940429688,129.6933166503906,-152.80011596679688,1.6887550148916344e+18,216.54863452148436,-0.2493624786535898,0.1376706883311271,-0.7806189060211182,0.5558850566546122,-2.3974621295928955,1.2139259179433186,2.961132208506266
6.6,1.6887550149435433e+18,216.6005432942708,2.550434629122416,-7.785001754760742,-2.7960456212361655,1.688755014943539e+18,216.60053894042971,-1.106381356716156,-17.877077102661133,-0.0849452037364244,1.6887550149435433e+18,216.6005432942708,-2.507826010386149,-9.143065134684244,2.505441904067993,1.6887550149435433e+18,216.6005432942708,0.0397062301635741,0.4001676390568415,1.4291192591190338,1.68875501494787e+18,216.60486979166663,0.1378519237041473,0.355116347471873,1.7090481917063396,,,,,,,,,,,,1.6887550149380705e+18,216.59507041015627,28.97011947631836,35.02375946044922,-20.674119567871095,1.6887550149380705e+18,216.59507041015627,-225.5584747314453,128.3415557861328,-152.67811889648436,1.6887550149435433e+18,216.6005432942708,-0.24537093937397,0.1161337842543919,-0.7840719819068909,0.5579779148101807,-2.356574217478434,1.199997901916504,2.882809321085612
