seconds_elapsed_rounded,accelerometer_time,accelerometer_seconds_elapsed,accelerometer_z,accelerometer_y,accelerometer_x,accelerometeruncalibrated_time,accelerometeruncalibrated_seconds_elapsed,accelerometeruncalibrated_z,accelerometeruncalibrated_y,accelerometeruncalibrated_x,gravity_time,gravity_seconds_elapsed,gravity_z,gravity_y,gravity_x,gyroscope_time,gyroscope_seconds_elapsed,gyroscope_z,gyroscope_y,gyroscope_x,gyroscopeuncalibrated_time,gyroscopeuncalibrated_seconds_elapsed,gyroscopeuncalibrated_z,gyroscopeuncalibrated_y,gyroscopeuncalibrated_x,location_time,location_seconds_elapsed,location_altitude,location_speedAccuracy,location_bearingAccuracy,location_latitude,location_altitudeAboveMeanSeaLevel,location_bearing,location_horizontalAccuracy,location_verticalAccuracy,location_longitude,location_speed,magnetometer_time,magnetometer_seconds_elapsed,magnetometer_z,magnetometer_y,magnetometer_x,magnetometeruncalibrated_time,magnetometeruncalibrated_seconds_elapsed,magnetometeruncalibrated_z,magnetometeruncalibrated_y,magnetometeruncalibrated_x,orientation_time,orientation_seconds_elapsed,orientation_yaw,orientation_qx,orientation_qz,orientation_roll,orientation_qw,orientation_qy,orientation_pitch
0.0,1.6904262176626363e+18,30.00063671875,0.9451340332178024,0.3805286601698398,3.322568376094401,1.6904262176638904e+18,30.001890478515627,0.0119720458984375,0.99072265625,0.051080322265625,1.6904262176626363e+18,30.00063671875,-0.1997891252371482,9.38048198758781,-2.8496536931720375,1.6904262176626363e+18,30.00063671875,-0.0338711339980363,2.1605279445648193,0.316638371348381,1.6904262176588805e+18,29.996880664062505,-0.0461944460868835,2.118255734443665,0.3529155492782593,,,,,,,,,,,,,1.6904262176626363e+18,30.00063671875,-32.67119140625,43.70058670043945,-43.201898193359376,1.690426217663423e+18,30.001423046874997,12.30150146484375,76.20105285644532,76.24822692871093,1.6904262176626363e+18,30.00063671875,-0.1421361929604987,-0.4730604175620653,0.3631027044413523,-1.500903677485333,0.6149948204436356,-0.5156585425034019,-1.2749070215257623
0.05,1.6904262177127337e+18,30.050733642578127,-0.8171281525167077,-0.1075015250110626,0.5522310884824395,1.690426217713987e+18,30.051987451171875,-0.1357452392578125,0.92906494140625,-0.2935882568359375,1.6904262177127337e+18,30.050733642578127,-0.6460284320310875,9.379676048806308,-2.7853925841158627,1.6904262177127337e+18,30.050733642578127,0.0659048290923237,2.021826457977295,0.3148805320262909,1.6904262177089777e+18,30.046977636718747,0.0727912764996289,2.0649980545043944,0.3168699324131012,,,,,,,,,,,,,1.6904262177127337e+18,30.050733642578127,-37.5771987915039,43.53080520629883,-39.15235290527344,1.6904262177154368e+18,30.053436816406247,7.74361572265625,76.12901000976562,80.51041564941406,1.6904262177127337e+18,30.050733642578127,-0.0917783873045889,-0.4882981627383405,0.3409183093055093,-1.342881634276215,0.6454623801818634,-0.478023332826835,-1.2746245094031348
0.1,1.6904262177628308e+18,30.10083061523438,-0.2492925507628172,-0.5427039077502489,-1.3629410299068687,1.6904262177640842e+18,30.102084374999997,-0.1467987060546875,0.9083343505859376,-0.3946319580078125,1.6904262177628308e+18,30.10083061523438,-1.0158036356898397,9.362703754312992,-2.7329990814381837,1.6904262177628308e+18,30.10083061523438,-0.1610682889819144,1.63741238117218,0.2372534543275833,1.6904262177590748e+18,30.09707465820312,-0.1515047296881675,1.6544064283370972,0.2325700730085372,,,,,,,,,,,,,1.6904262177628308e+18,30.10083061523438,-41.2998405456543,43.38730392456055,-35.20898590087891,1.6904262177622477e+18,30.10024768066406,4.5898284912109375,76.00442886352539,83.9072494506836,1.6904262177628308e+18,30.10083061523438,-0.0517017157418853,-0.4982773175855562,0.3211811831970418,-1.2152764160238891,0.6697458557214883,-0.4470629114266563,-1.2687704222335818
0.15,1.6904262178129275e+18,30.15092763671875,-0.0202557585303485,0.0289469268298149,0.4638461765170097,1.6904262178141814e+18,30.1521814453125,-0.1335845947265625,0.953460693359375,-0.2103485107421875,1.6904262178129275e+18,30.15092763671875,-1.3506042716466635,9.328880979688169,-2.7036518155661224,1.6904262178129275e+18,30.15092763671875,-0.0402501979842781,1.3773616552352903,0.2865028262138366,1.6904262178091717e+18,30.1471716796875,-0.0562736580148339,1.410605525970459,0.2841005861759186,,,,,,,,,,,,,1.6904262178129275e+18,30.15092763671875,-44.117584228515625,42.795752716064456,-31.7610595703125,1.6904262178090578e+18,30.1470578125,2.1632904052734374,75.38997802734374,86.97538452148437,1.6904262178129275e+18,30.15092763671875,-0.0194605927095559,-0.504263517716427,0.3026184225040056,-1.1077189326838794,0.6908249762862468,-0.4204800647970811,-1.2573728377444269
0.2,1.6904262178630246e+18,30.201024755859372,0.4245812692904471,-0.4929123458123207,0.7198740122711659,1.6904262178642785e+18,30.20227836914063,-0.1215362548828125,0.8894683837890625,-0.1874542236328125,1.6904262178630246e+18,30.201024755859372,-1.6763296353572603,9.312493090180158,-2.5740633126226067,1.6904262178630246e+18,30.201024755859372,0.1912005707621574,1.1157122611999513,0.4148492038249969,1.6904262178592689e+18,30.197268798828123,0.1743461817502975,1.147709894180298,0.406812185049057,,,,,,,,,,,,,1.6904262178630246e+18,30.201024755859372,-46.60641098022461,42.39976425170899,-28.295486450195312,1.6904262178610698e+18,30.199069873046874,-0.3081573486328125,75.00997619628906,90.44708251953124,1.6904262178630246e+18,30.201024755859372,0.0348090653708189,-0.5082842575161153,0.2916419595158487,-0.9936597091691766,0.7073838540879688,-0.3951276938061384,-1.251990917936387
0.25,1.6904262179131218e+18,30.251121875000003,0.7323053900122642,-0.343282223932743,-0.0171558635927736,1.6904262179143754e+18,30.252375439453125,-0.140216064453125,0.9276519775390624,-0.2635528564453125,1.6904262179131218e+18,30.251121875000003,-1.9857596539880331,9.313397813161014,-2.339995467420369,1.6904262179131218e+18,30.251121875000003,0.4224087655544281,0.839975094795227,0.3668375253677368,1.690426217909366e+18,30.247365820312503,0.4134889900684356,0.8561449170112609,0.3750907838344574,,,,,,,,,,,,,1.6904262179131218e+18,30.251121875000003,-48.16156539916992,42.2628791809082,-25.603239440917967,1.690426217913084e+18,30.251084033203124,-2.00987548828125,74.93742370605469,93.69983215332032,1.6904262179131218e+18,30.251121875000003,0.1181559679756435,-0.5108434510855483,0.289138490174375,-0.866963150701134,0.7194703083629785,-0.3711459321026909,-1.2522864776166314
0.3,1.690426217963219e+18,30.30121884765625,0.7892830932880937,0.2553074709773063,-1.1332653406359254,1.6904262179644726e+18,30.302472509765625,-0.1335052490234375,0.992352294921875,-0.304150390625,1.690426217963219e+18,30.30121884765625,-2.2410969940339025,9.319164472315908,-2.0716727105602617,1.690426217963219e+18,30.30121884765625,0.244217300415039,0.9999229073524476,0.3083896130323409,1.690426217959463e+18,30.297462841796875,0.2693306505680083,0.9846630215644836,0.3192671060562133,,,,,,,,,,,,,1.690426217963219e+18,30.30121884765625,-49.44923095703125,42.32610702514648,-22.46820983886719,1.6904262179650954e+18,30.30309541015625,-3.288824462890625,74.92687683105468,96.89639282226562,1.690426217963219e+18,30.30121884765625,0.1986401247704878,-0.5144679712861996,0.2876187708268086,-0.7462336138441146,0.7290586102546287,-0.3478681709084036,-1.2541689417374735
0.35,1.6904262180133158e+18,30.351315771484373,1.2987421139797568,1.0015314962267876,0.006021919864118,1.6904262180145695e+18,30.35256943359375,-0.12215576171875,1.0527008056640623,-0.202215576171875,1.6904262180133158e+18,30.351315771484373,-2.4230590674586594,9.311521965512634,-1.895406130750328,1.6904262180133158e+18,30.351315771484373,-0.0447321932762861,1.2532124757766725,-0.0385830674320459,1.6904262180095598e+18,30.347559765625004,-0.0200423639267682,1.226165199279785,-0.0090924035757779,1.690426217999876e+18,30.3378759765625,76.53839045017958,2.7442317145512773,-1.0,49.28002515117076,95.71981935948132,-1.0,10.04156109849322,0.9991316389110926,-122.9683164961449,0.6759813998016563,1.6904262180133158e+18,30.351315771484373,-50.25358200073242,42.34228286743164,-19.137298583984375,1.6904262180119066e+18,30.34990637207031,-3.858718872070313,75.05577087402344,99.91614532470705,1.6904262180133158e+18,30.351315771484373,0.2267016912404765,-0.5203587949034074,0.2763038555293245,-0.6638111543914845,0.7397065002805254,-0.3250217915427926,-1.2516735665960792
0.4,1.6904262180634127e+18,30.401412841796873,2.1528792845550178,0.6682048491191863,-0.6172398302616179,1.6904262180646666e+18,30.402666650390625,0.0085601806640625,1.007781982421875,-0.25537109375,1.6904262180634127e+18,30.401412841796873,-2.4573916620756684,9.321212169399857,-1.8016819035835565,1.6904262180634127e+18,30.401412841796873,-0.3070094257593154,1.627578353881836,-0.4235224485397338,1.6904262180596567e+18,30.3976568359375,-0.2927705109119415,1.6303751707077023,-0.3848479747772216,,,,,,,,,,,,,1.6904262180634127e+18,30.401412841796873,-50.412000274658205,43.18644485473633,-15.464799499511718,1.6904262180587185e+18,30.39671845703125,-3.89639892578125,75.9270233154297,103.3132568359375,1.6904262180634127e+18,30.401412841796873,0.1812975644175326,-0.532804766538915,0.2515012617484843,-0.632633572220888,0.7496376937654085,-0.3012646125545231,-1.254845719012253
0.45,1.69042621811351e+18,30.451509814453125,2.5493440864904224,1.107791379839778,-2.1453957092535494,1.6904262181147635e+18,30.452763671874997,0.0268096923828125,1.087408447265625,-0.4449188232421875,1.69042621811351e+18,30.451509814453125,-2.256174151656478,9.370132559913396,-1.807910042770356,1.69042621811351e+18,30.451509814453125,-0.4136670708656311,0.7996326986700296,-0.946073031425476,1.690426218109754e+18,30.44775390625,-0.4050945997238159,0.9300338715314864,-0.9063227653503418,,,,,,,,,,,,,1.69042621811351e+18,30.451509814453125,-48.72585601806641,45.111470794677736,-12.388191223144531,1.6904262181107318e+18,30.448731835937497,-2.032208251953125,77.94439697265625,106.2548828125,1.69042621811351e+18,30.451509814453125,0.0638565036053882,-0.5513386852723926,0.2211674180853812,-0.6762042874971402,0.7523708952033742,-0.2845339457040346,-1.271380743915131
0.5,1.690426218163607e+18,30.501606884765625,3.978406729402244,1.6641247013962268,-2.9386580522100623,1.6904262181648604e+18,30.50286064453125,0.258282470703125,1.157977294921875,-0.4767120361328125,1.690426218163607e+18,30.501606884765625,-1.5760647543753683,9.46068283321917,-2.020272193668782,1.690426218163607e+18,30.501606884765625,-0.5297491431236268,-0.6777184545993805,-2.0775755643844604,1.6904262181598508e+18,30.49785078125,-0.51292285323143,-0.622249498963356,-1.9690778255462649,,,,,,,,,,,,,1.690426218163607e+18,30.501606884765625,-44.27143936157226,48.14242935180664,-12.59064178466797,1.690426218162746e+18,30.50074565429687,3.507440185546875,81.53046264648438,105.53226013183594,1.690426218163607e+18,30.501606884765625,-0.1807309605037909,-0.5744532707839962,0.2029506297829932,-0.9134320489656844,0.7342084902651761,-0.2991482854557081,-1.304651029702795
0.55,1.690426218213704e+18,30.55170390625,-0.6684013653784989,2.284697563151121,1.6499676396802063,1.6904262182149576e+18,30.552957617187506,-0.179498291015625,1.2002044677734376,0.014013671875,1.690426218213704e+18,30.55170390625,-0.3053206941189314,9.50896048346281,-2.347129235596954,1.690426218213704e+18,30.55170390625,-0.6295568585395813,-0.5109044969081878,-2.6282951831817627,1.690426218209948e+18,30.547947851562498,-0.6366640329360962,-0.5484191238880157,-2.649141216278076,,,,,,,,,,,,,1.690426218213704e+18,30.55170390625,-36.03058776855469,52.46964950561524,-14.635243225097655,1.69042621821476e+18,30.552760107421875,13.327227783203124,86.38354797363282,103.26051025390623,1.690426218213704e+18,30.55170390625,-0.687959898596723,-0.6112133706720655,0.1821010323851554,-1.4390498861591423,0.6944169414388875,-0.3326513076545013,-1.3238107212627128
0.6,1.690426218263801e+18,30.601800976562497,-2.1971808415484424,2.9010117153221366,2.474428224750757,1.6904262182650547e+18,30.6030546875,-0.0823638916015625,1.2557098388671877,-0.046282958984375,1.690426218263801e+18,30.601800976562497,0.837543982366547,9.398600529506805,-2.655369839860499,1.690426218263801e+18,30.601800976562497,-0.6639317870140076,0.7591850012540817,-2.228772592544556,1.690426218260045e+18,30.598045068359376,-0.6530392169952393,0.6516031309962272,-2.2541170597076414,,,,,,,,,,,,,1.690426218263801e+18,30.601800976562497,-26.392331314086913,56.138919830322266,-15.955216979980468,1.690426218261574e+18,30.599574279785156,21.641300201416016,89.26952743530273,102.43428802490234,1.690426218263801e+18,30.601800976562497,-1.137148993224898,-0.6469013307147449,0.1499178488780075,-1.8712975170448396,0.6592506401043414,-0.3523145467417216,-1.2818788410394957
0.65,1.690426218313898e+18,30.651897998046877,-0.9268398863101004,2.0306152500545975,3.414016767283678,1.6904262183151516e+18,30.653151611328127,0.0718902587890625,1.1029388427734377,0.046014404296875,1.690426218313898e+18,30.651897998046877,1.6521032488563656,9.17236308566928,-3.040820758863389,1.690426218313898e+18,30.651897998046877,-0.5991895973682404,0.9369350135326384,-1.9710399627685544,1.690426218310142e+18,30.64814208984375,-0.624347597360611,1.0152696132659913,-1.9832502365112303,,,,,,,,,,,,,1.690426218313898e+18,30.651897998046877,-18.82254829406738,57.8940315246582,-16.028341674804686,1.690426218308387e+18,30.646387060546875,28.226934814453124,90.64818420410155,102.4403564453125,1.690426218313898e+18,30.651897998046877,-1.3987128217873743,-0.6779331026114658,0.1027821820280008,-2.0662168847000624,0.6364004186201723,-0.3529512212934936,-1.2097429847118115
0.7,1.6904262183639951e+18,30.7019951171875,-2.5817678956505654,-0.1144748711550235,2.022445796767771,1.6904262183652488e+18,30.703248583984372,-0.006402587890625,0.878289794921875,-0.1640045166015625,1.6904262183639951e+18,30.7019951171875,2.417586072101146,8.93360798865974,-3.235677443626821,1.6904262183639951e+18,30.7019951171875,-0.1398358352482318,-0.031424793601036,-1.6135308504104615,1.690426218360239e+18,30.698239111328128,-0.1643451631069183,-0.0011990621685981,-1.643937587738037,,,,,,,,,,,,,1.6904262183639951e+18,30.7019951171875,-11.619346618652344,58.98955612182617,-16.105674743652344,1.6904262183604024e+18,30.69840244140625,35.41581726074219,91.70171813964843,102.37737121582032,1.6904262183639951e+18,30.7019951171875,-1.5758124845354518,-0.7040460582761114,0.0746884369346003,-2.2111751284313925,0.6091586062660557,-0.3571205057576242,-1.1458939293722508
0.75,1.6904262184140923e+18,30.752092285156248,-2.0162379404905435,-0.2609932323026657,1.6663036820966006,1.6904262184153462e+18,30.753345947265625,0.11859130859375,0.8475921630859375,-0.134857177734375,1.6904262184140923e+18,30.752092285156248,3.072769030240178,8.73452193731129,-3.2258267884808776,1.6904262184140923e+18,30.752092285156248,0.1320403164252638,-0.1578651398420333,-1.273467183113098,1.6904262184103365e+18,30.748336279296876,0.1092285923659801,-0.1371726617217063,-1.30329167842865,,,,,,,,,,,,,1.6904262184140923e+18,30.752092285156248,-5.568790435791016,59.56119613647461,-15.406210327148438,1.690426218412415e+18,30.750415087890623,41.3529541015625,92.23291015625,103.14282531738282,1.6904262184140923e+18,30.752092285156248,-1.7038891543857129,-0.7254445107747158,0.0632000536638034,-2.3312270626973217,0.5824812608090205,-0.3610631743922804,-1.0989475309787828
0.8,1.6904262184641892e+18,30.802189355468748,-2.317127422112822,-1.1942554944235089,1.7800776530537008,1.690426218465443e+18,30.803443115234376,0.126983642578125,0.750372314453125,-0.15626220703125,1.6904262184641892e+18,30.802189355468748,3.528653492549956,8.612181038182378,-3.088718294522166,1.6904262184641892e+18,30.802189355468748,0.3296198487281799,-0.0544407621957361,-0.6622817099094391,1.6904262184604332e+18,30.79843325195312,0.3291090786457061,-0.0691896178061142,-0.7158420741558075,,,,,,,,,,,,,1.6904262184641892e+18,30.802189355468748,-1.5557991027832032,59.800618743896486,-14.528216552734374,1.6904262184644275e+18,30.8024275390625,45.63539428710938,92.49293518066406,104.25914001464844,1.6904262184641892e+18,30.802189355468748,-1.798875601870913,-0.7418993672739633,0.0605646823589027,-2.422441729934494,0.5625002496174668,-0.3598370377697971,-1.0720964263864687
0.85,1.6904262185142863e+18,30.852286376953128,-2.2227093090108037,-1.58615041654706,1.5138986009979247,1.6904262185155402e+18,30.85354013671875,0.14910888671875,0.707318115234375,-0.12496337890625,1.6904262185142863e+18,30.852286376953128,3.661205579926371,8.60574019147992,-2.9504495246124263,1.6904262185142863e+18,30.852286376953128,0.4046477079391479,0.1742006935179233,-0.0078449726104736,1.6904262185105303e+18,30.84853037109375,0.3903729081153869,0.1592961810529231,-0.0517445288598537,,,,,,,,,,,,,1.6904262185142863e+18,30.852286376953128,0.4853408813476562,59.97138595581055,-13.171958923339844,1.6904262185112394e+18,30.849239501953125,47.23176574707031,92.67142868041992,105.58056640625,1.6904262185142863e+18,30.852286376953128,-1.8485726882175264,-0.7496335087389052,0.0614277841553158,-2.463318867932022,0.5563779565226185,-0.3531427899837754,-1.0707224750781186
0.9,1.6904262185643832e+18,30.902383300781253,-1.8896396177259085,-1.8084316993308065,1.2907208369919656,1.690426218565637e+18,30.903637109375,0.1713775634765625,0.7070892333984375,-0.17332763671875,1.6904262185643832e+18,30.902383300781253,3.483369821877479,8.73024861468017,-2.7938008145946265,1.6904262185643832e+18,30.902383300781253,0.5628909826278686,0.5447331607341767,0.5997539222240448,1.6904262185606272e+18,30.898627294921873,0.5604557394981384,0.5144136309623718,0.555717658996582,,,,,,,,,,,,,1.6904262185643832e+18,30.902383300781253,0.0432685852050781,60.46710586547851,-11.670301818847657,1.6904262185580518e+18,30.896051904296876,46.39528198242188,93.16192626953124,106.91553039550782,1.6904262185643832e+18,30.902383300781253,-1.8704420235449013,-0.7503496157890359,0.0645727747235615,-2.465470189888113,0.5641001318057987,-0.3384486671479699,-1.0980006023060305
0.95,1.6904262186144804e+18,30.952480517578124,0.0280867444169522,-1.8232381064140797,0.3902497268128394,1.690426218615734e+18,30.953733984375003,0.3570281982421875,0.7393157958984375,-0.245941162109375,1.6904262186144804e+18,30.952480517578124,3.029728053154051,8.935514582159518,-2.6687814608106017,1.6904262186144804e+18,30.952480517578124,0.5422546327114105,0.9208600997924804,0.8615259766578675,1.6904262186107244e+18,30.94872456054687,0.5509792685508728,0.9198518514633178,0.866571044921875,,,,,,,,,,,,,1.6904262186144804e+18,30.952480517578124,-2.620996856689453,61.02476577758789,-10.173388671875,1.690426218610066e+18,30.948065771484373,43.629391479492185,93.71581726074218,108.41104736328126,1.6904262186144804e+18,30.952480517578124,-1.8616821435642348,-0.7449135842809496,0.0646837996588389,-2.4188648351661266,0.584209808019134,-0.3154709887268999,-1.1463398768677586
1.0,1.6904262186645775e+18,31.002577539062496,2.551087802965641,-0.1702183856868744,-0.3207512431728839,1.6904262186658312e+18,31.003831347656252,0.552960205078125,0.9547637939453124,-0.309698486328125,1.6904262186645775e+18,31.002577539062496,2.5596350619758663,9.111155226703882,-2.566895086880624,1.6904262186645775e+18,31.002577539062496,0.4023752450942993,0.5680765807628632,0.7450236320495606,1.6904262186608215e+18,30.99882158203125,0.4154899835586548,0.6210901141166687,0.7564973831176758,,,,,,,,,,,,,1.6904262186645775e+18,31.002577539062496,-5.307638549804688,61.38195724487305,-8.992633056640624,1.69042621866208e+18,31.000079931640624,40.970880126953126,94.03765258789062,109.56082458496094,1.6904262186645775e+18,31.002577539062496,-1.8353179588161208,-0.7378375766766891,0.0629819847970779,-2.354287959932612,0.6045690268483491,-0.293381047903031,-1.192082801871237
1.05,1.6904262187146744e+18,31.05267451171875,4.830339317218363,0.9685767366081476,-1.8615011723478136,1.6904262187159283e+18,31.0539283203125,0.747735595703125,1.048150634765625,-0.463690185546875,1.6904262187146744e+18,31.05267451171875,2.262931984579712,9.222791776466966,-2.4467150482735036,1.6904262187146744e+18,31.05267451171875,0.2328705303370952,0.0086197402328253,0.3119824416935444,1.690426218710919e+18,31.048918505859376,0.2590604826807975,0.0484958421438932,0.3618401303887367,,,,,,,,,,,,,1.6904262187146744e+18,31.05267451171875,-6.877224731445312,61.64944686889648,-8.075686645507812,1.6904262187140923e+18,31.05209228515625,39.580499267578126,94.3296630859375,110.47946472167968,1.6904262187146744e+18,31.05267451171875,-1.8101325518597824,-0.7319608605065714,0.0672191685963828,-2.3171483424609023,0.6165215331088445,-0.2821482239434844,-1.2240349964731592
1.1,1.6904262187647716e+18,31.102771484375,4.459646289981902,0.7724253358590603,-2.116483006180375,1.6904262187660252e+18,31.10402529296875,0.6236602783203125,0.97763671875,-0.425,1.6904262187647716e+18,31.102771484375,2.258663571932465,9.227227362374665,-2.434235885867923,1.6904262187647716e+18,31.102771484375,-0.2595948487520217,-0.2742174953222274,-0.0965095844119786,1.6904262187610156e+18,31.09901547851563,-0.2299970852211117,-0.2575764656066894,-0.098218872398138,,,,,,,,,,,,,1.6904262187647716e+18,31.102771484375,-6.2607566833496096,61.7526496887207,-7.954350280761719,1.690426218766105e+18,31.1041048828125,40.65693359375,94.37581787109374,110.3668212890625,1.6904262187647716e+18,31.102771484375,-1.8035989132972188,-0.7308324422215043,0.0702551599176,-2.318801054593966,0.6163630130995591,-0.2846684548059232,-1.2253462078910151
1.15,1.6904262188148687e+18,31.15286865234375,0.3526188797549903,-0.3211904529207945,2.2112658317154645,1.6904262188161224e+18,31.154122412109377,0.234527587890625,0.976702880859375,0.0490631103515625,1.6904262188148687e+18,31.15286865234375,2.229348191729486,9.211759042703507,-2.518022802518606,1.6904262188148687e+18,31.15286865234375,-0.0300468135625123,-0.0682325851172208,0.4089530885219574,1.6904262188111127e+18,31.14911279296875,-0.0752788841724396,-0.0997948788106441,0.3781513422727585,,,,,,,,,,,,,1.6904262188148687e+18,31.15286865234375,-5.214642333984375,61.43975143432617,-8.709370422363282,1.6904262188129157e+18,31.150915771484375,41.29608154296875,93.98413848876952,109.61441040039062,1.6904262188148687e+18,31.15286865234375,-1.7665778562022556,-0.7268040618936148,0.0716344690422353,-2.2953275712443864,0.6174117624258322,-0.2922605769444531,-1.2207184342011954
1.2,1.6904262188649656e+18,31.202965673828125,1.6244214319784938,4.437481629090309,4.415290021739602,1.6904262188662195e+18,31.204219580078124,0.4073089599609375,1.4256744384765625,0.174432373046875,1.6904262188649656e+18,31.202965673828125,2.0403229603724182,9.277672770498397,-2.435105654439777,1.6904262188649656e+18,31.202965673828125,0.3264379262924194,0.2688309460878372,0.1325512066483498,1.6904262188612096e+18,31.19920971679688,0.329076588153839,0.2621430933475493,0.1847465232014656,,,,,,,,,,,,,1.6904262188649656e+18,31.202965673828125,-5.282051849365234,61.20427780151367,-8.116081237792969,1.6904262188597304e+18,31.197730419921875,41.21339721679688,93.8300323486328,110.46614990234374,1.6904262188649656e+18,31.202965673828125,-1.7458094375694706,-0.7229009932599222,0.0748829510189712,-2.26820989858967,0.6247906768107716,-0.2853633658498559,-1.2408851235037222
1.25,1.6904262189150628e+18,31.253062841796872,-0.8523747493995725,0.253646493575573,1.853663026068061,1.6904262189163167e+18,31.2543166015625,0.01507568359375,0.82728271484375,-0.031256103515625,1.6904262189150628e+18,31.253062841796872,2.0159865083996946,9.29556732362926,-2.3870911851769683,1.6904262189150628e+18,31.253062841796872,0.2331771194934844,1.323595976829529,-0.2348171785473823,1.6904262189113065e+18,31.249306640625,0.2231207519769668,1.2409012913703918,-0.2486900836229324,,,,,,,,,,,,,1.6904262189150628e+18,31.253062841796872,-3.681442260742187,61.01623764038086,-6.711231994628906,1.6904262189117463e+18,31.249746337890628,42.95966491699219,93.65104675292967,111.8542938232422,1.6904262189150628e+18,31.253062841796872,-1.787367630712288,-0.7279651894000879,0.0651430446425636,-2.272111217867681,0.6268336416456073,-0.269806752408308,-1.2465284251080206
1.3,1.69042621896516e+18,31.3031599609375,-5.749979179795682,-1.83414762296319,0.5132707463864982,1.6904262189664136e+18,31.30441357421875,-0.419879150390625,0.860400390625,-0.2873626708984375,1.69042621896516e+18,31.3031599609375,1.75612137411803,9.346374316993952,-2.389307399921715,1.69042621896516e+18,31.3031599609375,0.3387795776128768,1.8637991905212403,0.5751519322395324,1.690426218961404e+18,31.299403955078127,0.3602251291275024,1.8674848556518555,0.5195463463664055,,,,,,,,,,,,,1.69042621896516e+18,31.3031599609375,-3.274730682373047,60.58005142211914,-5.299403381347656,1.6904262189637586e+18,31.301758642578125,43.13774719238281,93.17923278808594,113.29174194335936,1.69042621896516e+18,31.3031599609375,-1.8028724057346175,-0.730162163502798,0.040759766323376,-2.2034389903392837,0.6392997777164326,-0.2372341766232213,-1.2633345506753
1.35,1.6904262190152568e+18,31.35325693359375,-2.840682363530844,0.3621128304177522,-1.0004763465376196,1.6904262190165105e+18,31.35451049804687,-0.160601806640625,0.963836669921875,-0.3214447021484375,1.6904262190152568e+18,31.35325693359375,1.213163886158988,9.420625080501436,-2.4335868619877097,1.6904262190152568e+18,31.35325693359375,-0.0095857545733451,1.016089403629303,0.9879096388816834,1.6904262190115008e+18,31.349500927734375,0.0085628606379032,1.0566949009895326,0.9517706632614136,1.6904262189998607e+18,31.33786083984375,76.57136797811836,3.134404197741246,-1.0,49.2800064973007,95.75279688742012,-1.0,10.754634280920216,1.0442451399982953,-122.96831086006448,0.5259379193465796,1.6904262190152568e+18,31.35325693359375,-4.716867828369141,60.347180938720705,-4.614903259277344,1.690426219015771e+18,31.353770849609372,41.115963745117185,92.89367370605468,113.90109252929688,1.6904262190152568e+18,31.35325693359375,-1.701061280306933,-0.7195082635305227,0.0206188472407383,-2.032050810130803,0.661563162139619,-0.210047395159577,-1.2893457794805392
1.4,1.6904262190653537e+18,31.403353906249997,-0.2670093654000759,-0.0230966810446977,1.69954865683347,1.6904262190666076e+18,31.404607519531247,0.0601043701171875,0.983404541015625,-0.043621826171875,1.6904262190653537e+18,31.403353906249997,0.5670025996088981,9.46112952484727,-2.51088368596673,1.6904262190653537e+18,31.403353906249997,-0.0533678640611469,1.518043041229248,0.9209738969802856,1.690426219061598e+18,31.399597998046875,-0.060953312460333,1.455316162109375,0.9616917490959168,,,,,,,,,,,,,1.6904262190653537e+18,31.403353906249997,-7.583489990234375,59.8030387878418,-4.559956359863281,1.6904262190625797e+18,31.400579711914062,38.33368682861328,92.32464981079102,113.93500137329102,1.6904262190653537e+18,31.403353906249997,-1.5125511985501974,-0.7016544965305742,0.0043494318840339,-1.7923510628057335,0.6862835523889037,-0.1910978266275132,-1.3045639640496065
1.45,1.690426219115451e+18,31.453450927734377,-0.5925280860096216,0.2442099721884727,1.6031784744286537,1.6904262191167048e+18,31.454704736328125,-0.0711090087890625,0.9767059326171876,-0.125714111328125,1.690426219115451e+18,31.453450927734377,-0.0170358132997597,9.471220944559573,-2.5380243817052244,1.690426219115451e+18,31.453450927734377,0.0073328162543475,2.2877155780792235,0.5431873261928558,1.6904262191116948e+18,31.449694970703128,0.0073649186379042,2.2543874979019165,0.5690164804458618,,,,,,,,,,,,,1.690426219115451e+18,31.453450927734377,-9.725730895996094,59.26100845336914,-3.956748962402344,1.6904262191093914e+18,31.44739130859375,36.62528686523437,91.87339782714844,114.57979431152344,1.690426219115451e+18,31.453450927734377,-1.3761680376349028,-0.6885724318852706,-0.026150558866778,-1.5640665593155332,0.707138870544668,-0.1576637508826982,-1.3084949425730694
1.5,1.690426219165548e+18,31.50354790039063,-0.2570379626447706,-0.2242300787639617,0.3862014158831536,1.6904262191668017e+18,31.50480166015625,-0.089166259765625,0.937481689453125,-0.2327117919921875,1.690426219165548e+18,31.50354790039063,-0.5200898956559599,9.470277175516484,-2.4892082406707106,1.690426219165548e+18,31.50354790039063,0.0714745797216891,2.295911121368408,0.3583104491233825,1.690426219161792e+18,31.499791943359373,0.0693424820899963,2.3312737941741943,0.3637007176876068,,,,,,,,,,,,,1.690426219165548e+18,31.50354790039063,-10.982198333740234,58.74484481811523,-2.955572509765625,1.690426219161404e+18,31.49940390625,35.414154052734375,91.33713073730468,115.60746154785156,1.690426219165548e+18,31.50354790039063,-1.2932578274703914,-0.6783244234356159,-0.0647769304765057,-1.364816287160892,0.7226344851324512,-0.1149234625406247,-1.3081239573932215
1.55,1.690426219215645e+18,31.553644970703125,-0.575125963344723,-0.4576812241464852,-0.7715719923523068,1.6904262192168986e+18,31.554898681640623,-0.164959716796875,0.9240203857421876,-0.3253387451171875,1.690426219215645e+18,31.553644970703125,-0.9441448322108388,9.464368828255534,-2.385392301530689,1.690426219215645e+18,31.553644970703125,0.0258983148261904,1.9404292821884157,0.3897343754768371,1.6904262192118892e+18,31.549888916015625,0.0308502173051237,1.9611860752105712,0.3805005848407745,,,,,,,,,,,,,1.690426219215645e+18,31.553644970703125,-11.787435913085938,58.12797164916992,-1.791619873046875,1.6904262192134167e+18,31.55141669921875,34.632687377929685,90.72650756835938,116.76364135742188,1.690426219215645e+18,31.553644970703125,-1.2259336351761188,-0.6677893890365287,-0.0984568704788187,-1.1942121558164742,0.7337290327294872,-0.076228010014257,-1.3058193754397514
1.6,1.6904262192657423e+18,31.6037421875,0.5907708378526568,-0.2360402266407012,0.0584887508128583,1.6904262192619863e+18,31.599986267089843,-0.0592803955078125,0.9383926391601562,-0.2064132690429687,1.6904262192657423e+18,31.6037421875,-1.3551796459642798,9.446204576724767,-2.2559767586143313,1.6904262192657423e+18,31.6037421875,0.1170137543231248,1.7271226406097413,0.3850497603416442,1.6904262192619863e+18,31.599986181640624,0.1033288933336734,1.755684208869934,0.3926414012908935,,,,,,,,,,,,,1.6904262192657423e+18,31.6037421875,-12.404002380371091,57.64713973999024,-0.93448486328125,1.690426219265427e+18,31.603427099609377,33.95286560058594,90.17828979492188,117.76487731933594,1.6904262192657423e+18,31.6037421875,-1.1517206017939452,-0.654988273851449,-0.1275591737237948,-1.030074192927484,0.7434818512883962,-0.0423962058152782,-1.2988344226600754
1.65,1.690426219315839e+18,31.653839062500005,0.4262287734626233,-0.5541524703860283,0.2280574696454405,1.6904262193070735e+18,31.645073486328123,-0.1288909912109375,0.9059112548828124,-0.18419189453125,1.690426219315839e+18,31.653839062500005,-1.7167931047186251,9.439093984841108,-2.0268212061469257,1.690426219315839e+18,31.653839062500005,0.3404382199048995,1.561329221725464,0.4727197349071502,1.690426219312083e+18,31.650083056640625,0.3208837985992431,1.5751296043395997,0.4536489307880401,,,,,,,,,,,,,1.690426219315839e+18,31.653839062500005,-12.940962219238282,57.17201919555664,0.1705841064453125,1.6904262193122376e+18,31.65023767089844,33.455055236816406,89.71762084960938,118.8887062072754,1.690426219315839e+18,31.653839062500005,-1.066514209084629,-0.6420771686680478,-0.1489823142831874,-0.8681523886405964,0.7518672689554331,-0.0102751774882721,-1.2961455330841718
1.7,1.690426219365936e+18,31.703936132812498,0.651113809003979,-0.5461253481793403,-0.303204217531532,1.6904262193571704e+18,31.695170605468743,-0.1525054931640625,0.9054046630859376,-0.195263671875,1.690426219365936e+18,31.703936132812498,-2.135129722078889,9.4258901029706,-1.6533073931752142,1.690426219365936e+18,31.703936132812498,0.6791550040245056,1.0963584423065185,0.72712562084198,1.69042621936218e+18,31.70018017578125,0.6621991991996765,1.1465741038322448,0.7168833374977112,,,,,,,,,,,,,1.690426219365936e+18,31.703936132812498,-13.955698013305664,56.20981369018555,2.1996612548828125,1.6904262193590484e+18,31.697048583984376,32.414712524414064,88.76886901855468,120.85101623535157,1.690426219365936e+18,31.703936132812498,-0.9175000173820128,-0.6250038807326782,-0.1598367566633981,-0.6593992435465519,0.7637387927441667,0.0203811167544496,-1.2912320298997049
1.75,1.6904262194160333e+18,31.754033251953125,1.1003149941575523,-0.0331707989090681,-2.633451116553992,1.6904262194072673e+18,31.745267480468748,-0.148223876953125,0.9523895263671877,-0.391680908203125,1.6904262194160333e+18,31.754033251953125,-2.55598945740208,9.386837727903126,-1.2245354672618955,1.6904262194160333e+18,31.754033251953125,0.5797483503818512,0.8597773909568787,0.7324510335922241,1.6904262194122772e+18,31.750277294921876,0.6095637559890748,0.8603906035423279,0.7462656259536743,,,,,,,,,,,,,1.6904262194160333e+18,31.754033251953125,-15.36171646118164,55.1421760559082,4.516395568847656,1.690426219411059e+18,31.749058935546874,31.01505126953125,87.69458618164063,123.16211242675782,1.6904262194160333e+18,31.754033251953125,-0.745096625545017,-0.6062418600620079,-0.1615543211125187,-0.447781927748244,0.7773068802622182,0.0456457892711424,-1.2771938191600518
1.8,1.6904262194661302e+18,31.804130224609377,2.013008106336891,0.7978597537493706,-2.6204988421308992,1.6904262194573645e+18,31.79536455078125,-0.0836883544921875,1.0305389404296874,-0.362451171875,1.6904262194661302e+18,31.804130224609377,-2.838169650057554,9.340776818473934,-0.927468393471986,1.6904262194661302e+18,31.804130224609377,0.1621105466037988,0.9646000742912292,0.1805595774203538,1.690426219462374e+18,31.80037421875,0.191408947110176,0.9647821307182312,0.228179326094687,,,,,,,,,,,,,1.6904262194661302e+18,31.804130224609377,-15.693593215942382,54.16770095825195,5.80880126953125,1.6904262194630712e+18,31.801071484375,30.83477783203125,86.73388977050782,124.34918518066408,1.6904262194661302e+18,31.804130224609377,-0.6548090001385509,-0.5922575880713338,-0.1686325035082507,-0.315952152634078,0.7850214408474367,0.0669754373230293,-1.2613273978855502
1.85,1.690426219516227e+18,31.85422734375,1.778831627741456,1.0674710598891974,-2.3803250228168067,1.6904262195074616e+18,31.84546171875,-0.11627197265625,1.0624908447265624,-0.32489013671875,1.690426219516227e+18,31.85422734375,-2.887945546808839,9.339285235515831,-0.7790335604046285,1.690426219516227e+18,31.85422734375,-0.0703226130455732,1.0002854943275452,-0.0953723963582888,1.690426219512471e+18,31.85047119140625,-0.0666987098753451,1.0168044447898863,-0.074096384178847,,,,,,,,,,,,,1.690426219516227e+18,31.85422734375,-14.339639663696287,53.15539627075195,6.192514038085937,1.6904262195150843e+18,31.853084521484373,32.374444580078126,85.65931701660156,124.70202026367188,1.690426219516227e+18,31.85422734375,-0.6521610120685425,-0.5875476246101617,-0.1831683297072195,-0.2634565398974637,0.783371467008324,0.0866797754446939,-1.2608258542000192
1.9,1.6904262195663245e+18,31.904324560546875,1.8926282196956872,1.738953907765746,-3.655016165314764,1.6904262195575588e+18,31.89555869140625,-0.09071044921875,1.1296722412109377,-0.4382415771484375,1.6904262195663245e+18,31.904324560546875,-2.8001803449508547,9.37065091392517,-0.7193097586780042,1.6904262195663245e+18,31.904324560546875,-0.2009320512413978,0.2915341570973396,-0.40201495885849,1.6904262195625684e+18,31.900568505859376,-0.1734613195061683,0.3900627613067627,-0.3748813569545746,,,,,,,,,,,,,1.6904262195663245e+18,31.904324560546875,-12.40396499633789,52.21233444213867,6.24405517578125,1.6904262195618964e+18,31.899896484375,34.5466423034668,84.64062118530273,124.6795768737793,1.6904262195663245e+18,31.904324560546875,-0.6787033719526046,-0.5890994811975689,-0.1954527180949297,-0.2515841212374062,0.7775337181651516,0.1009255162513999,-1.2715213379315071
1.95,1.6904262196164214e+18,31.954421533203128,1.8282921749332544,2.3642560192257163,-4.294451051606238,1.6904262196076557e+18,31.945655664062503,-0.0712249755859375,1.201214599609375,-0.5458465576171875,1.6904262196164214e+18,31.954421533203128,-2.4737089705654975,9.436404950339794,-0.9823393337269128,1.6904262196164214e+18,31.954421533203128,-0.7933993995189667,-0.8364736795425415,-0.9991825461387634,1.690426219612665e+18,31.950665478515624,-0.742149704694748,-0.7893483102321625,-0.9277081608772276,,,,,,,,,,,,,1.6904262196164214e+18,31.954421533203128,-9.473653411865234,51.08489303588867,5.14591064453125,1.6904262196087078e+18,31.94670786132813,37.29563903808594,83.63734741210938,123.46675720214844,1.6904262196164214e+18,31.954421533203128,-0.7948022271244106,-0.6046178127095547,-0.1977518778892632,-0.380068379182288,0.7661563799151825,0.0906427975408122,-1.295258526085274
2.0,1.6904262196665185e+18,32.0045185546875,4.354622144095897,1.8106001586371656,2.044832371394783,1.6904262196577526e+18,31.995752685546876,0.28173828125,1.16143798828125,0.0435760498046875,1.6904262196665185e+18,32.0045185546875,-1.58878060430713,9.547043019810914,-1.5290315512348711,1.6904262196665185e+18,32.0045185546875,-1.004810917377472,-0.7922690629959106,-2.5481697797775267,1.6904262196627625e+18,32.00076254882812,-1.0042430996894836,-0.8009635448455811,-2.4461468696594237,,,,,,,,,,,,,1.6904262196665185e+18,32.0045185546875,-3.929026794433594,49.84634017944336,3.0099777221679687,1.69042621966072e+18,31.998720117187496,43.11449279785156,82.38485412597656,121.3149871826172,1.6904262196665185e+18,32.0045185546875,-1.1611584194933866,-0.6434914644285514,-0.1992571775213057,-0.7779772518857071,0.7356181699629663,0.0682435411661651,-1.3407545359979385
2.05,1.6904262197166154e+18,32.05461547851563,0.0305171864342689,2.869807832571864,2.7071535693028563,1.69042621970785e+18,32.04584985351563,-0.0141815185546875,1.2620819091796875,0.06776123046875,1.6904262197166154e+18,32.05461547851563,-0.2161575474262843,9.581058102137444,-2.0418646368564666,1.6904262197166154e+18,32.05461547851563,-0.9347512245178222,-0.222867476940155,-2.726436471939087,1.6904262197128596e+18,32.05085952148438,-0.9589207887649536,-0.2683264136314392,-2.746371793746948,,,,,,,,,,,,,1.6904262197166154e+18,32.05461547851563,4.207345581054687,48.13098373413086,1.0453704833984374,1.6904262197127327e+18,32.050732714843754,51.317529296875,80.60479125976562,119.375146484375,1.6904262197166154e+18,32.05461547851563,-1.828353343490671,-0.6969343664400377,-0.2037910563325423,-1.4575892652076203,0.6850304417090434,0.0553754911075945,-1.3560882650083137
2.1,1.6904262197667128e+18,32.10471264648437,-2.38318272110939,2.5368688403815027,2.645428525369465,1.690426219757947e+18,32.095946826171875,-0.1403564453125,1.2328125,0.030810546875,1.6904262197667128e+18,32.10471264648437,1.0020575367014108,9.453232984830738,-2.3869444994087514,1.6904262197667128e+18,32.10471264648437,-0.527055275440216,0.1053020238876342,-2.3720423698425295,1.6904262197629568e+18,32.10095668945313,-0.5451479494571686,0.1108186077908612,-2.3998977184295653,,,,,,,,,,,,,1.6904262197667128e+18,32.10471264648437,11.07747573852539,45.70611801147461,0.0521331787109374,1.6904262197647414e+18,32.10274125976562,58.070745849609374,78.16290588378907,118.4724334716797,1.6904262197667128e+18,32.10471264648437,-2.3453166042888567,-0.7401959958930124,-0.2120408489992896,-1.9610706619317149,0.6354277151600988,0.0555431234308047,-1.3022036533269157
2.15,1.6904262198168095e+18,32.154809716796876,-2.404690437849164,-0.0147167414253949,0.5916791264170408,1.6904262198080438e+18,32.14604389648438,-0.04080810546875,0.94073486328125,-0.2021453857421875,1.6904262198168095e+18,32.154809716796876,2.028172328494936,9.226706904084086,-2.616754453357756,1.6904262198168095e+18,32.154809716796876,-0.5187250971794128,-0.159833963215351,-1.9335525751113891,1.6904262198130537e+18,32.151053759765624,-0.5087219655513764,-0.1360414028167724,-1.979390549659729,,,,,,,,,,,,,1.6904262198168095e+18,32.154809716796876,15.897575378417969,43.85072555541992,-0.431103515625,1.6904262198115505e+18,32.149550415039066,63.06880187988281,76.1833724975586,117.99529266357422,1.6904262198168095e+18,32.154809716796876,-2.6228607070644814,-0.7745995048568579,-0.2162895658676345,-2.2269399950535784,0.5913377142021321,0.0576991209021369,-1.2258762558964638
2.2,1.6904262198669066e+18,32.204906689453125,-2.460525371604562,0.155946114706397,1.2970713750624656,1.6904262198581412e+18,32.19614111328125,0.0373626708984375,0.933135986328125,-0.160687255859375,1.6904262198669066e+18,32.204906689453125,2.819385922228098,8.953152997798323,-2.8310661308887597,1.6904262198669066e+18,32.204906689453125,-0.5377748906612396,-0.3882772266864777,-1.41224844455719,1.6904262198631506e+18,32.20115068359375,-0.5416118621826171,-0.3659704208374023,-1.445363450050354,,,,,,,,,,,,,1.6904262198669066e+18,32.204906689453125,20.04692840576172,41.82654495239258,-0.5694915771484375,1.6904262198583608e+18,32.196360595703126,66.83075256347657,74.307373046875,117.89423522949218,1.6904262198669066e+18,32.204906689453125,-2.743165951247488,-0.8006357969097196,-0.2163102850033148,-2.352996757853042,0.5562229625148996,0.0518072718601667,-1.1509304989545428
2.25,1.690426219911994e+18,32.24999383544922,-3.582258329165727,-1.3999696732878684,1.5276343685619531,1.690426219908238e+18,32.2462380859375,-0.0083892822265625,0.7414093017578125,-0.1821014404296875,1.690426219911994e+18,32.24999383544922,3.3373389812119303,8.7316134148404,-2.963070272832736,1.690426219911994e+18,32.24999383544922,-0.5251408591866493,-0.6127305626869202,-0.759115070104599,1.6904262199132475e+18,32.251247656249994,-0.5387584447860718,-0.6157265663146972,-0.7411274671554565,,,,,,,,,,,,,1.690426219911994e+18,32.24999383544922,22.85629653930664,40.09536552429199,-0.4095592498779297,1.6904262199103734e+18,32.2483732421875,69.69232177734375,72.51932373046876,118.11512756347656,1.690426219911994e+18,32.24999383544922,-2.787720164859534,-0.8175313177073984,-0.2123442950508679,-2.415339851325749,0.5336060557335763,0.0421776677373308,-1.0982726249344363
2.3,1.6904262199570816e+18,32.29508149414063,-2.957996520538926,-2.064595027258992,0.5693913652154803,1.690426219958335e+18,32.29633515625,0.06243896484375,0.64696044921875,-0.21201171875,1.6904262199570816e+18,32.29508149414063,3.590035597490668,8.594779003195763,-3.0673814919829367,1.6904262199570816e+18,32.29508149414063,-0.5307565867900849,-0.8945228815078735,-0.0242148976773023,1.690426219963345e+18,32.30134487304687,-0.489577043056488,-0.8964275360107422,0.0784842103719711,,,,,,,,,,,,,1.6904262199570816e+18,32.29508149414063,24.007722473144533,39.257266998291016,-0.083514404296875,1.6904262199623854e+18,32.30038549804688,70.52816162109374,71.76448974609374,118.55923767089844,1.6904262199570816e+18,32.29508149414063,-2.769978415302513,-0.8260852507456043,-0.2046153455695799,-2.434511585340729,0.5244798246569271,0.0240747727597805,-1.0684102429682525
2.35,1.6904262200071785e+18,32.345178466796874,-3.1753879854544995,-2.9670120692610737,2.1109491328680514,1.690426220008432e+18,32.346432275390626,0.0314666748046875,0.5699981689453125,-0.098345947265625,1.6904262200071785e+18,32.345178466796874,3.540833175165355,8.610354407277105,-3.0800619929534196,1.6904262200071785e+18,32.345178466796874,-0.2381106078624725,-0.6441223621368408,0.8924803018569947,1.6904262200134418e+18,32.35144189453125,-0.2059503391385078,-0.5654898643493652,1.0250586867332458,1.690426219999847e+18,32.337846923828124,76.02225845679641,2.0855239668398284,-1.0,49.28002538154571,95.20368736609817,-1.0,9.099622213763777,1.0394910218664215,-122.96830848968042,0.2648129507803011,1.6904262200071785e+18,32.345178466796874,23.40032196044922,39.218099212646486,0.7396697998046875,1.690426220014398e+18,32.35239809570312,69.3824951171875,71.99342346191406,119.4630401611328,1.6904262200071785e+18,32.345178466796874,-2.7125455855645564,-0.8249170913336503,-0.1925445805316286,-2.425527482523463,0.5313766890747097,0.0034354929025986,-1.071743181125348
2.4,1.6904262200572756e+18,32.39527548828125,-1.772970042231679,-3.2979080405426027,1.5988085303291677,1.6904262200585293e+18,32.396529296874995,0.186279296875,0.57579345703125,-0.1704620361328125,1.6904262200572756e+18,32.39527548828125,3.0008361298340556,8.818218457651735,-3.0584335139912366,1.6904262200572756e+18,32.39527548828125,0.114406044408679,-0.0307294365018606,1.6672802448272706,1.6904262200635387e+18,32.40153881835938,0.1667433377355336,0.0062888936139643,1.693345069885254,,,,,,,,,,,,,1.6904262200572756e+18,32.39527548828125,20.80439453125,40.01306076049805,1.4316192626953126,1.6904262200612096e+18,32.399209411621094,66.4620475769043,72.93509674072266,120.01566314697268,1.6904262200572756e+18,32.39527548828125,-2.6043984254920596,-0.8080059883463642,-0.1868084223930289,-2.3454844487375404,0.5585749027676342,-0.0089054811298993,-1.118286026218893
2.45,1.6904262201073728e+18,32.44537270507813,3.9858303327578297,-0.1266054539316892,-0.173566819331944,1.6904262201086264e+18,32.44662651367187,0.7501129150390625,1.041455078125,-0.3744415283203125,1.6904262201073728e+18,32.44537270507813,2.297333172840476,9.070056674309374,-2.931772530480027,1.6904262201073728e+18,32.44537270507813,0.3014205515384673,-0.4013310508802533,1.3486070036888125,1.690426220113636e+18,32.451636083984376,0.2846463233232498,-0.5033153980970383,1.226388168334961,,,,,,,,,,,,,1.6904262201073728e+18,32.44537270507813,17.62646026611328,40.69963607788086,2.2565704345703126,1.6904262201080202e+18,32.4460201171875,63.17291259765625,73.44910888671875,121.12655029296874,1.6904262201073728e+18,32.44537270507813,-2.47704952355354,-0.7854534970505207,-0.1806207686976135,-2.234528630477301,0.5917495965778613,-0.0128056293471079,-1.1810299411656673
2.5,1.69042622015747e+18,32.49546987304687,7.571998499617576,4.693458260726929,-3.366593395781815,1.6904262201587236e+18,32.496723388671874,0.9324981689453123,1.3733734130859374,-0.629364013671875,1.69042622015747e+18,32.49546987304687,2.0631070975627006,9.1687301652205,-2.801229152577519,1.69042622015747e+18,32.49546987304687,-0.1850905366241932,-0.9696512460708618,0.0981130063533783,1.6904262201637332e+18,32.501733300781254,-0.2709545284509659,-1.0185783505439758,-0.0331502795219421,,,,,,,,,,,,,1.69042622015747e+18,32.49546987304687,15.414716339111328,40.90176773071289,3.6806106567382817,1.690426220160031e+18,32.49803095703125,61.76490783691406,73.52173461914063,122.44874572753906,1.69042622015747e+18,32.49546987304687,-2.405831301154491,-0.7775163264382898,-0.1641358037447006,-2.2055549486539645,0.6065060682069668,-0.0250756747796839,-1.2081295103653082
2.55,1.6904262202075668e+18,32.54556689453125,2.2378126239879426,-0.8997319822496177,-0.6233008838662506,1.6904262202088205e+18,32.54682045898438,0.3516937255859375,0.783367919921875,-0.2591949462890625,1.6904262202075668e+18,32.54556689453125,2.2897724114234745,9.10068047753632,-2.8462863210177423,1.6904262202075668e+18,32.54556689453125,-0.3521036237478255,-1.158284330368042,0.0204689651727676,1.69042622021383e+18,32.5518302734375,-0.2803680137731134,-0.9672646045684814,0.1429532647132873,,,,,,,,,,,,,1.6904262202075668e+18,32.54556689453125,15.385457611083984,40.735897064208984,4.468783569335938,1.6904262202120435e+18,32.55004350585937,61.86618347167969,73.36507568359374,123.110546875,1.6904262202075668e+18,32.54556689453125,-2.3875465176091266,-0.7836965191689369,-0.1467738511541426,-2.248136745774618,0.6013975232142171,-0.0500639763848407,-1.18906440477773
2.6,1.6904262202576635e+18,32.595663916015624,-0.1422777425162494,3.5620271790069338,3.628042847419381,1.6904262202589176e+18,32.596917724609376,0.3098724365234375,1.46134033203125,0.1193359375,1.6904262202576635e+18,32.595663916015624,2.141556072638482,9.13807573304653,-2.8409191241222618,1.6904262202576635e+18,32.595663916015624,0.2618118017911911,0.7219984173774718,0.3381298243999481,1.6904262202639276e+18,32.6019275390625,0.285369536280632,0.7053916946053504,0.1776806324720382,,,,,,,,,,,,,1.6904262202576635e+18,32.595663916015624,14.89467544555664,40.94379196166992,4.877848815917969,1.6904262202640558e+18,32.60205590820313,61.28654479980469,73.65661315917968,123.38760681152344,1.6904262202576635e+18,32.595663916015624,-2.3466012217226804,-0.7786356738861197,-0.1441056934977677,-2.216421030290978,0.6082957859860585,-0.0536971081775268,-1.1994679614846624
2.65,1.6904262203077612e+18,32.64576103515625,0.972625456703156,3.815707808660865,2.0604522868180273,1.6904262203090148e+18,32.647014697265625,0.1650299072265625,1.0666046142578125,-0.1023468017578125,1.6904262203077612e+18,32.64576103515625,2.2121117225681246,9.143805684226752,-2.7678490363797543,1.6904262203077612e+18,32.64576103515625,0.3277558535337448,0.5212383054196834,-0.7133206844329834,1.6904262203140244e+18,32.65202451171875,0.3901213973760605,0.5894702494144439,-0.6595633149147033,,,,,,,,,,,,,1.6904262203077612e+18,32.64576103515625,15.806040191650393,41.00338516235352,5.002922058105469,1.69042622031607e+18,32.654069921875,62.815155029296875,73.63926696777344,123.5200439453125,1.6904262203077612e+18,32.64576103515625,-2.406474626148905,-0.7818365528457253,-0.1507213605508747,-2.2448701515297897,0.6037196593548646,-0.038523203266611,-1.2010376074332272
2.7,1.690426220357858e+18,32.69585810546875,-7.114401972692906,-4.614330246571898,2.5112964168730376,1.6904262203591117e+18,32.697111621093754,-0.570208740234375,0.6084991455078125,-0.10198974609375,1.690426220357858e+18,32.69585810546875,2.1979083959445354,9.199914408035278,-2.5848282184562086,1.690426220357858e+18,32.69585810546875,0.7621066331863403,1.2061826586723328,0.4600053995847702,1.6904262203641216e+18,32.702121533203126,0.7123620808124542,1.3180444836616516,0.6304946888238192,,,,,,,,,,,,,1.690426220357858e+18,32.69585810546875,16.8447509765625,40.92035903930664,5.27891845703125,1.690426220362881e+18,32.70088104248047,63.188819885253906,73.60497665405273,123.9051284790039,1.690426220357858e+18,32.69585810546875,-2.4827110353926747,-0.7821604687130571,-0.1580194014629994,-2.274992186314111,0.6024444061396292,-0.013680623381605,-1.2174338237992963
2.75,1.6904262204079557e+18,32.74595537109375,-5.80433486400485,1.652843078212142,-3.5102169707229733,1.690426220409209e+18,32.747209130859375,-0.3155059814453125,1.0752197265625,-0.596356201171875,1.6904262204079557e+18,32.74595537109375,1.5510055849251896,9.345640274404882,-2.52287176230669,1.6904262204079557e+18,32.74595537109375,-0.012625528872013,0.6693851351737976,1.6007624626159669,1.6904262204142188e+18,32.75221889648437,-0.0582614414393901,0.5498212158679963,1.6736939430236817,,,,,,,,,,,,,1.6904262204079557e+18,32.74595537109375,15.633308410644531,41.564900970458986,5.222038269042969,1.6904262204096906e+18,32.747690380859375,61.35938415527344,74.58258972167968,123.54582214355467,1.6904262204079557e+18,32.74595537109375,-2.379921053852653,-0.760898959710845,-0.1747002775136791,-2.1193943339941397,0.6247482587377685,0.0068301726715777,-1.2631600438388806
2.8,1.6904262204580526e+18,32.796052685546876,2.1474127920035273,-0.101965284385085,0.8142996072533727,1.6904262204593062e+18,32.797306298828126,0.27861328125,0.9700927734375,-0.098602294921875,1.6904262204580526e+18,32.796052685546876,0.7808753377333656,9.429924589957594,-2.571104988886714,1.6904262204580526e+18,32.796052685546876,0.0283741682767868,0.6757177472114563,1.0902193307876586,1.690426220464316e+18,32.80231606445312,0.0573611337691545,0.8252528965473175,0.999239194393158,,,,,,,,,,,,,1.6904262204580526e+18,32.796052685546876,12.595577239990234,42.86030654907226,4.879916381835938,1.6904262204617006e+18,32.799700488281246,58.38753967285156,75.74188842773438,123.27301940917968,1.6904262204580526e+18,32.796052685546876,-2.1410652136650845,-0.7346557705731189,-0.1852748401701327,-1.8646843711297223,0.6525483329859194,0.0076548607083,-1.2927584925828517
2.85,1.6904262205081498e+18,32.846149658203124,-2.274305348474383,-0.3205778739804029,2.767918945197761,1.6904262205094031e+18,32.847403271484374,-0.2344146728515625,0.92391357421875,-0.01126708984375,1.6904262205081498e+18,32.846149658203124,0.1397250609887787,9.469181781495212,-2.536758658005297,1.6904262205081498e+18,32.846149658203124,0.213914132118225,1.7931679010391235,1.1514302015304565,1.690426220514413e+18,32.85241298828125,0.2449901551008224,1.8236943006515505,1.1915220499038697,,,,,,,,,,,,,1.6904262205081498e+18,32.846149658203124,10.511176300048827,43.57715072631836,4.419232177734375,1.6904262205137106e+18,32.851710546875,56.37880859375,76.40715026855469,122.71026000976562,1.6904262205081498e+18,32.846149658203124,-1.9578066783541637,-0.7115569919081828,-0.2064696721107625,-1.6245906640860706,0.6709249776615834,0.0260222564047386,-1.3077208176460309
2.9,1.690426220558247e+18,32.89624672851563,0.6808513163026422,-0.5409750089049339,-0.0425194666561484,1.6904262205595003e+18,32.897500439453125,0.0487091064453125,0.898565673828125,-0.271527099609375,1.690426220558247e+18,32.89624672851563,-0.6068404771113023,9.49582756254971,-2.365718142280578,1.690426220558247e+18,32.89624672851563,0.4007556200027465,1.3130393028259275,0.9699092388153076,1.6904262205645102e+18,32.902510107421875,0.394450694322586,1.2227044582366944,0.8932114720344544,,,,,,,,,,,,,1.690426220558247e+18,32.89624672851563,8.235086059570312,44.05005569458008,4.159687805175781,1.6904262205657185e+18,32.903718701171876,54.22499084472656,76.77112121582032,122.71939392089844,1.690426220558247e+18,32.89624672851563,-1.7273342064244517,-0.6827177448156928,-0.2309167240836633,-1.3190511291289646,0.6910659075753076,0.0534931014793729,-1.3183622834529554
2.95,1.6904262206083438e+18,32.94634384765625,0.4019722402452677,-1.045845386632085,-1.1459441464929283,1.6904262206095974e+18,32.947597412109374,-0.1328033447265625,0.876983642578125,-0.3099395751953125,1.6904262206083438e+18,32.94634384765625,-1.0862649730125813,9.50204547260344,-2.1644586339636147,1.6904262206083438e+18,32.94634384765625,0.2537340581417083,1.0461244344711305,0.6655520558357239,1.6904262206146074e+18,32.952607324218754,0.2663561046123505,1.0288899302482606,0.7059918522834778,,,,,,,,,,,,,1.6904262206083438e+18,32.94634384765625,6.9691162109375,44.33409194946289,4.429310607910156,1.6904262206125253e+18,32.950525390625,53.16674041748047,77.03532028198242,122.9598274230957,1.6904262206083438e+18,32.94634384765625,-1.564601742197651,-0.6626445528167212,-0.2450894574635084,-1.1059057640296115,0.7037675814580933,0.0739065001971964,-1.3209067937092167
3.0,1.6904262206584407e+18,32.99644086914062,-0.5198532519689202,-0.2860017675441503,0.8344202243228256,1.6904262206596946e+18,32.997694628906245,-0.192718505859375,0.934906005859375,-0.1248291015625,1.6904262206584407e+18,32.99644086914062,-1.585278631374687,9.48233983684957,-1.925996499325186,1.6904262206584407e+18,32.99644086914062,0.5512119054794311,0.692428457736969,1.0331117868423465,1.6904262206647045e+18,33.002704248046875,0.5874907076358795,0.6987490653991699,1.0604069590568543,,,,,,,,,,,,,1.6904262206584407e+18,32.99644086914062,5.59466323852539,44.54978561401367,4.819239807128906,1.6904262206593316e+18,32.997331640625,51.45878295898437,77.24833679199219,123.5828857421875,1.6904262206584407e+18,32.99644086914062,-1.379090886533474,-0.6410855371217732,-0.2542002772933465,-0.8830136712686742,0.7184568309921238,0.090107689208532,-1.3129239249465976
3.05,1.690426220708538e+18,33.04653803710937,0.895350113903582,-0.2832221321499347,-0.5760003496395051,1.6904262207097915e+18,33.047791748046876,-0.1212646484375,0.939044189453125,-0.2174957275390625,1.690426220708538e+18,33.04653803710937,-2.1897752414670584,9.431377009949088,-1.5408030329886078,1.690426220708538e+18,33.04653803710937,0.7516628623008728,0.7494639992713928,1.2446162462234498,1.6904262207148017e+18,33.052801464843746,0.7646167278289795,0.7321508765220642,1.25156831741333,,,,,,,,,,,,,1.690426220708538e+18,33.04653803710937,3.1099952697753905,44.776712799072264,6.131605529785157,1.6904262207113426e+18,33.04934233398437,48.916500854492185,77.47594909667968,124.9960205078125,1.690426220708538e+18,33.04653803710937,-1.1403192205911918,-0.6138792548707952,-0.2565578143807046,-0.6154497937864565,0.7387733683335003,0.1068021198978175,-1.2933821048838998
3.1,1.690426220758635e+18,33.09663500976562,2.6782057072380185,0.4894589904880522,-1.3305954005494711,1.690426220759889e+18,33.0978888671875,0.00506591796875,1.0237518310546876,-0.2754547119140625,1.690426220758635e+18,33.09663500976562,-2.7479666412064434,9.346370576053856,-1.113645001238808,1.690426220758635e+18,33.09663500976562,0.6700379252433777,0.4698832392692565,0.7673375725746154,1.6904262207648986e+18,33.10289848632813,0.6277453005313873,0.4530586123466492,0.6491810441017151,,,,,,,,,,,,,1.690426220758635e+18,33.09663500976562,0.6851707458496094,44.735015106201175,7.749485778808594,1.6904262207633546e+18,33.10135463867188,46.66885070800781,77.32547912597656,126.66376342773438,1.690426220758635e+18,33.09663500976562,-0.9329607419053392,-0.5872277515465414,-0.2549248670532656,-0.3860104155752396,0.7583554820368419,0.1225137241332598,-1.2632664594345513
3.15,1.6904262208087322e+18,33.146732031250004,1.8839062763187289,1.2443393173062802,-3.391022962091565,1.6904262208099858e+18,33.14798583984375,-0.1288299560546875,1.074774169921875,-0.4438629150390625,1.6904262208087322e+18,33.146732031250004,-2.933793631817996,9.318518809436558,-0.8526397277852148,1.6904262208087322e+18,33.146732031250004,0.0690914049744605,0.6229122936725616,0.0213777758181095,1.6904262208149957e+18,33.152995410156244,-0.0255605399608612,0.7031209707260132,-0.0266804514452815,,,,,,,,,,,,,1.6904262208087322e+18,33.146732031250004,-0.3019805908203125,44.59934616088867,8.828524780273437,1.6904262208153646e+18,33.153364453125,46.21525573730469,77.27632446289063,127.34291076660156,1.6904262208087322e+18,33.146732031250004,-0.8497358693731533,-0.5762474493727294,-0.2551260295331683,-0.2828291582402849,0.7645176574741581,0.1354349531389771,-1.253955709595182
3.2,1.6904262208588293e+18,33.196829248046875,2.066551714284718,1.5371409448975324,-2.0536277891732753,1.690426220860083e+18,33.198082861328125,-0.06888427734375,1.1463409423828126,-0.3059112548828125,1.6904262208588293e+18,33.196829248046875,-2.8845304776683447,9.335825684259532,-0.8305473868644236,1.6904262208588293e+18,33.196829248046875,-0.3442541301250458,0.764136642217636,-0.3972093909978866,1.6904262208650926e+18,33.20309262695313,-0.361877566576004,0.661142784357071,-0.4637995153665543,,,,,,,,,,,,,1.6904262208588293e+18,33.196829248046875,0.480340576171875,44.82916488647461,8.430975341796875,1.690426220862173e+18,33.20017297363282,47.20355224609375,77.50211334228516,126.75507354736328,1.6904262208588293e+18,33.196829248046875,-0.8899932659495768,-0.5750430490613695,-0.2701073374700294,-0.2804547468025271,0.7576813094637338,0.1491303601027818,-1.2596997100959388
3.25,1.6904262209089262e+18,33.24692622070312,2.7742978910320995,2.597163442346454,-4.850239949474632,1.6904262209101798e+18,33.248179882812494,0.044268798828125,1.21160888671875,-0.6065521240234375,1.6904262209089262e+18,33.24692622070312,-2.5215000647881625,9.416192300298809,-1.0462597249735892,1.6904262209089262e+18,33.24692622070312,-0.8074430108070374,-0.5498395442962647,-1.324528157711029,1.6904262209151898e+18,33.2531896484375,-0.8967896580696106,-0.7286738887429237,-1.5073320031166078,,,,,,,,,,,,,1.6904262209089262e+18,33.24692622070312,1.8470130920410155,44.99243850708008,7.489230346679688,1.6904262209089818e+18,33.24698168945313,48.992739868164065,77.73605651855469,125.50302124023438,1.6904262209089262e+18,33.24692622070312,-1.0202091981744734,-0.5905479407596372,-0.279234934427537,-0.3965191533379246,0.7419863859387471,0.1503211455638048,-1.2879567753799246
3.3,1.6904262209590234e+18,33.29702333984375,3.3263294821935885,2.331203995164633,-0.1201243628971278,1.690426220960277e+18,33.298277050781245,0.18502197265625,1.205914306640625,-0.08795166015625,1.6904262209590234e+18,33.29702333984375,-1.4410155602601171,9.542030978415609,-1.6784897067745028,1.6904262209590234e+18,33.29702333984375,-1.297634768486023,-1.3554466605186462,-2.8699257373809814,1.690426220965287e+18,33.30328681640625,-1.3207258224487304,-1.2694453716278076,-3.0017713069915772,,,,,,,,,,,,,1.6904262209590234e+18,33.29702333984375,5.797944641113281,45.015856170654295,5.45250244140625,1.6904262209609902e+18,33.29899018554688,54.07681579589844,77.48095703125,123.29166564941406,1.6904262209590234e+18,33.29702333984375,-1.4520498581351529,-0.6402518853662708,-0.2742391548067192,-0.872181840235136,0.7057247612054438,0.1273124416868437,-1.338289532772979
3.35,1.6904262210091205e+18,33.3471205078125,-1.8029480656749008,3.732539929917455,2.658349557097554,1.690426221010374e+18,33.348374218749996,-0.208673095703125,1.4223968505859377,0.0182464599609375,1.6904262210091205e+18,33.3471205078125,0.0922015001517348,9.507456041023136,-2.3629648980496825,1.6904262210091205e+18,33.3471205078125,-1.2734513998031616,-0.1474464278668165,-2.8766380310058595,1.6904262210153838e+18,33.35338388671875,-1.2173875331878663,-0.0126625835895538,-2.783281373977661,1.6904262209998326e+18,33.33783251953125,76.33779034391046,2.005998221832033,-1.0,49.28002046423756,95.5192192532122,-1.0,6.692350054652996,1.0333341816198396,-122.96826246701194,0.2410431783475295,1.6904262210091205e+18,33.3471205078125,12.74868621826172,43.79847183227539,2.9147872924804688,1.6904262210130012e+18,33.351001220703125,61.07200927734375,75.87598266601563,120.58729553222656,1.6904262210091205e+18,33.3471205078125,-2.156080237115745,-0.7013943787486638,-0.2750999435517801,-1.597226240066291,0.6475562771904886,0.1119568707633874,-1.3238809600912318
3.4,1.6904262210592174e+18,33.3972173828125,-2.0801554968060554,3.471347609459161,2.311278696084618,1.6904262210604713e+18,33.39847124023437,-0.0638458251953125,1.1919677734375,-0.0485595703125,1.6904262210592174e+18,33.3972173828125,1.2600817485176026,9.2852886231035,-2.8749934185162185,1.6904262210592174e+18,33.3972173828125,-0.880984115600586,0.0821168676018715,-2.186704730987549,1.6904262210654807e+18,33.403480859374994,-0.8307100892066955,-0.0402233697474003,-2.123574733734131,,,,,,,,,,,,,1.6904262210592174e+18,33.3972173828125,18.558753204345702,41.69006423950195,0.45787353515625,1.6904262210650127e+18,33.40301264648438,66.33087768554688,73.709228515625,118.43515625,1.6904262210592174e+18,33.3972173828125,-2.560543483030414,-0.742616899066852,-0.2874047145313647,-1.9790461578735397,0.5941059137225505,0.1125722369857386,-1.2441008921159509
3.45,1.6904262211093148e+18,33.447314697265625,-2.7829464769119023,0.3895468976926803,1.3099065989771486,1.6904262211105682e+18,33.44856821289063,-0.0517852783203125,0.9455780029296876,-0.2517974853515625,1.6904262211093148e+18,33.447314697265625,2.2347038150915504,9.012602264206407,-3.142069244055152,1.6904262211093148e+18,33.447314697265625,-0.5745548248291016,-1.0705957651138305,-1.6760929346084594,1.690426221115578e+18,33.45357807617187,-0.570723831653595,-1.14967999458313,-1.6075367212295533,,,,,,,,,,,,,1.6904262211093148e+18,33.447314697265625,22.771487426757812,39.357811737060544,-0.410504150390625,1.690426221111822e+18,33.44982202148437,69.95767211914062,71.5793685913086,118.1330108642578,1.6904262211093148e+18,33.447314697265625,-2.754811889650128,-0.7762563971509631,-0.2821551702602681,-2.1866292654601343,0.5534735151070268,0.1061300233114595,-1.1660902493402665
3.5,1.6904262211594117e+18,33.49741171875,-3.150123195816576,-0.8315504264271258,0.6508387037765979,1.690426221160665e+18,33.49866518554687,-0.00802001953125,0.7788177490234375,-0.215557861328125,1.6904262211594117e+18,33.49741171875,3.087515231568813,8.728286725409626,-3.2245755609238147,1.6904262211594117e+18,33.49741171875,-0.5390564739704132,-1.3376423597335816,-1.2985296726226807,1.690426221165675e+18,33.503675097656256,-0.5187387645244599,-1.32591769695282,-1.252726936340332,,,,,,,,,,,,,1.6904262211594117e+18,33.49741171875,25.52601776123047,37.58867721557617,0.3137603759765625,1.6904262211586327e+18,33.49663266601563,72.38597106933594,69.9832977294922,119.00342102050782,1.6904262211594117e+18,33.49741171875,-2.846543511098194,-0.8059874645177695,-0.2611668538900823,-2.3332292926841625,0.5237106787563266,0.0878323932848367,-1.0977602791563688
3.55,1.6904262212095089e+18,33.5475087890625,-4.021901295474768,-1.5772856744724513,2.4822819193127748,1.6904262212107625e+18,33.548762451171875,-0.013653564453125,0.69501953125,-0.0524444580078125,1.6904262212095089e+18,33.5475087890625,3.738846862654984,8.480817108451127,-3.201051185212433,1.6904262212095089e+18,33.5475087890625,-0.4161474525928497,-1.158575129508972,-0.6442097544670105,1.6904262212157722e+18,33.55377231445313,-0.4039683938026428,-1.0683594465255737,-0.5372056543827057,,,,,,,,,,,,,1.6904262212095089e+18,33.5475087890625,27.091636657714844,36.226480865478514,1.5614532470703124,1.6904262212106465e+18,33.54864643554687,73.85595092773437,68.53595886230468,120.39535522460938,1.6904262212095089e+18,33.5475087890625,-2.8851403822385953,-0.8282425804276962,-0.2382266683163648,-2.4331692042870188,0.5025649517283602,0.067759628304554,-1.0448593496207237
3.6,1.6904262212596058e+18,33.597605810546874,-3.574822772337496,-2.198222342651486,3.176007754014134,1.6904262212608596e+18,33.598859619140626,0.0385284423828125,0.6150360107421875,-0.0179901123046875,1.6904262212596058e+18,33.597605810546874,3.938771352201998,8.389208382907508,-3.205666102435887,1.6904262212596058e+18,33.597605810546874,-0.2543537408113479,-0.2523040749132633,0.2952357441186904,1.6904262212658693e+18,33.603869287109376,-0.2223400175571441,-0.1214000344276428,0.4246730856131762,,,,,,,,,,,,,1.6904262212596058e+18,33.597605810546874,27.35815887451172,35.74305648803711,2.6191635131835938,1.690426221262658e+18,33.60065810546875,73.56461181640626,68.52318115234375,121.20052795410156,1.6904262212596058e+18,33.597605810546874,-2.8712450138854755,-0.8355064569183739,-0.2268076223084819,-2.4584319282012923,0.4977284062742076,0.0523563642568027,-1.0264437171267995
3.65,1.690426221309703e+18,33.6477029296875,-3.4347354379245636,-2.61586837662518,2.6476622173187137,1.6904262213109568e+18,33.64895673828125,0.0174713134765625,0.603985595703125,-0.0635040283203125,1.690426221309703e+18,33.6477029296875,3.5797943648180364,8.516109488011,-3.2859861905327437,1.690426221309703e+18,33.6477029296875,0.0676411561667919,0.5901466012001038,1.180348563194275,1.6904262213159662e+18,33.653966259765625,0.1263854779303073,0.683133316040039,1.2585760474205017,,,,,,,,,,,,,1.690426221309703e+18,33.6477029296875,25.910549926757813,36.71773147583008,2.550950622558594,1.6904262213146683e+18,33.65266860351562,71.67438354492188,69.80046997070312,120.88697204589845,1.690426221309703e+18,33.6477029296875,-2.8128785659883873,-0.8247241011139164,-0.2331286229101836,-2.3983405659278803,0.5129060354162103,0.0481669626826666,-1.052118019351805
3.7,1.6904262213597998e+18,33.6978,-0.6214492354241011,-2.671462370457649,2.1371454165893793,1.690426221361054e+18,33.69905385742187,0.2920867919921875,0.656402587890625,-0.1521026611328125,1.6904262213597998e+18,33.6978,2.829053212857246,8.79379584715247,-3.2818730268993974,1.6904262213597998e+18,33.6978,0.5782627999782562,1.028049373626709,1.5195186614990237,1.6904262213660636e+18,33.704063427734376,0.6262527585029602,1.017716073989868,1.5216646432876586,,,,,,,,,,,,,1.6904262213597998e+18,33.6978,22.89616241455078,38.30826034545898,2.222090148925781,1.6904262213614794e+18,33.69947955322266,68.83703994750977,71.2236442565918,120.69144821166992,1.6904262213597998e+18,33.6978,-2.7288473223001635,-0.8005119472332213,-0.2482565436986617,-2.2807076192509483,0.5422398612140763,0.05777268378091,-1.1127185677489098
3.75,1.690426221409897e+18,33.747897119140625,4.974986799153685,2.1623543259346483,-2.256187449529469,1.6904262214111506e+18,33.749150732421874,0.824566650390625,1.2519500732421875,-0.65875244140625,1.690426221409897e+18,33.747897119140625,2.0718070629166063,9.068126232316494,-3.100599227999747,1.690426221409897e+18,33.747897119140625,0.4381971873342991,0.1716456934809685,1.1916339993476868,1.6904262214161605e+18,33.75416049804687,0.331126894056797,0.0232098244130611,1.064264452457428,,,,,,,,,,,,,1.690426221409897e+18,33.747897119140625,19.77270965576172,39.887377166748045,2.8509750366210938,1.69042622140829e+18,33.74629008789062,66.02710266113282,72.64724731445312,121.40752563476562,1.690426221409897e+18,33.747897119140625,-2.634461698535179,-0.7749932709775261,-0.2562259761614801,-2.1588158155186634,0.573287839799067,0.0706118975039683,-1.1805035614847628
3.8,1.690426221459994e+18,33.79799404296875,6.934743383131027,2.9324321049803492,-4.870683018044531,1.6904262214612475e+18,33.7992478515625,0.825701904296875,1.1387908935546875,-0.743536376953125,1.690426221459994e+18,33.79799404296875,1.835935850780308,9.117824153847694,-3.1079940144261715,1.690426221459994e+18,33.79799404296875,-0.4966966062784195,-0.2992347985506057,-0.0537584900856017,1.690426221466258e+18,33.80425771484375,-0.5397883951663971,-0.2777598172426224,-0.1588759928941726,,,,,,,,,,,,,1.690426221459994e+18,33.79799404296875,18.21515655517578,40.60227432250976,3.409226989746094,1.6904262214603013e+18,33.7983015625,64.50752258300781,73.32329406738282,121.897119140625,1.690426221459994e+18,33.79799404296875,-2.565487349720463,-0.7678634231732557,-0.2543743654543541,-2.1044079798976107,0.584537414681012,0.0630533955225888,-1.1938265318340953
3.85,1.6904262215100913e+18,33.848091259765624,1.5832513048785923,-1.4843724129754303,1.1775917105835676,1.6904262215113446e+18,33.84934482421875,0.26568603515625,0.8180694580078125,-0.1159942626953125,1.6904262215100913e+18,33.848091259765624,1.935836457720548,9.04196992989242,-3.265694630036652,1.6904262215100913e+18,33.848091259765624,-0.0282726965844631,-0.0978548914194107,0.1390060603618622,1.6904262215163548e+18,33.85435463867187,0.0977395042777061,0.0021482124924659,0.257107588648796,,,,,,,,,,,,,1.6904262215100913e+18,33.848091259765624,17.78992614746094,40.686869049072264,3.2971237182617186,1.6904262215123116e+18,33.85031162109375,63.99034729003906,73.38643188476563,121.86362915039062,1.6904262215100913e+18,33.848091259765624,-2.554011766190296,-0.7719555637792178,-0.2553067727534582,-2.105865189114966,0.5797556221560771,0.0527488230199354,-1.1732860117954815
3.9,1.6904262215601884e+18,33.89818828125,0.7201182547427715,5.101946473350525,4.32696081471026,1.6904262215614418e+18,33.899441992187505,0.3342010498046875,1.5686065673828125,0.1280120849609375,1.6904262215601884e+18,33.89818828125,1.7132895389640328,9.134485716504454,-3.1283335641694068,1.6904262215601884e+18,33.89818828125,0.5556591153144836,0.3960410386323928,0.2879143297672272,1.6904262215664517e+18,33.90445166015625,0.5528714418411255,0.3221928939223289,0.1664014965295791,,,,,,,,,,,,,1.6904262215601884e+18,33.89818828125,16.43602523803711,41.19811172485352,4.293156433105469,1.6904262215643205e+18,33.90232016601563,62.56660766601563,73.95289001464843,123.20397644042968,1.6904262215601884e+18,33.89818828125,-2.5316988771505455,-0.7639398274638479,-0.2558595728280522,-2.0716544694177115,0.5892151426547145,0.0610087989545508,-1.1985148328563349
3.95,1.6904262216102856e+18,33.948285449218744,-1.6512488239841163,1.1467111853426697,0.9352083693003652,1.690426221611539e+18,33.9495390625,-0.186065673828125,0.782843017578125,-0.2601409912109375,1.6904262216102856e+18,33.948285449218744,1.6989231599593162,9.212670078520777,-2.899321511825919,1.6904262216102856e+18,33.948285449218744,0.5455625414848327,0.5655873715877533,-0.0772897005081176,1.6904262216165489e+18,33.95454892578125,0.537689346075058,0.7421261548995972,0.0459794275462627,,,,,,,,,,,,,1.6904262216102856e+18,33.948285449218744,16.034436798095705,41.291934967041016,5.860862731933594,1.6904262216111288e+18,33.949128845214844,62.606056213378906,73.95011520385742,124.58610153198242,1.6904262216102856e+18,33.948285449218744,-2.578613146103454,-0.7620770031545093,-0.2531567632500354,-2.100931443347559,0.5910062370652771,0.0763073683457319,-1.2210200489818777
4.0,1.6904262216603825e+18,33.998382421875,-7.043519399670362,-2.5878417210584876,1.979554223476648,1.690426221661636e+18,33.99963623046875,-0.6223175048828125,0.867547607421875,-0.0682373046875,1.6904262216603825e+18,33.998382421875,1.3357725839916614,9.307437794165017,-2.7788582723632453,1.6904262216603825e+18,33.998382421875,0.2684910982847214,1.3452992677688598,1.02194139957428,1.6904262216666458e+18,34.004645849609375,0.2152818465605378,1.3714685678482057,1.174409818649292,,,,,,,,,,,,,1.6904262216603825e+18,33.998382421875,15.147939300537107,41.61533432006836,6.462947082519531,1.6904262216579392e+18,33.9959390625,61.489035034179686,74.30714416503906,124.93743896484376,1.6904262216603825e+18,33.998382421875,-2.5477725984999418,-0.7473061379632965,-0.2681732131321709,-2.017341420041074,0.5999227664951166,0.0977632149477409,-1.2504885535393424
4.05,1.6904262217104796e+18,34.04847963867188,-4.2622503836774825,1.55711592833817,-0.1018045408654213,1.6904262217117332e+18,34.04973330078125,-0.2374786376953125,1.0576568603515626,-0.3203643798828125,1.6904262217104796e+18,34.04847963867188,0.3973506530790636,9.381991690724492,-2.807659068720638,1.6904262217104796e+18,34.04847963867188,-0.0814177326858043,1.7199023723602296,1.896326231956482,1.690426221716743e+18,34.054743017578126,-0.1110504582524299,1.8645881175994872,1.8308293581008912,,,,,,,,,,,,,1.6904262217104796e+18,34.04847963867188,12.108527374267576,42.74433975219726,5.913006591796875,1.6904262217099533e+18,34.04795336914062,57.91918029785156,75.6114990234375,124.18199462890624,1.6904262217104796e+18,34.04847963867188,-2.3009376708662876,-0.7127779159066974,-0.2973591075278102,-1.7102642210284558,0.6254117961400419,0.1097667547356449,-1.2754532417624092
4.1,1.6904262217605768e+18,34.09857666015625,2.6186743155044314,0.0454652816236019,2.122509689897895,1.6904262217618304e+18,34.099830566406254,0.1513153076171875,0.9566619873046877,0.0143096923828125,1.6904262217605768e+18,34.09857666015625,-0.5370955919220112,9.358569547891616,-2.8753962125504016,1.6904262217605768e+18,34.09857666015625,-0.1896190831437706,2.5865273475646973,0.5754715979099274,1.6904262217668398e+18,34.104839990234375,-0.1426993619650602,2.675444507598877,0.4335958033800125,,,,,,,,,,,,,1.6904262217605768e+18,34.09857666015625,9.242140197753908,43.66455154418945,4.662933349609375,1.6904262217619663e+18,34.09996625976562,55.352105712890626,76.41810607910156,122.72676696777344,1.6904262217605768e+18,34.09857666015625,-2.078787309115953,-0.6746444849507668,-0.3423493020901597,-1.3869366857447136,0.6403086708059401,0.1315747916534704,-1.2673664795992148
4.15,1.690426221810674e+18,34.14867377929688,-2.239273577999026,-0.2604526664590835,2.8424633725026247,1.6904262218119276e+18,34.14992744140625,-0.344970703125,0.9253021240234376,-0.0703460693359375,1.690426221810674e+18,34.14867377929688,-1.097555261733681,9.348213924285172,-2.74657547910899,1.690426221810674e+18,34.14867377929688,0.2086251407861709,2.764279842376709,0.4096391171216965,1.6904262218169372e+18,34.15493725585937,0.2283845484256744,2.6505555152893066,0.4481389552354812,,,,,,,,,,,,,1.690426221810674e+18,34.14867377929688,8.712738037109375,43.89504623413086,3.4483657836914063,1.690426221813978e+18,34.15197783203125,55.113955688476565,76.58319091796875,121.71623229980467,1.690426221810674e+18,34.14867377929688,-2.0203537221968864,-0.6431315873394612,-0.389583785657413,-1.1905287704761949,0.6356343070811699,0.1736937708512927,-1.263823453318516
4.2,1.6904262218607708e+18,34.198770849609375,0.5669183700045943,-0.3889447232419252,-1.6786847325029968,1.6904262218620247e+18,34.20002465820313,-0.10849609375,0.9009674072265624,-0.455792236328125,1.6904262218607708e+18,34.198770849609375,-1.5818801918819545,9.346012147231102,-2.5116169979034364,1.6904262218607708e+18,34.198770849609375,0.0269588122144341,2.0691723585128785,0.2157060250639915,1.6904262218620244e+18,34.20002453613281,0.0126054752618074,2.067106068134308,0.1838922705501317,,,,,,,,,,,,,1.6904262218607708e+18,34.198770849609375,8.298570251464843,44.15294418334961,2.876776123046875,1.6904262218659927e+18,34.2039927734375,54.635565185546874,76.85757751464844,121.16019592285156,1.6904262218607708e+18,34.198770849609375,-1.951176109845521,-0.6127278890521467,-0.4250323893053115,-1.0088666420059258,0.6323868359509893,0.2092511223978321,-1.2630832208534906
4.25,1.6904262219108682e+18,34.2488681640625,0.1373065884271264,-0.354757791479826,-1.4797460683490335,1.690426221912122e+18,34.2501216796875,-0.1560760498046875,0.9303985595703124,-0.37330322265625,1.6904262219108682e+18,34.2488681640625,-1.9276008073297144,9.316523134800793,-2.3760857485857607,1.6904262219108682e+18,34.2488681640625,-0.0765804464928805,1.6234198093414307,0.3372061192989349,1.690426221907112e+18,34.245112011718746,-0.0859996492043137,1.694471549987793,0.3216180235147476,,,,,,,,,,,,,1.6904262219108682e+18,34.2488681640625,7.670201110839844,44.43377914428711,2.1057891845703125,1.690426221912807e+18,34.25080682373047,54.01052474975586,77.18123245239258,120.42457580566406,1.6904262219108682e+18,34.2488681640625,-1.928673123449337,-0.5880413580765459,-0.456899006164228,-0.8896339336992337,0.624069565274897,0.2363307469371058,-1.2533284663001576
4.3,1.690426221960965e+18,34.2989650390625,1.2557043809901178,-0.3069114014863968,-0.1829779724690318,1.690426221962219e+18,34.300218847656254,-0.1223358154296875,0.9002227783203125,-0.2082427978515625,1.690426221960965e+18,34.2989650390625,-2.252649864600897,9.284059958091378,-2.211313411797285,1.690426221960965e+18,34.2989650390625,0.2593958377838135,1.0705986499786375,0.4287535667419433,1.690426221957209e+18,34.29520903320312,0.2208935000002383,1.1081672430038452,0.4090009272098541,,,,,,,,,,,,,1.690426221960965e+18,34.2989650390625,6.806501007080078,44.76481704711914,1.9114028930664064,1.690426221959618e+18,34.297618017578124,53.2187255859375,77.43179016113281,120.40107116699218,1.690426221960965e+18,34.2989650390625,-1.8782381133732469,-0.5665392457424969,-0.4771699694816762,-0.776311749920103,0.6222105179054429,0.2532334275474882,-1.24286931208714
4.35,1.690426222011062e+18,34.34906206054687,0.7308898533520102,-0.3927724063843488,0.6710689187003671,1.690426222012316e+18,34.3503158203125,-0.1771514892578125,0.90987548828125,-0.1565338134765625,1.690426222011062e+18,34.34906206054687,-2.6434977911156414,9.259129982591867,-1.8480583087027072,1.690426222011062e+18,34.34906206054687,0.8267470955848694,0.6397650837898254,0.8431942701339722,1.690426222007306e+18,34.345306103515625,0.8016232013702392,0.6813681066036225,0.8305721282958984,1.6904262219998182e+18,34.337818359375,76.29441493749619,1.8056731715919685,-1.0,49.2800134730764,95.47584384679794,-1.0,5.923130736923356,1.3608486221435847,-122.9682500069411,0.6292821889764221,1.690426222011062e+18,34.34906206054687,5.486530303955078,44.948099517822264,2.70723876953125,1.6904262220116283e+18,34.349628515625,51.355682373046875,77.60467529296875,121.71211547851564,1.690426222011062e+18,34.34906206054687,-1.7487816966160288,-0.5422720830587601,-0.484695754895654,-0.6106516743719987,0.6323172549413425,0.2666291401333981,-1.2350767713985076
4.4,1.6904262220611592e+18,34.39915927734375,1.939969875037372,-0.0156842420572042,-2.584032947199195,1.690426222062413e+18,34.400412988281246,-0.1094696044921875,0.95731201171875,-0.428692626953125,1.6904262220611592e+18,34.39915927734375,-3.0329526850628854,9.218306973816157,-1.406143451938927,1.6904262220611592e+18,34.39915927734375,0.5734458565711975,0.5719991803169251,0.5225881665945054,1.6904262220574034e+18,34.395403369140624,0.6249217689037323,0.5536862552165985,0.5752082824707031,,,,,,,,,,,,,1.6904262220611592e+18,34.39915927734375,3.181005859375,45.01933059692383,4.851657104492188,1.6904262220636388e+18,34.401638671875006,49.133853149414065,77.64330444335937,123.86126403808592,1.6904262220611592e+18,34.39915927734375,-1.590299948988309,-0.5184437066053369,-0.4842081197557076,-0.4344869673541932,0.648205999756015,0.2766563754361436,-1.2226636262856694
4.45,1.6904262221112563e+18,34.4492564453125,2.026137870831787,0.9977157373309136,-3.233497469239235,1.69042622211251e+18,34.45051005859375,-0.1133514404296875,1.050390625,-0.4334716796875,1.6904262221112563e+18,34.4492564453125,-3.1598221675321456,9.206281721884013,-1.1957456745290755,1.6904262221112563e+18,34.4492564453125,-0.237759381532669,1.1115346550941467,-0.1526442566886544,1.6904262221075003e+18,34.44550043945313,-0.1742299150675535,1.061824119091034,-0.1162300437688827,,,,,,,,,,,,,1.6904262221112563e+18,34.4492564453125,1.998255157470703,44.93392715454102,5.940495300292969,1.690426222115653e+18,34.45365302734375,48.493157958984376,77.61049194335938,124.32644958496094,1.6904262221112563e+18,34.4492564453125,-1.5559330283937,-0.5046520877740597,-0.4926781719445285,-0.3617549437251745,0.6467900445155657,0.2901559626852381,-1.2190713170030445
4.5,1.6904262221613537e+18,34.49935341796875,3.1669620439624784,1.5369731871151924,-1.1321632246129212,1.690426222162607e+18,34.50060717773438,0.03270263671875,1.1355987548828126,-0.2883026123046875,1.6904262221613537e+18,34.49935341796875,-3.0522798428931828,9.240286049007771,-1.2105031863562763,1.6904262221613537e+18,34.49935341796875,-0.5753089785575867,1.190954065322876,-0.6824088573455811,1.6904262221575974e+18,34.495597412109376,-0.56065793633461,1.253509509563446,-0.6347698152065278,,,,,,,,,,,,,1.6904262221613537e+18,34.49935341796875,2.5002403259277344,45.11753768920899,5.061250305175781,1.6904262221624635e+18,34.500463623046876,49.11883544921875,77.80047988891602,123.27896118164062,1.6904262221613537e+18,34.49935341796875,-1.6416942071735543,-0.498274662514903,-0.5132784252179,-0.3777991079032256,0.6261725416386141,0.3099402370570676,-1.2293331733890906
4.55,1.6904262222114506e+18,34.5494505859375,3.6214003406649824,3.009135171623826,-4.520318083922267,1.6904262222127045e+18,34.550704296875,0.136541748046875,1.241778564453125,-0.58460693359375,1.6904262222114506e+18,34.5494505859375,-2.5613077298153937,9.342042542173862,-1.5014879445578158,1.6904262222114506e+18,34.5494505859375,-1.0559091091156003,-0.3891272246837616,-1.7264330863952635,1.6904262222076946e+18,34.54569462890625,-1.0191783905029297,-0.2347609102725982,-1.6050454378128052,,,,,,,,,,,,,1.6904262222114506e+18,34.5494505859375,4.206105041503906,45.07734909057617,3.302894592285156,1.690426222209273e+18,34.547273046875,50.89002075195312,77.71565551757813,121.60771789550782,1.6904262222114506e+18,34.5494505859375,-1.833076909174992,-0.5150814312906442,-0.5227812355738639,-0.5338557590079109,0.5976636481856092,0.3224470671949196,-1.262023752384879
4.6,1.6904262222615475e+18,34.599547607421876,2.5844455027489364,2.105877353335619,1.3798182811409236,1.6904262222628014e+18,34.60080146484375,0.0257904052734375,1.20054931640625,0.044464111328125,1.6904262222615475e+18,34.599547607421876,-1.28909272433348,9.46927998117268,-2.145902928123325,1.6904262222615475e+18,34.599547607421876,-1.1928285598754882,-0.833845031261444,-3.1133535861968995,1.6904262222577915e+18,34.5957916015625,-1.2078158855438232,-0.8989733994007111,-3.0753762245178224,,,,,,,,,,,,,1.6904262222615475e+18,34.599547607421876,7.823456573486328,44.861385345458984,1.177435302734375,1.690426222261282e+18,34.59928193359375,55.477603149414065,77.31889038085937,119.20938415527344,1.6904262222615475e+18,34.599547607421876,-2.307778879990055,-0.5725578467121694,-0.5070939485022887,-1.0356448610406377,0.5552582678041691,0.3257368635429635,-1.307871013488035
4.65,1.6904262223116447e+18,34.649644873046874,-2.5849640905694664,5.201084659163952,3.2568674142673606,1.6904262223128986e+18,34.65089848632813,-0.1772247314453125,1.52266845703125,-0.00306396484375,1.6904262223116447e+18,34.649644873046874,0.1434469287728332,9.42856510894656,-2.6680432681161164,1.6904262223116447e+18,34.649644873046874,-0.9341872334480286,0.3937186375260353,-2.6715393543243406,1.6904262223078886e+18,34.645888818359374,-0.9460227608680724,0.3080092214047908,-2.714259672164917,,,,,,,,,,,,,1.6904262223116447e+18,34.649644873046874,13.161489868164065,43.789154815673825,-1.0861099243164063,1.6904262223132902e+18,34.651290283203124,61.083673095703126,76.0094482421875,116.56537780761718,1.6904262223116447e+18,34.649644873046874,-2.8989098082510862,-0.6236896389439268,-0.4931371050311917,-1.6179471322106391,0.4992427722120116,0.3437655927588735,-1.292610272748394
4.7,1.690426222361742e+18,34.69974208984375,-1.032824255530387,2.7182276287639136,2.7482531738367677,1.6904262223629957e+18,34.700995703125,-0.011260986328125,1.1328338623046874,-0.009228515625,1.690426222361742e+18,34.69974208984375,1.2082593091131,9.230484435248377,-3.0684176739367843,1.690426222361742e+18,34.69974208984375,-0.6174761831760407,0.2697691351175308,-2.2607070922851564,1.690426222357986e+18,34.695985986328125,-0.656780582666397,0.3852415367960929,-2.2910401821136475,,,,,,,,,,,,,1.690426222361742e+18,34.69974208984375,17.88618698120117,42.21891555786133,-3.964669799804688,1.6904262223653015e+18,34.70330166015625,65.52542419433594,74.4982696533203,113.86637268066406,1.690426222361742e+18,34.69974208984375,3.0132163154759253,-0.6526414669675463,-0.4904441886997914,-1.9419445717284043,0.4446005425075751,0.3681933371696583,-1.226859657300521
4.75,1.690426222411839e+18,34.74983916015625,-2.7417728426806627,0.2379444820529222,1.73710547419399,1.6904262224130929e+18,34.751092871093746,-0.0311553955078125,0.9163330078125,-0.1904571533203125,1.690426222411839e+18,34.74983916015625,2.21860985241577,8.995144699640274,-3.2017881504109496,1.690426222411839e+18,34.74983916015625,-0.2074654012918471,-0.6896988391876221,-1.9458996057510376,1.6904262224080832e+18,34.746083203124996,-0.2168172121047973,-0.6716963648796082,-1.9617249965667725,,,,,,,,,,,,,1.690426222411839e+18,34.74983916015625,21.95900115966797,40.87580337524414,-5.2872161865234375,1.690426222412113e+18,34.75011279296875,69.19800567626953,73.24478149414062,113.12781524658205,1.690426222411839e+18,34.74983916015625,2.781763899980112,-0.6824186893046912,-0.4689940776472527,-2.1743037199727104,0.4084033501572057,0.3838452383358969,-1.1614933677984882
4.8,1.690426222461936e+18,34.79993623046875,-3.342258054400682,-1.2516954083836078,1.5879629604747891,1.69042622246319e+18,34.8011900390625,-0.0256805419921875,0.7437469482421875,-0.1489990234375,1.690426222461936e+18,34.79993623046875,3.1314488904848696,8.732109264759421,-3.1715776626121994,1.690426222461936e+18,34.79993623046875,-0.1167114585638045,-0.7772636651992798,-1.5115700721740724,1.69042622245818e+18,34.79618022460937,-0.1231555938720702,-0.7680209875106812,-1.566967535018921,,,,,,,,,,,,,1.690426222461936e+18,34.79993623046875,25.60645751953125,39.34293746948242,-5.205421447753906,1.6904262224589235e+18,34.796923486328126,72.33844909667968,71.86442260742187,113.2927734375,1.690426222461936e+18,34.79993623046875,2.631466890290538,-0.7103049251609885,-0.4400114856683178,-2.3485767665192485,0.3829287781793336,0.3937952635502756,-1.0985442486458132
4.85,1.6904262225120335e+18,34.85003354492187,-3.821993757062554,-1.515915786039233,0.9784888250046968,1.6904262225132872e+18,34.851287304687496,-0.00252685546875,0.7069854736328125,-0.2203521728515625,1.6904262225120335e+18,34.85003354492187,3.7034208029389384,8.534757606762051,-3.098644177635312,1.6904262225120335e+18,34.85003354492187,-0.2017570450901984,-0.6919140815734863,-0.5580867022275925,1.6904262225082772e+18,34.84627744140625,-0.186039163172245,-0.6984907388687134,-0.6337286770343781,,,,,,,,,,,,,1.6904262225120335e+18,34.85003354492187,27.6786376953125,38.494713592529294,-4.915776062011719,1.690426222510934e+18,34.84893408203125,74.29931640625,71.11092529296874,113.55357971191408,1.6904262225120335e+18,34.85003354492187,2.5649475880790025,-0.7294824817272213,-0.4173871122354186,-2.444659845449358,0.3700573185185545,0.3958016295752037,-1.055873921155836
4.9,1.6904262225621307e+18,34.9001306640625,-3.803383690686524,-2.499752051099539,2.1062913117378947,1.6904262225633843e+18,34.90138427734375,-0.002685546875,0.589825439453125,-0.0785064697265625,1.6904262225621307e+18,34.9001306640625,3.805808229032755,8.497616968986987,-3.077918434279561,1.6904262225621307e+18,34.9001306640625,-0.1312560465186834,-0.3838951706886291,0.5228595629334449,1.690426222558375e+18,34.89637465820313,-0.1533709675073623,-0.4317173719406127,0.4443305823951959,,,,,,,,,,,,,1.6904262225621307e+18,34.9001306640625,27.957394409179688,38.68233413696289,-4.907342529296875,1.6904262225629463e+18,34.9009462890625,74.17591247558593,71.59521484375,113.55172729492188,1.6904262225621307e+18,34.9001306640625,2.5794029130877325,-0.7378504819429046,-0.4082856400236538,-2.4614941475089354,0.3731590793034394,0.3867911168398362,-1.048200372644366
4.95,1.6904262226122278e+18,34.95022788085937,-3.08373454398632,-3.018407442359924,2.649833949947655,1.6904262226134815e+18,34.95148139648437,0.064849853515625,0.58917236328125,-0.0519866943359375,1.6904262226122278e+18,34.95022788085937,3.375976784129142,8.681831848226784,-3.058943100174665,1.6904262226122278e+18,34.95022788085937,0.2656602412462234,0.5703506469726562,1.3163350343704223,1.6904262226084718e+18,34.946471875,0.242533278465271,0.5104590430855751,1.2811457872390748,,,,,,,,,,,,,1.6904262226122278e+18,34.95022788085937,26.12293701171875,40.26525192260742,-5.137232971191406,1.6904262226149578e+18,34.95295791015625,71.74880676269531,73.5102325439453,113.20038757324218,1.6904262226122278e+18,34.95022788085937,2.6407538377088033,-0.7271990856831226,-0.4180987847988138,-2.4045586059645805,0.3911450955692167,0.3785113343718733,-1.08740208435998
5.0,1.6904262226623247e+18,35.00032490234375,1.0486568784692882,-1.5203872615909575,0.9942360200694204,1.6904262226635784e+18,35.00157846679688,0.449639892578125,0.84566650390625,-0.2436187744140625,1.6904262226623247e+18,35.00032490234375,2.6405982702818513,8.950851384405492,-3.0051558050510288,1.6904262226623247e+18,35.00032490234375,0.4858074247837066,0.7937966108322143,1.352212619781494,1.690426222658569e+18,34.996568945312504,0.4762967705726623,0.8329346179962158,1.367797589302063,,,,,,,,,,,,,1.6904262226623247e+18,35.00032490234375,22.658267211914065,42.67749099731445,-5.562567138671875,1.6904262226617672e+18,34.99976702880859,68.47478866577148,75.80094146728516,112.86296463012695,1.6904262226623247e+18,35.00032490234375,2.730806699254676,-0.7023263662399675,-0.4400022328203167,-2.2903643374848106,0.4143524084370317,0.3759201943399481,-1.1502800984979185
5.05,1.690426222712422e+18,35.05042182617187,5.89197275699526,2.85492497002542,-2.5211420451307296,1.6904262227136758e+18,35.05167568359375,0.872430419921875,1.233282470703125,-0.6123992919921875,1.690426222712422e+18,35.05042182617187,2.046661252709329,9.157772717876432,-2.8458799029478428,1.690426222712422e+18,35.05042182617187,0.3006125807762145,-0.1726401476189493,0.9340427279472352,1.690426222708666e+18,35.04666591796875,0.3403926759958267,-0.0947020575404167,0.996112847328186,,,,,,,,,,,,,1.690426222712422e+18,35.05042182617187,19.116293334960936,44.86028518676758,-5.273243713378906,1.690426222708577e+18,35.0465771484375,65.35611267089844,77.66110229492188,113.24303588867188,1.690426222712422e+18,35.05042182617187,2.8243121963612383,-0.6829732999235649,-0.4508649166188306,-2.193673832686097,0.4385519934957484,0.3713246241627375,-1.205157598088618
5.1,1.690426222762519e+18,35.10051899414062,5.821578142846226,2.0643860022312404,-3.318954861772358,1.690426222763773e+18,35.101772802734374,0.704254150390625,1.1004913330078123,-0.5691070556640625,1.690426222762519e+18,35.10051899414062,1.9407826234988867,9.194257522091268,-2.8046050002992153,1.690426222762519e+18,35.10051899414062,-0.2616759732365608,-0.6252711415290833,-0.1560956850647926,1.690426222758763e+18,35.09676303710937,-0.238044624775648,-0.6030320882797241,-0.1080764573067426,,,,,,,,,,,,,1.690426222762519e+18,35.10051899414062,17.826756286621094,46.17568740844727,-5.293829345703125,1.6904262227605926e+18,35.098592431640625,64.30895385742187,78.8816925048828,113.12505187988282,1.690426222762519e+18,35.10051899414062,2.8685364953627133,-0.6842306869057637,-0.4463945330413256,-2.176003708328923,0.4491908340078482,0.3616101362640741,-1.215564458376874
5.15,1.6904262228126162e+18,35.1506162109375,0.699131025519669,0.3665876961964368,1.5763969673913718,1.6904262228138698e+18,35.15186987304688,0.230560302734375,1.0338653564453124,-0.0278900146484375,1.6904262228126162e+18,35.1506162109375,2.049502350580245,9.169517516205904,-2.808572793338597,1.6904262228126162e+18,35.1506162109375,0.1790952647104859,-0.2372605125419795,0.1983126893639564,1.6904262228088602e+18,35.14686025390625,0.1192828245460987,-0.3181043103337287,0.1619380846619605,,,,,,,,,,,,,1.6904262228126162e+18,35.1506162109375,18.28683929443359,46.89840316772461,-5.8812255859375,1.6904262228126031e+18,35.15060322265625,64.72245178222656,79.870458984375,112.55785827636718,1.6904262228126162e+18,35.1506162109375,2.871600727011083,-0.6923400080106965,-0.4376173891723111,-2.20120118943395,0.4516504718605391,0.3537779770471804,-1.2083694290571183
5.2,1.690426222862713e+18,35.200713232421876,1.5924601842157542,4.95174375382781,4.174837414710224,1.690426222863967e+18,35.201967089843755,0.3918365478515625,1.4506622314453126,0.097991943359375,1.690426222862713e+18,35.200713232421876,1.956644267949611,9.249014246768953,-2.606036543084085,1.690426222862713e+18,35.200713232421876,0.5982369720935822,0.3468932390213012,-0.1148188665509224,1.6904262228589573e+18,35.19695727539063,0.6084595322608948,0.3364959418773651,-0.0594314768910407,,,,,,,,,,,,,1.690426222862713e+18,35.200713232421876,17.929986572265626,48.11821365356445,-5.672573852539062,1.6904262228646136e+18,35.202613574218745,64.52807006835937,80.9945068359375,112.9919891357422,1.690426222862713e+18,35.200713232421876,2.847334463930436,-0.6843922960737556,-0.4365943993791174,-2.2150566059794503,0.4578453905484873,0.3624147977808182,-1.2319988911043136
5.25,1.6904262229128105e+18,35.25081040039062,-2.8522078784734006,-2.033365542449951,0.2087215439867973,1.690426222914064e+18,35.252064257812506,-0.2553802490234375,0.5869720458984375,-0.202716064453125,1.6904262229128105e+18,35.25081040039062,1.9399274387481809,9.284474617919924,-2.4902461469641324,1.6904262229128105e+18,35.25081040039062,0.3619622766971588,1.6595247745513917,0.0117470435798168,1.6904262229090545e+18,35.24705439453125,0.3509048759937286,1.5647181749343873,-0.057861703634262,,,,,,,,,,,,,1.6904262229128105e+18,35.25081040039062,18.79601135253906,48.65071334838867,-5.596649169921875,1.6904262229114227e+18,35.24942279052735,65.42375183105469,81.35333633422852,112.67908096313477,1.6904262229128105e+18,35.25081040039062,2.781369146175251,-0.6727701086297403,-0.4448847564041784,-2.232411724543904,0.4506706053146214,0.3823580534579808,-1.243020017278936
5.3,1.6904262229629076e+18,35.3009076171875,-6.506060406836271,-0.9267688084483146,1.6574479416590928,1.6904262229641613e+18,35.302161328124996,-0.4646240234375,0.998614501953125,-0.1235809326171875,1.6904262229629076e+18,35.3009076171875,1.5242351984168587,9.383178153256178,-2.4035709030738475,1.6904262229629076e+18,35.3009076171875,0.6008384346961975,1.1724240481853485,0.7871398687362671,1.6904262229591516e+18,35.297151611328125,0.6052135348320007,1.3025526046752929,0.7529747009277343,,,,,,,,,,,,,1.6904262229629076e+18,35.3009076171875,17.944061279296875,49.66689224243164,-6.333018493652344,1.690426222958234e+18,35.29623388671875,64.27872924804687,82.4206329345703,112.12368774414062,1.6904262229629076e+18,35.3009076171875,2.796676635714705,-0.6437581935539344,-0.4712293706264924,-2.134506448920591,0.4474245783847758,0.4039882612726919,-1.2761438899717956
5.35,1.6904262230130048e+18,35.3510048828125,-3.5076927129423616,0.2259589776092768,-1.7100248088535666,1.6904262230142584e+18,35.35225849609375,-0.1990753173828125,0.9498687744140624,-0.406964111328125,1.6904262230130048e+18,35.3510048828125,0.9487398756900428,9.49862964358449,-2.237115932347625,1.6904262230130048e+18,35.3510048828125,0.2006630279123782,0.4762502938508987,1.3618535280227662,1.6904262230092488e+18,35.347248828125,0.2397540062665938,0.4356221497058868,1.3253538846969604,1.690426222999806e+18,35.33780590820312,76.22940190508962,2.148509845660342,-1.0,49.28002363217255,95.41083081439136,-1.0,6.059900583201057,1.2390011354902164,-122.9682542757283,0.1881540132210134,1.6904262230130048e+18,35.3510048828125,15.387647247314453,51.19944686889649,-5.952810668945313,1.6904262230102446e+18,35.34824467773437,61.63201904296875,83.96325073242187,112.53898010253906,1.6904262230130048e+18,35.3510048828125,2.937630167285559,-0.6201061551810678,-0.4865088407720407,-1.9690337985933195,0.4635493156203901,0.404709470045012,-1.3196984293832243
5.4,1.690426223063102e+18,35.40110185546875,0.9539398554859312,0.1344207454055547,0.5533470284481345,1.6904262230643556e+18,35.4023556640625,0.1274505615234375,0.993084716796875,-0.123175048828125,1.690426223063102e+18,35.40110185546875,0.2099415325021184,9.54000981862545,-2.2532001627339424,1.690426223063102e+18,35.40110185546875,-0.1212911218404769,1.7383636713027957,1.0068673014640808,1.690426223059346e+18,35.39734580078125,-0.1107995401136576,1.644757914543152,1.0699395895004271,,,,,,,,,,,,,1.690426223063102e+18,35.40110185546875,11.964134979248048,52.33861465454102,-6.620724487304687,1.6904262230622536e+18,35.40025361328125,57.969720458984376,85.14507751464843,111.5901885986328,1.690426223063102e+18,35.40110185546875,-1.8291173492047377,-0.5913197622477708,-0.5152978026241348,-1.6638665902793772,0.4729120412510183,0.4011873573005494,-1.3370730304215164
5.45,1.690426223113199e+18,35.45119916992188,-0.2915489752620831,-0.2926701101660728,1.7934345627549289,1.6904262231144525e+18,35.452452636718746,-0.107421875,0.9290863037109376,-0.0640472412109375,1.690426223113199e+18,35.45119916992188,-0.3688017518634535,9.53090659161985,-2.274728776131272,1.690426223113199e+18,35.45119916992188,0.0787377934902906,2.030865526199341,0.5930556416511535,1.690426223109443e+18,35.447443017578124,0.0485332362353801,2.082764983177185,0.5937307715415955,,,,,,,,,,,,,1.690426223113199e+18,35.45119916992188,9.672818756103515,53.18344345092773,-8.033522033691407,1.690426223114264e+18,35.45226416015625,55.457098388671874,86.01129455566407,110.11366577148438,1.690426223113199e+18,35.45119916992188,-2.93186540133925,-0.5557489193430091,-0.5531965528698105,-1.410155053150195,0.4611658344064263,0.4149877068830018,-1.333096480893391
5.5,1.6904262231632965e+18,35.50129609375,0.2245980499065667,-0.8653713305819035,0.1641397671994567,1.69042622316455e+18,35.502549902343745,-0.0464691162109375,0.8856353759765625,-0.2413848876953125,1.6904262231632965e+18,35.50129609375,-0.8203352195427567,9.542885198705196,-2.1014079528366025,1.6904262231632965e+18,35.50129609375,0.3705227077007293,1.2858004331588746,0.4862202703952789,1.6904262231595402e+18,35.49754013671875,0.3707571387290954,1.3016339063644409,0.5040019452571869,,,,,,,,,,,,,1.6904262231632965e+18,35.50129609375,7.53057632446289,53.88060836791992,-8.529139709472656,1.6904262231610724e+18,35.499072326660155,53.72099304199219,86.69134521484375,109.98258209228516,1.6904262231632965e+18,35.50129609375,-2.7957659295767594,-0.5237689396631098,-0.5778277030044643,-1.1980273046552532,0.4559797321510803,0.4286822439578678,-1.3383549497469018
5.55,1.6904262232133934e+18,35.55139326171875,-0.6986170554220676,-0.4902258832073211,-1.2145802265368402,1.6904262232146468e+18,35.55264682617187,-0.2046905517578125,0.9236358642578124,-0.283135986328125,1.6904262232133934e+18,35.55139326171875,-1.202348959864676,9.547908930538297,-1.8820502147363125,1.6904262232133934e+18,35.55139326171875,0.2993191003799438,1.1902189016342164,0.6910045564174652,1.6904262232096374e+18,35.5476373046875,0.2938556492328644,1.2558552980422977,0.6626764953136444,,,,,,,,,,,,,1.6904262232133934e+18,35.55139326171875,5.489148712158203,54.544637298583986,-8.2138427734375,1.690426223207881e+18,35.54588095703125,51.78848876953125,87.23233032226562,110.27120666503906,1.6904262232133934e+18,35.55139326171875,-2.662908442684322,-0.4949954755918357,-0.5966697015616704,-1.0028606203025174,0.453052376321053,0.4400047390441256,-1.340584563453967
5.6,1.6904262232634903e+18,35.60149028320312,0.7560062036560475,-0.8055278626114128,-0.1284744334478676,1.690426223264744e+18,35.602743994140624,-0.08128662109375,0.8946563720703125,-0.192230224609375,1.6904262232634903e+18,35.60149028320312,-1.6312665340198578,9.52910030207634,-1.6390749281354249,1.6904262232634903e+18,35.60149028320312,0.5025378048419953,0.5196714520454406,0.7526697278022766,1.6904262232597345e+18,35.597734326171874,0.492388927936554,0.539872121810913,0.7496643424034118,,,,,,,,,,,,,1.6904262232634903e+18,35.60149028320312,3.090770721435547,55.271358489990234,-7.516262817382812,1.6904262232598912e+18,35.597891015624995,49.40221557617187,87.97244873046876,111.04600524902344,1.6904262232634903e+18,35.60149028320312,-2.483074539251514,-0.4701565661730187,-0.6100421126777211,-0.7883568745200706,0.4593526952772002,0.4424285297325626,-1.3323265651534846
5.65,1.6904262233135877e+18,35.65158745117188,1.5412106785544752,-0.0983002152323722,-0.9918296311278642,1.690426223314841e+18,35.652841162109375,-0.057977294921875,0.960125732421875,-0.2452545166015625,1.6904262233135877e+18,35.65158745117188,-2.0490806180368364,9.499192655068637,-1.3075915123547612,1.6904262233135877e+18,35.65158745117188,0.7022228360176086,0.526703006029129,0.8307701349258423,1.6904262233098317e+18,35.647831494140625,0.6866658687591553,0.5449713885784149,0.8282358407974243,,,,,,,,,,,,,1.6904262233135877e+18,35.65158745117188,0.8869171142578125,56.08006820678711,-5.93509521484375,1.6904262233119012e+18,35.64990107421875,47.195254516601565,88.78897399902344,112.69126586914062,1.6904262233135877e+18,35.65158745117188,-2.2845659157402336,-0.4461554193572953,-0.6180261810377183,-0.569140777018966,0.4716966950123558,0.4431893674787583,-1.3197701655653642
5.7,1.6904262233636846e+18,35.7016845703125,1.4341069499154389,-0.1992460934418439,-2.5642907203750314,1.6904262233649382e+18,35.70293823242188,-0.1027618408203125,0.9557647705078124,-0.373089599609375,1.6904262233636846e+18,35.7016845703125,-2.4437417315511403,9.452027583789825,-0.9163396373751016,1.6904262233636846e+18,35.7016845703125,0.6541411101818084,0.2576346099376678,0.6526467263698578,1.6904262233599288e+18,35.69792866210937,0.6860271453857422,0.2677535742521286,0.6816983461380005,,,,,,,,,,,,,1.6904262233636846e+18,35.7016845703125,-1.1845726013183593,56.71033706665039,-4.12662353515625,1.69042622336391e+18,35.701909863281244,44.78008117675781,89.52166748046875,114.82624816894533,1.6904262233636846e+18,35.7016845703125,-2.087608793770378,-0.4226479823121147,-0.62208823161679,-0.3596531813067712,0.4874267316263515,0.4435575407489944,-1.3010997526573589
5.75,1.6904262234137818e+18,35.75178159179687,1.7217887210488318,0.940727658791542,-2.7297073464164137,1.6904262234150351e+18,35.75303520507813,-0.095294189453125,1.0695343017578125,-0.333721923828125,1.6904262234137818e+18,35.75178159179687,-2.6456811557301876,9.416588723044397,-0.7053733247492462,1.6904262234137818e+18,35.75178159179687,0.115473560988903,0.2574964523315429,0.1382551257498562,1.6904262234100255e+18,35.74802543945312,0.1456880684942006,0.2645023941993713,0.1805119343101978,,,,,,,,,,,,,1.6904262234137818e+18,35.75178159179687,-2.5233741760253907,57.35862503051758,-2.726629638671875,1.69042622341592e+18,35.75392036132813,43.83093872070312,90.17303771972657,115.86273498535157,1.6904262234137818e+18,35.75178159179687,-1.998380933624151,-0.4094058674962401,-0.624715438118326,-0.2606075426209614,0.4945929905834856,0.4443991167026938,-1.28781063278268
5.8,1.6904262234638784e+18,35.801878515625006,1.4976459114030003,1.549399771776795,-1.9945811998949945,1.6904262234651323e+18,35.80313237304688,-0.1161407470703125,1.1407745361328123,-0.2761077880859375,1.6904262234638784e+18,35.801878515625006,-2.6206760107156635,9.426817622305157,-0.6606781945544481,1.6904262234638784e+18,35.801878515625006,-0.0068798512220382,0.2045098677277565,-0.2349119916558265,1.6904262234601224e+18,35.7981224609375,-0.0063381638377904,0.2448237584903836,-0.2121436312794685,,,,,,,,,,,,,1.6904262234638784e+18,35.801878515625006,-2.444416809082031,57.92337417602539,-2.5596664428710936,1.6904262234627308e+18,35.80073065185547,44.18217468261719,90.66688537597656,115.91898727416992,1.6904262234638784e+18,35.801878515625006,-1.9980132268010913,-0.4059065877815591,-0.626362273510942,-0.2469541679571247,0.4912078985905634,0.4490197863497676,-1.2915851477111735
5.85,1.6904262235139756e+18,35.85197573242188,1.3498914910413324,2.367200957410335,-4.3530570867362615,1.6904262235152292e+18,35.85322924804687,-0.0973175048828125,1.210589599609375,-0.5669097900390625,1.6904262235139756e+18,35.85197573242188,-2.4110015499182045,9.477452415521146,-0.7215430853010714,1.6904262235139756e+18,35.85197573242188,-0.2331916570663451,-0.771211814880371,-0.7220039904117584,1.6904262235102195e+18,35.84821962890625,-0.1953980991616844,-0.6754551440477371,-0.6579265773296357,,,,,,,,,,,,,1.6904262235139756e+18,35.85197573242188,-0.8414291381835938,58.58474960327148,-2.683880615234375,1.690426223509537e+18,35.84753696289063,45.823794555664065,91.28373413085936,115.75352172851562,1.6904262235139756e+18,35.85197573242188,-2.032470927096988,-0.4155213244490348,-0.6199727879300456,-0.2919200264379487,0.4884116071859848,0.452074355856311,-1.3110998065635968
5.9,1.690426223564073e+18,35.90207290039062,2.8402568023690575,2.9285341623067853,-3.3131878519043325,1.6904262235653266e+18,35.90332646484375,0.201239013671875,1.2709991455078125,-0.3506439208984375,1.690426223564073e+18,35.90207290039062,-1.710941762954965,9.589608371435403,-1.0770297463512422,1.690426223564073e+18,35.90207290039062,-0.5740254521369934,-2.002568244934082,-2.147381138801575,1.690426223560317e+18,35.89831689453125,-0.5649308204650879,-1.9355762481689456,-1.999106812477112,,,,,,,,,,,,,1.690426223564073e+18,35.90207290039062,3.536901092529297,59.12718276977539,-3.485005187988281,1.6904262235615457e+18,35.899545507812505,50.523590087890625,91.78435974121092,114.91879272460938,1.690426223564073e+18,35.90207290039062,-2.2503924805233955,-0.4583046289373079,-0.5946264682581053,-0.5759501125318478,0.4832311169513384,0.4498969168622224,-1.3610090398759094
5.95,1.69042622361417e+18,35.952169921875,0.6241363410031796,1.1059827522087096,1.2025787354195117,1.6904262236154235e+18,35.95342348632813,-0.079449462890625,1.0893463134765624,-0.034259033203125,1.69042622361417e+18,35.952169921875,-0.1830346674390696,9.678369423236846,-1.4929353956244884,1.69042622361417e+18,35.952169921875,-0.7532559394836426,-1.6639480590820312,-3.1718177795410156,1.6904262236104138e+18,35.948413916015625,-0.732482647895813,-1.7329303979873658,-3.194764184951782,,,,,,,,,,,,,1.69042622361417e+18,35.952169921875,12.61379623413086,58.43608169555664,-4.138285827636719,1.6904262236135572e+18,35.95155732421875,60.773556518554685,90.78845825195312,114.17199096679688,1.69042622361417e+18,35.952169921875,-0.5147918520064556,-0.5279949079213476,-0.5453294900231943,-1.440055346120222,0.4600624295820109,0.4598882412625896,-1.409065107371778
6.0,1.6904262236642668e+18,36.002266845703126,-4.0949482946026325,2.178771207728386,-1.0457849470686913,1.6904262236655206e+18,36.00352065429688,-0.279107666015625,1.18695068359375,-0.3468017578125,1.6904262236642668e+18,36.002266845703126,1.268204235470593,9.533423309068082,-1.8809769448685645,1.6904262236642668e+18,36.002266845703126,-0.9569553017616272,-0.7330247282981872,-2.4211886405944822,1.6904262236605107e+18,35.9985109375,-0.9363844752311706,-0.7713035941123962,-2.47967643737793,,,,,,,,,,,,,1.6904262236642668e+18,36.002266845703126,21.30422058105469,56.47406539916992,-5.243580627441406,1.6904262236655693e+18,36.003569140625004,70.1795440673828,88.35666198730469,112.71393127441408,1.6904262236642668e+18,36.002266845703126,2.592345231426798,-0.5848379870467774,-0.505706544857657,-2.151334053195522,0.4235700942297207,0.4716448029136741,-1.3360584663268906
6.05,1.690426223714364e+18,36.0523640625,-4.1093600909581784,0.4532539384496211,-0.649850101904571,1.6904262237156178e+18,36.05361782226562,-0.15718994140625,0.964593505859375,-0.2988800048828125,1.690426223714364e+18,36.0523640625,2.2979966051852703,9.247811183815598,-2.3003150820346177,1.690426223714364e+18,36.0523640625,-1.1053316354751588,-1.1522772073745728,-1.5355075120925905,1.690426223710608e+18,36.04860815429687,-1.1037203788757324,-1.0725677132606506,-1.608249044418335,,,,,,,,,,,,,1.690426223714364e+18,36.0523640625,28.86221923828125,53.824608612060544,-7.485725402832031,1.690426223712381e+18,36.050380859375,76.51062393188477,86.02200698852539,110.55179595947266,1.690426223714364e+18,36.0523640625,2.425304652363239,-0.6277876742200645,-0.480265019151829,-2.353464947401206,0.3899766557650325,0.4721201729412829,-1.2325655551938788
6.1,1.6904262237644613e+18,36.102461328124996,-3.4157963441768286,-0.1240230362230539,-1.5852914031779766,1.690426223765715e+18,36.103714892578125,-0.0428192138671875,0.873748779296875,-0.43944091796875,1.6904262237644613e+18,36.102461328124996,3.004353022687733,8.958866582365632,-2.61584400206238,1.6904262237644613e+18,36.102461328124996,-1.2453826904296874,-1.886216402053833,-0.7619166135787964,1.6904262237607053e+18,36.09870532226562,-1.22368004322052,-1.83035945892334,-0.8127582907676697,,,,,,,,,,,,,1.6904262237644613e+18,36.102461328124996,33.817527770996094,51.44587173461914,-8.938035583496093,1.6904262237591905e+18,36.097190283203126,80.63412170410156,83.92932739257813,109.45276794433592,1.6904262237644613e+18,36.102461328124996,2.4328338930134477,-0.6700228103522197,-0.4529190959917223,-2.424643053173673,0.376322010617984,0.4517028134308269,-1.1523701178835055
6.15,1.6904262238145585e+18,36.152558447265626,-4.788571194999218,-1.199441372628808,-0.3213924636858701,1.690426223815812e+18,36.15381206054688,-0.1484222412109375,0.7649078369140625,-0.2792144775390625,1.6904262238145585e+18,36.152558447265626,3.471341530431509,8.710979499873519,-2.86756426220268,1.6904262238145585e+18,36.152558447265626,-1.4312913417816162,-2.269348001480102,0.0089521389454603,1.6904262238108024e+18,36.148802441406254,-1.429333782196045,-2.2623965740203857,-0.0502408035099506,,,,,,,,,,,,,1.6904262238145585e+18,36.152558447265626,36.66932220458985,50.06457748413086,-9.672080993652344,1.6904262238111985e+18,36.149198486328125,83.30717468261719,82.62158813476563,108.75734252929688,1.6904262238145585e+18,36.152558447265626,2.5218112091891864,-0.7116655316827606,-0.4245287057207469,-2.4511179086422628,0.377786870934709,0.412576776277842,-1.093731995441235
6.2,1.6904262238646554e+18,36.202655468749995,-4.798013035535514,-0.9576772738355398,2.102411664599478,1.6904262238659092e+18,36.203909277343755,-0.1005889892578125,0.7727203369140625,-0.0759796142578125,1.6904262238646554e+18,36.202655468749995,3.6322464365890617,8.58844792970419,-3.0355517616453764,1.6904262238646554e+18,36.202655468749995,-1.074044156074524,-1.970716691017151,0.7378009796142578,1.6904262238608993e+18,36.19889946289062,-1.1137510895729066,-2.011988377571106,0.6847833454608917,,,,,,,,,,,,,1.6904262238646554e+18,36.202655468749995,37.53302917480469,50.04198379516602,-10.122474670410156,1.6904262238632077e+18,36.20120766601563,84.02592468261719,82.73733825683594,108.32756652832032,1.6904262238646554e+18,36.202655468749995,2.6525439471393155,-0.7431947660241367,-0.400639640470079,-2.4454586617101928,0.3927194198588838,0.3641950229069693,-1.0670497558918526
6.25,1.6904262239147528e+18,36.252752685546874,-3.48220510356009,-1.1550076552361248,3.594424246290624,1.690426223916007e+18,36.254006494140626,0.0152496337890625,0.7690948486328125,0.0948822021484375,1.6904262239147528e+18,36.252752685546874,3.4204643944400543,8.6560412226969,-3.0870329425576326,1.6904262239147528e+18,36.252752685546874,-0.407204158604145,-1.0774889588356018,1.2668286085128784,1.6904262239109967e+18,36.24899672851562,-0.4672069162130355,-1.1530033111572269,1.248159694671631,,,,,,,,,,,,,1.6904262239147528e+18,36.252752685546874,36.55814819335937,51.24278793334961,-10.312034606933594,1.6904262239152174e+18,36.25321757812499,82.3237518310547,84.49318237304688,108.05957336425782,1.6904262239147528e+18,36.252752685546874,2.785185590135265,-0.7546257777144364,-0.3879857734054301,-2.4071079586451427,0.4183321546648817,0.3238130463149478,-1.0816013737012014
6.3,1.69042622396485e+18,36.30284995117188,-1.8660496586585045,-1.3437698809689282,4.588555227776467,1.6904262239661036e+18,36.304103515625,0.1240081787109375,0.7642242431640625,0.1447296142578125,1.69042622396485e+18,36.30284995117188,2.917493595950007,8.866442214977145,-3.001229629970193,1.69042622396485e+18,36.30284995117188,0.380786170065403,0.0862366564571857,1.3603589057922365,1.6904262239610936e+18,36.29909384765625,0.3264357428997754,-0.005447395145893,1.356303095817566,,,,,,,,,,,,,1.69042622396485e+18,36.30284995117188,33.75422668457031,53.69884719848633,-10.541482543945312,1.6904262239620265e+18,36.30002648925781,79.73493576049805,86.84697341918945,107.9193878173828,1.69042622396485e+18,36.30284995117188,2.8877103866757157,-0.7452557336398454,-0.3886814488386273,-2.3412311833818236,0.4473324992506889,0.3054716530487922,-1.129646175953029
6.35,1.6904262240149468e+18,36.35294692382813,0.7033723748034237,0.124811790060997,2.6440775199258324,1.690426224016201e+18,36.35420087890625,0.3869049072265625,1.0337860107421877,-0.11981201171875,1.6904262240149468e+18,36.35294692382813,2.23808425131008,9.142993783321977,-2.7416411791250104,1.6904262240149468e+18,36.35294692382813,0.8441256999969482,0.2442033872008323,1.301825475692749,1.6904262240111908e+18,36.3491908203125,0.8537673115730285,0.3556216463446617,1.332138228416443,1.6904262239997934e+18,36.33779345703125,76.1869628848508,2.2754290162784554,-1.0,49.28002112615985,95.36839179415256,-1.0,7.035101513318162,1.0237225644163808,-122.96824927633284,0.3042381411931993,1.6904262240149468e+18,36.35294692382813,30.189170837402344,56.84919815063476,-10.40813751220703,1.6904262240088346e+18,36.34683461914062,76.37134094238282,89.75367431640625,108.10855102539062,1.6904262240149468e+18,36.35294692382813,2.96006811816403,-0.7199957847681661,-0.3987611895537589,-2.254238659628913,0.4762372482074387,0.3092894827734843,-1.201392197057457
6.4,1.690426224065044e+18,36.403044140625,6.163203422578275,3.2354698799037935,-4.965029410310685,1.690426224066298e+18,36.404297900390624,0.8134033203125,1.237225341796875,-0.849346923828125,1.690426224065044e+18,36.403044140625,1.9055254906089605,9.305148806445002,-2.4394581797869503,1.690426224065044e+18,36.403044140625,0.0732808202505111,-0.9571660101413728,0.3268140912055969,1.690426224061288e+18,36.39928813476563,0.1598362669348716,-0.9611513495445252,0.4132369499886408,,,,,,,,,,,,,1.690426224065044e+18,36.403044140625,27.6752197265625,59.24251022338867,-9.047573852539063,1.6904262240608433e+18,36.39884331054687,74.08602905273438,91.99237976074218,109.5135223388672,1.690426224065044e+18,36.403044140625,3.011364623891004,-0.7107325542097895,-0.3889957190349298,-2.2340109900353893,0.5014826665473301,0.303306786197036,-1.249641522310388
6.45,1.6904262241151414e+18,36.45314150390625,3.4351370044627787,-0.2039333744752407,-6.37358623622775,1.6904262241163948e+18,36.45439487304687,0.4813995361328125,0.869708251953125,-0.840716552734375,1.6904262241151414e+18,36.45314150390625,2.0408209730224307,9.228247820689678,-2.612720375536084,1.6904262241151414e+18,36.45314150390625,-0.9073277473449708,-0.5829545617103576,-0.3117693908512592,1.690426224111385e+18,36.44938544921875,-0.8845535635948181,-0.5283064424991608,-0.3332843855023383,,,,,,,,,,,,,1.6904262241151414e+18,36.45314150390625,28.959622192382813,58.8370979309082,-10.502519226074218,1.690426224112851e+18,36.45085083007813,75.60882263183593,91.3689971923828,107.72578125,1.6904262241151414e+18,36.45314150390625,3.045009016366264,-0.7220997043366302,-0.3831320346518325,-2.2340189337958325,0.4991444912137457,0.2873451633611245,-1.2258979445265668
6.5,1.6904262241652383e+18,36.5032384765625,-1.9295652684965727,-1.6805973465782404,-1.1371464783051608,1.6904262241664922e+18,36.50449223632812,-0.00799560546875,0.8172149658203125,-0.2941925048828125,1.6904262241652383e+18,36.5032384765625,2.049484844149649,9.147603322944043,-2.877989327009618,1.6904262241652383e+18,36.5032384765625,-0.3360394284129143,-0.5650645077228547,0.7905030131340027,1.6904262241614825e+18,36.49948247070313,-0.4198282763361931,-0.603753787279129,0.7153855800628662,,,,,,,,,,,,,1.6904262241652383e+18,36.5032384765625,30.057081604003905,57.559268951416016,-13.143594360351562,1.6904262241648604e+18,36.50286020507813,76.31688232421875,90.16600341796877,104.96719360351562,1.6904262241652383e+18,36.5032384765625,0.6164887761901082,-0.7314355700543262,-0.3808868485985551,-2.1894332905090077,0.5004106456884254,0.2635500140987156,-1.202112174920949
6.55,1.6904262242153354e+18,36.55333549804688,1.0907452310056986,4.33334192327559,3.7945983266845342,1.6904262242165896e+18,36.554589453125,0.376751708984375,1.482757568359375,0.091864013671875,1.6904262242153354e+18,36.55333549804688,1.722321805012226,9.265693695795536,-2.707720555535853,1.6904262242153354e+18,36.55333549804688,0.7306096017360687,-0.778152871131897,0.530793060362339,1.6904262242115794e+18,36.549579541015625,0.6974678754806518,-0.6969225585460663,0.626637602970004,,,,,,,,,,,,,1.6904262242153354e+18,36.55333549804688,28.65595245361328,57.8410530090332,-13.65355224609375,1.6904262242116698e+18,36.54966967773437,74.90605926513672,90.5797348022461,105.01842880249023,1.6904262242153354e+18,36.55333549804688,-3.070718187730159,-0.7235494090849761,-0.3737029700909527,-2.137651132379974,0.521974168512574,0.2535488943090609,-1.2373581929704802
6.6,1.6904262242654328e+18,36.60343286132812,-2.003635356287956,-0.6613834786665439,-0.2775723189207911,1.6904262242666865e+18,36.604686425781246,-0.224273681640625,0.68385009765625,-0.29266357421875,1.6904262242654328e+18,36.60343286132812,1.7405125646106896,9.37433211588204,-2.2913761641322075,1.6904262242654328e+18,36.60343286132812,0.7280931115150452,-0.3923640854656696,0.1904684338718652,1.6904262242616768e+18,36.59967690429688,0.7268329501152039,-0.4621089834719896,0.1487055879086256,,,,,,,,,,,,,1.6904262242654328e+18,36.60343286132812,28.860401916503907,57.31766128540039,-11.000558471679687,1.690426224258475e+18,36.596475048828125,75.39734497070313,89.88504028320312,107.69574279785157,1.6904262242654328e+18,36.60343286132812,-3.1160289900458187,-0.7237632174836046,-0.3504529835222727,-2.2209575983954486,0.537041462363881,0.2547557325523404,-1.2729292814909683
6.65,1.6904262243155297e+18,36.65352983398437,-7.608997332382202,-0.9473492396622896,-1.6229041592833398,1.6904262243167836e+18,36.65478369140625,-0.61846923828125,0.9669525146484376,-0.4150390625,1.6904262243155297e+18,36.65352983398437,1.5519066984833776,9.485012154024838,-1.94457602443248,1.6904262243155297e+18,36.65352983398437,0.3188009202480316,-1.3671934604644775,0.974731731414795,1.690426224311774e+18,36.64977387695312,0.3904365606606007,-1.2412868022918702,0.8879384398460388,,,,,,,,,,,,,1.6904262243155297e+18,36.65352983398437,28.43472900390625,56.98756332397461,-8.799290466308594,1.6904262243104832e+18,36.64848310546875,74.81180419921876,89.62559204101562,109.84561462402344,1.6904262243155297e+18,36.65352983398437,-3.106686352693407,-0.7178175041794909,-0.3337865959703271,-2.243910497695542,0.5561912343886144,0.2526296190801316,-1.3142534091038265
