seconds_elapsed_rounded,accelerometer_time,accelerometer_seconds_elapsed,accelerometer_z,accelerometer_y,accelerometer_x,accelerometeruncalibrated_time,accelerometeruncalibrated_seconds_elapsed,accelerometeruncalibrated_z,accelerometeruncalibrated_y,accelerometeruncalibrated_x,gravity_time,gravity_seconds_elapsed,gravity_z,gravity_y,gravity_x,gyroscope_time,gyroscope_seconds_elapsed,gyroscope_z,gyroscope_y,gyroscope_x,gyroscopeuncalibrated_time,gyroscopeuncalibrated_seconds_elapsed,gyroscopeuncalibrated_z,gyroscopeuncalibrated_y,gyroscopeuncalibrated_x,location_time,location_seconds_elapsed,location_bearingAccuracy,location_speedAccuracy,location_verticalAccuracy,location_horizontalAccuracy,location_speed,location_bearing,location_altitude,location_longitude,location_latitude,magnetometer_time,magnetometer_seconds_elapsed,magnetometer_z,magnetometer_y,magnetometer_x,magnetometeruncalibrated_time,magnetometeruncalibrated_seconds_elapsed,magnetometeruncalibrated_z,magnetometeruncalibrated_y,magnetometeruncalibrated_x,orientation_time,orientation_seconds_elapsed,orientation_qz,orientation_qy,orientation_qx,orientation_qw,orientation_roll,orientation_pitch,orientation_yaw
0.0,1.6887548283359237e+18,29.992923502604167,1.2180411616961162,-4.163964589436849,1.8513190348943072,1.6887548283359237e+18,29.992923502604167,-0.137587308883667,-13.789039293924969,3.2309088706970215,1.6887548283359237e+18,29.992923502604167,-1.361474533875783,-9.607570330301922,1.3169023990631104,1.6887548283445737e+18,30.001573567708338,0.6928739237288634,0.443946306904157,3.915391763051351,1.688754828348895e+18,30.00589493815104,0.5454517851273218,0.4217515438795089,3.919515053431193,1.6887548283575526e+18,30.014552734375,0.0,0.0,5.538332939147949,16.8799991607666,0.2684530913829803,36.220855712890625,332.1000061035156,-122.9172803,49.2795165,1.6887548283380623e+18,29.995062353515625,5.043479990959168,38.676439666748045,-24.983159255981445,1.6887548283380623e+18,29.995062353515625,-249.48511657714843,131.99423828125,-156.98715515136718,1.6887548283359237e+18,29.992923502604167,-0.5363505681355795,0.5587807297706604,-0.5090080996354421,0.3743148346741994,-2.370467742284139,1.3747067054112752,-2.1286266247431436
0.05,1.6887548283878277e+18,30.044827880859373,-2.385073105494181,-5.467069943745931,4.936988353729248,1.6887548283878277e+18,30.044827880859373,-1.8807586034138997,-15.193825721740724,6.225526491800944,1.6887548283878277e+18,30.044827880859373,0.4984685306747754,-9.709251721700031,1.2258506218592329,1.6887548283964805e+18,30.05348014322917,0.2739221553007762,0.3255911767482757,3.5075882275899253,1.6887548283921554e+18,30.049155395507817,0.2385428845882416,0.3540727645158767,3.3497560024261475,,,,,,,,,,,,1.6887548283880586e+18,30.045058837890625,-3.645359921455383,40.401519012451175,-24.126719665527343,1.6887548283880586e+18,30.045058837890625,-258.1739501953125,133.7193176269531,-156.1307159423828,1.6887548283878277e+18,30.044827880859373,-0.588237981001536,0.5105867584546407,-0.4647987882296244,0.4203334053357442,-1.233997007211049,1.436328649520874,0.9249912103017172
0.1,1.6887548284397274e+18,30.09672745768229,-3.1562706232070923,-5.479161262512207,4.4902176062266035,1.6887548284397274e+18,30.09672745768229,-0.8460622032483419,-14.945968945821129,5.7511491775512695,1.6887548284397274e+18,30.09672745768229,2.304362416267395,-9.44930330912272,1.1982441345850627,1.6887548284483802e+18,30.105380452473955,-0.1349503115440408,-1.88721726834774,3.23565141359965,1.6887548284354056e+18,30.09240551757813,-0.0196494956811269,-1.0683523664871852,3.634190003077189,,,,,,,,,,,,1.6887548284380616e+18,30.0950615234375,-12.529399871826172,39.95255966186524,-22.545599746704102,1.6887548284380616e+18,30.0950615234375,-267.05800170898436,133.27035827636718,-154.54959716796876,1.6887548284397274e+18,30.09672745768229,-0.6294276913007101,0.4512640039126078,-0.4251569211483001,0.4676232437292735,-0.4660174250602722,1.3105858167012532,2.2266016006469727
0.15,1.6887548284916406e+18,30.148640625,-3.77097749710083,-1.4305961926778157,-0.517642617225647,1.6887548284916406e+18,30.148640625,-0.245065053304037,-10.515657901763916,0.7603194117546082,1.6887548284916406e+18,30.148640625,3.520066499710083,-9.067557017008465,1.2152746121088664,1.6887548285002885e+18,30.157288167317702,1.1855367422103882,-0.4059199690818786,2.6190847555796304,1.6887548284873126e+18,30.14431258138021,0.9222537875175476,-0.6041456858317056,2.597806215286255,,,,,,,,,,,,1.6887548284880604e+18,30.145060546875,-18.619639587402343,38.8643196105957,-21.71599998474121,1.6887548284880604e+18,30.145060546875,-273.1482360839844,132.18211669921874,-153.7199951171875,1.6887548284916406e+18,30.148640625,-0.6388903856277466,0.3931669195493062,-0.4093968669573466,0.5188725590705872,-0.3188090771436691,1.1869316895802815,1.9953874349594116
0.2,1.6887548285435364e+18,30.200536376953124,-10.90158716837565,8.429522196451822,-3.0944664478302,1.6887548285435364e+18,30.200536376953124,-6.273781458536784,-0.144167552391688,-1.8121643861134848,1.6887548285435364e+18,30.200536376953124,4.621960004170735,-8.556185404459635,1.2196147441864014,1.6887548285435438e+18,30.200543823242185,0.4211915731430053,-3.620674729347229,3.1731395721435547,1.688754828539217e+18,30.19621687825521,0.5669338492055734,-3.2052608331044516,3.0528500080108643,,,,,,,,,,,,1.6887548285380598e+18,30.195059716796873,-22.792039489746095,37.20023956298828,-20.73755989074707,1.6887548285380598e+18,30.195059716796873,-277.3206298828125,130.51803588867188,-152.7415557861328,1.6887548285435364e+18,30.200536376953124,-0.6307503382364908,0.3297437528769175,-0.3949563006560008,0.5798788666725159,-0.2422562837600707,1.0657293399175007,1.7979296445846558
0.25,1.688754828595447e+18,30.252447102864583,-5.216991106669108,9.471471627553305,-0.1606925328572591,1.688754828595447e+18,30.252447102864583,0.3034897049268086,1.6095720529556274,1.9559331039587655,1.688754828595447e+18,30.252447102864583,5.514634768168132,-7.844395160675049,2.0539381901423135,1.688754828586797e+18,30.243797037760416,-0.0919861296812693,-2.7848328749338784,2.2946643431981406,1.6887548285911265e+18,30.248126139322917,-0.0520762652158737,-2.671771844228109,2.032908618450165,,,,,,,,,,,,1.6887548285880632e+18,30.245063281250005,-25.727359771728516,33.95503921508789,-23.59967918395996,1.6887548285880632e+18,30.245063281250005,-280.25595703125,127.27283782958985,-155.6036804199219,1.688754828595447e+18,30.252447102864583,-0.6212820609410604,0.238222524523735,-0.4026234745979309,0.628286600112915,-0.3432221710681915,0.931143283843994,1.7330515384674072
0.3,1.6887548286473477e+18,30.30434733072917,-1.4916284879048665,5.571800072987874,0.7365374565124512,1.6887548286473477e+18,30.30434733072917,3.711068630218506,-2.459223508834839,3.0139594872792563,1.6887548286473477e+18,30.30434733072917,5.196851094563802,-8.013519128163656,2.2147346337636313,1.688754828638695e+18,30.29569466145833,1.1455759604771931,-0.9766717006762824,-1.1989248643318813,1.68875482864302e+18,30.300020182291664,1.266578157742818,-0.75360406935215,-1.4416928986708324,,,,,,,,,,,,1.6887548286380575e+18,30.295057568359375,-24.226759719848634,34.34543914794922,-24.58787956237793,1.6887548286380575e+18,30.295057568359375,-278.75535888671874,127.66323852539062,-156.5918762207031,1.6887548286473477e+18,30.30434733072917,-0.5936445991198221,0.2278403143088022,-0.4274768829345702,0.6423725883165995,-0.3841379880905151,0.961288074652354,1.6938193639119463
0.35,1.6887548286992525e+18,30.356252278645837,5.637202103932698,1.1628370285034175,-0.0798661311467489,1.6887548286992525e+18,30.356252278645837,9.710273583730062,-7.656833012898763,1.4109677871068318,1.6887548286992525e+18,30.356252278645837,4.067225376764934,-8.802165349324545,1.428146521250407,1.688754828690602e+18,30.347601806640625,1.6567684014638264,0.5131777127583822,-2.996039549509684,1.6887548286949274e+18,30.351927490234377,1.5239560802777607,0.4820744941631953,-2.9392290115356445,,,,,,,,,,,,1.6887548286880558e+18,30.34505581054687,-20.142199325561524,38.33727951049805,-21.157239532470705,1.6887548286880558e+18,30.34505581054687,-274.67080078125,131.655078125,-153.16123962402344,1.6887548286992525e+18,30.356252278645837,-0.5553999344507853,0.2934227387110392,-0.4540916681289673,0.6314812302589417,-0.3108875056107839,1.1193987528483074,1.638079007466634
0.4,1.6887548287425075e+18,30.399507446289064,5.579183220863342,-19.941425323486328,4.63380241394043,1.6887548287425075e+18,30.399507446289064,9.199505805969238,-28.937003135681152,6.289833307266235,1.6887548287425075e+18,30.399507446289064,3.6144766807556152,-8.978073120117188,1.5933434963226318,1.6887548287425075e+18,30.399507486979164,-0.1267545421918233,-3.0430760979652405,0.5056946277618408,1.6887548287468347e+18,30.40383455403646,-0.1030326187610626,-3.356908162434896,0.85103706518809,,,,,,,,,,,,1.6887548287380557e+18,30.395055810546875,-16.48219985961914,40.55767974853516,-19.50291976928711,1.6887548287380557e+18,30.395055810546875,-271.010791015625,133.87547607421874,-151.5069152832031,1.6887548287425075e+18,30.399507446289064,-0.535552442073822,0.2891466468572616,-0.4811974912881851,0.6306068897247314,-0.3871510624885559,1.160334050655365,1.6635366082191467
0.45,1.6887548287857613e+18,30.442761311848955,3.355496406555176,-3.1831630071004233,4.909091194470723,1.6887548287857613e+18,30.442761311848955,7.282755136489868,-11.952548027038574,7.0317080815633135,1.6887548287857613e+18,30.442761311848955,3.921412626902262,-8.751880327860514,2.0599291721979776,1.6887548287944164e+18,30.451416666666663,0.1460986069093147,-1.2374602953592937,0.9745846142371496,1.6887548287987387e+18,30.45573876953125,0.0651080484191576,-0.8418741604934136,0.8474737306435903,,,,,,,,,,,,1.6887548287880566e+18,30.445056396484375,-15.352479553222656,39.82079849243164,-21.35243949890137,1.6887548287880566e+18,30.445056396484375,-269.8810729980469,133.1385955810547,-153.35643615722657,1.6887548287857613e+18,30.442761311848955,-0.5055452982584635,0.2277523378531137,-0.4968072076638539,0.6674474279085795,-0.4580573737621307,1.1055359840393066,1.5821597576141355
0.5,1.6887548288376668e+18,30.49466682942709,-8.182265758514404,3.5725463231404624,-0.4210187991460163,1.6887548288376668e+18,30.49466682942709,-4.157130479812622,-5.149952570597331,1.7142579952875774,1.6887548288376668e+18,30.49466682942709,4.019289493560791,-8.704994201660156,2.07258939743042,1.6887548288463183e+18,30.503318115234375,0.1022181088725725,1.0536407430966694,-0.7351254125436147,1.6887548288506447e+18,30.507644694010413,0.2257147183020909,1.163189212481181,-0.9777916638801496,,,,,,,,,,,,1.6887548288380552e+18,30.495055273437497,-16.979959869384764,39.45235977172852,-20.803439712524415,1.6887548288380552e+18,30.495055273437497,-271.50855712890626,132.77015686035156,-152.80743713378905,1.6887548288376668e+18,30.49466682942709,-0.512362519900004,0.2290575305620829,-0.4908734957377116,0.66631946961085,-0.4465641180674235,1.0950518051783245,1.5861754814783733
0.55,1.6887548288895752e+18,30.5465751953125,-2.0305253664652505,-1.4495388666788738,-1.3126187324523926,1.6887548288895752e+18,30.5465751953125,1.2249258359273274,-10.613763809204102,0.0578265388806661,1.6887548288895752e+18,30.5465751953125,3.249605099360148,-9.146720250447592,1.3077578743298848,1.688754828898223e+18,30.55522314453125,1.0827586650848389,4.7621017297108965,-3.589545965194702,1.6887548288939013e+18,30.550901123046877,1.0754282772541046,4.8085784912109375,-3.438636898994446,1.6887548288765972e+18,30.53359716796875,0.0,0.0,5.5479044914245605,17.385000228881836,0.2899001836776733,42.56651306152344,332.1000061035156,-122.9172708,49.2795227,1.6887548288880594e+18,30.545059228515623,-15.862439727783205,41.26771850585938,-17.99987964630127,1.6887548288880594e+18,30.545059228515623,-270.3910339355469,134.58551635742188,-150.0038818359375,1.6887548288895752e+18,30.5465751953125,-0.5206032792727152,0.3088695506254831,-0.4865513741970062,0.6284300287564596,-0.3367993235588074,1.2080967823664348,1.615683873494466
0.6,1.6887548289414797e+18,30.59847965494792,-5.434977650642395,2.0646918614705405,-1.152043769756953,1.6887548289414797e+18,30.59847965494792,-3.994618018468221,-7.635497093200684,-0.6791628251473109,1.6887548289414797e+18,30.59847965494792,1.4345136483510337,-9.682684262593588,0.4101935426394145,1.6887548289501286e+18,30.607128662109375,-0.6838127374649048,3.4613152345021567,-3.553861379623413,1.6887548289371538e+18,30.594153645833337,0.045509452621142,4.037361145019531,-3.925980011622111,,,,,,,,,,,,1.6887548289380562e+18,30.59505620117188,-11.04587993621826,43.97855834960937,-12.478159713745118,1.6887548289380562e+18,30.59505620117188,-265.57447509765626,137.29635620117188,-144.4821563720703,1.6887548289414797e+18,30.59847965494792,-0.530825138092041,0.4459742705027262,-0.4777586261431376,0.5382294456164042,-0.2215443154176075,1.422443429629008,1.7529136737187705
0.65,1.6887548289933903e+18,30.65039029947917,-6.624909559885661,-0.8298610051472982,-0.7795704007148743,1.6887548289933903e+18,30.65039029947917,-6.630711078643799,-10.595418294270834,0.3172484139601388,1.6887548289933903e+18,30.65039029947917,-0.0116474603613217,-9.748052597045898,1.034131407737732,1.688754828993394e+18,30.65039392089844,-1.918193221092224,2.2217169404029846,-2.3819926381111145,1.6887548289890665e+18,30.646066487630208,-1.82404367129008,2.3468424479166665,-2.4321090380350747,,,,,,,,,,,,1.6887548289880617e+18,30.645061572265625,-5.75595989227295,44.834999084472656,-13.485879707336426,1.6887548289880617e+18,30.645061572265625,-260.28456420898436,138.15279541015624,-145.48987731933593,1.6887548289933903e+18,30.65039029947917,-0.5504399140675863,0.5097351670265198,-0.4924826323986053,0.4404403467973073,-1.5399390856424968,1.471933364868164,-0.9505173365275064
0.7,1.6887548290452943e+18,30.702294514973957,4.207715888818105,0.4665821393330889,0.1798092524210612,1.6887548290452943e+18,30.702294514973957,3.2873394886652627,-9.21675411860148,1.6135600407918294,1.6887548290452943e+18,30.702294514973957,-0.9262223839759828,-9.665831565856934,1.3710633913675945,1.6887548290366474e+18,30.69364737955729,-0.2479094862937927,-1.0132217804590862,-1.6907731294631958,1.6887548290409697e+18,30.697969319661457,-0.1539380376537641,-0.9918924261194964,-1.7375553051630657,,,,,,,,,,,,1.688754829038061e+18,30.695061181640625,-1.7958399891853332,44.3713996887207,-15.530599594116213,1.688754829038061e+18,30.695061181640625,-256.3244323730469,137.68919982910157,-147.53459777832032,1.6887548290452943e+18,30.702294514973957,-0.5336906512578329,0.5260834892590841,-0.5217518011728922,0.40740634004275,-2.211751858393351,1.4070804913838704,-2.3694871266682944
0.75,1.6887548290972037e+18,30.754203206380208,1.746538023153941,2.185106118520101,-1.6455679734547932,1.6887548290972037e+18,30.754203206380208,0.0955134828885396,-7.397012551625569,-0.1740778448681036,1.6887548290972037e+18,30.754203206380208,-1.6568705638249714,-9.564613978068031,1.4088027079900105,1.6887548290885527e+18,30.745552652994792,0.2002110878626505,2.387108643849691,-1.6523395776748655,1.6887548290928763e+18,30.749876627604166,0.2005165169636408,2.512132485707601,-1.6143132050832112,,,,,,,,,,,,1.6887548290880635e+18,30.74506372070313,2.393639945983886,44.37627944946289,-15.645279693603516,1.6887548290880635e+18,30.74506372070313,-252.1349548339844,137.69407653808594,-147.64927978515624,1.6887548290972037e+18,30.754203206380208,-0.5303970376650492,0.5683584610621134,-0.5133268237113953,0.3627778093020121,-2.487332900365194,1.3504614035288494,-2.0004844268163047
0.8,1.6887548291491092e+18,30.806109130859372,0.6647151708602905,1.5537645022074382,-1.756338079770406,1.6887548291491092e+18,30.806109130859372,-1.595613916714986,-7.870392322540283,-0.0895314464966455,1.6887548291491092e+18,30.806109130859372,-2.266175111134847,-9.406652132670084,1.6041192213694255,1.688754829140455e+18,30.79745467122396,-0.2985094798107942,1.127555380264918,-1.4765122334162395,1.688754829144785e+18,30.801784830729165,-0.3612249915798505,0.9013825878500938,-1.4681636889775591,,,,,,,,,,,,1.688754829138058e+18,30.795057958984376,4.396879959106445,44.33235855102539,-15.716039657592772,1.688754829138058e+18,30.795057958984376,-250.1317169189453,137.65015869140626,-147.72003784179688,1.6887548291491092e+18,30.806109130859372,-0.5318303902943929,0.604881743590037,-0.5022636751333872,0.3144414226214091,-2.563551743825277,1.2847638924916585,-1.824073076248169
0.85,1.6887548291923635e+18,30.84936364746094,5.772060751914978,-1.4469070434570312,-1.9047195315361023,1.6887548291923635e+18,30.84936364746094,2.893520802259445,-10.67079257965088,-0.0705882678739726,1.6887548291923635e+18,30.84936364746094,-2.8843860626220703,-9.206380844116213,1.7714439034461975,1.6887548291923684e+18,30.849368408203123,-0.5520694851875305,-0.4477642352382342,-1.482264518737793,1.6887548291966912e+18,30.853691243489585,-0.5429065028826395,-0.3137302199999491,-1.404124677181244,,,,,,,,,,,,1.6887548291880645e+18,30.845064453125,7.444439792633057,43.42711868286133,-16.65544013977051,1.6887548291880645e+18,30.845064453125,-247.0841552734375,136.7449188232422,-148.65943908691406,1.6887548291923635e+18,30.84936364746094,-0.5131500363349915,0.6151125729084015,-0.5207512378692627,0.2950848788022994,-2.6207435131073,1.218740940093994,-1.7729652523994446
0.9,1.688754829235615e+18,30.892614990234375,3.132234533627828,-3.755038897196452,-4.88790241877238,1.688754829235615e+18,30.892614990234375,0.118644118309021,-12.888540585835775,-2.824328343073527,1.688754829235615e+18,30.892614990234375,-3.0194363594055176,-9.115996996561686,2.0008865197499595,1.6887548292442693e+18,30.901269124348957,-0.0858265707890192,1.1027644872665403,0.2990185357630253,1.6887548292485957e+18,30.90559578450521,0.0049887324372927,0.9999354680379232,0.3709988395373026,,,,,,,,,,,,1.6887548292380516e+18,30.895051708984376,8.837679862976074,42.90007858276367,-17.316679763793946,1.6887548292380516e+18,30.895051708984376,-245.6909149169922,136.21788024902344,-149.32067260742187,1.688754829235615e+18,30.892614990234375,-0.5176874796549479,0.6222362319628397,-0.5189383228619894,0.2745953500270843,-2.583026885986328,1.192599892616272,-1.774819056193034
0.95,1.6887548292875236e+18,30.94452368164063,0.0840191841125487,-8.786408424377441,-5.51309061050415,1.6887548292875236e+18,30.94452368164063,-2.5882365107536316,-18.0703976949056,-3.6813577016194663,1.6887548292875236e+18,30.94452368164063,-2.6781016985575357,-9.266485532124838,1.7690454721450806,1.688754829296167e+18,30.953166666666664,1.1412490010261536,-0.8805622359116873,1.6342681447664895,1.6887548293004977e+18,30.95749772135417,1.202030082543691,-0.8954775532086691,1.922342042128245,,,,,,,,,,,,1.6887548292880684e+18,30.94506831054688,7.444439888000488,43.02939910888672,-16.45047969818115,1.6887548292880684e+18,30.94506831054688,-247.0841552734375,136.34719848632812,-148.45447692871093,1.6887548292875236e+18,30.94452368164063,-0.5282407800356547,0.622010866800944,-0.5018531978130341,0.286359041929245,-2.583272139231364,1.2368088563283284,-1.759812315305074
1.0,1.688754829339429e+18,30.996429361979168,2.533556282520294,-2.8145195643107095,2.649933695793152,1.688754829339429e+18,30.996429361979168,1.3112667401631672,-12.479966163635254,3.8542391459147134,1.688754829339429e+18,30.996429361979168,-1.228135605653127,-9.647941907246908,1.1416180928548176,1.688754829348081e+18,31.005081136067712,0.4461352328459422,0.3125593935449918,3.950923760732015,1.6887548293437468e+18,31.000746826171877,0.6476699039340019,0.2985603809356689,4.135557651519775,,,,,,,,,,,,1.6887548293380644e+18,30.99506455078125,1.583560001850128,44.25671920776367,-13.434639739990237,1.6887548293380644e+18,30.99506455078125,-252.94503173828124,137.57451477050782,-145.43863830566406,1.688754829339429e+18,30.996429361979168,-0.5597902536392212,0.5899355610211691,-0.4652031362056732,0.3482957482337951,-2.3820857206980386,1.3964091539382937,-1.991073727607727
1.05,1.6887548293913316e+18,31.04833154296875,-2.6110270023345947,-6.8316348393758135,6.812794049580892,1.6887548293913316e+18,31.04833154296875,-1.941376765569051,-16.57049624125163,7.888936996459961,1.6887548293913316e+18,31.04833154296875,0.6638042082389196,-9.721357345581056,1.0134551723798115,1.6887548293999828e+18,31.056982828776043,0.81723586221536,1.201164682706197,3.492163896560669,1.68875482938701e+18,31.04401025390625,0.4971934060255685,1.0705922444661458,3.496694564819336,1.688754829395663e+18,31.0526630859375,0.0,0.0,5.5479044914245605,17.461000442504883,0.3211544752120971,49.33233642578125,332.1000061035156,-122.9172562,49.2795292,1.6887548293880635e+18,31.045063671875,-7.293159675598145,43.82239837646485,-12.93444004058838,1.6887548293880635e+18,31.045063671875,-261.8217529296875,137.14019775390625,-144.93843688964844,1.6887548293913316e+18,31.04833154296875,-0.6192549665768942,0.5440693100293478,-0.4150034089883168,0.3841393887996673,-1.0419071515401204,1.4457453489303589,0.885287364323934
1.1,1.6887548294432412e+18,31.1002412109375,-4.625797351201375,-4.598103841145833,5.421391328175862,1.6887548294432412e+18,31.1002412109375,-2.310469667116801,-14.10808245340983,6.293322881062825,1.6887548294432412e+18,31.1002412109375,2.309481620788574,-9.49247392018636,0.8092441558837891,1.688754829443235e+18,31.10023498535156,-0.1875356268137693,-1.022206611931324,2.987894654273987,1.6887548294389158e+18,31.095915771484375,0.0612901399532953,-0.7222972512245178,3.0429234504699707,,,,,,,,,,,,1.6887548294380626e+18,31.09506259765625,-14.378919792175292,42.275439453125,-11.56803970336914,1.6887548294380626e+18,31.09506259765625,-268.9075134277344,135.5932403564453,-143.57203674316406,1.6887548294432412e+18,31.1002412109375,-0.6626418431599935,0.4975812236467997,-0.3700867493947347,0.4193218350410461,-0.3107180694739024,1.3264963626861572,2.25736411412557
1.15,1.6887548294951383e+18,31.152138427734375,-2.6457568804423013,-1.2628709475199382,-0.4943313598632812,1.6887548294951383e+18,31.152138427734375,0.8043871720631918,-10.402198314666748,0.5676971400777499,1.6887548294951383e+18,31.152138427734375,3.444298187891642,-9.121822675069174,0.999341090520223,1.6887548294864947e+18,31.14349462890625,0.5458081066608429,-1.6884315311908722,2.6294185320536294,1.6887548294908204e+18,31.1478203125,0.7096217895547549,-1.3996958782275517,2.7046567598978677,,,,,,,,,,,,1.688754829488061e+18,31.14506098632813,-18.729439544677735,40.29659881591797,-13.34923973083496,1.688754829488061e+18,31.14506098632813,-273.2580322265625,133.61439819335936,-145.35323486328124,1.6887548294951383e+18,31.152138427734375,-0.6718565821647644,0.4330832163492839,-0.372278352578481,0.471147467692693,-0.2656962573528289,1.202348709106445,2.103315194447835
1.2,1.6887548295470513e+18,31.204051350911456,-9.968441804250082,9.71642271677653,-3.452372948328654,1.6887548295470513e+18,31.204051350911456,-5.227719247341156,1.1629118124643962,-2.515056053797404,1.6887548295470513e+18,31.204051350911456,4.734876314798991,-8.536006291707357,0.8746295173962911,1.6887548295384005e+18,31.195400472005208,0.8956811676422755,-2.5290839274724326,3.186171293258667,1.6887548295427244e+18,31.199724121093748,0.755283996462822,-2.754747748374939,3.1904473304748535,,,,,,,,,,,,1.6887548295380634e+18,31.195063427734375,-23.624079513549805,38.09815902709961,-12.946639823913577,1.6887548295380634e+18,31.195063427734375,-278.1526672363281,131.41596069335938,-144.950634765625,1.6887548295470513e+18,31.204051350911456,-0.674287478129069,0.3685267170270284,-0.3512489199638366,0.5338956316312155,-0.1656041592359542,1.061501423517863,1.899304469426473
1.25,1.6887548295989512e+18,31.255950927734375,-5.215406497319539,10.448370615641275,-0.7887399991353353,1.6887548295989512e+18,31.255950927734375,0.2821536511182785,2.481157715121905,0.9533403714497884,1.6887548295989512e+18,31.255950927734375,5.491714000701904,-7.949708302815755,1.6793930133183796,1.6887548295903e+18,31.24730021158854,-0.1423316076397896,-2.7924686272939048,1.5388713578383129,1.6887548295946289e+18,31.25162874348958,-0.1131627808014551,-2.703435023625692,1.2371548525989056,,,,,,,,,,,,1.6887548295880566e+18,31.245056591796875,-26.539879608154298,35.10915908813477,-15.92343978881836,1.6887548295880566e+18,31.245056591796875,-281.0684753417969,128.4269592285156,-147.92743530273438,1.6887548295989512e+18,31.255950927734375,-0.6662574211756388,0.28662904103597,-0.3716617623964945,0.5791806777318319,-0.2838269720474878,0.9488563736279806,1.856716791788737
1.3,1.6887548296422057e+18,31.299205810546873,-1.0066264867782593,5.98406720161438,1.3294642567634585,1.6887548296422057e+18,31.299205810546873,4.094119668006897,-2.183749735355377,3.343670606613159,1.6887548296422057e+18,31.299205810546873,5.094900131225586,-8.150312423706055,1.951518952846527,1.6887548296422113e+18,31.299211344401044,1.1129964590072632,-0.8939503636211157,-1.868484079837799,1.6887548296465377e+18,31.30353784179688,1.226617415746053,-0.6610580086708069,-2.077858090400696,,,,,,,,,,,,1.688754829638058e+18,31.29505791015625,-24.83187980651855,35.196998596191406,-18.61719970703125,1.688754829638058e+18,31.29505791015625,-279.3604736328125,128.51479797363282,-150.6211944580078,1.6887548296422057e+18,31.299205810546873,-0.6427907645702362,0.2796495109796524,-0.4026080071926116,0.5885639786720276,-0.3479341119527817,0.9854653477668762,1.846941888332367
1.35,1.6887548296854625e+18,31.342462320963545,2.675633192062378,2.5694835980733237,0.3286557992299397,1.6887548296854625e+18,31.342462320963545,6.777670065561931,-6.245665709177653,1.7497515281041462,1.6887548296854625e+18,31.342462320963545,4.096190849939982,-8.79764461517334,1.3584083318710327,1.6887548296941169e+18,31.351116943359376,1.211396684249242,0.3780237833658854,-2.8362983067830405,1.68875482969844e+18,31.355439697265627,1.0352638711531956,0.2802853385607401,-2.706132968266805,,,,,,,,,,,,1.6887548296880584e+18,31.345058447265625,-19.737159729003903,38.91556015014648,-16.39679946899414,1.6887548296880584e+18,31.345058447265625,-274.2657531738281,132.23335876464844,-148.40079650878906,1.6887548296854625e+18,31.342462320963545,-0.6087729533513387,0.3341704805692037,-0.4234771033128102,0.5812305410703024,-0.2936999996503193,1.1188838879267375,1.8010518550872805
1.4,1.6887548297373714e+18,31.39437133789063,7.329016367594401,-15.0819673538208,1.12827734152476,1.6887548297373714e+18,31.39437133789063,10.734003067016602,-24.203999837239586,2.515255411465963,1.6887548297373714e+18,31.39437133789063,3.3991405963897705,-9.104528745015465,1.324290672938029,1.6887548297460186e+18,31.40301879882813,-0.077325349052747,-2.955569624900818,0.8408560156822205,1.688754829750349e+18,31.407349202473956,-0.0087557286024093,-3.1618384520212808,1.1033753703037898,,,,,,,,,,,,1.688754829738064e+18,31.39506411132813,-15.137759780883789,41.25551910400391,-16.250399589538574,1.688754829738064e+18,31.39506411132813,-269.666357421875,134.5733184814453,-148.25439453125,1.6887548297373714e+18,31.39437133789063,-0.58149387439092,0.3482830226421356,-0.4529021282990773,0.5787292122840881,-0.3420188228289286,1.193736910820007,1.808994134267171
1.45,1.688754829789277e+18,31.44627685546875,2.418407758076986,-4.626082102457683,5.884936690330505,1.688754829789277e+18,31.44627685546875,6.140581130981445,-13.56531016031901,7.628118991851807,1.688754829789277e+18,31.44627685546875,3.716327428817749,-8.921723365783691,1.6804947058359785,1.6887548297979277e+18,31.454927734375,0.413810293811063,-0.613003229101499,0.5661193778117497,1.6887548297936036e+18,31.450603515625,0.5865833461284637,-0.8875108361244202,0.4826599285006523,,,,,,,,,,,,1.6887548297880602e+18,31.445060253906252,-15.106039810180665,40.80655975341797,-17.863240051269532,1.6887548297880602e+18,31.445060253906252,-269.6346374511719,134.12435302734374,-149.867236328125,1.688754829789277e+18,31.44627685546875,-0.553662379582723,0.2935312688350677,-0.4728356003761291,0.6193823019663492,-0.3981698950131733,1.145293553670247,1.7176097234090169
1.5,1.6887548298411784e+18,31.49817822265625,-8.937568664550781,6.020589192708333,-0.4434799353281657,1.6887548298411784e+18,31.49817822265625,-5.1940202713012695,-2.932005286216736,1.1734800934791565,1.6887548298411784e+18,31.49817822265625,3.7377023696899414,-8.935090065002441,1.5542725721995037,1.6887548298498322e+18,31.506832275390625,0.1097521185874939,1.0415252447128296,-0.82207190990448,1.688754829836857e+18,31.49385709635417,0.0011199191212654,0.8336783250172933,-0.2110030256832639,,,,,,,,,,,,1.6887548298380677e+18,31.495067578124996,-15.772159957885744,41.10423965454102,-17.51187973022461,1.6887548298380677e+18,31.495067578124996,-270.3007568359375,134.42203674316406,-149.51587829589843,1.6887548298411784e+18,31.49817822265625,-0.5560646653175354,0.3019258181254069,-0.4660822749137878,0.6183314522107443,-0.3616984287897746,1.1486962636311848,1.7003918091456096
1.55,1.688754829893089e+18,31.550088867187497,-2.8790619373321533,-0.0356451670328776,-1.1738055149714153,1.688754829893089e+18,31.550088867187497,-0.0502492586771647,-9.38504950205485,-0.1692922115325928,1.688754829893089e+18,31.550088867187497,2.8229664961496987,-9.331899642944336,0.9418259263038636,1.6887548298930895e+18,31.55008947753906,0.6327800303697586,4.399222493171692,-3.4284812211990356,1.688754829888762e+18,31.545761881510415,0.5543093085289001,3.871918439865112,-3.150639295578003,1.6887548299147172e+18,31.57171728515625,0.0,0.0,5.558338165283203,17.40999984741211,0.3865942060947418,59.207427978515625,332.1000061035156,-122.9172335,49.2795379,1.6887548298880617e+18,31.545061621093748,-13.73963966369629,42.487718963623045,-15.777039718627927,1.6887548298880617e+18,31.545061621093748,-268.2682373046875,135.805517578125,-147.78103332519532,1.688754829893089e+18,31.550088867187497,-0.5596229434013367,0.3774276773134867,-0.4606769879659017,0.5746667583783468,-0.2731411606073379,1.2655213673909504,1.7440704504648843
1.6,1.6887548299449915e+18,31.601991373697917,-6.644617080688477,1.3409282366434734,-1.8460063338279724,1.6887548299449915e+18,31.601991373697917,-5.659224987030029,-8.412566343943277,-1.2482558091481526,1.6887548299449915e+18,31.601991373697917,0.979546050230662,-9.735989888509115,0.5350631276766459,1.688754829936342e+18,31.593342122395836,-0.6783658663431803,4.834540208180745,-3.79148785273234,1.6887548299406664e+18,31.597666259765628,-0.9267843663692474,4.615952332814534,-3.612809816996256,,,,,,,,,,,,1.688754829938064e+18,31.595064111328128,-8.622959995269776,44.654439544677736,-12.902719879150393,1.688754829938064e+18,31.595064111328128,-263.15155029296875,137.97223815917968,-144.9067169189453,1.6887548299449915e+18,31.601991373697917,-0.5730265776316324,0.5020556549231211,-0.4461271067460378,0.4679632484912872,-0.4996789594491322,1.4596926768620808,2.2319310108820596
1.65,1.688754829996899e+18,31.65389900716146,-3.4484198093414307,-3.8603652318318686,-1.5887367725372314,1.688754829996899e+18,31.65389900716146,-3.5338001946608224,-13.595021565755207,-0.2089731643597284,1.688754829996899e+18,31.65389900716146,-0.0912265107035636,-9.717151641845703,1.3170762062072756,1.6887548299882445e+18,31.645244384765626,-1.6675603191057842,0.016137013832728,-1.641802151997884,1.688754829992568e+18,31.649568359375,-1.4795665442943573,-0.423685908317566,-1.5692110061645508,,,,,,,,,,,,1.6887548299880635e+18,31.645063867187503,-4.662839937210083,44.31771850585937,-15.796559524536132,1.6887548299880635e+18,31.645063867187503,-259.1914367675781,137.6355194091797,-147.8005584716797,1.688754829996899e+18,31.65389900716146,-0.5795191526412964,0.5324251453081766,-0.4720999697844187,0.3969237705071767,-1.6537182331085205,1.4435463746388753,-2.814643383026123
1.7,1.688754830048804e+18,31.70580411783854,3.88918407758077,2.389244079589844,-0.1877078811327616,1.688754830048804e+18,31.70580411783854,2.9014969070752463,-7.290332476298015,1.2297114332516987,1.688754830048804e+18,31.70580411783854,-0.9935332338015238,-9.66207186381022,1.3547319173812866,1.68875483004015e+18,31.697150065104168,0.2692388519644736,-0.1899791012207667,-1.8931222359339397,1.6887548300444764e+18,31.701476399739587,0.3168354431788126,0.1990402738253275,-1.9266180992126465,,,,,,,,,,,,1.688754830038064e+18,31.6950640625,-0.0902799904346466,44.04443893432617,-17.26787986755371,1.688754830038064e+18,31.6950640625,-254.6188751220703,137.36223449707032,-149.271875,1.688754830048804e+18,31.70580411783854,-0.5482512513796488,0.5492470065752665,-0.500558614730835,0.3833068013191223,-2.246933380762736,1.4031824668248494,-2.2506345907847085
1.75,1.6887548300920527e+18,31.749052734375,0.122721791267395,2.6227798461914062,-0.83929643034935,1.6887548300920527e+18,31.749052734375,-1.4733805060386658,-6.98195743560791,0.5434698462486267,1.6887548300920527e+18,31.749052734375,-1.601948320865631,-9.58723258972168,1.3200788497924805,1.688754830092059e+18,31.749058837890622,0.2162462994456291,2.023592948913574,-1.623119831085205,1.6887548300963853e+18,31.75338517252604,0.1580613851547241,1.880904992421468,-1.5947655042012532,,,,,,,,,,,,1.6887548300880614e+18,31.74506147460938,3.2232398986816406,44.105438995361325,-16.41631965637207,1.6887548300880614e+18,31.74506147460938,-251.30535583496095,137.42323608398436,-148.42031860351562,1.6887548300920527e+18,31.749052734375,-0.5455430746078491,0.5894013047218323,-0.4861997961997986,0.3441994488239288,-2.50031054019928,1.3600879311561584,-1.9045989513397217
1.8,1.6887548301353126e+18,31.792312744140627,1.935382604598999,1.4161284764607749,-0.7517116864522299,1.6887548301353126e+18,31.792312744140627,-0.2315056094278892,-8.054839134216309,0.7623134056727091,1.6887548301353126e+18,31.792312744140627,-2.172734260559082,-9.453462918599447,1.4513376951217651,1.6887548301439608e+18,31.800960774739583,-0.5038620332876841,0.033241248379151,-1.4040737946828206,1.6887548301482929e+18,31.80529296875,-0.5443318486213684,-0.0085012083873152,-1.3866132100423176,,,,,,,,,,,,1.6887548301380616e+18,31.7950615234375,5.629079818725586,43.910238647460936,-16.87504005432129,1.6887548301380616e+18,31.7950615234375,-248.8995147705078,137.22803955078126,-148.87903747558593,1.6887548301353126e+18,31.792312744140627,-0.5356128215789795,0.6107630530993143,-0.4899091720581054,0.3161791265010834,-2.590634822845459,1.3022444248199463,-1.7766480048497515
1.85,1.6887548301872156e+18,31.84421541341146,4.231967608133952,-1.1253763834635415,-2.0976345936457315,1.6887548301872156e+18,31.84421541341146,1.4251253207524617,-10.378868103027344,-0.308474729458491,1.6887548301872156e+18,31.84421541341146,-2.812688191731771,-9.235987027486166,1.7264723777770996,1.6887548301958697e+18,31.852869791666667,-0.6312783161799113,0.0038688136264682,-1.2693271040916445,1.688754830200195e+18,31.857195475260415,-0.6214026610056559,0.0700458822151025,-1.1814133922259014,,,,,,,,,,,,1.6887548301880645e+18,31.845064355468747,8.679079818725587,42.84395904541016,-18.199959564208985,1.6887548301880645e+18,31.845064355468747,-245.84951477050785,136.16175842285156,-150.20396118164064,1.6887548301872156e+18,31.84421541341146,-0.5187059640884399,0.6207821170488993,-0.5101632674535116,0.2918922702471415,-2.621192693710327,1.228332241376241,-1.7470438083012898
1.9,1.6887548302391245e+18,31.896124430338546,3.1752497355143228,-4.391462326049805,-5.470510959625244,1.6887548302391245e+18,31.896124430338546,0.1471586227416993,-13.526028315226236,-3.431507110595703,1.6887548302391245e+18,31.896124430338546,-3.033937136332194,-9.117061297098797,1.976316253344218,1.6887548302477755e+18,31.90477530924479,0.0173078452547391,0.6510805288950602,0.099978276528418,1.688754830243451e+18,31.90045080566406,-0.154396191239357,0.7615198791027069,0.2008219547569751,,,,,,,,,,,,1.6887548302380595e+18,31.895059521484377,10.025959587097168,42.05095901489258,-19.695679092407225,1.6887548302380595e+18,31.895059521484377,-244.50263671875,135.3687530517578,-151.69967651367188,1.6887548302391245e+18,31.896124430338546,-0.5180946588516235,0.6248698433240255,-0.5161609053611755,0.2732428709665934,-2.5892883936564126,1.1932645241419475,-1.7611714998881025
1.95,1.68875483029103e+18,31.948030029296874,2.897616227467855,-6.028623263041179,-3.4551759560902915,1.68875483029103e+18,31.948030029296874,0.0671984255313872,-15.279967308044434,-1.6955142418543498,1.68875483029103e+18,31.948030029296874,-2.83626381556193,-9.233839670817057,1.696974277496338,1.6887548302996787e+18,31.95667862955729,1.1186979214350383,0.1155553435285885,1.2830715713401637,1.6887548302867034e+18,31.943703369140625,1.0230974555015564,0.1958841234445572,0.5572109334170818,,,,,,,,,,,,1.688754830288067e+18,31.945067041015623,8.344799709320068,42.18759994506836,-19.11739921569824,1.688754830288067e+18,31.945067041015623,-246.1837951660156,135.50539855957032,-151.12139892578125,1.68875483029103e+18,31.948030029296874,-0.5237942337989807,0.6316377917925516,-0.4976141850153605,0.2809341649214426,-2.6267576217651367,1.2266991138458252,-1.7007124026616414
2.0,1.6887548303429356e+18,31.999935546875,-0.6933062076568604,-4.568719228108724,1.4834338029225669,1.6887548303429356e+18,31.999935546875,-2.165105660756429,-14.189238866170248,2.7820551792780557,1.6887548303429356e+18,31.999935546875,-1.4776454369227092,-9.603014945983883,1.2359339793523152,1.6887548303429356e+18,31.999935424804683,0.7441102266311646,0.0886518247425555,3.888768076896667,1.688754830338607e+18,31.99560693359375,0.7772242029507955,0.0514144897460937,3.662544409434001,,,,,,,,,,,,1.6887548303380618e+18,31.995061621093747,3.6599999431520702,43.78335876464843,-16.62371997833252,1.6887548303380618e+18,31.995061621093747,-250.86859130859375,137.10115661621094,-148.62771911621093,1.6887548303429356e+18,31.999935546875,-0.5618271629015604,0.6059545079867045,-0.4581507742404938,0.3262815574804942,-2.4479684034983316,1.3716782331466677,-1.876616597175598
2.05,1.6887548303948408e+18,32.0518408203125,-2.093712011973063,-5.865084012349446,4.033567349116008,1.6887548303948408e+18,32.0518408203125,-1.7004992980509996,-15.616756757100424,5.149354378382365,1.6887548303948408e+18,32.0518408203125,0.3873667418956756,-9.73416805267334,1.0530996719996135,1.6887548303861896e+18,32.04318994140625,0.295506070057551,-0.6697628299395243,3.6642751693725586,1.6887548303905167e+18,32.047516764322914,0.2913827250401178,-0.6443101068337759,3.615100542704264,,,,,,,,,,,,1.6887548303880614e+18,32.045061230468754,-4.950759935379028,43.67599945068359,-16.10643939971924,1.6887548303880614e+18,32.045061230468754,-259.47935791015624,136.9937957763672,-148.11043701171874,1.6887548303948408e+18,32.0518408203125,-0.6095427672068278,0.5483962893486023,-0.4256892303625743,0.381939172744751,-1.2709253827730815,1.4544233878453572,-0.9943287372589112
2.1,1.6887548304467464e+18,32.10374633789062,-2.4188513358434043,-4.9626420338948565,8.11255693435669,1.6887548304467464e+18,32.10374633789062,-0.3246262470881144,-14.506487210591636,9.13918670018514,1.6887548304467464e+18,32.10374633789062,2.088379144668579,-9.52634080251058,0.9639418522516886,1.6887548304380948e+18,32.09509513346354,0.1772527315964301,0.2232712469995021,3.3777284622192383,1.6887548304424202e+18,32.09942041015625,0.1458949875086546,0.1716531217098236,3.336800495783488,1.688754830433772e+18,32.09077197265625,0.0,0.0,5.558338165283203,17.16200065612793,0.4291765987873077,66.97013092041016,332.1000061035156,-122.9171986,49.2795329,1.6887548304380636e+18,32.0950634765625,-12.52695960998535,42.595079803466795,-15.79411964416504,1.6887548304380636e+18,32.0950634765625,-267.05555419921876,135.91287841796876,-147.7981170654297,1.6887548304467464e+18,32.10374633789062,-0.6531597177187601,0.4947467943032582,-0.387991597255071,0.4213818808396657,-0.4206969241301219,1.3405934572219849,2.3340232372283936
2.15,1.68875483049865e+18,32.155649902343754,-2.898059924443563,-0.4312766393025717,-1.320544441541036,1.68875483049865e+18,32.155649902343754,0.400598332285881,-9.622138023376465,-0.195015013217926,1.68875483049865e+18,32.155649902343754,3.29281218846639,-9.173356691996256,1.0628420511881511,1.6887548304899976e+18,32.14699763997396,0.4192062666018804,-1.811317225297292,2.5349889596303306,1.688754830494328e+18,32.15132820638021,0.5317581792672476,-1.7235054274400077,2.525367816289266,,,,,,,,,,,,1.6887548304880612e+18,32.14506098632812,-17.607040023803712,40.61623916625977,-16.48951950073242,1.6887548304880612e+18,32.14506098632812,-272.13563842773436,133.9340362548828,-148.49351806640624,1.68875483049865e+18,32.155649902343754,-0.6686221361160278,0.4357535938421885,-0.3790302872657776,0.4678845902283986,-0.2941577186187107,1.215948502222697,2.127259890238444
2.2,1.688754830550555e+18,32.207554850260415,-11.443961461385092,8.667597134908041,-3.1891843477884927,1.688754830550555e+18,32.207554850260415,-6.969295422236125,-0.0159522046645482,-2.1334007581075034,1.688754830550555e+18,32.207554850260415,4.468820095062256,-8.66604487101237,0.9930961728096008,1.688754830541904e+18,32.19890437825521,0.8675304551919302,-2.282447119553884,3.0292298793792725,1.6887548305462323e+18,32.20323234049479,0.7519242018461227,-2.5664485096931458,3.107776959737142,,,,,,,,,,,,1.688754830538064e+18,32.195063720703125,-21.755039596557616,38.80575942993164,-16.10887966156006,1.688754830538064e+18,32.195063720703125,-276.28363647460935,132.1235565185547,-148.11287536621094,1.688754830550555e+18,32.207554850260415,-0.6683478752772013,0.373465488354365,-0.3647452592849731,0.5288785298665365,-0.2019412418206532,1.0887363354365032,1.9253011147181192
2.25,1.6887548305938097e+18,32.250809692382816,-4.780739068984985,9.468469142913818,-0.7794486284255981,1.6887548305938097e+18,32.250809692382816,0.5937191396951675,1.4120645057410002,0.9415757060050964,1.6887548305938097e+18,32.250809692382816,5.368612051010132,-8.038899898529053,1.658336877822876,1.6887548305938117e+18,32.25081201171875,-0.1985312054554621,-2.635119915008545,2.072920322418213,1.688754830598138e+18,32.25513818359375,-0.1679879426956176,-2.4988970359166465,1.7759380141894023,,,,,,,,,,,,1.688754830588065e+18,32.2450650390625,-24.636679458618165,35.96071929931641,-18.988079833984376,1.688754830588065e+18,32.2450650390625,-279.1652770996094,129.278515625,-150.99207763671876,1.6887548305938097e+18,32.250809692382816,-0.6665137112140656,0.2941630333662033,-0.3741999119520187,0.5735945701599121,-0.2867917567491531,0.9641588032245636,1.871030390262604
2.3,1.6887548306370632e+18,32.29406323242188,-3.224926153818766,6.783244927724202,1.87374210357666,1.6887548306370632e+18,32.29406323242188,2.086341917514801,-1.2340982655684154,3.952145258585612,1.6887548306370632e+18,32.29406323242188,5.3054219881693525,-7.999838670094808,2.015715758005778,1.6887548306457172e+18,32.302717366536456,0.8823439578215281,-0.5838853617509207,-1.1905763844648998,1.6887548306500403e+18,32.30704028320312,0.9687304695447286,-0.3615813354651133,-1.4084516366322837,,,,,,,,,,,,1.688754830638064e+18,32.29506376953125,-23.7119197845459,35.14331893920898,-21.13283920288086,1.688754830638064e+18,32.29506376953125,-278.2405151367187,128.46111602783202,-153.1368377685547,1.6887548306370632e+18,32.29406323242188,-0.6511125961939493,0.2709794342517853,-0.3948965668678283,0.5886998375256857,-0.3461008767286935,0.957793911298116,1.852402726809184
2.35,1.6887548306889715e+18,32.34597127278646,2.3315261205037436,5.3474014600118,0.5740487178166708,1.6887548306889715e+18,32.34597127278646,6.702495416005452,-3.3160534302393594,2.110070745150248,1.6887548306889715e+18,32.34597127278646,4.365123192469279,-8.645950317382812,1.4733346303304036,1.6887548306976225e+18,32.35462239583334,1.2794063488642375,0.724129835764567,-3.245476166407267,1.6887548306932982e+18,32.35029833984375,1.4933364391326904,0.7992407977581024,-3.443294644355774,,,,,,,,,,,,1.6887548306880622e+18,32.34506220703125,-19.834759521484376,38.234799194335935,-18.92707939147949,1.6887548306880622e+18,32.34506220703125,-274.3633544921875,131.55259399414064,-150.9310760498047,1.6887548306889715e+18,32.34597127278646,-0.6185826659202576,0.3227392335732778,-0.4156155387560526,0.5828983783721924,-0.2984775900840758,1.0851705074310305,1.810264229774475
2.4,1.6887548307408753e+18,32.397875162760414,9.678117434183756,-18.442781448364254,0.515027642250061,1.6887548307408753e+18,32.397875162760414,13.335200627644856,-27.47279421488444,1.8502501199642816,1.6887548307408753e+18,32.397875162760414,3.6512372493743896,-9.012507438659668,1.2725350856781006,1.6887548307495247e+18,32.40652473958334,-0.2298380434513092,-2.305456439654032,1.0744610652327538,1.6887548307365532e+18,32.393553385416666,-0.2373720606168111,-1.188794692357381,-0.053297996520996,,,,,,,,,,,,1.688754830738064e+18,32.3950638671875,-15.154839706420898,40.718719482421875,-16.779879760742187,1.688754830738064e+18,32.3950638671875,-269.6834350585938,134.03651733398436,-148.78387756347655,1.6887548307408753e+18,32.397875162760414,-0.5980642040570577,0.3519601821899413,-0.435534805059433,0.5730010668436686,-0.304774522781372,1.1693138281504314,1.8157737652460737
2.45,1.6887548307927785e+18,32.449778401692704,3.3178834915161133,5.530426979064941,3.469385027885437,1.6887548307927785e+18,32.449778401692704,7.280162930488586,-3.302892883618673,5.223133097092311,1.6887548307927785e+18,32.449778401692704,3.956433534622192,-8.815815289815268,1.691060463587443,1.6887548307927828e+18,32.44978283691406,0.7831292152404785,-1.9349919557571411,0.4435645341873168,1.6887548307884588e+18,32.44545882161459,0.7052948276201884,-2.2275200883547464,0.5790493488311768,,,,,,,,,,,,1.6887548307880617e+18,32.445061718750004,-14.598519706726076,40.10627975463867,-18.72211952209473,1.6887548307880617e+18,32.445061718750004,-269.1271179199219,133.42407836914063,-150.72611389160156,1.6887548307927785e+18,32.449778401692704,-0.5701020359992981,0.2949411372343699,-0.458709438641866,0.6143548488616943,-0.3776307602723439,1.119879961013794,1.7345785697301228
2.5,1.6887548308446892e+18,32.501689127604166,-8.960496743520102,-4.1469167073567705,1.497617522875468,1.6887548308446892e+18,32.501689127604166,-5.349753220876058,-13.155738830566406,3.105883677800497,1.6887548308446892e+18,32.501689127604166,3.6048971017201743,-8.991317431131998,1.5455785195032756,1.6887548308360397e+18,32.49303946940105,0.036499198526144,1.3045536279678345,-0.8303185850381852,1.6887548308403638e+18,32.497363769531255,0.0257581514209354,1.4016811847686768,-0.7497861807545027,,,,,,,,,,,,1.688754830838064e+18,32.49506401367187,-14.486279487609863,40.89439849853515,-19.57367935180664,1.688754830838064e+18,32.49506401367187,-269.01487426757814,134.2122009277344,-151.5776794433594,1.6887548308446892e+18,32.501689127604166,-0.5676921804745992,0.3171022733052571,-0.4633987247943878,0.601926585038503,-0.3726571400960286,1.1630280017852783,1.75882085164388
2.55,1.6887548308965967e+18,32.5535967610677,-3.857588291168213,1.3621034622192385,-0.4301493962605794,1.6887548308965967e+18,32.5535967610677,-0.8897312097251415,-7.93021297454834,0.7431708152095476,1.6887548308965967e+18,32.5535967610677,2.962010939915975,-9.27481174468994,1.1106327772140503,1.688754830887943e+18,32.54494270833333,0.2317215452591578,2.4294619957605996,-2.3219496409098306,1.6887548308922703e+18,32.54927010091146,0.2730567579468091,2.663067102432251,-2.60824187596639,,,,,,,,,,,,1.6887548308880617e+18,32.54506162109375,-13.856759643554687,41.445838165283206,-18.30487937927246,1.6887548308880617e+18,32.54506162109375,-268.3853454589844,134.76363525390624,-150.3088806152344,1.6887548308965967e+18,32.5535967610677,-0.5746250748634338,0.3746580779552459,-0.4558589955170949,0.5661925276120504,-0.3187610805034637,1.2462984720865886,1.8155934015909831
2.6,1.6887548309484997e+18,32.60549934895833,-6.426362037658691,2.6311450004577637,1.0287997722625732,1.6887548309484997e+18,32.60549934895833,-5.131607532501221,-7.072784900665283,1.8245272636413576,1.6887548309484997e+18,32.60549934895833,1.28890860080719,-9.68642520904541,0.7330400745073954,1.6887548309398446e+18,32.596844645182294,-0.5068145443995794,4.922148545583089,-3.739004294077555,1.688754830944174e+18,32.60117407226563,-0.6620252082745234,4.8894673983256025,-3.659948269526163,1.6887548309528143e+18,32.609814453125,0.0,0.0,5.568707466125488,16.886999130249023,0.473237931728363,72.91637420654297,332.1000061035156,-122.9171712,49.2795285,1.6887548309380623e+18,32.5950625,-8.586359786987305,43.590599060058594,-15.808759498596192,1.6887548309380623e+18,32.5950625,-263.1149536132813,136.9083984375,-147.81275634765626,1.6887548309484997e+18,32.60549934895833,-0.5858715176582336,0.4887934525807698,-0.4427744746208191,0.4689753452936808,-0.5004834532737732,1.424919327100118,2.2348382472991943
2.65,1.6887548310004047e+18,32.657404703776045,-5.433939337730408,-1.31903076171875,-2.4818175633748374,1.6887548310004047e+18,32.657404703776045,-5.3820563952128095,-11.058429718017578,-1.1407782038052876,1.6887548310004047e+18,32.657404703776045,0.0460368779798348,-9.72189426422119,1.2783519824345906,1.688754830991754e+18,32.648753743489586,-1.4255049228668213,1.5599461793899536,-2.1077396869659424,1.68875483099608e+18,32.653080078124994,-1.3565280834833782,1.0837767918904622,-1.986177404721578,,,,,,,,,,,,1.6887548309880655e+18,32.64506572265625,-5.031279802322388,43.84435958862305,-17.143439483642577,1.6887548309880655e+18,32.64506572265625,-259.55986938476565,137.1621551513672,-149.1474395751953,1.6887548310004047e+18,32.657404703776045,-0.5949354966481527,0.5451863010724386,-0.4501067101955414,0.3820761740207672,-1.542149027188619,1.4487680594126384,-0.7660820484161377
2.7,1.6887548310436577e+18,32.70065783691406,5.015141010284424,-0.8201479911804199,-0.7683567404747009,1.6887548310436577e+18,32.70065783691406,4.30797815322876,-10.509575843811035,0.7633104026317596,1.6887548310436577e+18,32.70065783691406,-0.7130089104175568,-9.67192316055298,1.4689797163009644,1.688754831043659e+18,32.7006591796875,0.0074321962893009,-0.8060366908709208,-1.743816653887431,1.688754831047986e+18,32.70498575846354,0.1094466795523961,-0.4833980003992716,-1.7881043752034504,,,,,,,,,,,,1.6887548310380636e+18,32.69506357421875,-0.8125199913978577,43.5051986694336,-18.634280014038087,1.6887548310380636e+18,32.69506357421875,-255.34111328125,136.8230010986328,-150.63827819824218,1.6887548310436577e+18,32.70065783691406,-0.5684651136398315,0.5519329011440277,-0.4833981692790985,0.3721281588077545,-2.0724315643310547,1.4108856320381165,-2.3734490871429443
2.75,1.6887548310869115e+18,32.74391121419271,1.812943200270335,2.0270296732584634,-0.4883296489715576,1.6887548310869115e+18,32.74391121419271,0.4432703951994578,-7.604589780171712,0.9447661638259888,1.6887548310869115e+18,32.74391121419271,-1.375518798828125,-9.61411476135254,1.3704084157943726,1.688754831095561e+18,32.75256103515625,0.4078543682893117,2.4355706373850503,-1.743358492851257,1.6887548310998856e+18,32.75688541666667,0.3802127142747243,2.4205535252889,-1.7137315670649211,,,,,,,,,,,,1.688754831088063e+18,32.745063037109375,2.727919960021973,43.67355880737305,-18.07307968139649,1.688754831088063e+18,32.745063037109375,-251.80067443847656,136.99136047363282,-150.07707824707032,1.6887548310869115e+18,32.74391121419271,-0.5582491159439087,0.5894035299619039,-0.4741622308890025,0.3400575915972392,-2.409698009490967,1.375037709871928,-1.9659688075383503
2.8,1.688754831138819e+18,32.7958193359375,1.2263372739156086,2.589033285776774,-0.808874249458313,1.688754831138819e+18,32.7958193359375,-0.8183453480402628,-6.91206693649292,0.6859424908955892,1.688754831138819e+18,32.7958193359375,-2.050528605779012,-9.483595530192057,1.4321293433507285,1.68875483114747e+18,32.80447021484375,-0.3696752861142158,0.6125960523883501,-1.4885768095652263,1.6887548311431498e+18,32.80014978027344,-0.2496148142963647,0.7611380964517593,-1.5554919838905334,,,,,,,,,,,,1.6887548311380616e+18,32.795061572265624,4.513999891281128,43.67599868774414,-18.075519943237303,1.6887548311380616e+18,32.795061572265624,-250.01459350585935,136.993798828125,-150.0795166015625,1.688754831138819e+18,32.7958193359375,-0.5531044602394104,0.6305086811383566,-0.4580553968747456,0.2942249377568562,-2.576110521952311,1.3137176434199016,-1.6978094975153606
2.85,1.6887548311907223e+18,32.847722249348955,3.6836867332458496,-1.7197246551513672,-2.3029783964157104,1.6887548311907223e+18,32.847722249348955,1.0159525573253632,-11.00698439280192,-0.4741776958107948,1.6887548311907223e+18,32.847722249348955,-2.6735802491505942,-9.269755045572916,1.76611324151357,1.6887548311993756e+18,32.85637581380208,-0.7668395042419434,-0.032172235349814,-1.2722286780675252,1.6887548311864005e+18,32.84340030924479,-0.8643743197123209,-0.1351030344764391,-1.273246804873149,,,,,,,,,,,,1.6887548311880635e+18,32.845063671874996,7.105279922485352,42.80003890991211,-19.744479370117187,1.6887548311880635e+18,32.845063671874996,-247.4233154296875,136.11783752441406,-151.74847717285155,1.6887548311907223e+18,32.847722249348955,-0.5377118984858195,0.6411880056063334,-0.4774627188841502,0.2677069008350372,-2.5928176244099936,1.2384789387385051,-1.6761397123336792
2.9,1.6887548312426263e+18,32.89962622070312,3.3684141635894775,-3.482993761698405,-4.9548812707265215,1.6887548312426263e+18,32.89962622070312,0.4177469611167907,-12.622737884521484,-2.8257240851720176,1.6887548312426263e+18,32.89962622070312,-2.9565131664276123,-9.122239430745443,2.06646994749705,1.68875483124263e+18,32.89963037109375,-0.3559817224740981,1.122693955898285,-0.0178678035736084,1.6887548312383058e+18,32.8953056640625,-0.3622430910666783,0.8965465823809305,-0.2735658039649327,,,,,,,,,,,,1.688754831238066e+18,32.895066015625005,8.513159942626952,41.96311874389649,-21.013279724121094,1.688754831238066e+18,32.895066015625005,-246.01543884277345,135.28091735839843,-153.01727600097655,1.6887548312426263e+18,32.89962622070312,-0.5355024536450704,0.6479832132657369,-0.4834209680557251,0.2441088606913883,-2.5612952709198,1.1945528984069824,-1.6826661427815754
2.95,1.6887548312945324e+18,32.95153214518229,0.820624828338623,-8.138622601826986,-4.37661874294281,1.6887548312945324e+18,32.95153214518229,-1.907478431860606,-17.395421981811523,-2.4851458022991815,1.6887548312945324e+18,32.95153214518229,-2.7339492638905845,-9.239295641581217,1.828785618146261,1.6887548312858885e+18,32.942888427734374,0.9628763596216836,0.060475654900074,0.386575885117054,1.688754831290202e+18,32.94720222981771,1.1041898429393768,-0.0242309818665186,0.4731660336256027,,,,,,,,,,,,1.6887548312880614e+18,32.945061328125,6.9539999008178714,41.95335922241211,-20.77659950256348,1.6887548312880614e+18,32.945061328125,-247.57459716796876,135.2711608886719,-152.78059997558594,1.6887548312945324e+18,32.95153214518229,-0.5431554714838663,0.6524398525555929,-0.4651550849278767,0.2505986591180165,-2.5834697087605796,1.2283226251602173,-1.6369871695836384
3.0,1.6887548313464402e+18,33.003440348307294,1.4583170413970947,-4.285293896993001,1.696573297182719,1.6887548313464402e+18,33.003440348307294,0.0458624164263407,-13.92283821105957,2.899104038874308,1.6887548313464402e+18,33.003440348307294,-1.4183006882667542,-9.620039621988932,1.1398433446884155,1.6887548313377884e+18,32.99478841145833,1.2982413570086162,0.168853332599004,3.588018814722697,1.6887548313421176e+18,32.99911767578125,1.1911872426668804,0.1932370389501253,3.8124608993530273,,,,,,,,,,,,1.6887548313380654e+18,32.995065283203125,3.5209198728203774,43.685759735107425,-17.902280044555663,1.6887548313380654e+18,32.995065283203125,-251.00767517089844,137.00355529785156,-149.90627746582032,1.6887548313464402e+18,33.003440348307294,-0.5776670376459757,0.6298644741376241,-0.4218115111192067,0.3010926743348439,-2.4709462324778237,1.3823638757069905,-1.7495209376017251
3.05,1.6887548313983475e+18,33.055347493489585,-2.148903807004293,-3.2915541330973306,2.6003357966740928,1.6887548313983475e+18,33.055347493489585,-1.662812312444051,-13.05324649810791,3.593421459197998,1.6887548313983475e+18,33.055347493489585,0.4802454921106497,-9.744187672932943,0.9303982655207316,1.6887548313896922e+18,33.0466923828125,0.2598213503758113,-0.0801760603984197,3.4802520275115967,1.6887548313940224e+18,33.0510224609375,0.2251038501660028,-0.0611883401870727,3.404606501261393,,,,,,,,,,,,1.6887548313880658e+18,33.0450658203125,-5.763279867172241,43.86143951416015,-16.740839767456055,1.6887548313880658e+18,33.0450658203125,-260.2918762207031,137.17923583984376,-148.74483947753907,1.6887548313983475e+18,33.055347493489585,-0.6323344906171163,0.5741972923278809,-0.3850966890652974,0.3487839301427205,-1.1678866346677144,1.4653662045796711,-0.972249190012614
3.1,1.6887548314502464e+18,33.10724650065104,-4.557305494944255,-5.09297529856364,8.979402701059977,1.6887548314502464e+18,33.10724650065104,-2.342573344707489,-14.612170219421388,9.961520195007324,1.6887548314502464e+18,33.10724650065104,2.20888614654541,-9.501690228780111,0.919429381688436,1.6887548314416013e+18,33.098601236979164,0.2027563552061716,-0.5874996334314346,3.695734739303589,1.6887548314459272e+18,33.10292724609375,0.1752674207091331,-0.8434521655241648,3.658828258514404,,,,,,,,,,,,1.6887548314380636e+18,33.095063671874996,-13.278479766845702,42.40231857299805,-16.557839965820314,1.6887548314380636e+18,33.095063671874996,-267.80707397460935,135.7201171875,-148.56183776855468,1.6887548314502464e+18,33.10724650065104,-0.6768399477005005,0.5122026105721792,-0.356754054625829,0.3892887930075328,-0.3803716798623403,1.3321551879247029,2.4012180964152017
3.15,1.6887548314935068e+18,33.1505068359375,-2.737281918525696,0.1498634815216064,0.6159389019012451,1.6887548314935068e+18,33.1505068359375,0.5222334861755371,-9.028418779373167,1.9755742348497731,1.6887548314935068e+18,33.1505068359375,3.253669500350952,-9.16077756881714,1.2969478368759155,1.6887548314935104e+18,33.15051049804688,0.0095702211062113,-2.9090930620829263,2.7928250630696616,1.6887548314978324e+18,33.15483235677083,0.0813468930621942,-2.7471118768056235,2.8107945919036865,1.6887548314718843e+18,33.12888427734375,0.0,0.0,5.568707466125488,16.375999450683594,0.5167383551597595,78.43135833740234,332.1000061035156,-122.9171427,49.279522,1.6887548314880622e+18,33.14506225585937,-19.720079803466795,39.38160018920898,-18.504959869384766,1.6887548314880622e+18,33.14506225585937,-274.24867553710936,132.69939880371095,-150.5089538574219,1.6887548314935068e+18,33.1505068359375,-0.6869482100009918,0.4443879127502441,-0.3720545172691345,0.4379918128252029,-0.3565205782651901,1.2133814692497251,2.2552719116210938
3.2,1.6887548315367626e+18,33.193762532552086,-6.953457355499268,4.015458424886067,-4.559995651245117,1.6887548315367626e+18,33.193762532552086,-2.6705894072850547,-4.74137806892395,-3.2967114448547363,1.6887548315367626e+18,33.193762532552086,4.277022043863933,-8.73933188120524,1.2005968888600669,1.6887548315454085e+18,33.2024082845052,1.188998281955719,-1.2880602677663169,2.628654956817627,1.688754831549734e+18,33.206733805338544,1.1643600662549336,-1.540194923679034,2.5773932139078775,,,,,,,,,,,,1.6887548315380618e+18,33.19506186523438,-23.34347915649414,36.692719268798825,-19.156439590454102,1.6887548315380618e+18,33.19506186523438,-277.8720764160156,130.0105194091797,-151.16043701171876,1.6887548315367626e+18,33.193762532552086,-0.693387508392334,0.3942758043607076,-0.3573999206225077,0.4853549698988597,-0.2584811548391978,1.1057896216710408,2.0816050370534263
3.25,1.6887548315886666e+18,33.24566682942709,-7.046089331309001,7.534939606984456,-2.904364307721456,1.6887548315886666e+18,33.24566682942709,-1.935394652187824,-0.7339983383814493,-1.4223336378733318,1.6887548315886666e+18,33.24566682942709,5.104848543802897,-8.251433372497559,1.41934335231781,1.6887548315973143e+18,33.254314453125,0.4190535595019658,-2.9475266138712564,1.679014007250468,1.6887548315929933e+18,33.24999328613281,0.2509892582893371,-3.093879818916321,1.9608774781227112,,,,,,,,,,,,1.6887548315880596e+18,33.2450595703125,-24.56103973388672,34.8822380065918,-20.686319732666018,1.6887548315880596e+18,33.2450595703125,-279.0896423339844,128.20003967285157,-152.69031677246093,1.6887548315886666e+18,33.24566682942709,-0.6809667746225992,0.3290149370829264,-0.3629723091920216,0.5437187552452087,-0.2570704768101374,1.0036454598108928,1.935377597808838
3.3,1.6887548316405686e+18,33.29756860351562,-1.7803367773691814,9.122366905212402,2.2990909417470298,1.6887548316405686e+18,33.29756860351562,3.4021950165430703,0.9467601627111436,4.053042650222778,1.6887548316405686e+18,33.29756860351562,5.176685810089111,-8.1581023534139,1.691264311472575,1.688754831649223e+18,33.306223063151045,1.1969395875930786,-0.6768895785013834,-1.1365147531032562,1.6887548316362478e+18,33.29324780273438,1.095230499903361,-1.319418042898178,-0.3777692715326945,,,,,,,,,,,,1.6887548316380585e+18,33.29505859375,-24.046199798583984,34.53575973510742,-22.423599624633788,1.6887548316380585e+18,33.29505859375,-278.5747924804688,127.85355682373049,-154.42759704589844,1.6887548316405686e+18,33.29756860351562,-0.6549160877863566,0.2955982585748036,-0.38580122590065,0.5785563588142395,-0.2999065220355987,0.9857714772224426,1.8562767903010051
3.35,1.6887548316924795e+18,33.34947941080729,2.500002066294352,4.6026506423950195,0.5760054190953573,1.6887548316924795e+18,33.34947941080729,6.662814617156982,-4.197210470835368,1.8941185077031453,1.6887548316924795e+18,33.34947941080729,4.15696652730306,-8.78235658009847,1.2554256916046145,1.6887548316924777e+18,33.34947766113281,1.0580186247825625,0.0116064399480819,-3.5891387462615967,1.688754831688153e+18,33.3451533203125,1.0366892417271931,0.0532979915539423,-3.255504528681437,,,,,,,,,,,,1.6887548316880635e+18,33.345063867187505,-19.315039825439452,37.67359924316406,-20.73999938964844,1.6887548316880635e+18,33.345063867187505,-273.8436340332031,130.99139404296875,-152.7439971923828,1.6887548316924795e+18,33.34947941080729,-0.6178025007247925,0.3420824905236562,-0.413256824016571,0.5743418534596761,-0.2713497877120971,1.1151049931844077,1.8136938015619912
3.4,1.6887548317443817e+18,33.40138151041666,8.405375480651855,-17.379773139953613,3.1620215574900308,1.6887548317443817e+18,33.40138151041666,12.024930636088053,-26.3469721476237,4.944169839223226,1.6887548317443817e+18,33.40138151041666,3.613708893458048,-8.949694315592447,1.7194608847300212,1.688754831735729e+18,33.39272867838542,-0.7825183868408203,-2.720590114593506,0.369013508160909,1.6887548317400553e+18,33.39705509440105,-0.7808894018332163,-2.9447268644968667,0.75049889087677,,,,,,,,,,,,1.6887548317380598e+18,33.39505981445312,-14.486279678344726,38.89115905761719,-21.34755935668945,1.6887548317380598e+18,33.39505981445312,-269.01487426757814,132.20895690917968,-153.3515594482422,1.6887548317443817e+18,33.40138151041666,-0.5943230787913004,0.3274759352207184,-0.4554914037386576,0.5754040877024332,-0.4168647726376851,1.1537925004959106,1.8758829832077024
3.45,1.6887548317962888e+18,33.45328873697917,-1.7831427256266277,2.9073756535847983,6.66169015566508,1.6887548317962888e+18,33.45328873697917,2.031705856323242,-5.89810832341512,8.844071706136068,1.6887548317962888e+18,33.45328873697917,3.8090025583902993,-8.787979443868002,2.1196937561035156,1.688754831787634e+18,33.44463411458333,0.5022330482800802,-1.328224688768387,0.3587815165519715,1.6887548317919642e+18,33.44896419270833,0.4837543616692225,-0.8978191614151001,0.1508837143580118,,,,,,,,,,,,1.6887548317880612e+18,33.44506123046875,-13.568839836120606,37.976158905029294,-24.187719345092773,1.6887548317880612e+18,33.44506123046875,-268.09743041992186,131.29395751953126,-156.19171752929688,1.6887548317962888e+18,33.45328873697917,-0.5717417597770691,0.2793696026007334,-0.4762219885985055,0.6068232456843058,-0.484665960073471,1.1139723459879558,1.8167702356974285
3.5,1.688754831848194e+18,33.505194091796874,-5.57561469078064,-2.4117555618286133,-1.7994847297668457,1.688754831848194e+18,33.505194091796874,-1.9896320899327595,-11.31127134958903,0.3870390256245931,1.688754831848194e+18,33.505194091796874,3.580136855443319,-8.88201109568278,2.1238364378611245,1.688754831839536e+18,33.4965361328125,-0.4049018509685993,0.4921028688549995,-0.5948809186617533,1.6887548318438728e+18,33.50087280273437,-0.4657338497539361,0.4278092881043752,-0.6506733198960623,,,,,,,,,,,,1.6887548318380618e+18,33.495061669921874,-12.58307991027832,38.16647872924805,-23.946159744262697,1.6887548318380618e+18,33.495061669921874,-267.11167602539064,131.4842742919922,-155.95015563964844,1.688754831848194e+18,33.505194091796874,-0.5748853882153829,0.292445957660675,-0.4806036750475564,0.5940786202748617,-0.5102759997049967,1.1367356379826865,1.8683293263117473
3.55,1.6887548319000955e+18,33.557095703125,-3.5420291423797607,-0.2035382588704427,-2.151886463165283,1.6887548319000955e+18,33.557095703125,-0.7828518350919088,-9.466405232747396,-0.3736791610717773,1.6887548319000955e+18,33.557095703125,2.7533313433329263,-9.245362281799316,1.715519944826762,1.6887548318914478e+18,33.54844791666667,0.2631811002890269,3.7118717432022095,-2.893617788950602,1.6887548318957714e+18,33.55277156575521,0.3356704538067181,4.1099012692769366,-3.1117985248565674,,,,,,,,,,,,1.6887548318880602e+18,33.54506020507812,-11.560719871520996,38.02983932495117,-23.563079833984375,1.6887548318880602e+18,33.54506020507812,-266.0893127441406,131.34763793945314,-155.56707763671875,1.6887548319000955e+18,33.557095703125,-0.5871560573577881,0.3637860814730326,-0.4752267599105835,0.5432209968566895,-0.527850608030955,1.2388789653778076,2.029814680417379
3.6,1.688754831943344e+18,33.600344116210934,-7.388502597808838,1.9785773754119873,-0.752284586429596,1.688754831943344e+18,33.600344116210934,-6.111567974090576,-7.683353662490845,0.5347958318889141,1.688754831943344e+18,33.600344116210934,1.2710885405540466,-9.644426345825195,1.224393010139465,1.688754831943351e+18,33.60035083007812,-0.585768848657608,4.942612648010254,-4.1731767654418945,1.6887548319476744e+18,33.60467431640625,-0.7132360811034838,4.666450421015422,-3.980397939682007,,,,,,,,,,,,1.6887548319380577e+18,33.59505771484375,-9.250039863586426,40.169718170166014,-21.00839958190918,1.6887548319380577e+18,33.59505771484375,-263.7786437988281,133.48751831054688,-153.01239624023438,1.688754831943344e+18,33.600344116210934,-0.5999800264835358,0.478837251663208,-0.4547580033540725,0.4506731182336807,-0.754233717918396,1.3968786597251892,2.499303936958313
3.65,1.688754831986607e+18,33.64360701497396,-5.657201051712036,-1.6404008865356443,-2.4368077913920088,1.688754831986607e+18,33.64360701497396,-5.363711476325989,-11.33958657582601,-0.8358926971753439,1.688754831986607e+18,33.64360701497396,0.287643652409315,-9.681680997212728,1.538227637608846,1.688754831995259e+18,33.652258707682286,-0.6853908101717631,-1.1977031230926514,-1.363603949546814,1.6887548319995863e+18,33.656586263020834,-0.5694282092154026,-1.6496925354003906,-1.320130705833435,1.6887548319909363e+18,33.64793627929687,0.0,0.0,5.578296661376953,15.871999740600586,0.5593605041503906,82.84344482421875,332.1000061035156,-122.9171205,49.2795165,1.6887548319880627e+18,33.645062695312504,-6.378159904479981,40.2843994140625,-21.408559799194336,1.6887548319880627e+18,33.645062695312504,-260.90675659179686,133.602197265625,-153.41255798339844,1.688754831986607e+18,33.64360701497396,-0.6008318662643433,0.5227012634277344,-0.4622664054234822,0.389748881260554,-1.3900525569915771,1.4183910687764485,-0.9547775586446128
3.7,1.6887548320385088e+18,33.6955087890625,7.111741383870442,1.4896365801493328,0.301875631014506,1.6887548320385088e+18,33.6955087890625,6.54018251101176,-8.191429615020752,1.934597094853719,1.6887548320385088e+18,33.6955087890625,-0.5774049758911133,-9.663561503092447,1.5700340668360393,1.6887548320471616e+18,33.70416178385417,0.5687155425548553,0.8862636884053549,-1.753997762997945,1.68875483204284e+18,33.69983996582031,0.5694027543067932,0.3848451375961303,-1.819614827632904,,,,,,,,,,,,1.6887548320380572e+18,33.69505717773438,-1.6787199467420575,40.30147933959961,-22.423599624633788,1.6887548320380572e+18,33.69505717773438,-256.2073150634766,133.61927795410156,-154.42759399414064,1.6887548320385088e+18,33.6955087890625,-0.5620415210723877,0.5279398957888285,-0.5019459426403046,0.3914404213428497,-1.9565664529800415,1.4052549203236897,-2.558223088582357
3.75,1.6887548320904205e+18,33.74742049153646,-1.397629201412201,2.317847569783529,-0.5057527820269266,1.6887548320904205e+18,33.74742049153646,-2.4963121811548867,-7.347959518432617,0.9413763086001078,1.6887548320904205e+18,33.74742049153646,-1.1045289635658264,-9.64830239613851,1.3844416936238606,1.6887548320990671e+18,33.756067057291666,0.485637883345286,2.589203198750814,-1.1676179965337117,1.6887548320860923e+18,33.743092692057296,0.6125451227029165,3.243083635965983,-1.215927243232727,,,,,,,,,,,,1.6887548320880622e+18,33.74506220703125,-0.3733199894428253,40.60403900146484,-21.45004005432129,1.6887548320880622e+18,33.74506220703125,-254.90191345214845,133.92183837890624,-153.45403442382812,1.6887548320904205e+18,33.74742049153646,-0.568418284257253,0.5817350149154663,-0.4685554802417755,0.3441082139809926,-2.2906986077626548,1.3930684725443525,-2.0811304251352944
3.8,1.6887548321423148e+18,33.79931477864583,1.0050830443700154,1.6355948448181152,-1.35412859916687,1.6887548321423148e+18,33.79931477864583,-0.6869395148629943,-7.939385573069255,0.1102692435185114,1.6887548321423148e+18,33.79931477864583,-1.697868585586548,-9.557475725809732,1.4017104307810466,1.6887548321423163e+18,33.79931628417969,-0.3627012372016907,-0.0689514168770983,-1.509829819202423,1.68875483213799e+18,33.79498982747396,-0.245618720849355,0.197462186217308,-1.4590516090393066,,,,,,,,,,,,1.6887548321380562e+18,33.79505615234375,0.8979199647903442,40.75287857055664,-20.37643928527832,1.6887548321380562e+18,33.79505615234375,-253.63067626953125,134.0706787109375,-152.38043518066405,1.6887548321423148e+18,33.79931477864583,-0.5602606336275736,0.6128531297047933,-0.461623082558314,0.3119470377763112,-2.488585948944092,1.3458086649576824,-1.818940043449402
3.85,1.6887548321942208e+18,33.85122078450521,3.539003849029541,-0.936486562093099,-2.103580673535665,1.6887548321942208e+18,33.85122078450521,1.141575773557027,-10.31864865620931,-0.3944169363627832,1.6887548321942208e+18,33.85122078450521,-2.403274138768514,-9.364657402038574,1.6464763879776,1.68875483218557e+18,33.84256990559896,-0.6021604140599569,-0.184023148069779,-1.5188655455907183,1.6887548321898995e+18,33.84689933268229,-0.6063855687777201,-0.192168024679025,-1.5303701559702556,,,,,,,,,,,,1.6887548321880566e+18,33.84505654296875,4.204119920730591,40.18435897827148,-21.550079345703125,1.6887548321880566e+18,33.84505654296875,-250.32447509765623,133.5021545410156,-153.5540771484375,1.6887548321942208e+18,33.85122078450521,-0.5400259494781494,0.6253684361775717,-0.4831972122192383,0.2892561157544454,-2.5692317485809326,1.2699329058329265,-1.743043382962545
3.9,1.6887548322461276e+18,33.90312768554687,2.653726061185201,-4.658009211222331,-5.67750342686971,1.6887548322461276e+18,33.90312768554687,-0.0478564302126566,-13.91007645924886,-3.7112680276234946,1.6887548322461276e+18,33.90312768554687,-2.707428455352783,-9.234562873840332,1.9035480817159016,1.6887548322374748e+18,33.89447493489583,-0.5472334325313568,0.3487022308011849,-0.2647082656621933,1.688754832241802e+18,33.8988017578125,-0.4861978242794673,0.3649410804112752,-0.1229875460267067,,,,,,,,,,,,1.688754832238056e+18,33.89505610351562,6.014599895477295,39.025359344482425,-22.772519302368163,1.688754832238056e+18,33.89505610351562,-248.5139953613281,132.34315490722656,-154.77651672363282,1.6887548322461276e+18,33.90312768554687,-0.5348960359891256,0.629106601079305,-0.4942352374394734,0.2717066407203674,-2.5532491207122803,1.2272998094558716,-1.7523348331451416
3.95,1.688754832298032e+18,33.95503190104167,4.214467525482178,-5.681982358296712,-3.1811721324920654,1.688754832298032e+18,33.95503190104167,1.6632110973199208,-15.029718081156412,-1.5070794423421223,1.688754832298032e+18,33.95503190104167,-2.557102600733439,-9.330231348673502,1.6114052534103394,1.6887548322893816e+18,33.94638151041667,0.9320276379585266,-0.107715904712677,0.3192789057890574,1.6887548322937078e+18,33.950707682291664,0.9956085284550984,-0.0889317989349365,0.5072217937558889,,,,,,,,,,,,1.6887548322880594e+18,33.945059375,5.555879878997803,39.010719299316406,-23.001879501342778,1.6887548322880594e+18,33.945059375,-248.97271423339845,132.32851867675782,-155.00587768554686,1.688754832298032e+18,33.95503190104167,-0.5357764760653178,0.6321873664855957,-0.4822243650754292,0.2839319308598836,-2.6052049001057944,1.257564942042033,-1.6975208123524983
4.0,1.6887548323499356e+18,34.00693538411458,-0.7739839553833008,-3.16288693745931,0.9443896214167276,1.6887548323499356e+18,34.00693538411458,-1.9156539340813952,-12.836097399393717,2.1910279194513955,1.6887548323499356e+18,34.00693538411458,-1.1475159525871277,-9.655705769856771,1.183950901031494,1.6887548323412856e+18,33.99828556315104,0.797230045000712,0.0035124768813451,3.596316337585449,1.6887548323456123e+18,34.002612223307295,0.756403903166453,-0.0502436632911364,3.6855026880900064,,,,,,,,,,,,1.6887548323380557e+18,33.99505581054687,1.2151199579238892,40.189239501953125,-21.101119613647462,1.6887548323380557e+18,33.99505581054687,-253.3134765625,133.5070373535156,-153.10512084960936,1.6887548323499356e+18,34.00693538411458,-0.5751169323921204,0.6024701396624247,-0.4439928233623504,0.3292148907979329,-2.334628184636434,1.4008880058924358,-1.9689627091089883
4.05,1.6887548323931932e+18,34.05019323730468,-3.0562243461608887,-6.602333068847656,3.735875487327576,1.6887548323931932e+18,34.05019323730468,-2.731407046318054,-16.372889518737793,4.764708042144775,1.6887548323931932e+18,34.05019323730468,0.3189711943268776,-9.753052234649658,0.9661451280117034,1.6887548323931914e+18,34.050191324869786,0.4363104999065399,-0.2299398630857467,3.4778085549672446,1.688754832397517e+18,34.05451717122396,0.4238386650880177,-0.1763364324967066,3.5017851193745932,,,,,,,,,,,,1.6887548323880563e+18,34.04505629882813,-5.99751992225647,40.369799041748045,-20.400839614868165,1.6887548323880563e+18,34.04505629882813,-260.5261169433594,133.68759460449218,-152.40484008789062,1.6887548323931932e+18,34.05019323730468,-0.6127728223800659,0.5595876574516296,-0.4151380062103271,0.3725881427526474,-1.282282471656799,1.4703549146652222,0.099028468132019
4.1,1.688754832436453e+18,34.093453043619796,-2.7779849767684937,-4.873409589131673,6.939476490020752,1.688754832436453e+18,34.093453043619796,-0.912662404278914,-14.466806411743164,7.904689470926921,1.688754832436453e+18,34.093453043619796,1.8594764471054075,-9.575892130533854,0.9025254845619202,1.6887548324451123e+18,34.1021123046875,-0.1230893482764561,-1.082809578627348,3.5822665691375732,1.6887548324494344e+18,34.106434407552086,-0.1779145002365112,-1.2941180417935054,3.45093043645223,,,,,,,,,,,,1.6887548324380652e+18,34.095065234375,-13.058879852294922,39.17907867431641,-20.34959945678711,1.6887548324380652e+18,34.095065234375,-267.5874755859375,132.49687805175782,-152.35359802246094,1.688754832436453e+18,34.093453043619796,-0.6516594489415487,0.5084729492664337,-0.3847150206565857,0.4099245965480804,-0.4505744775136311,1.3637530008951824,2.39101775487264
4.15,1.6887548324883615e+18,34.145361653645836,-1.1705567439397175,-3.829350153605143,0.8467738628387451,1.6887548324883615e+18,34.145361653645836,2.0063818097114563,-13.05743408203125,2.028316020965576,1.6887548324883615e+18,34.145361653645836,3.1710925102233887,-9.21057923634847,1.1188548008600872,1.6887548324970117e+18,34.15401163736979,0.87470809618632,-0.778802290558815,2.2972096602121987,1.688754832492688e+18,34.14968798828125,0.7388415336608887,-0.9095783531665802,2.3095288276672363,1.6887548324998252e+18,34.1568251953125,0.0,0.0,5.578296661376953,15.130000114440918,0.6088199615478516,87.28465270996094,332.1000061035156,-122.9170978,49.2795003,1.688754832488064e+18,34.14506396484375,-17.546039962768553,37.01967926025391,-21.36952018737793,1.688754832488064e+18,34.14506396484375,-272.0746337890625,130.3374755859375,-153.3735137939453,1.6887548324883615e+18,34.145361653645836,-0.6720126668612162,0.4422912299633026,-0.3794446090857188,0.4565733770529429,-0.3238336046536763,1.225864052772522,2.1780529022216797
4.2,1.6887548325402634e+18,34.19726359049479,-10.401530901590982,5.07625166575114,-2.1762810150782266,1.6887548325402634e+18,34.19726359049479,-6.237689812978108,-3.796213080485662,-1.441077431042989,1.6887548325402634e+18,34.19726359049479,4.157995223999023,-8.854960123697916,0.6725162665049235,1.688754832548919e+18,34.2059189453125,1.219439725081126,-2.23841392993927,2.4978788693745932,1.6887548325359355e+18,34.192935709635414,1.4503976901372273,-1.4487178263564904,2.3537656466166177,,,,,,,,,,,,1.688754832538064e+18,34.19506411132812,-20.50819969177246,36.119319152832034,-20.05923957824707,1.688754832538064e+18,34.19506411132812,-275.0367919921875,129.43711547851564,-152.06323852539063,1.6887548325402634e+18,34.19726359049479,-0.6710519393285116,0.4051539401213327,-0.353201687335968,0.5100946327050527,-0.1454534580310185,1.1302550633748372,1.9348079760869343
4.25,1.6887548325921702e+18,34.249170166015624,-6.6460598309834795,11.25854460398356,-0.6809361775716146,1.6887548325921702e+18,34.249170166015624,-1.548555056254069,2.9373892148335776,0.4963112721840541,1.6887548325921702e+18,34.249170166015624,5.091658592224121,-8.303651173909506,1.1145600875218709,1.6887548325921723e+18,34.249172485351565,-0.0794888429809361,-3.255529999732971,2.1629210710525513,1.688754832587848e+18,34.244847900390624,0.1102611695726712,-3.1523191928863525,2.234188755353292,,,,,,,,,,,,1.6887548325880635e+18,34.2450634765625,-22.00391960144043,34.60895919799805,-20.981559371948244,1.6887548325880635e+18,34.2450634765625,-276.53251953125,127.9267578125,-152.98555603027344,1.6887548325921702e+18,34.249170166015624,-0.658960779507955,0.3281956911087035,-0.3641583919525146,0.569855531056722,-0.2006593247254689,1.0125961502393086,1.826581954956055
4.3,1.6887548326440778e+18,34.30107796223958,-2.8989995320638022,8.962048530578613,1.610563596089681,1.6887548326440778e+18,34.30107796223958,2.1665014823277793,0.6963113968571027,3.2727831999460855,1.6887548326440778e+18,34.30107796223958,5.0596550305684405,-8.24823252360026,1.5995322068532307,1.6887548326354196e+18,34.29241967773438,0.6540839572747549,-1.563611368338267,-0.6361652513345083,1.68875483263975e+18,34.29674983723958,0.7165958484013876,-1.3398311038812,-0.8808167725801468,,,,,,,,,,,,1.6887548326380582e+18,34.29505834960938,-21.023039627075196,33.57195892333984,-23.724119186401367,1.6887548326380582e+18,34.29505834960938,-275.5516357421875,126.88975524902344,-155.72812194824218,1.6887548326440778e+18,34.30107796223958,-0.635975182056427,0.292844404776891,-0.3951702415943145,0.5945227146148682,-0.2906706134478251,1.0019089778264365,1.7980695962905884
4.35,1.68875483269598e+18,34.352979899088545,0.5743169784545898,5.804581165313721,-0.1972830494244893,1.68875483269598e+18,34.352979899088545,4.60558541615804,-3.0618159969647727,1.1090733110904696,1.68875483269598e+18,34.352979899088545,4.02542249361674,-8.848892529805502,1.2436689535776777,1.6887548326873324e+18,34.34433243815104,0.9677632649739584,0.2281581660111745,-2.8639398415883384,1.688754832691655e+18,34.34865486653646,0.9324857989947,0.239204650123914,-2.923702875773112,,,,,,,,,,,,1.688754832688064e+18,34.345063916015626,-16.718880081176756,35.667919921875,-22.93843994140625,1.688754832688064e+18,34.345063916015626,-271.2474792480469,128.9857177734375,-154.942431640625,1.68875483269598e+18,34.352979899088545,-0.602970023949941,0.3378410140673318,-0.4245578547318776,0.5844350059827169,-0.277573694785436,1.129268209139506,1.7784461975097656
4.4,1.688754832747889e+18,34.40488891601563,11.36122226715088,-22.32824198404948,3.337624510129293,1.688754832747889e+18,34.40488891601563,15.20559056599935,-31.216365178426106,5.017150799433391,1.688754832747889e+18,34.40488891601563,3.8385223547617593,-8.870618184407553,1.6168390115102131,1.688754832739238e+18,34.39623795572916,-0.7618507842222849,-2.6250406354665756,0.9952012697855632,1.6887548327435643e+18,34.40056437174479,-0.8754208236932755,-2.964630901813507,1.3596842139959335,,,,,,,,,,,,1.6887548327380598e+18,34.395059619140625,-12.741679382324218,37.20024032592774,-22.89695930480957,1.6887548327380598e+18,34.395059619140625,-267.27027587890626,130.51803588867188,-154.90096130371094,1.688754832747889e+18,34.40488891601563,-0.5891075332959493,0.3173439403374989,-0.4495489696661631,0.5906365513801575,-0.371949831644694,1.1337867577870686,1.8053410053253176
4.45,1.6887548327997908e+18,34.456790690104164,2.2578888734181723,16.665778001149494,1.1506516138712566,1.6887548327997908e+18,34.456790690104164,6.335795481999715,7.99382217725118,3.3928230702877045,1.6887548327997908e+18,34.456790690104164,4.072060585021973,-8.654451688130697,2.1794840494791665,1.688754832791137e+18,34.44813696289062,0.8948157628377279,-2.489072243372599,0.7528405245393515,1.688754832795459e+18,34.452459309895836,1.0483974814414978,-2.1185316244761148,0.5626578132311504,,,,,,,,,,,,1.6887548327880607e+18,34.44506044921875,-10.950720024108888,36.03880004882812,-25.336959838867188,1.6887548327880607e+18,34.44506044921875,-265.47930908203125,129.35659790039062,-157.34095764160156,1.6887548327997908e+18,34.456790690104164,-0.5562310417493185,0.2517146418491999,-0.4772933920224507,0.6318224867184957,-0.4714161256949107,1.082943360010783,1.7305755615234375
4.5,1.6887548328430523e+18,34.500052490234374,-17.634767532348633,-12.98719310760498,10.446561813354492,1.6887548328430523e+18,34.500052490234374,-14.30608892440796,-22.046271324157715,12.340683937072754,1.6887548328430523e+18,34.500052490234374,3.322831869125366,-9.041574478149414,1.8314343690872192,1.6887548328430495e+18,34.50004988606771,0.4771366653343041,3.0943889021873474,-2.1343121776978173,1.6887548328473754e+18,34.50437532552083,0.3244203502933184,3.442327479521434,-2.050674577554067,,,,,,,,,,,,1.6887548328380626e+18,34.4950625,-8.344799900054932,37.51499938964844,-24.39511909484863,1.6887548328380626e+18,34.4950625,-262.87339477539064,130.83280029296876,-156.39911499023438,1.6887548328430523e+18,34.500052490234374,-0.5380314886569977,0.2891480177640915,-0.4954310953617096,0.617215096950531,-0.4783484190702438,1.1762299537658691,1.7568209171295166
4.55,1.688754832886304e+18,34.543304199218746,-5.410333077112834,-5.562995274861653,-3.827777425448099,1.688754832886304e+18,34.543304199218746,-2.338186581929525,-14.786048571268717,-2.336192488670349,1.688754832886304e+18,34.543304199218746,3.066300392150879,-9.205548922220864,1.428897539774577,1.6887548328949532e+18,34.55195328776042,-0.5205080956220628,2.2976678212483725,-1.8638516267140703,1.688754832899281e+18,34.55628084309896,-0.4387539625167846,2.1506529251734414,-2.1805344025293985,,,,,,,,,,,,1.6887548328880622e+18,34.545062109374996,-9.25492000579834,37.70531997680664,-23.0018798828125,1.6887548328880622e+18,34.545062109374996,-263.78351440429685,131.0231201171875,-155.00587463378906,1.688754832886304e+18,34.543304199218746,-0.5750284790992737,0.3528066873550415,-0.4676820337772369,0.5707147717475891,-0.4100493987401326,1.2222864627838137,1.8684484163920083
4.6,1.688754832938209e+18,34.59520890299479,-4.478804747263591,1.5238337516784668,-0.9307757914066316,1.688754832938209e+18,34.59520890299479,-2.799203703800837,-8.083154519399008,0.2053839477399984,1.688754832938209e+18,34.59520890299479,1.6737550497055054,-9.589483578999838,1.0734723210334778,1.6887548329468562e+18,34.603856445312495,-0.0426078637440999,4.7267734209696455,-4.144567966461182,1.6887548329425372e+18,34.599537109375,0.2381610907614231,4.8769190311431885,-4.384103536605835,,,,,,,,,,,,1.6887548329380616e+18,34.595061669921876,-6.914959907531738,38.79111862182617,-21.935599899291994,1.6887548329380616e+18,34.595061669921876,-261.44354858398435,132.10892028808593,-153.9395965576172,1.688754832938209e+18,34.59520890299479,-0.5775532722473145,0.4420853654543558,-0.467391421397527,0.5003323256969452,-0.5573025147120158,1.3717416922251384,2.1801339785257974
4.65,1.688754832990111e+18,34.64711083984375,-10.206358114878336,-0.3061644236246745,-1.8358513116836548,1.688754832990111e+18,34.64711083984375,-10.069396336873371,-10.040483156840006,-0.471585472424825,1.688754832990111e+18,34.64711083984375,0.1311158264676729,-9.716814041137695,1.301578402519226,1.6887548329987653e+18,34.655765299479164,-1.3984232743581135,0.4049018522103627,-1.7254397869110107,1.6887548329857897e+18,34.64278995768229,-1.4153238932291667,2.04543137550354,-2.3790655533472695,,,,,,,,,,,,1.6887548329880617e+18,34.64506171875,-4.516439819335938,39.066838073730466,-22.428479385375976,1.6887548329880617e+18,34.64506171875,-259.0450378417969,132.3846405029297,-154.43247680664064,1.688754832990111e+18,34.64711083984375,-0.5864274700482687,0.5269107222557068,-0.4658942818641662,0.4013069967428843,-1.4544087648391724,1.443111260732015,-0.9162927468617758
4.7,1.68875483304202e+18,34.69901993815105,8.281495094299316,0.649274508158366,-1.2558681567509968,1.68875483304202e+18,34.69901993815105,7.390432039896647,-9.008378982543944,0.3443670570850372,1.68875483304202e+18,34.69901993815105,-0.8969089388847351,-9.640148798624674,1.5375477870305378,1.688754833050667e+18,34.70766723632813,0.6889541993538538,0.1193223297595977,-2.31360125541687,1.6887548330376952e+18,34.69469547526042,0.22271129488945,-1.0195340712865193,-2.2279273668924966,1.68875483302904e+18,34.6860400390625,0.0,0.0,5.588726997375488,14.73900032043457,0.656792163848877,90.18928527832033,332.1000061035156,-122.9170809,49.2794892,1.6887548330380636e+18,34.695063720703125,0.0634399682283401,38.02739944458008,-23.799759292602538,1.6887548330380636e+18,34.695063720703125,-254.46515502929688,131.34519653320314,-155.8037567138672,1.68875483304202e+18,34.69901993815105,-0.5546321471532186,0.540446937084198,-0.5047505597273508,0.3809911608695984,-2.1253089904785156,1.3907742102940877,-2.376499652862549
4.75,1.688754833093924e+18,34.75092415364583,1.5977081259091694,1.168840726216634,-1.0174380938212078,1.688754833093924e+18,34.75092415364583,0.1184447010358175,-8.462815602620443,0.308474729458491,1.688754833093924e+18,34.75092415364583,-1.4851094086964924,-9.61415163675944,1.2632253964742024,1.6887548330939236e+18,34.750923583984374,0.7542658746242523,2.9191722869873047,-0.677220493555069,1.6887548330896005e+18,34.74660034179687,0.7924449245134989,2.828204313913981,-0.8734863797823588,,,,,,,,,,,,1.6887548330880612e+18,34.745061328125004,2.666919946670532,38.493439483642575,-22.733479690551757,1.6887548330880612e+18,34.745061328125004,-251.86167602539064,131.8112365722656,-154.7374755859375,1.688754833093924e+18,34.75092415364583,-0.5503196716308594,0.5893378853797913,-0.4794467290242513,0.3457436064879098,-2.4813550313313804,1.373274326324463,-1.913633664449056
4.8,1.688754833145828e+18,34.802828125,0.7357767820358276,1.573001702626546,-1.7615065574645996,1.688754833145828e+18,34.802828125,-0.999402274688085,-8.01635471979777,-0.4478566249211629,1.688754833145828e+18,34.802828125,-1.7410250902175903,-9.57185173034668,1.250962535540263,1.68875483313718e+18,34.79417985026041,0.1317432696620623,1.93293039004008,-0.9284642736117044,1.6887548331415063e+18,34.79850642903646,0.0601193190862734,1.9444859027862549,-1.0018699169158936,,,,,,,,,,,,1.688754833138064e+18,34.79506376953125,1.410319972038269,39.371839141845705,-22.21619987487793,1.688754833138064e+18,34.79506376953125,-253.11827697753907,132.68963623046875,-154.22019958496094,1.688754833145828e+18,34.802828125,-0.5600633223851522,0.6230635444323221,-0.4500998755296071,0.3086302777131398,-2.5585100650787354,1.3512839078903198,-1.7235178152720134
4.85,1.6887548331977367e+18,34.85473665364584,0.2919861475626628,-0.298224131266276,-1.046660582224528,1.6887548331977367e+18,34.85473665364584,-2.1603200435638428,-9.685946782430014,0.5365904768308004,1.6887548331977367e+18,34.85473665364584,-2.4581522146860757,-9.3702179590861,1.5205636421839397,1.6887548331890842e+18,34.84608406575521,-0.5096652408440908,0.4264348646004994,-1.7809776067733765,1.6887548331934085e+18,34.850408284505214,-0.5543602208296458,0.122071245064338,-1.8139134248097737,,,,,,,,,,,,1.6887548331880627e+18,34.84506293945312,2.527839922904968,39.03023910522461,-22.638319396972655,1.6887548331880627e+18,34.84506293945312,-252.0007537841797,132.34803771972656,-154.64231567382814,1.6887548331977367e+18,34.85473665364584,-0.5482409993807474,0.650208592414856,-0.4524688919385274,0.2677813072999318,-2.6141799290974936,1.2712098360061646,-1.6097174485524497
4.9,1.6887548332496384e+18,34.90663842773437,6.532873233159383,-3.650609334309896,-3.706368843714396,1.6887548332496384e+18,34.90663842773437,3.372683525085449,-12.80020523071289,-1.9672990242640176,1.6887548332496384e+18,34.90663842773437,-3.1660356521606445,-9.132091204325356,1.676382342974345,1.6887548332409905e+18,34.897990478515624,-0.5939646263917288,-0.6946555972099304,-1.0625491539637246,1.6887548332453138e+18,34.90231388346354,-0.5540547867616018,-0.4898630380630493,-0.8701266149679819,,,,,,,,,,,,1.688754833238064e+18,34.895063818359375,6.4196398735046385,37.99079971313476,-23.71435966491699,1.688754833238064e+18,34.895063818359375,-248.10895385742188,131.30859985351563,-155.71835632324218,1.6887548332496384e+18,34.90663842773437,-0.519420325756073,0.6555890440940857,-0.4834102590878804,0.2582583328088124,-2.6778677304585776,1.1964739163716631,-1.5898202657699585
4.95,1.6887548332928911e+18,34.94989123535156,-3.077068328857422,-9.168340682983398,-5.623996257781982,1.6887548332928911e+18,34.94989123535156,-6.020640850067139,-18.381364822387695,-3.838087439537048,1.6887548332928911e+18,34.94989123535156,-2.9494186639785767,-9.195520401000977,1.7232213020324707,1.688754833292893e+18,34.94989298502605,0.4445062826077143,0.0516690115133921,0.820901075998942,1.688754833297223e+18,34.95422257486979,0.5628105128804842,-0.1388700474053621,0.8780169685681661,,,,,,,,,,,,1.6887548332880622e+18,34.945062060546874,6.834439945220947,37.47595901489258,-24.792839431762697,1.6887548332880622e+18,34.945062060546874,-247.69415588378905,130.79375610351562,-156.79683532714844,1.6887548332928911e+18,34.94989123535156,-0.5301539599895477,0.6522405445575714,-0.4764413833618164,0.2578701972961426,-2.6360607147216797,1.214854717254639,-1.6170219779014587
5.0,1.6887548333361472e+18,34.99314721679688,-1.8821816444396973,-4.847995440165202,-1.430524746576945,1.6887548333361472e+18,34.99314721679688,-4.33978271484375,-14.284153938293455,-0.2149552702903747,1.6887548333361472e+18,34.99314721679688,-2.463447093963623,-9.418654123942057,1.1528819998105366,1.6887548333447987e+18,35.001798583984375,0.9580912192662556,-2.0866138537724814,2.5119796991348267,1.6887548333491282e+18,35.00612825520833,0.8960374991099039,-2.17661460240682,2.7865635553995767,,,,,,,,,,,,1.6887548333380618e+18,34.99506176757812,5.211839866638184,38.795999145507814,-22.826199340820313,1.6887548333380618e+18,34.99506176757812,-249.31675720214844,132.11380004882812,-154.83019409179687,1.6887548333361472e+18,34.99314721679688,-0.5301834146181742,0.639041801293691,-0.4678920308748881,0.3018026451269786,-2.7352314790089927,1.288931409517924,-1.570659041404724
5.05,1.6887548333880596e+18,35.04505973307292,0.9009880622227988,-0.2676424980163572,4.163668632507324,1.6887548333880596e+18,35.04505973307292,0.1072782141466935,-10.0129656791687,5.037489891052246,1.6887548333880596e+18,35.04505973307292,-0.7995558977127075,-9.727818489074709,0.8111338416735331,1.688754833396707e+18,35.05370694986979,-0.4367686410744985,-0.6490443348884583,3.872427543004354,1.688754833392387e+18,35.04938696289062,-0.6066655367612839,-1.0199922397732737,4.048433065414429,,,,,,,,,,,,1.6887548333880627e+18,35.04506274414062,0.6002400100231171,40.02575912475586,-22.157640075683595,1.6887548333880627e+18,35.04506274414062,-253.92835693359376,133.3435546875,-154.16163635253906,1.6887548333880596e+18,35.04505973307292,-0.5595966378847758,0.5763529936472574,-0.4578621884187062,0.3796404600143432,-2.3079861402511597,1.448557734489441,-2.1041961908340454
5.1,1.688754833439962e+18,35.096961669921875,-1.9505061308542888,-2.806530316670736,6.449097951253255,1.688754833439962e+18,35.096961669921875,-0.9479565421740214,-12.527822176615397,7.428916772206624,1.688754833439962e+18,35.096961669921875,0.9967035551865896,-9.703787167867024,0.9171311457951864,1.6887548334486126e+18,35.105612630208334,0.0802778700987498,-0.7336491743723551,3.5339063803354898,1.688754833435633e+18,35.092632893880214,0.1592831139763196,0.2296853462855022,3.464522202809652,,,,,,,,,,,,1.6887548334380618e+18,35.095061669921876,-6.685599899291992,39.6939193725586,-22.511439895629884,1.6887548334380618e+18,35.095061669921876,-261.2141967773438,133.01171264648437,-154.51543884277345,1.688754833439962e+18,35.096961669921875,-0.6124836802482605,0.5203234155972799,-0.4238615234692891,0.416904350121816,-0.7845417360464731,1.4350776274998982,2.6491448879241943
5.15,1.6887548334918674e+18,35.1488672688802,0.2760810852050783,-2.395548184712728,1.320476492245992,1.6887548334918674e+18,35.1488672688802,2.71366024017334,-11.824930826822916,2.6594228744506836,1.6887548334918674e+18,35.1488672688802,2.4317331314086914,-9.411877950032553,1.2762589852015178,1.688754833500517e+18,35.15751717122396,-0.040113487591346,-1.6104952891667683,2.6913704872131348,1.6887548334875423e+18,35.14454256184896,-0.3185662205020587,-2.635425329208374,2.819448550542196,,,,,,,,,,,,1.6887548334880612e+18,35.14506118164063,-10.918999862670898,38.4617202758789,-23.765600204467773,1.6887548334880612e+18,35.14506118164063,-265.4475952148438,131.7795166015625,-155.76959533691405,1.6887548334918674e+18,35.1488672688802,-0.630595862865448,0.440466821193695,-0.4273597200711568,0.4744169612725575,-0.4613615075747172,1.2926719586054485,2.2032763957977295
5.2,1.6887548335437752e+18,35.200775146484375,-7.781433582305908,1.8210784594217937,-1.6877097288767495,1.6887548335437752e+18,35.200775146484375,-4.0366917451222735,-7.186444123586019,-0.4819543461004893,1.6887548335437752e+18,35.200775146484375,3.738895734151205,-8.990017890930176,1.1430679162343345,1.6887548335437722e+18,35.20077233886718,0.7521278262138367,-0.6491206660866737,2.9678125381469727,1.6887548335394437e+18,35.196443359374996,0.687172512213389,-0.2702060838540394,2.97140121459961,1.6887548335480996e+18,35.205099609375,0.0,0.0,5.598286151885986,13.468000411987305,0.7403665781021118,94.40750122070312,332.1000061035156,-122.917058,49.2794697,1.6887548335380616e+18,35.1950615234375,-15.757519721984863,36.95623779296875,-23.719239807128908,1.6887548335380616e+18,35.1950615234375,-270.28612060546874,130.27403869628907,-155.72323303222657,1.6887548335437752e+18,35.200775146484375,-0.6494842767715454,0.3919630646705627,-0.3953309059143066,0.5174746513366699,-0.2805577218532561,1.1644656658172607,1.982749938964844
5.25,1.688754833595674e+18,35.252674153645835,-6.9207634925842285,8.045890172322592,-1.961600124835968,1.688754833595674e+18,35.252674153645835,-2.127418756484986,-0.4091726243495941,-0.4871388077735902,1.688754833595674e+18,35.252674153645835,4.7874986330668134,-8.43755849202474,1.411773920059204,1.6887548335870272e+18,35.24402726236979,0.2452623893817266,-2.6391414801279702,2.71962300936381,1.688754833591353e+18,35.24835286458333,0.1578068633874257,-2.72074294090271,2.658740123112997,,,,,,,,,,,,1.6887548335880635e+18,35.24506396484375,-18.600119400024415,35.76307830810547,-24.26335906982422,1.6887548335880635e+18,35.24506396484375,-273.12872314453125,129.08088073730468,-156.2673583984375,1.688754833595674e+18,35.252674153645835,-0.6456218361854553,0.3218932052453359,-0.389840304851532,0.5716838637987772,-0.2702903548876444,1.0393733779589336,1.8470899264017744
5.3,1.6887548336475845e+18,35.304584391276045,-2.650625387827555,7.701476573944092,1.0479255119959514,1.6887548336475845e+18,35.304584391276045,2.501097838083903,-0.4313062727451324,3.0827531814575195,1.6887548336475845e+18,35.304584391276045,5.145877202351888,-8.115278244018555,1.9721402724583943,1.6887548336389317e+18,35.29593172200521,0.0464257647593816,-1.4113532503445942,0.4198680321375529,1.688754833643253e+18,35.3002529296875,0.1008945753177007,-1.1836023330688477,0.153938037653764,,,,,,,,,,,,1.6887548336380595e+18,35.29505966796875,-18.56352005004883,34.169759368896486,-26.286119079589845,1.6887548336380595e+18,35.29505966796875,-273.0921142578125,127.48755798339845,-158.2901184082031,1.6887548336475845e+18,35.304584391276045,-0.6363654931386312,0.2703769505023956,-0.4052747885386149,0.5980330109596252,-0.3511941333611806,0.9771168033281962,1.820969780286153
5.35,1.6887548336994875e+18,35.35648746744791,-0.1917087237040201,5.737509727478027,0.6424645980199178,1.6887548336994875e+18,35.35648746744791,4.318845431009929,-2.8081767559051514,2.4630120595296225,1.6887548336994875e+18,35.35648746744791,4.504708131154378,-8.528182029724121,1.7578600645065308,1.6887548336908385e+18,35.34783821614584,0.718784769376119,0.5262604107459387,-2.0722076098124185,1.6887548336951572e+18,35.35215730794271,0.756098469098409,0.608421782652537,-2.2050708532333374,,,,,,,,,,,,1.6887548336880586e+18,35.345058642578124,-16.772559928894044,35.20675811767578,-26.122639465332032,1.6887548336880586e+18,35.345058642578124,-271.3011535644531,128.5245590209961,-158.1266357421875,1.6887548336994875e+18,35.35648746744791,-0.6193262934684753,0.3012438515822093,-0.4231518606344859,0.5884552597999573,-0.3530086576938629,1.0581631660461426,1.829589049021403
5.4,1.6887548337427436e+18,35.39974353027344,5.8055843114852905,0.0606868267059326,0.5985474586486816,1.6887548337427436e+18,35.39974353027344,9.410971641540527,-8.968299150466919,2.089532375335694,1.6887548337427436e+18,35.39974353027344,3.599541187286377,-9.011481285095217,1.428297519683838,1.6887548337427397e+18,35.39973974609375,0.325743888815244,-0.2560034419099489,-1.9627609252929688,1.68875483374707e+18,35.40407014973959,0.2130392591158549,-0.5685119231541952,-1.6122261236111324,,,,,,,,,,,,1.6887548337380613e+18,35.39506137695312,-12.800239753723144,37.87855987548828,-24.778199768066408,1.6887548337380613e+18,35.39506137695312,-267.32883911132814,131.19635925292968,-156.78219604492188,1.6887548337427436e+18,35.39974353027344,-0.5979633033275604,0.3455861359834671,-0.4437423646450043,0.5709797441959381,-0.3553410321474075,1.1683242917060852,1.853484332561493
5.45,1.6887548337859963e+18,35.442996419270834,9.287132422129313,-13.273323059082031,0.2300676504770914,1.6887548337859963e+18,35.442996419270834,12.86540953318278,-22.234506607055664,2.142373820145925,1.6887548337859963e+18,35.442996419270834,3.5724310874938965,-8.943680127461752,1.8496187527974448,1.688754833794644e+18,35.45164412434896,-0.1750128914912541,-2.9895745118459067,1.572825272878011,1.6887548337989724e+18,35.45597233072917,-0.1466585689534743,-2.9140307903289795,1.53469713528951,,,,,,,,,,,,1.6887548337880604e+18,35.44506040039063,-9.728279876708983,38.18111953735352,-25.64683952331543,1.6887548337880604e+18,35.44506040039063,-264.2568725585937,131.49891662597656,-157.6508361816406,1.6887548337859963e+18,35.442996419270834,-0.5801481008529663,0.3108417391777038,-0.469244917233785,0.5881509184837341,-0.4545975724856059,1.1513578494389851,1.854876716931661
5.5,1.6887548338378988e+18,35.494898763020835,-6.757343610127767,-3.1530434290568032,7.218690872192383,1.6887548338378988e+18,35.494898763020835,-2.8291139006614685,-11.890135129292808,9.474979241689049,1.6887548338378988e+18,35.494898763020835,3.9223837852478023,-8.719587008158365,2.1936004956563315,1.6887548338465546e+18,35.50355460611979,0.1116865252455075,0.4671592116355896,0.4194099108378092,1.6887548338422287e+18,35.49922888183593,0.0194713249802589,0.618424728512764,0.4695263057947159,,,,,,,,,,,,1.688754833838064e+18,35.49506372070313,-9.42571964263916,37.77851867675781,-27.07179985046387,1.688754833838064e+18,35.49506372070313,-263.9543151855469,131.0963165283203,-159.07579650878907,1.6887548338378988e+18,35.494898763020835,-0.5697240829467773,0.2679725885391235,-0.4766378402709961,0.6134990453720093,-0.4898806611696879,1.097782572110494,1.8002732594807942
5.55,1.6887548338898104e+18,35.546810384114586,-1.8918302059173584,0.2641979853312176,-6.39277195930481,1.6887548338898104e+18,35.546810384114586,1.828116575876872,-8.637092590332031,-4.482753813266754,1.6887548338898104e+18,35.546810384114586,3.7141006787618,-8.883785883585611,1.847330649693807,1.68875483389846e+18,35.55545979817708,0.9307041168212892,1.5297592480977376,-2.0668625434239707,1.688754833885483e+18,35.54248299153646,0.7334964474042257,0.6181447108586628,-1.381166332944607,,,,,,,,,,,,1.6887548338880596e+18,35.545059667968744,-9.49404001235962,38.09328002929688,-26.09091987609863,1.6887548338880596e+18,35.545059667968744,-264.02263793945315,131.41107482910155,-158.09491577148438,1.6887548338898104e+18,35.546810384114586,-0.5647995869318644,0.2921754519144694,-0.473468820254008,0.6092153191566467,-0.4388146797815959,1.136626203854879,1.7778823375701904
5.6,1.6887548339417132e+18,35.59871321614583,-7.444573879241943,1.4979214668273926,1.759920597076416,1.6887548339417132e+18,35.59871321614583,-4.821338256200154,-7.929016590118408,2.578266421953837,1.6887548339417132e+18,35.59871321614583,2.617389678955078,-9.409433364868164,0.7556584676106771,1.6887548339503654e+18,35.60736531575521,0.3526219427585602,5.8733164469401045,-3.307326237360636,1.6887548339373862e+18,35.59438623046875,0.8211556077003479,5.537748018900554,-3.1077260176340737,,,,,,,,,,,,1.688754833938064e+18,35.59506396484375,-8.518039894104003,40.52595977783203,-22.601719284057616,1.688754833938064e+18,35.59506396484375,-263.046630859375,133.84375915527343,-154.60571899414063,1.6887548339417132e+18,35.59871321614583,-0.5715083281199137,0.4043115774790446,-0.4490043818950653,0.5531041224797567,-0.2372556328773498,1.2911442518234253,1.781172275543213
5.65,1.6887548339936207e+18,35.65062101236979,-3.165629188219706,1.0314111709594729,0.8037205338478088,1.6887548339936207e+18,35.65062101236979,-2.052842470506827,-8.699904441833496,1.5236298243204751,1.6887548339936207e+18,35.65062101236979,1.1069407065709431,-9.713810920715332,0.6572219034036001,1.68875483399362e+18,35.6506201171875,-2.044184148311615,4.668232202529907,-3.062420129776001,1.688754833989296e+18,35.64629581705729,-1.743307610352834,4.869614203770955,-3.161940415700277,,,,,,,,,,,,1.6887548339880568e+18,35.64505693359375,-7.976359844207764,41.257958984375,-20.908359146118165,1.6887548339880568e+18,35.64505693359375,-262.50494995117185,134.5757598876953,-152.91235961914063,1.6887548339936207e+18,35.65062101236979,-0.6017129222551981,0.5159498651822408,-0.4224068621794383,0.4377155403296153,-0.544869283835093,1.4389967521031697,2.374589522679647
5.7,1.6887548340455206e+18,35.702520670572916,-5.86894029378891,-2.387892723083496,-2.873546083768209,1.6887548340455206e+18,35.702520670572916,-6.175077557563782,-12.096915245056152,-1.3547363976637523,1.6887548340455206e+18,35.702520670572916,-0.3119832811256249,-9.69151782989502,1.4561221599578855,1.688754834036874e+18,35.69387394205729,-1.513724048932393,0.521577070156733,-2.5210408767064414,1.6887548340411963e+18,35.698196451822916,-1.3708325425783794,0.0818050603071849,-2.3252585728963218,1.6887548340671547e+18,35.72415478515625,0.0,0.0,4.125255107879639,13.07699966430664,0.7775366306304932,96.00236511230467,332.1000061035156,-122.9170535,49.2794593,1.688754834038064e+18,35.6950638671875,-3.5501998901367187,40.27951889038086,-23.211719512939453,1.688754834038064e+18,35.6950638671875,-258.07879943847655,133.59731750488282,-155.21571655273436,1.6887548340455206e+18,35.702520670572916,-0.5983833273251852,0.5625555117925009,-0.4484960238138835,0.3521886964639028,-1.796948234240214,1.4233980178833008,-2.552196661631266
5.75,1.6887548340974305e+18,35.75443050130209,7.346695899963379,1.1915968259175618,-0.8863398234049479,1.6887548340974305e+18,35.75443050130209,6.057231108347575,-8.421738783518473,0.7278168809910616,1.6887548340974305e+18,35.75443050130209,-1.295310914516449,-9.595830917358398,1.5514692862828572,1.688754834088783e+18,35.74578304036458,0.0306959847609202,-1.1719449857870738,-1.8970420360565183,1.6887548340931072e+18,35.75010725911458,0.1181515157222747,-0.8493572076161703,-1.9349156618118288,,,,,,,,,,,,1.6887548340880612e+18,35.74506118164062,1.610399940609932,39.68171997070313,-24.329239654541016,1.6887548340880612e+18,35.74506118164062,-252.9181976318359,132.9995147705078,-156.33323974609374,1.6887548340974305e+18,35.75443050130209,-0.5594752629597982,0.5737737417221069,-0.4881970087687174,0.3452980418999989,-2.296696901321411,1.3659791151682537,-2.113197326660156
5.8,1.6887548341493358e+18,35.80633569335938,1.4219711621602376,3.155035972595215,-1.8234302997589111,1.6887548341493358e+18,35.80633569335938,-0.4689932465553284,-6.35194714864095,-0.1567298869291941,1.6887548341493358e+18,35.80633569335938,-1.896810491879781,-9.48947842915853,1.604012966156006,1.6887548341406817e+18,35.79768172200521,0.1667153040568033,2.5397232373555503,-1.400306781133016,1.6887548341450117e+18,35.80201188151042,0.1448768749833106,2.5574891567230225,-1.363247632980347,,,,,,,,,,,,1.688754834138068e+18,35.795068066406245,3.1719998836517336,39.750040435791014,-25.063679885864257,1.688754834138068e+18,35.795068066406245,-251.35659790039065,133.06783752441407,-157.06767578125,1.6887548341493358e+18,35.80633569335938,-0.557050863901774,0.6134670972824097,-0.4713556468486786,0.301292339960734,-2.472909132639567,1.3165695667266846,-1.8355276584625244
5.85,1.6887548341925908e+18,35.8495908203125,0.2121309041976928,1.8348238468170168,-1.8800843954086304,1.6887548341925908e+18,35.8495908203125,-2.16281259059906,-7.5361950397491455,-0.0678963363170623,1.6887548341925908e+18,35.8495908203125,-2.3807895183563232,-9.353514194488524,1.749500572681427,1.6887548341925857e+18,35.84958577473958,-0.3870849311351776,0.0918843101244419,-1.5266540845235188,1.6887548341969144e+18,35.85391446940104,-0.4309145261843999,-0.1776090661684672,-1.566003958384196,,,,,,,,,,,,1.6887548341880635e+18,35.84506381835938,4.523759937286377,39.67927856445313,-24.526879501342773,1.6887548341880635e+18,35.84506381835938,-250.004833984375,132.99707641601563,-156.53087768554687,1.6887548341925908e+18,35.8495908203125,-0.5513209700584412,0.6371546685695648,-0.4663961082696914,0.2692662328481674,-2.5350844860076904,1.2655071020126345,-1.7150524854660034
5.9,1.6887548342358413e+18,35.89284114583334,6.9937052726745605,-0.8001791636149088,-2.328114906946818,1.6887548342358413e+18,35.89284114583334,3.954139451185862,-9.953743616739908,-0.4055834412574768,1.6887548342358413e+18,35.89284114583334,-3.045411745707194,-9.136059761047363,1.8598440488179524,1.6887548342444972e+18,35.90149698893229,-0.7023423115412394,-0.051974445581436,-0.98328942929705,1.6887548342488228e+18,35.90582275390625,-0.7091127435366312,0.2764165053764979,-0.798960824807485,,,,,,,,,,,,1.6887548342380595e+18,35.895059619140625,8.722999858856202,38.45439834594727,-25.200319671630854,1.6887548342380595e+18,35.895059619140625,-245.80559387207032,131.77219848632814,-157.2043212890625,1.6887548342358413e+18,35.89284114583334,-0.5244537989298502,0.6435252030690511,-0.4930076003074646,0.2601030071576436,-2.6158498922983804,1.1986902952194214,-1.671177903811137
5.95,1.6887548342877514e+18,35.944751464843755,-1.1490457852681475,-5.297486941019694,-6.979180018107097,1.6887548342877514e+18,35.944751464843755,-4.152344862620036,-14.389238993326822,-4.718048016230266,1.6887548342877514e+18,35.944751464843755,-3.0091451009114585,-9.074247360229492,2.1984447638193765,1.6887548342964017e+18,35.95340152994792,0.3305799067020416,0.4617632726828258,0.003054325779279,1.688754834292077e+18,35.949077148437496,0.1476766690611839,0.9011789625510572,0.2128101810812949,,,,,,,,,,,,1.688754834288061e+18,35.94506069335937,7.512759876251221,37.75167999267578,-27.181599426269532,1.688754834288061e+18,35.94506069335937,-247.01583557128907,131.0694793701172,-159.18559875488282,1.6887548342877514e+18,35.944751464843755,-0.5367634892463684,0.6458391944567362,-0.4882102211316426,0.2374436706304549,-2.531419515609741,1.1815834442774455,-1.710907220840454
6.0,1.6887548343396564e+18,35.99665625,5.7676767110824585,-3.780986785888672,-1.6699163516362507,1.6887548343396564e+18,35.99665625,3.067000448703766,-13.043276151021322,0.2077767451604208,1.6887548343396564e+18,35.99665625,-2.706522226333618,-9.244784990946451,1.8150057395299275,1.6887548343483036e+18,36.005303466796875,0.6144286195437113,0.2437352240085601,2.724204500516256,1.688754834335326e+18,35.99232592773438,0.7095708847045898,-0.363719364007314,1.5032375653584795,,,,,,,,,,,,1.6887548343380628e+18,35.99506293945312,6.4074399948120115,38.6544792175293,-26.49595947265625,1.6887548343380628e+18,35.99506293945312,-248.12115478515625,131.97228088378907,-158.4999572753906,1.6887548343396564e+18,35.99665625,-0.5397967100143433,0.642330010732015,-0.4766627748807271,0.2615910172462463,-2.568816343943278,1.2317797740300496,-1.6892726023991902
6.05,1.6887548343915622e+18,36.04856241861979,-4.566075960795085,-7.291155179341634,0.0616957346598308,1.6887548343915622e+18,36.04856241861979,-5.432504971822103,-16.97448444366455,1.444068466623624,1.6887548343915622e+18,36.04856241861979,-0.8722750047842661,-9.66582489013672,1.3196853001912434,1.688754834400214e+18,36.057214029947914,1.6303484439849854,-0.80995641152064,3.5719327131907144,1.688754834387237e+18,36.04423714192709,1.5021685560544331,-0.1284344245990117,3.8880554835001626,,,,,,,,,,,,1.6887548343880617e+18,36.04506162109375,-1.0565199375152587,40.46983947753906,-25.36135940551758,1.6887548343880617e+18,36.04506162109375,-255.5851104736328,133.78763732910156,-157.3653564453125,1.6887548343915622e+18,36.04856241861979,-0.592104951540629,0.5994847218195597,-0.4321118791898091,0.3200490474700927,-2.1427802642186484,1.409365216890971,-2.12490967909495
6.1,1.688754834443467e+18,36.10046704101563,-0.9584852059682212,-8.061951319376627,5.791886409123738,1.688754834443467e+18,36.10046704101563,-0.2438684999942779,-17.818154017130535,6.6811595757802325,1.688754834443467e+18,36.10046704101563,0.7087706873814265,-9.738698641459148,0.8265854318936666,1.6887548344434616e+18,36.100461547851566,0.1498147025704383,-0.952567994594574,3.239494800567627,1.688754834439143e+18,36.09614265950521,0.4126394788424174,-1.091616153717041,3.2376367251078286,,,,,,,,,,,,1.6887548344380654e+18,36.09506528320313,-7.149199962615967,41.5556396484375,-22.98235931396484,1.6887548344380654e+18,36.09506528320313,-261.67780151367185,134.8734375,-154.98635559082032,1.688754834443467e+18,36.10046704101563,-0.6190736492474874,0.5478573242823283,-0.4063210984071095,0.388456533352534,-0.9377404848734536,1.4607077836990356,0.7890921433766681
6.15,1.6887548344953733e+18,36.15237329101563,-2.66659943262736,-8.328179041544596,3.798899531364441,1.6887548344953733e+18,36.15237329101563,-0.4213361740112304,-17.855841000874836,4.6899324258168535,1.6887548344953733e+18,36.15237329101563,2.2394171953201294,-9.510157903035482,0.8283452987670898,1.6887548344867215e+18,36.14372143554687,0.5744169453779857,-2.1500420570373535,2.9986866315205893,1.6887548344910438e+18,36.14804386393229,0.6879869749148687,-2.3354396422704062,2.9110273520151773,,,,,,,,,,,,1.688754834488064e+18,36.14506396484375,-13.363879776000976,40.2234001159668,-23.338599395751952,1.688754834488064e+18,36.14506396484375,-267.89248046875,133.54119567871095,-155.34259948730468,1.6887548344953733e+18,36.15237329101563,-0.6426798502604166,0.4813617368539174,-0.3939368426799774,0.4463571906089782,-0.3369327882925669,1.3295925458272295,2.1945621172587075
6.2,1.6887548345472778e+18,36.20427799479166,-8.430278698603312,2.0388320287068686,-1.1516273816426594,1.6887548345472778e+18,36.20427799479166,-4.883551597595215,-7.109674155712128,-0.6685945242643356,1.6887548345472778e+18,36.20427799479166,3.540880839029948,-9.131001472473145,0.4203454355398814,1.688754834538627e+18,36.19562711588542,1.4993687470753987,-1.3156001418828964,3.0232739448547363,1.6887548345429542e+18,36.19995418294271,1.4785993496576946,-1.4223997394243877,3.020525058110555,,,,,,,,,,,,1.6887548345380595e+18,36.195059521484374,-16.5627197265625,39.50115966796874,-22.57975959777832,1.6887548345380595e+18,36.195059521484374,-271.0913146972656,132.81895751953124,-154.58375549316406,1.6887548345472778e+18,36.20427799479166,-0.6405375401178995,0.4260328312714894,-0.3723704516887665,0.5185221036275228,-0.1030735572179158,1.2010210752487185,1.8527790705362956
6.25,1.6887548345991834e+18,36.25618343098959,-10.718478043874104,13.292457262674969,0.1817272802193961,1.6887548345991834e+18,36.25618343098959,-5.882156332333884,4.810969273249309,1.217348535855611,1.6887548345991834e+18,36.25618343098959,4.830475807189941,-8.463983535766602,0.972933848698934,1.688754834590536e+18,36.247536132812506,-0.0528398342430591,-3.965228080749512,3.382004499435425,1.6887548345948575e+18,36.25185758463542,-0.2270891567071279,-3.853694200515747,3.440647602081299,1.6887548345862118e+18,36.2432119140625,0.0,0.0,3.847128391265869,10.925999641418455,0.8134217262268066,98.89006042480467,332.1000061035156,-122.9170299,49.2794354,1.6887548345880635e+18,36.24506347656249,-19.517559432983397,38.08839874267578,-23.43131980895996,1.6887548345880635e+18,36.24506347656249,-274.04615478515626,131.40619812011718,-155.43531799316406,1.6887548345991834e+18,36.25618343098959,-0.6302932898203532,0.329051117102305,-0.3803182939688365,0.590340773264567,-0.1801956991354624,1.045088529586792,1.7389183441797893
6.3,1.6887548346424376e+18,36.299437744140626,-4.414673328399658,10.940247535705566,2.954781413078308,1.6887548346424376e+18,36.299437744140626,1.186241865158081,3.10319185256958,4.955535650253296,1.6887548346424376e+18,36.299437744140626,5.595069169998169,-7.81955099105835,1.938066720962524,1.6887548346424348e+18,36.29943465169271,-0.627511332432429,-2.386803229649862,1.3266465937097869,1.6887548346467638e+18,36.30376383463542,-0.5551237861315409,-2.2546526988347373,0.9759590129057566,,,,,,,,,,,,1.688754834638064e+18,36.295063720703126,-21.027919387817384,34.769998931884764,-27.559799194335938,1.688754834638064e+18,36.295063720703126,-275.5565185546875,128.0877944946289,-159.5637969970703,1.6887548346424376e+18,36.299437744140626,-0.6341924369335175,0.2476831227540969,-0.3910842984914779,0.6191723644733429,-0.3198378831148147,0.9248619377613068,1.755112648010254
6.35,1.688754834685686e+18,36.34268619791666,-2.517344236373902,6.738428910573323,0.3897847334543864,1.688754834685686e+18,36.34268619791666,2.7527430057525635,-1.2199407716592152,2.7762725353240967,1.688754834685686e+18,36.34268619791666,5.2642412185668945,-7.940865198771159,2.3238004048665366,1.6887548346943434e+18,36.351343261718746,0.694146528840065,-0.3496694465478261,-1.9544633626937864,1.6887548346986703e+18,36.35567041015625,0.8161668578783671,-0.2245438794294993,-2.1614957253138223,,,,,,,,,,,,1.6887548346880627e+18,36.34506279296875,-17.999879837036133,34.68703918457031,-29.262919616699214,1.6887548346880627e+18,36.34506279296875,-272.5284729003906,128.0048355102539,-161.26691589355468,1.688754834685686e+18,36.34268619791666,-0.6204529404640198,0.2354054600000381,-0.41880797346433,0.619714359442393,-0.4008766909440358,0.9464284380276998,1.7794403235117595
6.4,1.6887548347375977e+18,36.394597819010414,7.930253028869629,2.8486873308817544,-1.0100191434224446,1.6887548347375977e+18,36.394597819010414,12.10030444463094,-5.825127402941386,1.006580760081609,1.6887548347375977e+18,36.394597819010414,4.164205392201741,-8.656310081481934,1.9539124965667725,1.688754834746248e+18,36.403248046875,0.7235189725955328,-0.8201375106970469,-1.8823812405268352,1.6887548347505718e+18,36.40757185872396,0.5302310387293497,-1.1692469716072085,-1.5126550594965618,,,,,,,,,,,,1.688754834738064e+18,36.395063818359375,-13.039359855651856,38.13231887817383,-27.354839324951172,1.688754834738064e+18,36.395063818359375,-267.5679504394531,131.4501159667969,-159.35883483886718,1.6887548347375977e+18,36.394597819010414,-0.5848411520322164,0.2814527948697408,-0.4555927813053131,0.6089221040407816,-0.4202011227607727,1.0852018197377522,1.7864333788553874
6.45,1.6887548347895022e+18,36.44650227864583,6.708300590515137,-16.614367485046387,1.6289973258972168,1.6887548347895022e+18,36.44650227864583,10.599007924397789,-25.31347147623698,4.082753658294678,1.6887548347895022e+18,36.44650227864583,3.884861389795939,-8.681598981221518,2.391068935394287,1.688754834798155e+18,36.45515502929688,0.0181732376416524,-3.647221883138021,1.5593353509902954,1.688754834793831e+18,36.45083081054688,-0.0003054141998291,-3.9343539476394658,1.4160619974136353,,,,,,,,,,,,1.6887548347880617e+18,36.44506166992188,-9.32323989868164,38.36167907714844,-28.523599243164064,1.6887548347880617e+18,36.44506166992188,-263.8518371582031,131.67947387695312,-160.52760009765626,1.6887548347895022e+18,36.44650227864583,-0.5533667008082072,0.2452949186166127,-0.4898876845836639,0.6266884803771973,-0.5318261285622915,1.0893942912419636,1.7735178867975872
6.5,1.6887548348414095e+18,36.498409586588544,-8.933622360229492,-1.9715434710184736,9.266989390055338,1.6887548348414095e+18,36.498409586588544,-4.789234479268392,-10.4498553276062,12.07179037729899,1.6887548348414095e+18,36.498409586588544,4.138541539510091,-8.460807164510092,2.74211319287618,1.6887548348500562e+18,36.50705639648438,-0.0366519192854563,0.3981823250651359,0.2582432876030604,1.6887548348370785e+18,36.494078287760416,0.0564541220664977,-0.3202460805575053,0.7316129505634308,,,,,,,,,,,,1.6887548348380623e+18,36.495062304687494,-8.435079860687257,38.127438354492185,-29.499599838256835,1.6887548348380623e+18,36.495062304687494,-262.963671875,131.4452392578125,-161.50359802246095,1.6887548348414095e+18,36.498409586588544,-0.5352491537729899,0.2002446303764978,-0.4971930881341297,0.652818481127421,-0.5669439633687338,1.0422518650690715,1.7049392859141033
6.55,1.688754834893315e+18,36.55031518554687,0.5955840746561686,-1.2748610178629558,-4.436089833577474,1.688754834893315e+18,36.55031518554687,4.573681036631267,-9.896514892578123,-1.8546369075775144,1.688754834893315e+18,36.55031518554687,3.9722509384155273,-8.604149182637533,2.5187655289967856,1.688754834893314e+18,36.550314208984375,0.2327396571636199,1.4114805161952972,-1.7562376260757446,1.68875483488899e+18,36.54599007161459,0.2204714529216289,1.2840387175480523,-1.3721560817987968,,,,,,,,,,,,1.6887548348880645e+18,36.54506420898438,-9.386680030822754,38.2274787902832,-29.238519287109376,1.6887548348880645e+18,36.54506420898438,-263.91527099609374,131.54527893066407,-161.24251403808594,1.688754834893315e+18,36.55031518554687,-0.5399080912272135,0.2239059706528981,-0.4954018493493398,0.6422279079755148,-0.5449047287305196,1.0728274981180828,1.7273403406143188
6.6,1.6887548349452152e+18,36.60221525065104,-9.422465960184732,0.904723326365153,1.5722709496816,1.6887548349452152e+18,36.60221525065104,-6.7005016803741455,-8.439086755116781,2.771486759185791,1.6887548349452152e+18,36.60221525065104,2.716118494669596,-9.326305389404297,1.1365284323692322,1.6887548349365647e+18,36.59356469726563,1.198415795962016,6.676044464111328,-4.359745264053345,1.688754834940891e+18,36.59789070638021,1.1573351224263508,6.767012437184651,-4.6085710525512695,,,,,,,,,,,,1.6887548349380664e+18,36.59506665039062,-9.57699966430664,39.989159393310544,-26.098239517211915,1.6887548349380664e+18,36.59506665039062,-264.1055908203125,133.3069580078125,-158.10223693847655,1.6887548349452152e+18,36.60221525065104,-0.5617931683858236,0.3728399872779846,-0.4684871633847554,0.5674383838971456,-0.3521268864472707,1.2677120367685957,1.819622079531352
