seconds_elapsed_rounded,accelerometer_time,accelerometer_seconds_elapsed,accelerometer_z,accelerometer_y,accelerometer_x,accelerometeruncalibrated_time,accelerometeruncalibrated_seconds_elapsed,accelerometeruncalibrated_z,accelerometeruncalibrated_y,accelerometeruncalibrated_x,gravity_time,gravity_seconds_elapsed,gravity_z,gravity_y,gravity_x,gyroscope_time,gyroscope_seconds_elapsed,gyroscope_z,gyroscope_y,gyroscope_x,gyroscopeuncalibrated_time,gyroscopeuncalibrated_seconds_elapsed,gyroscopeuncalibrated_z,gyroscopeuncalibrated_y,gyroscopeuncalibrated_x,location_time,location_seconds_elapsed,location_altitude,location_speedAccuracy,location_bearingAccuracy,location_latitude,location_altitudeAboveMeanSeaLevel,location_bearing,location_horizontalAccuracy,location_verticalAccuracy,location_longitude,location_speed,magnetometer_time,magnetometer_seconds_elapsed,magnetometer_z,magnetometer_y,magnetometer_x,magnetometeruncalibrated_time,magnetometeruncalibrated_seconds_elapsed,magnetometeruncalibrated_z,magnetometeruncalibrated_y,magnetometeruncalibrated_x,orientation_time,orientation_seconds_elapsed,orientation_yaw,orientation_qx,orientation_qz,orientation_roll,orientation_qw,orientation_qy,orientation_pitch
0.0,1.689726602013945e+18,90.00294555664063,1.3337299576351047,0.3236676566892861,-1.4500745097325742,1.6897266020114417e+18,90.0004416015625,-0.12608642578125,0.9958709716796876,-0.1974365234375,1.689726602013945e+18,90.00294555664063,-2.57006576741904,9.451648345987795,-0.4663041787414251,1.689726602013945e+18,90.00294555664063,0.3136518359184265,1.0683433651924132,0.5651889026165009,1.6897266020064312e+18,89.99543115234374,0.3266539692878722,1.0428791880607604,0.6160532355308532,,,,,,,,,,,,,1.689726602013945e+18,90.00294555664063,-4.413454818725586,50.611402893066405,17.179951477050782,1.68972660200745e+18,89.99644975585937,25.584039306640623,62.418310546875,96.641845703125,1.689726602013945e+18,90.00294555664063,-0.790970545028167,-0.5841615048219435,-0.2548960754018464,-0.1804224261105363,0.7523609157583316,0.166269198889408,-1.3009932141940594
0.05,1.6897266020640497e+18,90.053049609375,1.1628935569542649,1.012233624409437,-3.046106648764014,1.6897266020615455e+18,90.0505455078125,-0.1718109130859375,1.0653961181640623,-0.347442626953125,1.6897266020640497e+18,90.053049609375,-2.819172279477417,9.388956269040106,-0.2520257824255153,1.6897266020640497e+18,90.053049609375,0.0733958631753921,0.6019782781600952,0.5290081381797791,1.6897266020565353e+18,90.04553520507812,0.1252541637048124,0.6645499229431152,0.4946386516094208,,,,,,,,,,,,,1.6897266020640497e+18,90.053049609375,-4.782256317138672,50.40167083740234,17.918014526367188,1.689726602059455e+18,90.04845502929687,25.270297241210937,62.242236328125,97.35350341796874,1.6897266020640497e+18,90.053049609375,-0.7452321480035813,-0.5679570491469331,-0.2670582999784072,-0.0894916129045449,0.756575624344721,0.1834739013695835,-1.277971414149209
0.1,1.6897266021141535e+18,90.10315361328124,2.0763732602405547,1.407185946729183,-3.572094282608628,1.6897266021116495e+18,90.10064956054688,-0.09942626953125,1.096051025390625,-0.3743194580078125,1.6897266021141535e+18,90.10315361328124,-3.170463446986079,9.276579480755924,-0.2143655339166149,1.6897266021141535e+18,90.10315361328124,-0.2524649858474731,0.6920573115348816,0.8931014180183411,1.689726602106639e+18,90.09563920898437,-0.2339521467685699,0.6602779150009155,0.8882477879524231,,,,,,,,,,,,,1.6897266021141535e+18,90.10315361328124,-5.9847370147705075,50.42136306762696,17.89491424560547,1.689726602111464e+18,90.1004640625,23.95819091796875,62.27541809082031,97.24529724121092,1.6897266021141535e+18,90.10315361328124,-0.7585439254454618,-0.5498887895584372,-0.2828476575814064,-0.067550809103959,0.762631729642891,0.1895626034285943,-1.2407727322393929
0.15,1.6897266021642575e+18,90.15325751953124,6.634872430901527,2.9748809029400345,-2.4094997378270326,1.6897266021617536e+18,90.15075361328124,0.3462554931640625,1.24317626953125,-0.27791748046875,1.6897266021642575e+18,90.15325751953124,-3.3190523600235577,9.22513220211327,-0.1971574579060449,1.6897266021642575e+18,90.15325751953124,-0.2877515286207198,0.6793026626110077,-0.6989358574151993,1.6897266021567432e+18,90.1457431640625,-0.2454669117927551,0.7776279091835022,-0.3485768854618073,,,,,,,,,,,,,1.6897266021642575e+18,90.15325751953124,-6.57129135131836,50.58042449951172,17.526936340332032,1.689726602163472e+18,90.15247177734376,23.58751220703125,62.44752197265625,96.89109497070312,1.6897266021642575e+18,90.15325751953124,-0.7956397630035915,-0.5391244540105607,-0.3010648188235513,-0.0594562178300513,0.7606238263348839,0.2002160568508355,-1.224867077532375
0.2,1.689726602214362e+18,90.20336181640626,3.0307070104148983,2.17163489688158,-3.9590049281266326,1.6897266022118577e+18,90.20085771484376,0.04091796875,1.1759979248046877,-0.4342132568359375,1.689726602214362e+18,90.20336181640626,-2.653290929307639,9.42596725986004,-0.4451589970906823,1.689726602214362e+18,90.20336181640626,-0.836266553401947,-0.64224394261837,-1.8362464904785156,1.6897266022068475e+18,90.19584741210936,-0.7630450785160064,-0.4743308275938034,-1.7287349939346313,,,,,,,,,,,,,1.689726602214362e+18,90.20336181640626,-3.8219223022460938,51.22331848144531,16.6315185546875,1.689726602210279e+18,90.1992788696289,26.764060974121097,63.15925979614258,95.7662239074707,1.689726602214362e+18,90.20336181640626,-0.9179256087784028,-0.5679622528781758,-0.3055756332206302,-0.1716878852198876,0.7360956417112938,0.2048964921737706,-1.2921650323906284
0.25,1.689726602264466e+18,90.25346577148436,4.5772406960099925,2.7925948290318248,1.5906486485882847,1.689726602261962e+18,90.25096181640626,0.2965057373046875,1.2890838623046874,0.079974365234375,1.689726602264466e+18,90.25346577148436,-1.3950474436809122,9.647108608054518,-0.9587588585271688,1.689726602264466e+18,90.25346577148436,-1.1059262871742248,0.7462603569030761,-3.3724895477294923,1.6897266022569513e+18,90.2459513671875,-1.0576442718505858,0.3040881484746933,-3.217382621765137,,,,,,,,,,,,,1.689726602264466e+18,90.25346577148436,1.1885818481445312,51.80565185546875,14.528689575195312,1.689726602257088e+18,90.24608798828125,31.849298095703126,63.67729797363281,93.70936584472656,1.689726602264466e+18,90.25346577148436,-1.3837570469831266,-0.6216766583986726,-0.3061767254814505,-0.6407897724042584,0.6906583717265626,0.2050844132380376,-1.3927045678150676
0.3,1.6897266023145697e+18,90.30356987304688,-4.850800096801519,3.9384286470180743,3.390757822962403,1.6897266023120658e+18,90.30106572265623,-0.5004791259765625,1.371209716796875,0.1936737060546875,1.6897266023145697e+18,90.30356987304688,-0.0255602249247866,9.684908118903635,-1.5050247111557424,1.6897266023145697e+18,90.30356987304688,-1.2347578525543212,2.2025312900543215,-2.410127067565918,1.6897266023070554e+18,90.29605537109374,-1.247628402709961,2.3341856718063356,-2.6291642665863035,,,,,,,,,,,,,1.6897266023145697e+18,90.30356987304688,9.982962036132813,51.21813125610352,10.87586669921875,1.6897266023090957e+18,90.29809560546876,40.69522399902344,62.98041687011719,89.92402038574218,1.6897266023145697e+18,90.30356987304688,-2.3847879019381915,-0.6637301482839304,-0.3403512415339516,-1.5347851959543433,0.6204727228371715,0.2408429474810607,-1.4138938862788055
0.35,1.6897266023646735e+18,90.35367373046874,-1.97633236804679,0.8363700432163477,2.075066006260365,1.68972660236217e+18,90.35116982421876,-0.1029388427734375,1.054656982421875,-0.020318603515625,1.6897266023646735e+18,90.35367373046874,0.7773761631994694,9.543810613760948,-2.101043006594777,1.6897266023646735e+18,90.35367373046874,-1.128865385055542,1.103684628009796,-1.669322681427002,1.6897266023571594e+18,90.34615932617189,-1.1444248676300048,1.2203812956809998,-1.7310696125030518,,,,,,,,,,,,,1.6897266023646735e+18,90.35367373046874,15.695346069335937,50.135643768310544,6.700196838378906,1.6897266023611003e+18,90.35010048828124,46.12807006835938,61.89411315917969,85.76937561035156,1.6897266023646735e+18,90.35367373046874,-2.8552133733230423,-0.6864740540069757,-0.3719508776620995,-1.9196129436014175,0.5672692070442561,0.2614233402991864,-1.3398914967328004
0.4,1.689726602414778e+18,90.40377783203124,-1.2849797506697471,0.3241569015109539,0.2552280344524979,1.6897266024122737e+18,90.40127377929689,0.0142425537109375,0.97696533203125,-0.246307373046875,1.689726602414778e+18,90.40377783203124,1.420730824057087,9.334381564478877,-2.6393141925945875,1.689726602414778e+18,90.40377783203124,-1.089098334312439,-0.1605120792984962,-1.2757041931152344,1.6897266024072635e+18,90.39626337890626,-1.0822930097579957,-0.0469219267368316,-1.3162018299102782,,,,,,,,,,,,,1.689726602414778e+18,90.40377783203124,19.2111457824707,48.835992431640626,3.542073059082031,1.689726602413104e+18,90.40210400390625,49.52202453613281,60.566305541992186,82.73474426269532,1.689726602414778e+18,90.40377783203124,-3.0236770829806967,-0.7099308060544296,-0.3843838452110667,-2.0625268194403317,0.5288991279644638,0.2614740390503954,-1.2599511123847733
0.45,1.689726602464882e+18,90.45388193359376,-2.3329710048371552,-1.1794253557515144,1.361478088521361,1.689726602462378e+18,90.45137792968752,-0.0397796630859375,0.7971893310546875,-0.1684967041015625,1.689726602464882e+18,90.45388193359376,1.984943778334409,9.089687841974497,-3.0938624963167305,1.689726602464882e+18,90.45388193359376,-0.9119014024734498,-0.5970907270908355,-0.9228530049324036,1.6897266024573673e+18,90.4463673828125,-0.9766090273857116,-0.4559952765703201,-0.9910849928855896,,,,,,,,,,,,,1.689726602464882e+18,90.45388193359376,21.40099639892578,47.6820930480957,1.4903762817382813,1.6897266024651054e+18,90.45410541992187,51.69175415039062,59.385684204101565,80.75213928222657,1.689726602464882e+18,90.45388193359376,-3.085488234690833,-0.7346411435375494,-0.3839332529030686,-2.1404075649313308,0.5013482919964272,0.2478736317219775,-1.186444157621303
0.5,1.6897266025149855e+18,90.50398588867186,-2.754940513420105,-1.9927437261086705,2.64173580833137,1.689726602512482e+18,90.50148208007812,-0.0266998291015625,0.7045623779296875,-0.0614471435546875,1.6897266025149855e+18,90.50398588867186,2.467397010939717,8.912076540331245,-3.2620434725049137,1.6897266025149855e+18,90.50398588867186,-0.40694060921669,-1.4786227464675905,-0.4222233921289444,1.6897266025074714e+18,90.49647153320312,-0.4697119951248169,-1.3799017429351808,-0.5056351661682129,,,,,,,,,,,,,1.6897266025149855e+18,90.50398588867186,22.65235824584961,46.94141159057617,1.2451919555664062,1.6897266025119089e+18,90.50090875244142,52.94258117675781,58.685115814208984,80.72439575195312,1.6897266025149855e+18,90.50398588867186,-3.1079855023828484,-0.757495540896247,-0.3668570196936002,-2.2179462052633996,0.4894430201505404,0.2278572436739468,-1.1404226352661662
0.55,1.68972660256509e+18,90.5540900390625,-3.6875188849300145,-2.7516147007721665,3.139386580842435,1.689726602562586e+18,90.5515859375,-0.1044219970703125,0.615936279296875,0.0039459228515625,1.68972660256509e+18,90.5540900390625,2.743725291922688,8.87107466785729,-3.1531831679090856,1.68972660256509e+18,90.5540900390625,-0.036255194991827,-1.4862963914871217,0.4159335162490606,1.6897266025575757e+18,90.54657563476562,-0.0900119664147495,-1.54474036693573,0.2563610460609197,,,,,,,,,,,,,1.68972660256509e+18,90.5540900390625,22.70704574584961,46.658973693847656,2.5513839721679688,1.6897266025587113e+18,90.5477111328125,52.7013916015625,58.521063232421874,82.07269287109375,1.68972660256509e+18,90.5540900390625,-3.0924054916942176,-0.7737125879026705,-0.3378624653445834,-2.286940910060673,0.4958571497214142,0.2029898982859993,-1.1304513676856174
0.6,1.689726602615194e+18,90.60419394531252,-3.613407412988841,-3.931979383200406,3.271701644592583,1.6897266026126902e+18,90.6016900390625,-0.1042755126953125,0.5227203369140625,0.0330841064453125,1.689726602615194e+18,90.60419394531252,2.4872346317362783,9.022320992761852,-2.9234349102455375,1.689726602615194e+18,90.60419394531252,0.4283719182014465,-0.6112463235855102,1.40841224193573,1.6897266026076795e+18,90.59667954101562,0.342220139503479,-0.7748106062412262,1.2998365759849548,,,,,,,,,,,,,1.689726602615194e+18,90.60419394531252,20.601834869384767,47.6474967956543,4.29119873046875,1.6897266026107146e+18,90.59971455078126,50.46571044921875,59.59720153808594,83.81842956542968,1.689726602615194e+18,90.60419394531252,-3.013563013005626,-0.7702952736924925,-0.3173104989073169,-2.274971496690033,0.5219125334487125,0.1828261625124428,-1.168502285001186
0.65,1.6897266026652984e+18,90.65429819335938,3.996975411628485,-0.511903228199482,0.6924604032623768,1.6897266026627942e+18,90.65179418945311,0.6730987548828125,0.9347747802734376,-0.22647705078125,1.6897266026652984e+18,90.65429819335938,1.8288955768799784,9.289226547074318,-2.5456622123333807,1.6897266026652984e+18,90.65429819335938,1.0150189042091369,-0.4092468574643135,1.2438243329524994,1.6897266026577838e+18,90.6467837890625,0.988378393650055,-0.1558446131646633,1.43995441198349,,,,,,,,,,,,,1.6897266026652984e+18,90.65429819335938,16.913867950439453,48.94590682983399,6.309317016601563,1.6897266026627182e+18,90.6517181640625,46.686614990234375,60.877053833007814,85.87493591308593,1.6897266026652984e+18,90.65429819335938,-2.908109539846468,-0.7487349882585148,-0.3079940159338522,-2.19270538698444,0.5583666465824364,0.1805685642754355,-1.2453062433730755
0.7,1.6897266027154022e+18,90.70440229492188,8.528884681527614,5.0794429651194815,-7.656752069343328,1.6897266027128983e+18,90.70189829101562,0.9968017578125,1.4576690673828123,-0.9895294189453124,1.6897266027154022e+18,90.70440229492188,1.7361648031169177,9.404369760558009,-2.170398516180515,1.6897266027154022e+18,90.70440229492188,-0.1297387778759002,-1.3408859252929688,-0.0465855661779642,1.6897266027078876e+18,90.69688784179688,0.1171756237745285,-1.4995897173881532,0.0320093827322125,,,,,,,,,,,,,1.6897266027154022e+18,90.70440229492188,14.946134185791015,49.300899505615234,8.717027282714843,1.689726602714721e+18,90.70372099609376,44.961972045898435,61.14197998046875,88.24096069335937,1.6897266027154022e+18,90.70440229492188,-2.8955689144339884,-0.7483262008181079,-0.2782188631996083,-2.245460549969275,0.57794551824964,0.1687468891097548,-1.2833927226474509
0.75,1.6897266027655068e+18,90.75450678710938,3.018014906684905,-0.4841536360085009,-0.0793270438584684,1.689726602763003e+18,90.75200283203124,0.4632720947265625,0.91617431640625,-0.228363037109375,1.6897266027655068e+18,90.75450678710938,1.82012827460438,9.325641325566767,-2.423421558708548,1.6897266027655068e+18,90.75450678710938,-0.9030995965003968,-0.0705670624971389,0.2051974363625049,1.6897266027579924e+18,90.74699238281252,-0.9224822402000428,-0.3078194469213485,0.100794256478548,,,,,,,,,,,,,1.6897266027655068e+18,90.75450678710938,14.834292602539062,49.35188446044922,8.270344543457032,1.6897266027615258e+18,90.75052575683594,44.878929138183594,61.269168853759766,87.3550910949707,1.6897266027655068e+18,90.75450678710938,-2.8248468364219317,-0.7561434299632404,-0.2738788336579508,-2.2157982667518263,0.5763492745720586,0.1449269330044456,-1.2564255374355209
0.8,1.689726602815611e+18,90.80461079101562,-0.920403861913234,6.487950983458757,-1.0616918335136771,1.6897266028131067e+18,90.80210683593752,0.044451904296875,1.5858734130859375,-0.42825927734375,1.689726602815611e+18,90.80461079101562,1.710400481072068,9.213672299752831,-2.8853290514740344,1.689726602815611e+18,90.80461079101562,-0.8961783528327942,1.0927280247211455,-0.3330667421221733,1.6897266028080965e+18,90.79709638671876,-0.8700747847557068,1.2104243755340576,-0.2646709717810154,,,,,,,,,,,,,1.689726602815611e+18,90.80461079101562,14.650373077392578,49.769448852539064,5.486186218261719,1.6897266028083297e+18,90.79732978515624,44.76872863769531,61.624447631835935,84.60601806640625,1.689726602815611e+18,90.80461079101562,-2.7471073307557607,-0.7536514178454947,-0.2996939117753972,-2.106727058201608,0.5681988542170495,0.1386160775364716,-1.2216040111259934
0.85,1.689726602865715e+18,90.85471494140624,-5.665048470711261,-3.7969724792438746,6.660910133834183,1.689726602863211e+18,90.8522109375,-0.3985107421875,0.5286285400390625,0.4203277587890625,1.689726602865715e+18,90.85471494140624,1.491835237749815,9.164084502145649,-3.151459354404211,1.689726602865715e+18,90.85471494140624,0.3753441020846367,0.7373625457286834,0.9413088500499726,1.6897266028582006e+18,90.847200390625,0.0700526356697082,0.5103734731674194,0.8408166766166687,,,,,,,,,,,,,1.689726602865715e+18,90.85471494140624,14.403944396972657,49.973995971679685,2.873493957519531,1.6897266028603348e+18,90.84933486328124,44.31802978515625,61.85047607421875,82.17225341796875,1.689726602865715e+18,90.85471494140624,-2.6774134685704305,-0.7466940180194761,-0.3185598230458345,-2.011714032288459,0.5678137883323211,0.1358866312005311,-1.2069713150097734
0.9,1.689726602915819e+18,90.90481899414064,-3.5970158409929276,0.5343607930099964,6.674923286260961,1.689726602913315e+18,90.90231513671874,-0.2617889404296875,1.0376220703125,0.3732879638671875,1.689726602915819e+18,90.90481899414064,1.0797524054742602,9.382452878495451,-2.6275550442527233,1.689726602915819e+18,90.90481899414064,2.0146175384521485,1.3997153244912623,-0.3095185220241546,1.6897266029083044e+18,90.89730434570312,1.8817736625671384,1.6904453039169312,-0.1282241821289062,,,,,,,,,,,,,1.689726602915819e+18,90.90481899414064,13.47351531982422,50.107785034179685,4.2072906494140625,1.689726602912338e+18,90.90133784179687,43.62936706542969,61.91129760742187,83.82796020507813,1.689726602915819e+18,90.90481899414064,-2.69884480553183,-0.7236697325426835,-0.3266939338661847,-1.963442710545386,0.581558634027575,0.1761396683512491,-1.2766302839387127
0.95,1.689726602965923e+18,90.95492299804688,-4.1098596818172926,1.8069190735846756,-2.127103535107225,1.689726602963419e+18,90.9524189453125,-0.302325439453125,1.1567718505859377,-0.421307373046875,1.689726602965923e+18,90.95492299804688,1.12886916611664,9.59555611547172,-1.657171579709649,1.689726602965923e+18,90.95492299804688,1.6208622455596924,-2.4431288957595827,0.7244386523962021,1.6897266029584087e+18,90.94740864257813,1.7839074850082397,-1.9638411849737167,0.3962744057178497,,,,,,,,,,,,,1.689726602965923e+18,90.95492299804688,14.062144470214845,49.144196319580075,9.3218994140625,1.6897266029643407e+18,90.95334067382812,44.023126220703126,60.93811645507813,89.17443237304687,1.689726602965923e+18,90.95492299804688,-2.889718709275793,-0.7183238825083265,-0.2876223046886579,-2.175709978935889,0.599365444459911,0.2038240424844011,-1.3644335932425236
1.0,1.6897266030110164e+18,91.00001654052734,-1.6488465358289424,-0.7218829263277352,-5.463236618434637,1.689726603013523e+18,91.00252294921874,-0.06988525390625,0.9003143310546875,-0.6040069580078125,1.6897266030110164e+18,91.00001654052734,0.6215469948835205,9.7256148078233,-1.0728963582605122,1.6897266030110164e+18,91.00001654052734,0.425799480639398,-2.3588845133781433,2.080790400505066,1.6897266030085125e+18,90.99751254882813,0.5044288519769907,-2.428523063659668,2.023043465614319,,,,,,,,,,,,,1.6897266030110164e+18,91.00001654052734,9.708556175231934,49.42505741119385,13.552385330200195,1.689726603011143e+18,91.0001430053711,39.2795524597168,61.32902145385742,93.19327163696288,1.6897266030110164e+18,91.00001654052734,-2.667360475327916,-0.7082287533367395,-0.2341952548487726,-2.081675285773757,0.6428474807673754,0.173158465338758,-1.4431283829312265
1.05,1.68972660305611e+18,91.04511015625,0.6678482871132158,-1.0133145222878457,-1.3737962005332858,1.689726603063627e+18,91.05262700195313,0.0602996826171875,0.9076690673828124,-0.1684814453125,1.68972660305611e+18,91.04511015625,-0.1130219075125071,9.750594467683436,-1.0228294865125416,1.68972660305611e+18,91.04511015625,-0.0939309336245059,-0.4618775241076946,1.465169620513916,1.6897266030586166e+18,91.04761660156252,-0.1003133945167064,-0.3894438505172729,1.4329298734664917,,,,,,,,,,,,,1.68972660305611e+18,91.04511015625,5.688428497314453,49.97858657836914,14.310211181640623,1.689726603057947e+18,91.046946875,34.52766418457031,62.01805725097656,93.7217254638672,1.68972660305611e+18,91.04511015625,-1.990395760181769,-0.6876049033313478,-0.2196120444023451,-1.4663270895434994,0.6763722286154068,0.1462084094466181,-1.4638810882146476
1.1,1.6897266031062144e+18,91.0952142578125,0.4615370081787556,-1.3750138619208336,0.1884165833263844,1.689726603113731e+18,91.10273100585935,-0.0621673583984375,0.8548431396484375,-0.0575653076171875,1.6897266031062144e+18,91.0952142578125,-0.7090375098126008,9.718656425439717,-1.0924970869482309,1.6897266031062144e+18,91.0952142578125,-0.2365456938743591,1.686330354213715,0.8837305188179017,1.6897266031087206e+18,91.09772065429688,-0.2261189408600329,1.8197580337524415,0.8598783493041993,,,,,,,,,,,,,1.6897266031062144e+18,91.0952142578125,2.67244873046875,50.62407608032227,13.815737915039062,1.6897266031099525e+18,91.09895239257813,32.45582885742188,62.61825866699219,92.84310913085938,1.6897266031062144e+18,91.0952142578125,-1.546609575403681,-0.6653913678618897,-0.2349018169195371,-1.0014230689687855,0.6934354915931333,0.1449549922079265,-1.437078472639799
1.15,1.6897266031563182e+18,91.1453181640625,0.4087781500939279,0.2431127076971531,0.9911364466188848,1.689726603163835e+18,91.15283505859377,-0.0531707763671875,1.02210693359375,-0.01951904296875,1.6897266031563182e+18,91.1453181640625,-1.2103866619175672,9.675975104672313,-1.0287553109779952,1.6897266031563182e+18,91.1453181640625,0.1318865697830915,1.3560406535863876,0.9074857592582702,1.6897266031588244e+18,91.14782456054688,0.1518325628712772,1.2215166930109262,0.9261781215667724,,,,,,,,,,,,,1.6897266031563182e+18,91.1453181640625,2.210676574707031,51.058678436279294,12.876298522949218,1.689726603161958e+18,91.1509578125,31.989517211914062,62.95688171386719,92.25147705078126,1.6897266031563182e+18,91.1453181640625,-1.355706872610303,-0.6384663323860853,-0.2733151834148415,-0.708570204813204,0.6978194155255617,0.1748090798171549,-1.407596862741164
1.2,1.6897266032064225e+18,91.19542231445313,1.5607436465421318,-0.2153659212112426,-0.3032011195655167,1.689726603213939e+18,91.2029389160156,-0.026068115234375,0.9452728271484376,-0.1382232666015625,1.6897266032064225e+18,91.19542231445313,-1.6827281919009984,9.619341597111225,-0.8908768263339996,1.6897266032064225e+18,91.19542231445313,0.3846409976482391,-0.6136635363101959,0.8770040035247803,1.6897266032089288e+18,91.19792885742189,0.3903104841709137,-0.6157978415489197,0.8642916917800904,,,,,,,,,,,,,1.6897266032064225e+18,91.19542231445313,0.1600688934326171,51.14885711669922,13.175230407714844,1.6897266032139625e+18,91.20296235351564,29.534255981445312,62.99730224609375,92.74307556152344,1.6897266032064225e+18,91.19542231445313,-1.1424860661156817,-0.6190817272442853,-0.2760698064548649,-0.4887333524673199,0.7138212605422212,0.1758384262499622,-1.3752103514330056
1.25,1.6897266032565263e+18,91.24552641601562,0.9840423382525144,-0.319165785999298,-0.0877481265122816,1.6897266032640433e+18,91.25304326171874,-0.1414947509765625,0.967974853515625,-0.0731231689453125,1.6897266032565263e+18,91.24552641601562,-2.057303058232963,9.56192120618224,-0.6990463429109007,1.6897266032565263e+18,91.24552641601562,0.5360373973846435,0.1798658171668648,0.8052874326705932,1.6897266032590328e+18,91.24803286132811,0.5442843973636627,0.2290843173861503,0.8072653174400329,,,,,,,,,,,,,1.6897266032565263e+18,91.24552641601562,-1.9325679779052731,50.91695327758789,14.161268615722657,1.689726603260766e+18,91.24976593017578,27.85080337524414,62.66261672973633,93.79968643188477,1.6897266032565263e+18,91.24552641601562,-0.96752232505824,-0.6042978667721763,-0.2679060513288624,-0.3294163821684258,0.7301387394345237,0.1729090331946937,-1.347077610399588
1.3,1.6897266033066304e+18,91.29563041992188,0.8258634083797037,1.1235027437126637,-1.001144308927059,1.6897266033141473e+18,91.30314721679687,-0.1398712158203125,1.0895050048828123,-0.1765899658203125,1.6897266033066304e+18,91.29563041992188,-2.4546984774689373,9.485622862495184,-0.3832730306277983,1.6897266033066304e+18,91.29563041992188,0.5433232069015503,0.2691638514399528,0.8480172276496887,1.6897266033091366e+18,91.29813681640624,0.5324698090553284,0.2432841345667839,0.8566040515899658,,,,,,,,,,,,,1.6897266033066304e+18,91.29563041992188,-3.3723686218261717,50.4163314819336,15.273162841796877,1.6897266033075717e+18,91.29657182617188,26.350711059570312,62.18028564453125,94.91186828613282,1.6897266033066304e+18,91.29563041992188,-0.8122391870322929,-0.5839408770192046,-0.2677639348344264,-0.1565110027128529,0.7439360168701235,0.1838985698810778,-1.314432106688552
1.35,1.6897266033567345e+18,91.345734375,2.6888503184667227,1.0693928509581088,-2.8311971806964276,1.6897266033642511e+18,91.35325122070311,0.0189666748046875,1.0565277099609376,-0.3749114990234375,1.6897266033567345e+18,91.345734375,-2.86883436981678,9.374983039458394,-0.191781540674623,1.6897266033567345e+18,91.345734375,0.2736271411180496,-0.0750323586165904,0.7768465876579285,1.6897266033592407e+18,91.3482408203125,0.2608507126569747,-0.0481494726613164,0.7509012222290039,,,,,,,,,,,,,1.6897266033567345e+18,91.345734375,-5.139579391479492,50.0951904296875,16.206747436523436,1.689726603359577e+18,91.34857709960936,24.460162353515624,61.843807983398435,95.76397705078124,1.6897266033567345e+18,91.345734375,-0.7246057012577622,-0.565115442857304,-0.2660977556227754,-0.0672509054494064,0.7585832005726161,0.1853470211189622,-1.2731837515967992
1.4,1.6897266034068383e+18,91.39583837890626,3.921046894941031,1.3640310463267564,-4.475686681226492,1.6897266034143552e+18,91.40335517578126,0.1005828857421875,1.1542205810546875,-0.41650390625,1.6897266034068383e+18,91.39583837890626,-3.0771507816818353,9.31021801408112,-0.1436557400847691,1.6897266034068383e+18,91.39583837890626,-0.3306368205696344,0.6338840961456299,0.0222103953361511,1.689726603409345e+18,91.39834482421875,-0.3656508471816778,0.667695814371109,-0.0305653139948844,,,,,,,,,,,,,1.6897266034068383e+18,91.39583837890626,-6.064676666259766,50.01106719970703,16.38092498779297,1.6897266034115825e+18,91.40058251953126,24.148834228515625,61.939849853515625,95.58619384765623,1.6897266034068383e+18,91.39583837890626,-0.7228783064040629,-0.554302545929936,-0.2737825189221567,-0.0466528629946561,0.7628261392039943,0.1893388920785101,-1.2512553615546114
1.45,1.6897266034569426e+18,91.44594243164065,4.349875008020996,3.6471086655128,-1.7164693380439282,1.689726603464459e+18,91.4534591796875,0.2930511474609375,1.30120849609375,-0.1986236572265625,1.6897266034569426e+18,91.44594243164065,-2.823721028822958,9.38438168382704,-0.3161478556437044,1.6897266034569426e+18,91.44594243164065,-0.7381394028663635,0.6369572043418884,-1.2039409756660462,1.6897266034594488e+18,91.44844877929688,-0.7384832739830017,0.6251429259777069,-1.303109097480774,,,,,,,,,,,,,1.6897266034569426e+18,91.44594243164065,-4.297964096069336,50.5291259765625,15.081695556640623,1.6897266034635866e+18,91.45258657226564,26.89375,62.594873046875,93.91224670410156,1.6897266034569426e+18,91.44594243164065,-0.837178350065094,-0.5619359443640736,-0.2949086785076485,-0.1131307439759255,0.7462669343823424,0.2005376903103737,-1.2766478732293751
1.5,1.6897266035070464e+18,91.49604633789065,7.421249485936761,3.253223797068,-2.5910048612645267,1.689726603514563e+18,91.50356328125,0.330352783203125,1.37821044921875,-0.3402099609375,1.6897266035070464e+18,91.49604633789065,-1.6190513124735653,9.634045479055048,-0.6575974865479022,1.6897266035070464e+18,91.49604633789065,-1.0178141832351684,-0.191738773137331,-3.646437168121338,1.6897266035095526e+18,91.498552734375,-1.048458957672119,-0.2200884759426117,-3.6712833881378177,,,,,,,,,,,,,1.6897266035070464e+18,91.49604633789065,2.337647247314453,50.93721389770508,13.160125732421877,1.689726603510391e+18,91.49939105224608,34.14067840576172,62.71656799316406,92.2100944519043,1.6897266035070464e+18,91.49604633789065,-1.1866557560047828,-0.6088822832811005,-0.3024797982999839,-0.4337898683745796,0.7005061191404105,0.2151010620420414,-1.3878769230548345
1.55,1.6897266035571505e+18,91.54615043945311,-5.948795240483284,4.574014252083301,1.28868323752366,1.6897266035646671e+18,91.5536671875,-0.666741943359375,1.40924072265625,0.1119415283203125,1.6897266035571505e+18,91.54615043945311,-0.099915785329747,9.722362995646597,-1.231491657688394,1.6897266035571505e+18,91.54615043945311,-1.1769287586212158,1.415324930101633,-2.450189781188965,1.689726603559657e+18,91.54865683593748,-1.17641224861145,1.5463343143463135,-2.3882569074630737,,,,,,,,,,,,,1.6897266035571505e+18,91.54615043945311,10.378675842285157,50.06516723632812,10.508665466308594,1.6897266035571976e+18,91.54619765625,41.23102722167969,61.73903198242188,89.42921447753906,1.6897266035571505e+18,91.54615043945311,-2.24842322866233,-0.6659142598441201,-0.3112567296378942,-1.4663719275799532,0.6386385433045543,0.2265424828960457,-1.4402188483528342
1.6,1.6897266036072545e+18,91.59625434570312,-3.5477846309645473,1.232477848407626,1.839937370732725,1.6897266036147712e+18,91.60377119140624,-0.05467529296875,1.0519744873046877,-0.12017822265625,1.6897266036072545e+18,91.59625434570312,0.6858158945205062,9.599877953419684,-1.8655253425234557,1.6897266036072545e+18,91.59625434570312,-1.270528221130371,1.5250181674957275,-1.5378273248672485,1.689726603609761e+18,91.59876098632812,-1.2634491205215457,1.4463922262191773,-1.5303539276123046,,,,,,,,,,,,,1.6897266036072545e+18,91.59625434570312,15.31012954711914,48.80372009277344,6.869998168945313,1.6897266036092042e+18,91.59820424804688,46.76907653808594,60.20341186523437,85.05665893554688,1.6897266036072545e+18,91.59625434570312,-2.803592645609962,-0.6869696891058423,-0.3516871478138279,-1.917985505215454,0.5840074221528468,0.2510000212213865,-1.3664466968921771
1.65,1.6897266036573583e+18,91.64635834960936,-0.853833277644813,0.8076943345433472,0.1855211103066802,1.6897266036648753e+18,91.65387529296876,-0.1082916259765625,0.9949920654296877,-0.235247802734375,1.6897266036573583e+18,91.64635834960936,1.36598276491642,9.387085331375598,-2.473480071793497,1.6897266036573583e+18,91.64635834960936,-1.2298263549804689,-0.3826243922114372,-1.3935545206069946,1.6897266036598648e+18,91.64886494140626,-1.2356865644454955,-0.4563517719507217,-1.3533779740333558,,,,,,,,,,,,,1.6897266036573583e+18,91.64635834960936,19.411801910400392,47.08709030151367,3.4586273193359376,1.6897266036612116e+18,91.65021176757811,50.290914916992186,58.48809814453125,82.19526672363281,1.6897266036573583e+18,91.64635834960936,-2.9967743265827385,-0.7108619874119488,-0.3704481993692602,-2.0723000796183677,0.5413199288328943,0.2534417988687785,-1.2782213686860373
1.7,1.689726603707463e+18,91.69646264648438,-3.912279943378567,-1.2562650836127995,0.7697218052148818,1.6897266037149793e+18,91.70397915039062,-0.179248046875,0.770599365234375,-0.142144775390625,1.689726603707463e+18,91.69646264648438,1.932126029669195,9.12777259950578,-3.013148615822792,1.689726603707463e+18,91.69646264648438,-1.2678471088409424,-0.6767865180969238,-0.7289217710494995,1.689726603709969e+18,91.69896909179688,-1.253067135810852,-0.6653166532516479,-0.7000163674354554,,,,,,,,,,,,,1.689726603707463e+18,91.69646264648438,21.812035369873048,45.736830139160155,1.4610198974609374,1.689726603713217e+18,91.70221704101564,52.36298828125,57.32222290039063,80.38202819824218,1.689726603707463e+18,91.69646264648438,-3.0366640363683315,-0.7379811226918255,-0.3699199113523575,-2.140665910464995,0.5144006220098543,0.2319738456830117,-1.19707420287479
1.75,1.689726603757566e+18,91.7465658691406,-3.75947767965585,-2.177808733984828,4.181021247137784,1.6897266037650826e+18,91.75408271484376,-0.1361236572265625,0.6696441650390625,0.100030517578125,1.689726603757566e+18,91.7465658691406,2.2550209484203156,8.905425031939744,-3.430079662621021,1.689726603757566e+18,91.7465658691406,-0.8912511110305786,-0.8958468437194824,-0.1284715157933533,1.6897266037600722e+18,91.749072265625,-0.8638652443885804,-0.9004546403884888,-0.098302549123764,,,,,,,,,,,,,1.689726603757566e+18,91.7465658691406,22.776980590820312,45.05155258178711,0.1309814453125,1.689726603760021e+18,91.74902087402344,52.884239196777344,56.80714797973633,79.38304901123047,1.689726603757566e+18,91.7465658691406,-3.00918061419356,-0.756531630186519,-0.3675302465855934,-2.1523609440699274,0.4999411426406303,0.2063105511290728,-1.1388747814270306
1.8,1.6897266038076698e+18,91.79666977539064,-3.38239717256546,-2.519385907565355,4.470853152816295,1.6897266038151867e+18,91.80418666992188,-0.1140533447265625,0.6213714599609375,0.0918792724609375,1.6897266038076698e+18,91.79666977539064,2.373361029023081,8.817542984156011,-3.57605015140146,1.6897266038076698e+18,91.79666977539064,-0.2862153150141239,-1.1942805290222167,0.4628346115350723,1.6897266038101765e+18,91.79917622070312,-0.2446501165628432,-1.186579203605652,0.5001625865697861,,,,,,,,,,,,,1.6897266038076698e+18,91.79666977539064,22.45903625488281,45.085137939453126,0.1870864868164062,1.689726603806827e+18,91.79582709960935,52.47036437988281,56.94850463867188,79.63644409179688,1.6897266038076698e+18,91.79666977539064,-2.9564541672613673,-0.7670455728652597,-0.3559104370526745,-2.156728224867382,0.5022801376596172,0.1805467897174153,-1.1178018599605457
1.85,1.6897266038577738e+18,91.84677387695312,-3.5280294569805264,-3.275765299221873,4.723604451117813,1.6897266038652905e+18,91.854290625,-0.1184417724609375,0.5794158935546875,0.15111083984375,1.6897266038577738e+18,91.84677387695312,2.166805781611651,8.943199642156362,-3.385574925818741,1.6897266038577738e+18,91.84677387695312,0.6291475474834443,-0.5482272684574128,1.2513660073280335,1.6897266038602803e+18,91.8492802734375,0.6780032455921173,-0.4606974184513092,1.2814844369888303,,,,,,,,,,,,,1.6897266038577738e+18,91.84677387695312,20.82239227294922,45.8686637878418,1.5095382690429688,1.689726603858832e+18,91.84783178710936,50.30577087402344,57.96629943847656,81.31764221191406,1.6897266038577738e+18,91.84677387695312,-2.882268911527204,-0.7640018630914108,-0.3381830910216544,-2.1395406428853567,0.5244589903497727,0.1635726332634252,-1.1483511429835342
1.9,1.6897266039078776e+18,91.89687778320312,-0.1281685531429946,-1.9055219542515272,2.9746147701236603,1.6897266039153946e+18,91.90439467773436,0.3938507080078125,0.909136962890625,-0.19537353515625,1.6897266039078776e+18,91.89687778320312,1.5193494429758192,9.241087194709776,-2.8953067816787956,1.6897266039078776e+18,91.89687778320312,1.4598063707351685,0.2553491111844778,1.3154099225997924,1.689726603910384e+18,91.89938417968747,1.4695160865783692,0.1712635695934296,1.2819907665252686,,,,,,,,,,,,,1.6897266039078776e+18,91.89687778320312,18.06515579223633,47.0630599975586,3.653984069824219,1.6897266039108357e+18,91.89983540039064,47.3609619140625,59.23907470703125,83.86554565429688,1.6897266039078776e+18,91.89687778320312,-2.7967155881319945,-0.7394055074414141,-0.3319810449423224,-2.052045299997266,0.55876262167961,0.1750301358401089,-1.230607587233211
1.95,1.689726603957982e+18,91.94698188476562,9.627945525518657,6.923884252368808,-9.962488328869938,1.6897266039654986e+18,91.95449853515623,1.07305908203125,1.6482879638671877,-1.440924072265625,1.689726603957982e+18,91.94698188476562,1.1846284042873232,9.425939319713711,-2.4319045787630973,1.689726603957982e+18,91.94698188476562,-0.0865302801132202,-0.2268371410667896,0.3237562090158462,1.6897266039604884e+18,91.94948828125,-0.2125650465488434,-0.1312726527452468,0.2855862036347388,,,,,,,,,,,,,1.689726603957982e+18,91.94698188476562,15.894782257080076,47.72596740722656,6.606507873535156,1.6897266039628393e+18,91.95183920898438,45.67822265625,59.624993896484376,86.16853942871094,1.689726603957982e+18,91.94698188476562,-2.749131556330015,-0.7264431602261314,-0.3157517228935346,-2.0242671348776886,0.5829965121973391,0.1807631554658445,-1.2912784334490244
2.0,1.689726604008086e+18,91.99708579101562,3.8018182680007064,-1.180989068710804,-5.748469009041488,1.689726604015603e+18,92.00460283203124,0.2186187744140625,0.7754119873046875,-0.5773773193359375,1.689726604008086e+18,91.99708579101562,1.1218876220531762,9.308167160578964,-2.870686895041763,1.689726604008086e+18,91.99708579101562,-1.205118143558502,-0.3239396750926971,0.1551097698509693,1.6897266040105925e+18,91.9995921875,-1.1644550800323483,-0.3642472416162491,0.2009205915033817,,,,,,,,,,,,,1.689726604008086e+18,91.99708579101562,15.552804565429687,47.94142074584961,5.1192626953125,1.6897266040148431e+18,92.00384296875,45.483489990234375,59.85856628417969,83.84613037109375,1.689726604008086e+18,91.99708579101562,-2.6716800878504476,-0.7279621605766202,-0.3317566919906517,-1.9442333041965143,0.5768171398737975,0.1649261996885824,-1.2509911694469082
2.05,1.68972660405819e+18,92.0471900390625,-1.1776257151445002,5.3080314729017015,4.380778154259025,1.6897266040657068e+18,92.05470678710938,0.26519775390625,1.7316131591796875,0.1285308837890625,1.68972660405819e+18,92.0471900390625,0.970916402375996,9.243088130042551,-3.1285506555992364,1.68972660405819e+18,92.0471900390625,-0.0169770114123821,-0.1642632290720939,-0.0194704145193099,1.689726604060696e+18,92.0496962890625,-0.0083020314574241,-0.1584681451320648,-0.1053081698715686,,,,,,,,,,,,,1.68972660405819e+18,92.0471900390625,14.345458221435546,48.41639785766601,3.709788513183594,1.689726604061648e+18,92.05064801025392,44.21998596191406,60.32066345214844,83.05828094482422,1.68972660405819e+18,92.0471900390625,-2.5855040537278895,-0.7262190052478749,-0.3383231685805358,-1.871622202329648,0.5796768217895265,0.1486646785712112,-1.2301354645525395
2.1,1.689726604108294e+18,92.09729409179688,-3.026190438999385,1.9380750304275751,0.9382239177292584,1.6897266041158108e+18,92.10481088867188,-0.5321014404296875,0.6677215576171875,-0.0961181640625,1.689726604108294e+18,92.09729409179688,1.145275833390355,9.199362502467036,-3.1977515591451526,1.689726604108294e+18,92.09729409179688,-0.2066532731056213,0.7308106228709221,0.0326208189129829,1.6897266041108004e+18,92.09980043945312,-0.1669106930494308,0.8722297012805938,0.1151627480983733,,,,,,,,,,,,,1.689726604108294e+18,92.09729409179688,15.052613830566406,48.02996292114258,3.495960998535156,1.6897266041084526e+18,92.097452734375,45.09976806640625,59.8378662109375,82.74298706054688,1.689726604108294e+18,92.09729409179688,-2.628734477765914,-0.7324191001427215,-0.3383067215465817,-1.9148020286959189,0.5719535452168522,0.14814857278179,-1.217048456289635
2.15,1.689726604158398e+18,92.147398046875,-3.56046428437829,-6.113157418261766,7.531865109767319,1.689726604165915e+18,92.15491484375,-0.2301055908203125,0.6164794921875,0.43504638671875,1.689726604158398e+18,92.147398046875,0.6419322049194947,9.292926921349167,-3.0569524524271485,1.689726604158398e+18,92.147398046875,1.2238266825675963,2.4778940677642822,0.3788325920701026,1.6897266041609044e+18,92.14990444335938,1.2784593462944032,2.4243736982345583,0.3189526911824941,,,,,,,,,,,,,1.689726604158398e+18,92.147398046875,14.560980224609375,48.148800659179685,2.6981231689453127,1.6897266041604595e+18,92.14945952148436,44.57277221679688,60.06424865722656,82.15325622558593,1.689726604158398e+18,92.147398046875,-2.5812764500924255,-0.7070955093144919,-0.3672872935788575,-1.775328373574466,0.5764441549483127,0.1799339786187986,-1.2462200167936608
2.2,1.689726604208502e+18,92.19750205078124,-3.676986852617264,3.9985190170347686,3.5428488989019393,1.6897266042110085e+18,92.20000848388672,-0.3373565673828125,1.402507781982422,0.0404472351074218,1.689726604208502e+18,92.19750205078124,0.563626890711151,9.497686108350155,-2.3626270151713493,1.689726604208502e+18,92.19750205078124,1.659586524963379,-0.5375652313232422,-0.45874964594841,1.6897266042110085e+18,92.20000849609376,1.6528316736221311,-0.6741834461688996,-0.4329733669757843,,,,,,,,,,,,,1.689726604208502e+18,92.19750205078124,15.266525268554688,47.8387809753418,4.455564880371094,1.6897266042124682e+18,92.20146821289062,45.76290283203125,59.426116943359375,85.00989990234375,1.689726604208502e+18,92.19750205078124,-2.6774582306934116,-0.6912354632556943,-0.3641591273138246,-1.8098708356520077,0.5818351631457783,0.2255475544530429,-1.3200294962863297
2.25,1.689726604258606e+18,92.24760605468752,-2.952086185903549,-0.2004754598802328,-2.485246029815376,1.689726604256102e+18,92.24510205078124,-0.2306243896484375,0.954107666015625,-0.4351837158203125,1.689726604258606e+18,92.24760605468752,0.5863456564345956,9.650209496679306,-1.62703468321681,1.689726604258606e+18,92.24760605468752,1.1278976678848267,-1.5699098348617553,1.267635241150856,1.6897266042611123e+18,92.25011240234376,1.1005781650543214,-1.5116687297821043,1.367105704545975,,,,,,,,,,,,,1.689726604258606e+18,92.24760605468752,15.498241424560549,47.24006652832031,9.163026428222656,1.689726604264474e+18,92.25347397460936,44.7635498046875,59.250607299804685,89.6912109375,1.689726604258606e+18,92.24760605468752,-2.713067918941548,-0.6909226530628088,-0.3208043411673161,-1.9108573885811997,0.6057596634268553,0.2290976160766613,-1.3931743319263092
2.3,1.68972660430871e+18,92.29771010742188,0.903533946428895,-0.3187506585532426,-3.893750073405802,1.689726604306206e+18,92.29520600585936,0.088629150390625,0.9600860595703123,-0.514288330078125,1.68972660430871e+18,92.29771010742188,-0.0795395752754897,9.733170220865013,-1.1848604448644815,1.68972660430871e+18,92.29771010742188,0.5953952431678772,-1.262959361076355,1.2520345449447632,1.6897266043112166e+18,92.30021655273438,0.564022958278656,-1.286070740222931,1.2205451011657715,,,,,,,,,,,,,1.68972660430871e+18,92.29771010742188,11.678636169433592,48.05105209350586,12.432760620117188,1.6897266043112763e+18,92.30027661132812,41.06639099121094,59.98408508300781,92.26764678955078,1.68972660430871e+18,92.29771010742188,-2.2382282577049644,-0.670622911744322,-0.2966270322804799,-1.4965859960941088,0.6449415080710269,0.2148720191040704,-1.4485460494025109
2.35,1.6897266043588142e+18,92.34781411132812,0.583634358955808,-1.6390876414865254,-2.3514588769121465,1.68972660435631e+18,92.34531005859375,-0.0056976318359375,0.8169525146484375,-0.33548583984375,1.6897266043588142e+18,92.34781411132812,-0.5940192305763066,9.727957454652785,-1.0783846242523938,1.6897266043588142e+18,92.34781411132812,-0.0696052942425012,-0.4623777151107788,1.096785354614258,1.6897266043613204e+18,92.35032045898438,-0.0897495922166854,-0.3552127379924059,1.0663377165794372,,,,,,,,,,,,,1.6897266043588142e+18,92.34781411132812,8.139495086669921,48.73375701904297,13.78118133544922,1.6897266043580813e+18,92.34708129882812,37.94544372558594,60.64383544921875,93.19644165039062,1.6897266043588142e+18,92.34781411132812,-1.7616786220411558,-0.6572713398612221,-0.2818787565674417,-1.0737192154142192,0.6714158508490342,0.1940858760866981,-1.444302728794726
2.4,1.689726604408918e+18,92.39791806640623,-0.8027392986453323,-0.6620525224214793,0.6664350337415934,1.689726604406414e+18,92.39541411132814,-0.1952392578125,0.9305419921875,-0.0354827880859375,1.689726604408918e+18,92.39791806640623,-1.014250166476667,9.690677349954845,-1.1044541397888958,1.689726604408918e+18,92.39791806640623,-0.0460696678608656,1.7163345694541932,0.6331233382225037,1.6897266044114245e+18,92.40042446289064,-0.0304269352927804,1.7977257370948792,0.6404360771179199,,,,,,,,,,,,,1.689726604408918e+18,92.39791806640623,6.609139251708984,49.32903137207031,13.32828369140625,1.689726604410085e+18,92.39908520507812,36.52478942871094,61.28685302734375,92.42359008789064,1.689726604408918e+18,92.39791806640623,-1.5517790196374353,-0.6393828072685289,-0.2991387513975512,-0.8304248764158618,0.6798058790277397,0.1984227118048941,-1.4169729604277934
2.45,1.689726604459022e+18,92.4480220703125,-0.257625304852575,-0.1547968277668952,1.0369261086651682,1.689726604456518e+18,92.44551796875,-0.1711029052734375,0.966278076171875,0.012213134765625,1.689726604459022e+18,92.4480220703125,-1.517705153674036,9.641043492022751,-0.9399009694829582,1.689726604459022e+18,92.4480220703125,0.3593864381313324,0.9999934755265713,1.1224244594573975,1.6897266044615286e+18,92.450528515625,0.3927030801773071,0.8829067260026932,1.1431300520896912,,,,,,,,,,,,,1.689726604459022e+18,92.4480220703125,5.947144317626953,49.77247619628906,12.480740356445311,1.6897266044620892e+18,92.45108920898436,35.62541198730469,61.728448486328126,91.91973266601562,1.689726604459022e+18,92.4480220703125,-1.3704777983118244,-0.6099227065721188,-0.3307520661924772,-0.5594453498065329,0.6840618952941003,0.2247637113914694,-1.3870898824646507
2.5,1.689726604509126e+18,92.4981259765625,1.997259333063066,0.0741723206698894,0.7460727948235719,1.6897266045066222e+18,92.49562216796876,-0.004595947265625,0.986700439453125,0.0020111083984375,1.689726604509126e+18,92.4981259765625,-2.095571238733232,9.556713466858266,-0.6452170498894899,1.689726604509126e+18,92.4981259765625,0.8465771317481995,-0.8342503070831299,1.176468873023987,1.6897266045116324e+18,92.50063237304688,0.8506978511810303,-0.8516314268112183,1.169897770881653,,,,,,,,,,,,,1.689726604509126e+18,92.4981259765625,3.1966739654541017,49.87700729370117,13.507037353515624,1.6897266045140936e+18,92.5030935546875,32.167501831054686,61.63963623046875,93.47906799316408,1.689726604509126e+18,92.4981259765625,-1.1092293450635542,-0.5853771511688057,-0.3273163746717774,-0.3019099361608523,0.7068321186649971,0.22461098109889,-1.3448716024627454
2.55,1.6897266045592302e+18,92.548230078125,2.928529603036046,1.0289562111514805,-1.7857953585003314,1.689726604556726e+18,92.54572602539062,0.039447021484375,1.071044921875,-0.2294708251953125,1.6897266045592302e+18,92.548230078125,-2.582328042977452,9.4524992929548,-0.365364847177118,1.6897266045592302e+18,92.548230078125,0.5706184804439545,-0.2667994782328605,0.8365154266357422,1.6897266045617364e+18,92.55073642578124,0.55301433801651,-0.2169403064996004,0.7949792921543122,,,,,,,,,,,,,1.6897266045592302e+18,92.548230078125,-0.269900894165039,49.50368041992188,15.404130554199218,1.6897266045608955e+18,92.54989556884766,29.320533752441406,61.28293991088867,95.01654815673828,1.6897266045592302e+18,92.548230078125,-0.9154039915468954,-0.5669312310284436,-0.3120506189796399,-0.1418410185952923,0.7309299006621723,0.2165667754464438,-1.3014533286897554
2.6,1.689726604609334e+18,92.59833403320312,3.0919642030277847,0.8979343436300754,-4.349817841780185,1.68972660460683e+18,92.59583012695312,0.0270660400390625,1.050421142578125,-0.47681884765625,1.689726604609334e+18,92.59833403320312,-2.727776202997267,9.417932655773162,-0.1724100358992069,1.689726604609334e+18,92.59833403320312,0.1978335604071616,0.2204512596130371,-0.1618207439780235,1.6897266046118405e+18,92.60084047851562,0.170509260892868,0.2316779732704162,-0.1767242267727851,,,,,,,,,,,,,1.689726604609334e+18,92.59833403320312,-1.101587677001953,49.22931137084961,16.347052001953124,1.6897266046076956e+18,92.59669565429688,28.99176025390625,61.05562744140625,95.7869140625,1.689726604609334e+18,92.59833403320312,-0.8417052880510978,-0.5581456232460031,-0.3092574385297937,-0.0629793164445332,0.7371814329676838,0.2222295464244372,-1.2883167882511095
2.65,1.689726604659438e+18,92.64843803710936,1.1648497179102897,2.2152719109386205,-4.6955900705108045,1.689726604656934e+18,92.64593408203125,-0.1547393798828125,1.1990936279296875,-0.483917236328125,1.689726604659438e+18,92.64843803710936,-2.6856165095642206,9.42862812040627,-0.2310785728589165,1.689726604659438e+18,92.64843803710936,-0.5286808013916016,0.0346852207556366,0.0461160250008106,1.6897266046619443e+18,92.65094438476562,-0.5513997733592987,0.0237961433827877,0.0427350517362356,,,,,,,,,,,,,1.689726604659438e+18,92.64843803710936,-0.5089420318603516,49.42976303100586,16.06671600341797,1.689726604659699e+18,92.6486990234375,29.61439514160156,61.34330139160157,95.31021118164062,1.689726604659438e+18,92.64843803710936,-0.8801473754501288,-0.5588328569200938,-0.3164938041702408,-0.0856666333170188,0.7326288927569682,0.2253311053733372,-1.2922423765750597
2.7,1.689726604709542e+18,92.69854213867188,3.7951262668552994,2.819255924559831,-1.5590058629640935,1.689726604707038e+18,92.69603793945312,0.17138671875,1.248297119140625,-0.206719970703125,1.689726604709542e+18,92.69854213867188,-2.5689060467638076,9.44632861226976,-0.5611196059849113,1.689726604709542e+18,92.69854213867188,-0.7103492021560669,-0.1636331722140312,-0.8834921896457673,1.6897266047120484e+18,92.70104848632812,-0.7038241505622864,-0.1478340424597263,-1.0400119423866272,,,,,,,,,,,,,1.689726604709542e+18,92.69854213867188,-0.3544284820556641,50.05632858276367,14.650575256347656,1.689726604711703e+18,92.70070292968752,30.092568969726564,62.09851684570312,93.50294494628906,1.689726604709542e+18,92.69854213867188,-1.0154448535236749,-0.5672406446866918,-0.327649336885197,-0.2164837199254719,0.7235985722790452,0.2173189071204217,-1.2990098710167597
2.75,1.6897266047596457e+18,92.74864555664062,9.122818776490687,3.365222165880799,1.398399764396548,1.6897266047571415e+18,92.7461416015625,0.7360931396484375,1.339306640625,0.0547576904296875,1.6897266047596457e+18,92.74864555664062,-1.3015905110677704,9.657827921180724,-0.9297946590755136,1.6897266047596457e+18,92.74864555664062,-0.8597523450851441,-0.265246059000492,-3.9486293315887457,1.689726604762152e+18,92.75115200195312,-0.8733533143997192,-0.2543275624513625,-3.9506436347961422,,,,,,,,,,,,,1.6897266047596457e+18,92.74864555664062,4.535403442382813,50.22215270996094,12.898245239257813,1.6897266047637064e+18,92.75270634765626,37.16650390625,61.842437744140625,91.7638671875,1.6897266047596457e+18,92.74864555664062,-1.4873807627820317,-0.6178691258319169,-0.3255293529679132,-0.681845176567607,0.6782308954219943,0.2266872353590071,-1.4004900424966622
2.8,1.6897266048097498e+18,92.79874965820312,-6.387403632273673,4.927297061026692,2.0873567772608994,1.6897266048072456e+18,92.79624555664064,-0.626806640625,1.4853240966796877,0.067572021484375,1.6897266048097498e+18,92.79874965820312,0.3096931228931061,9.69564905933976,-1.3905243110071868,1.6897266048097498e+18,92.79874965820312,-0.9689950108528136,1.6610706090927123,-2.728948640823364,1.689726604812256e+18,92.8012560058594,-0.9808791995048524,1.7911030769348144,-2.6782506942749023,,,,,,,,,,,,,1.6897266048097498e+18,92.79874965820312,13.305699920654297,48.79926223754883,10.605552673339844,1.6897266048105108e+18,92.79951098632812,44.864501953125,60.281761169433594,89.47078704833984,1.6897266048097498e+18,92.79874965820312,-2.603414356580013,-0.6741724552546042,-0.3294134300102767,-1.760846957005906,0.6126065730800011,0.2471908643601084,-1.421672473199319
2.85,1.6897266048598536e+18,92.84885356445314,-3.982492362054586,1.078016536205411,1.117625551468432,1.6897266048573496e+18,92.84634965820312,-0.2439727783203125,1.0637298583984376,-0.102032470703125,1.6897266048598536e+18,92.84885356445314,1.2322432067080586,9.516625202097892,-2.002133368840217,1.6897266048598536e+18,92.84885356445314,-1.1209206104278564,1.6469157934188845,-1.8937845945358276,1.68972660486236e+18,92.8513599609375,-1.1197930812835692,1.533500599861145,-1.8716933250427248,,,,,,,,,,,,,1.6897266048598536e+18,92.84885356445314,19.89103469848633,46.864393615722655,6.242179870605469,1.6897266048573158e+18,92.84631596679688,50.38604736328125,58.548196411132814,85.26691589355468,1.6897266048598536e+18,92.84885356445314,-1.8218563598848672,-0.695860208612055,-0.3676875316142831,-2.1187867215156677,0.5492256115484977,0.2802513654345704,-1.3284791569883834
2.9,1.6897266049099576e+18,92.89895756835938,-2.381475040408671,0.2834937010198831,-0.1802688011886179,1.6897266049074537e+18,92.89645351562498,-0.0622802734375,0.967755126953125,-0.280889892578125,1.6897266049099576e+18,92.89895756835938,1.997475050866455,9.256621565354466,-2.5363717921926083,1.6897266049099576e+18,92.89895756835938,-1.0803720235824583,-0.5648500680923462,-1.3704776644706729,1.689726604912464e+18,92.9014640625,-1.0821653842926025,-0.5851565659046173,-1.3206173658370972,,,,,,,,,,,,,1.6897266049099576e+18,92.89895756835938,23.856090545654297,44.99067153930664,3.190049743652344,1.689726604909323e+18,92.89832319335936,54.187188720703126,56.700958251953125,82.42335510253906,1.6897266049099576e+18,92.89895756835938,3.059113970957637,-0.7220628467637787,-0.3776247526126703,-2.2360033147928404,0.5054474391629115,0.283502065673847,-1.2350954328665449
2.95,1.6897266049600617e+18,92.94906157226562,-4.163395223363041,-1.1693496012258529,1.0449939720475674,1.6897266049575575e+18,92.9465576171875,-0.1694549560546875,0.7858245849609375,-0.187091064453125,1.6897266049600617e+18,92.94906157226562,2.4674624773913623,9.006319355318547,-2.990552110159099,1.6897266049600617e+18,92.94906157226562,-1.094654393196106,-0.4352196872234344,-0.4322265297174453,1.689726604962568e+18,92.95156791992189,-1.0838483810424804,-0.4557565063238143,-0.3840102470479905,,,,,,,,,,,,,1.6897266049600617e+18,92.94906157226562,25.59761199951172,43.9196418762207,1.8639739990234376,1.6897266049613286e+18,92.9503287109375,55.767578125,55.63597412109375,80.85494079589844,1.6897266049600617e+18,92.94906157226562,3.0567692011335152,-0.7449273654672253,-0.3768570525679525,-2.2608656263398004,0.4818208005690934,0.2661431066585306,-1.1642828542534809
3.0,1.6897266050101655e+18,92.99916552734376,-4.3984594153523435,-2.6636507030194996,3.5753379699310655,1.6897266050076616e+18,92.99666162109376,-0.182623291015625,0.6312469482421875,0.0333038330078125,1.6897266050101655e+18,92.99916552734376,2.5861085552033782,8.85299049582541,-3.331907340778113,1.6897266050101655e+18,92.99916552734376,-0.8242015242576599,-0.9628757834434508,0.3980117797851562,1.689726605012672e+18,93.00167192382813,-0.8016167044639587,-0.9720503687858582,0.4357874304056167,,,,,,,,,,,,,1.6897266050101655e+18,92.99916552734376,25.496573638916015,43.86379318237304,0.6965347290039062,1.6897266050133335e+18,93.00233330078125,55.30064392089844,55.88456726074219,79.88754577636719,1.6897266050101655e+18,92.99916552734376,0.6170862296688483,-0.758068114990033,-0.3745544150429923,-2.2309624638292016,0.4773346341169698,0.2389660143406222,-1.1261659654999407
3.05,1.6897266050602696e+18,93.04926962890625,-3.9711735632783176,-2.8498213925021885,4.114087996262908,1.6897266050577656e+18,93.04676557617188,-0.1565216064453125,0.60867919921875,0.0699005126953125,1.6897266050602696e+18,93.04926962890625,2.4389738741752502,8.857082616670727,-3.430094509477019,1.6897266050602696e+18,93.04926962890625,-0.1614161182194948,-1.1916343688964843,1.118135190010071,1.689726605062776e+18,93.05177607421876,-0.1154054716229438,-1.1869846343994142,1.1537856340408326,,,,,,,,,,,,,1.6897266050602696e+18,93.04926962890625,23.787303924560547,44.889974975585936,0.6629470825195313,1.6897266050601375e+18,93.04913732910155,53.46514129638672,56.97805404663086,80.22666931152344,1.6897266050602696e+18,93.04926962890625,-3.0450411027099604,-0.7621079976275692,-0.3642418641278871,-2.188703064253356,0.4928493674566745,0.2085165110138006,-1.1271589179797454
3.1,1.6897266051103736e+18,93.09937353515626,-2.8034102375566956,-3.2951583326691383,4.665273141275942,1.6897266051078697e+18,93.09686962890626,-0.071783447265625,0.5920928955078125,0.1571502685546875,1.6897266051103736e+18,93.09937353515626,1.9879451228813827,9.05758250956595,-3.1830826316103336,1.6897266051103736e+18,93.09937353515626,0.7376781165599823,-0.5585024781525135,1.5009185552597046,1.68972660511288e+18,93.1018798828125,0.7811416804790496,-0.4840968549251556,1.4924531698226928,,,,,,,,,,,,,1.6897266051103736e+18,93.09937353515626,20.67335815429687,46.70177383422852,2.3155059814453125,1.6897266051069404e+18,93.09594052734374,50.46549072265625,58.69913330078125,81.86728210449219,1.6897266051103736e+18,93.09937353515626,-2.9233456831589613,-0.7520594316692596,-0.3481066614250051,-2.127955644960843,0.5266265370461334,0.1890259750426203,-1.1779059472760365
3.15,1.6897266051604777e+18,93.14947763671876,2.583146110588163,0.3272873669433593,1.588354590140879,1.6897266051579735e+18,93.14697358398436,0.457830810546875,1.024090576171875,-0.16357421875,1.6897266051604777e+18,93.14947763671876,1.436958013884574,9.318023719395995,-2.691034033794403,1.6897266051604777e+18,93.14947763671876,1.061651849746704,-0.0834534108638763,0.8749672889709472,1.689726605162984e+18,93.15198403320312,1.02432678937912,-0.1152937278151512,0.8319389343261718,,,,,,,,,,,,,1.6897266051604777e+18,93.14947763671876,17.796515655517577,47.846124267578126,4.800212097167969,1.6897266051589445e+18,93.14794462890625,47.695883178710936,59.7376953125,84.385546875,1.6897266051604777e+18,93.14947763671876,-2.8443235872250647,-0.7313461373527816,-0.3374053219829121,-2.0606959852907307,0.5593096906151926,0.1958620216108148,-1.2543874125294023
3.2,1.6897266052105815e+18,93.19958154296876,9.015463849569558,5.749426046731472,-9.804093651967644,1.6897266052080776e+18,93.19707763671876,1.0272613525390626,1.5250274658203125,-1.270501708984375,1.6897266052105815e+18,93.19958154296876,1.2016420244782418,9.408203756536842,-2.4910298446877297,1.6897266052105815e+18,93.19958154296876,-0.4045558743178844,0.1755891859531402,0.2594230607151985,1.689726605213088e+18,93.20208798828124,-0.4826603949069977,0.2257590889930725,0.2320784032344818,,,,,,,,,,,,,1.6897266052105815e+18,93.19958154296876,16.469566345214844,48.29908065795898,6.273846435546875,1.6897266052109484e+18,93.1999484375,46.424993896484374,60.19369812011719,85.39218444824219,1.6897266052105815e+18,93.19958154296876,-2.7947764413483247,-0.7228892120459438,-0.3317033430408328,-2.020593071846619,0.5733153637882333,0.1967053352232079,-1.2847971917717813
3.25,1.6897266052606856e+18,93.24968559570311,3.3072444333299993,-0.8964005581915379,-3.1396842778408525,1.6897266052581816e+18,93.247181640625,0.4182373046875,0.8427032470703125,-0.577642822265625,1.6897266052606856e+18,93.24968559570311,1.155577301043719,9.290740224959851,-2.915341327899992,1.6897266052606856e+18,93.24968559570311,-1.0024120211601255,-0.4922456055879592,0.1599176973104477,1.689726605263192e+18,93.2521919921875,-0.9688234448432922,-0.5490744560956955,0.2076129019260406,,,,,,,,,,,,,1.6897266052606856e+18,93.24968559570311,16.22508316040039,48.566504669189456,4.320867919921875,1.6897266052629522e+18,93.25195224609377,46.149758911132814,60.4937744140625,83.14322509765626,1.6897266052606856e+18,93.24968559570311,-2.7256120976230207,-0.7251499469852176,-0.3468851207213785,-1.948672886384208,0.5663445005580569,0.1816876932599308,-1.2452368388254589
3.3,1.6897266053107896e+18,93.29978959960938,-3.1828112088708576,2.235994380971789,1.8653838882261513,1.6897266053082854e+18,93.29728549804688,-0.2043914794921875,1.213140869140625,-0.1101959228515625,1.6897266053107896e+18,93.29978959960938,0.9892139395106584,9.240073283039926,-3.131557436199784,1.6897266053107896e+18,93.29978959960938,-0.0590230420231819,-0.4254614189267158,0.550879442691803,1.689726605313296e+18,93.30229599609376,-0.032672618329525,-0.4547754392027855,0.4917442321777344,,,,,,,,,,,,,1.6897266053107896e+18,93.29978959960938,14.764212036132813,49.074231719970705,3.0991806030273437,1.689726605314956e+18,93.30395615234376,44.36836853027344,61.048492431640625,82.48879699707031,1.6897266053107896e+18,93.29978959960938,-2.620737021032242,-0.7245018532786366,-0.3468860698742751,-1.8766081014340856,0.5737776598756177,0.159754029207554,-1.2292221282643463
3.35,1.6897266053608937e+18,93.34989384765623,0.9574613806755842,4.967750067446231,0.4014531409680844,1.6897266053583898e+18,93.34738984375,0.167724609375,1.3967803955078124,-0.2836181640625,1.6897266053608937e+18,93.34989384765623,1.0528899421552569,9.218344500121471,-3.1745372722962495,1.6897266053608937e+18,93.34989384765623,-0.3441337436437607,0.6105443716049195,-0.3203442372381687,1.6897266053634e+18,93.35239995117188,-0.3463634833693504,0.8166786015033722,-0.2811300486326217,,,,,,,,,,,,,1.6897266053608937e+18,93.34989384765623,14.483365631103515,49.129642486572266,3.157484436035156,1.689726605361761e+18,93.35076098632813,44.79950714111328,60.92549514770508,82.45476913452148,1.6897266053608937e+18,93.34989384765623,-2.618342046446368,-0.7282368407251871,-0.3425813271653867,-1.891086884177117,0.5735054536074882,0.1527916657630495,-1.2227281609715737
3.4,1.6897266054109978e+18,93.39999765625,-2.609251705738306,-6.01256260389924,7.709991375195384,1.6897266054084936e+18,93.3974935546875,-0.1886322021484375,0.3235443115234375,0.48040771484375,1.6897266054109978e+18,93.39999765625,0.6277206803764029,9.239438141554592,-3.217750800244212,1.6897266054109978e+18,93.39999765625,0.8344326488673687,2.0781508922576903,0.6995628237724304,1.689726605413504e+18,93.40250405273436,0.9112841427326204,2.022035813331604,0.676477651298046,,,,,,,,,,,,,1.6897266054109978e+18,93.39999765625,14.481584167480468,49.1125732421875,1.4744064331054687,1.689726605408566e+18,93.39756596679688,44.45791931152344,60.98377990722656,80.78284606933593,1.6897266054109978e+18,93.39999765625,-2.576897126345668,-0.7073526412806689,-0.3754338908630619,-1.761185400928511,0.5718047747060819,0.1772973388847087,-1.2293292557417623
3.45,1.6897266054611016e+18,93.45010161132814,-3.5950092942500107,1.8216446997427935,4.642427249348015,1.6897266054585974e+18,93.44759755859374,-0.33594970703125,1.1861419677734375,0.1829132080078125,1.6897266054611016e+18,93.45010161132814,0.4876048797474429,9.438554704945684,-2.601759304156303,1.6897266054611016e+18,93.45010161132814,1.722833275794983,-0.672599957883358,-0.66961709856987,1.689726605463608e+18,93.45260805664064,1.7484415292739868,-0.8274478077888489,-0.6804241240024567,,,,,,,,,,,,,1.6897266054611016e+18,93.45010161132814,15.025652313232422,48.90639724731445,3.686872863769531,1.689726605460569e+18,93.44956904296876,45.28941040039062,60.67176208496094,83.41056823730469,1.6897266054611016e+18,93.45010161132814,-2.624446306399172,-0.6919751984756701,-0.371598873962996,-1.7612726898744788,0.580436090218063,0.2143921974832778,-1.2968053296937367
3.5,1.6897266055112056e+18,93.50020561523438,-4.108551054210663,1.0103639726930855,-2.204852223733067,1.6897266055087017e+18,93.49770166015624,-0.328070068359375,1.072100830078125,-0.43170166015625,1.6897266055112056e+18,93.50020561523438,0.7871351068609208,9.61558148469925,-1.745490616058111,1.6897266055112056e+18,93.50020561523438,1.290695106983185,-2.172654128074646,0.6972266308963299,1.689726605513712e+18,93.50271196289064,1.2380961060523987,-2.0872960567474363,0.8492372930049896,,,,,,,,,,,,,1.6897266055112056e+18,93.50020561523438,15.96438674926758,48.173954772949216,8.326016235351563,1.689726605512573e+18,93.50157270507812,45.54686584472656,60.02285461425781,88.98290100097657,1.6897266055112056e+18,93.50020561523438,-2.7790164385877523,-0.7010793711575343,-0.3155416985610422,-1.9974304476139215,0.5999631861208388,0.2204403037826059,-1.374067100010923
3.55,1.6897266055613097e+18,93.55030966796876,0.5328578703272344,0.096965284140706,-4.758452301780581,1.6897266055588055e+18,93.54780551757813,0.0879302978515625,0.99013671875,-0.6102081298828125,1.6897266055613097e+18,93.55030966796876,0.0921486223836313,9.71644868626237,-1.3040851701211928,1.6897266055613097e+18,93.55030966796876,0.435085642337799,-0.2789422042667865,1.610962700843811,1.6897266055638162e+18,93.5528162109375,0.399664357304573,-0.2815065618604421,1.5172488689422607,,,,,,,,,,,,,1.6897266055613097e+18,93.55030966796876,12.402689361572266,48.85956039428711,11.977537536621094,1.6897266055645752e+18,93.55357524414062,41.30894775390625,60.97239379882812,91.82886962890623,1.6897266055613097e+18,93.55030966796876,-2.358092082932655,-0.6793275900477233,-0.293436639507923,-1.6318497257699864,0.6396235852759259,0.2077252877176342,-1.4353287621674848
3.6,1.6897266056114135e+18,93.60041352539062,1.2413422543821484,-1.1240119791829586,-1.9950602155835924,1.6897266056089096e+18,93.59790966796876,0.07901611328125,0.8748779296875,-0.319879150390625,1.6897266056114135e+18,93.60041352539062,-0.3927473194354958,9.719524089732769,-1.237920097913742,1.6897266056114135e+18,93.60041352539062,-0.066528033837676,-0.7246859192848205,0.8995806455612183,1.6897266056139195e+18,93.602919921875,-0.0849347596988081,-0.7109615325927734,0.8892147302627563,,,,,,,,,,,,,1.6897266056114135e+18,93.60041352539062,9.232164764404295,49.4923828125,12.93988800048828,1.6897266056113772e+18,93.60037707519533,38.84885025024414,61.447242736816406,92.37018966674805,1.6897266056114135e+18,93.60041352539062,-1.9659355039904385,-0.6648160103610277,-0.2885523487854489,-1.266644518911227,0.6608566505163128,0.1948247222186751,-1.437489428072778
3.65,1.6897266056615176e+18,93.65051767578126,-0.2353978809230774,-1.3552414737671614,0.2100464213019609,1.6897266056590136e+18,93.64801357421877,-0.1063201904296875,0.855462646484375,-0.100677490234375,1.6897266056615176e+18,93.65051767578126,-0.6801747979740426,9.692239893870354,-1.3279590606965124,1.6897266056615176e+18,93.65051767578126,-0.1451184444129466,0.1990737840533256,0.468901789188385,1.689726605664024e+18,93.65302407226562,-0.1259441345930099,0.2885889232158661,0.4733525872230529,,,,,,,,,,,,,1.6897266056615176e+18,93.65051767578126,7.253429412841797,50.15887069702149,12.692306518554688,1.689726605658179e+18,93.64717900390625,37.22822570800781,62.054263305664065,92.04042053222656,1.6897266056615176e+18,93.65051767578126,-1.7808931360105031,-0.6572854349142656,-0.2894178740790908,-1.0984428458445152,0.6714965020045858,0.1824533097005418,-1.4179705067711972
3.7,1.6897266057116216e+18,93.7006216308594,-2.2995342484682797,-0.2027370919758081,1.893825846595466,1.6897266057091177e+18,93.69811762695312,-0.35263671875,0.9642913818359377,0.0742156982421875,1.6897266057116216e+18,93.7006216308594,-1.0684491257541626,9.66587900878489,-1.2527483807287365,1.6897266057116216e+18,93.7006216308594,0.2083597153425216,2.302263617515564,0.8754416346549988,1.689726605714128e+18,93.70312797851562,0.2363181531429291,2.3432998418807984,0.9114120364189148,,,,,,,,,,,,,1.6897266057116216e+18,93.7006216308594,6.5620880126953125,50.56470794677735,11.998953247070313,1.689726605710186e+18,93.69918598632812,36.58293151855469,62.42545776367187,91.32506408691408,1.6897266057116216e+18,93.7006216308594,-1.6184677994541012,-0.6361028286512631,-0.3145622940076347,-0.868160632363981,0.6748197665851097,0.2016769392531874,-1.401267488144407
3.75,1.6897266057617257e+18,93.75072553710936,0.1704229683482647,-0.5749981576335429,2.6822866344891487,1.6897266057592215e+18,93.74822158203123,-0.1384124755859375,0.92470703125,0.17677001953125,1.6897266057617257e+18,93.75072553710936,-1.723092438671589,9.611223874011635,-0.8795126248199491,1.6897266057617257e+18,93.75072553710936,0.8990500330924988,0.4852125644683838,1.3089115381240843,1.689726605764232e+18,93.75323198242188,0.9215464115142822,0.3500142157077789,1.3180936336517337,,,,,,,,,,,,,1.6897266057617257e+18,93.75072553710936,5.111650085449218,50.70978164672851,12.194902038574218,1.689726605762192e+18,93.75119169921877,34.738525390625,62.559326171875,91.86527404785156,1.6897266057617257e+18,93.75072553710936,-1.3132119533031603,-0.5988910804698181,-0.3400109347710415,-0.4774468043506351,0.6871652509113767,0.2310412338452634,-1.371099243927343
3.8,1.6897266058118295e+18,93.80082958984374,2.7266662251548466,0.8754442794024943,-1.623093398245126,1.6897266058093256e+18,93.7983255859375,0.038897705078125,1.0625457763671875,-0.238824462890625,1.6897266058118295e+18,93.80082958984374,-2.392974427222758,9.494980005809664,-0.4922436893031373,1.6897266058118295e+18,93.80082958984374,0.8127975940704346,-1.1383322596549987,1.5152767658233643,1.689726605814336e+18,93.80333598632812,0.7850141942501068,-1.1243528366088866,1.509781002998352,,,,,,,,,,,,,1.6897266058118295e+18,93.80082958984374,1.9442279815673829,50.50325469970703,14.094801330566408,1.6897266058141967e+18,93.80319658203123,30.729373168945312,62.21888732910156,94.13177795410157,1.6897266058118295e+18,93.80082958984374,-1.0110647420718877,-0.5723794636840849,-0.3251748465450809,-0.2062267372936296,0.7184274486052777,0.2242696913376405,-1.3187058086871262
3.85,1.6897266058619336e+18,93.85093354492189,4.30600997197479,1.1901602171599863,-4.58796678959012,1.6897266058594296e+18,93.84842963867187,0.143121337890625,1.0730743408203125,-0.5087738037109375,1.6897266058619336e+18,93.85093354492189,-2.941434618864357,9.348666227323411,-0.333105303281024,1.6897266058619336e+18,93.85093354492189,0.2626145392656326,0.0222375750541686,0.6208024993538857,1.68972660586444e+18,93.85343994140624,0.244395625591278,0.0944113492965698,0.5467234298586845,,,,,,,,,,,,,1.6897266058619336e+18,93.85093354492189,-1.996480941772461,50.14490966796875,15.798808288574218,1.6897266058609997e+18,93.84999975585936,27.664859771728516,61.949161529541016,95.33891677856444,1.6897266058619336e+18,93.85093354492189,-0.8863333268304434,-0.5524271157751526,-0.3151673436305458,-0.113202399229664,0.7420457100966636,0.2117417579801862,-1.2641005766113578
3.9,1.6897266059120376e+18,93.90103764648435,3.1342623112443087,2.0970202100455757,-5.059558524119556,1.6897266059095334e+18,93.89853359375,0.002337646484375,1.183599853515625,-0.5381866455078125,1.6897266059120376e+18,93.90103764648435,-2.923213376449346,9.356481051179768,-0.2742738911233842,1.6897266059120376e+18,93.90103764648435,-0.3217197709716856,0.3639364331960678,-0.4940854728221893,1.689726605914544e+18,93.90354409179687,-0.3549552120268344,0.3277259945869445,-0.5036929786205292,,,,,,,,,,,,,1.6897266059120376e+18,93.90103764648435,-1.6800552368164063,50.17266998291016,15.999212646484375,1.6897266059078026e+18,93.89680258789062,28.515216064453124,62.01253662109375,95.35123291015626,1.6897266059120376e+18,93.90103764648435,-0.892634084465947,-0.5495848489234282,-0.3224684370819812,-0.0938094402264818,0.7382625032539479,0.22113639253736,-1.266705779108745
3.95,1.6897266059621414e+18,93.95114150390626,0.6024112990248203,3.3949516506165267,-2.7034525520539283,1.6897266059596375e+18,93.94863764648436,-0.2036712646484375,1.3029327392578125,-0.3317230224609375,1.6897266059621414e+18,93.95114150390626,-2.664178000216186,9.420342055002452,-0.5545170805277675,1.6897266059621414e+18,93.95114150390626,-0.7273593544960022,-0.6008788228034974,-0.6224442839622497,1.689726605964648e+18,93.95364790039062,-0.746844470500946,-0.6218863546848297,-0.6357788980007172,,,,,,,,,,,,,1.6897266059621414e+18,93.95114150390626,-0.0923748016357421,50.75535278320312,14.645318603515625,1.6897266059598085e+18,93.948808203125,30.0906005859375,62.654608154296874,93.9001708984375,1.6897266059621414e+18,93.95114150390626,-1.0099792787183506,-0.562950943058674,-0.3303328092539007,-0.2063589666852315,0.7257418676251532,0.2172677955161485,-1.2892587373027715
4.0,1.6897266060122455e+18,94.00124565429688,10.305189304235578,3.0551717649424073,0.8052441064600645,1.6897266060097416e+18,93.9987416015625,0.8917816162109375,1.2815521240234375,0.0207275390625,1.6897266060122455e+18,94.00124565429688,-2.076856981330365,9.521509700816868,-1.025570368105471,1.6897266060122455e+18,94.00124565429688,-0.772631311416626,-0.3123757272958755,-2.521201229095459,1.689726606014752e+18,94.00375200195312,-0.7566127896308898,-0.237611648440361,-2.696487021446228,,,,,,,,,,,,,1.6897266060122455e+18,94.00124565429688,2.6137184143066405,51.208474731445314,12.73662109375,1.6897266060118095e+18,94.0008095703125,33.107504272460936,63.05924987792969,91.97938842773438,1.6897266060122455e+18,94.00124565429688,-1.261513709904457,-0.5926758478933519,-0.3332007323635846,-0.4723994676212644,0.7033515097925825,0.2064563542212996,-1.3306709754529529
4.05,1.6897266060623496e+18,94.05134956054688,-1.6297590228402612,3.5873438741886616,5.017754629160761,1.6897266060598456e+18,94.04884560546876,-0.2934539794921875,1.3595733642578125,0.358563232421875,1.6897266060623496e+18,94.05134956054688,-0.3816394472097512,9.68910311560154,-1.386049869006872,1.6897266060623496e+18,94.05134956054688,-0.8540730834007263,1.3023359775543213,-3.542365884780884,1.689726606064856e+18,94.05385600585936,-0.8604289412498474,1.3741499304771423,-3.467949914932251,,,,,,,,,,,,,1.6897266060623496e+18,94.05134956054688,10.66817855834961,50.09496612548829,11.333226013183594,1.6897266060638116e+18,94.05281162109377,43.09799499511719,61.386053466796874,90.09097290039062,1.6897266060623496e+18,94.05134956054688,-2.138514306076975,-0.6523456253172834,-0.3362413660926094,-1.3060187988816243,0.6371341760041119,0.2338120825176927,-1.4159851982903462
4.1,1.689726606112453e+18,94.10145327148436,-6.624589989435672,2.190119583312273,0.9116113667441904,1.6897266061099494e+18,94.09894946289062,-0.5608123779296875,1.182318115234375,-0.1150726318359375,1.689726606112453e+18,94.10145327148436,0.8636020485805347,9.589651742959616,-1.836910394900888,1.689726606112453e+18,94.10145327148436,-0.9296762108802796,1.7136850357055664,-2.1966142892837524,1.68972660611496e+18,94.1039599609375,-0.9403473734855652,1.7098446369171143,-2.1383199214935305,,,,,,,,,,,,,1.689726606112453e+18,94.10145327148436,18.91328582763672,47.66145324707031,8.500115966796875,1.6897266061106145e+18,94.09961450195313,50.295894622802734,59.0280647277832,87.31256103515625,1.689726606112453e+18,94.10145327148436,-2.930474033671659,-0.686298604911166,-0.3606726768523526,-2.0002553850361044,0.5705602248331645,0.2700261391397793,-1.3614723664136104
4.15,1.6897266061625574e+18,94.15155747070312,-1.1978747662861644,0.987707319726944,-0.8064608472256362,1.6897266061600535e+18,94.14905336914062,0.0523895263671875,1.05494384765625,-0.3288818359375,1.6897266061625574e+18,94.15155747070312,1.5806177415046094,9.36930943618834,-2.412363602825552,1.6897266061625574e+18,94.15155747070312,-1.1915906190872192,0.271936397999525,-1.4662730932235717,1.6897266061650642e+18,94.1540640625,-1.1861649036407471,0.1866152659058571,-1.446677851676941,,,,,,,,,,,,,1.6897266061625574e+18,94.15155747070312,24.162552642822263,45.37131195068359,4.807943725585938,1.6897266061574188e+18,94.14641875,54.548126220703125,57.06070556640625,83.92257690429688,1.6897266061625574e+18,94.15155747070312,0.6214604908998538,-0.7064071084302939,-0.3846398491357028,-2.148829986434625,0.5208886306426848,0.2855246732781187,-1.2720997288590816
4.2,1.6897266062126615e+18,94.20166142578124,-3.226771551211178,-0.5658332051163912,0.8338221122992039,1.6897266062101573e+18,94.19915737304687,-0.113262939453125,0.859075927734375,-0.20697021484375,1.6897266062126615e+18,94.20166142578124,2.185563352086544,9.10624945138812,-2.9037888957244156,1.6897266062126615e+18,94.20166142578124,-1.0092196822166444,-0.4452796280384063,-0.930530309677124,1.6897266062151675e+18,94.2041677734375,-1.0007494926452636,-0.4617383956909179,-0.8930307269096375,,,,,,,,,,,,,1.6897266062126615e+18,94.20166142578124,27.285198974609376,43.41632232666016,2.85579833984375,1.6897266062094208e+18,94.19842084960938,57.560238647460935,55.11842651367188,82.1427734375,1.6897266062126615e+18,94.20166142578124,3.0709803989506703,-0.7313514702205787,-0.3872062099338421,-2.215476803070935,0.4884558597618884,0.2765953343879742,-1.191040110691511
4.25,1.6897266062627653e+18,94.25176542968752,-4.228871202714741,-2.093595963911414,2.495450203800201,1.6897266062602614e+18,94.24926142578124,-0.1705413818359375,0.688629150390625,-0.063861083984375,1.6897266062627653e+18,94.25176542968752,2.549727708206623,8.902316427626014,-3.2261903610962626,1.6897266062627653e+18,94.25176542968752,-0.7433021306991577,-0.9554197788238524,-0.1855599205940961,1.6897266062652718e+18,94.25427177734376,-0.7256580352783203,-0.972862720489502,-0.1467081662034615,,,,,,,,,,,,,1.6897266062627653e+18,94.25176542968752,28.782142639160156,42.394963073730466,2.3455551147460936,1.6897266062614226e+18,94.25042236328127,58.92168273925781,54.187103271484375,81.734912109375,1.6897266062627653e+18,94.25176542968752,3.0787107043859656,-0.7503888919530037,-0.3822689228110802,-2.2395334014251658,0.4731397497034758,0.2585714552909025,-1.1380766977870675
4.3,1.6897266063128694e+18,94.30186943359377,-3.7175367727661137,-3.1585168717002867,3.5773047691854836,1.6897266063103654e+18,94.29936538085936,-0.10804443359375,0.5723419189453125,0.02667236328125,1.6897266063128694e+18,94.30186943359377,2.658491712821126,8.837653459770678,-3.316336788228452,1.6897266063128694e+18,94.30186943359377,-0.3033412121236324,-1.1901291370391849,0.5668676882982254,1.689726606315376e+18,94.30437587890624,-0.2721208878792822,-1.170954942703247,0.6076660811901092,,,,,,,,,,,,,1.6897266063128694e+18,94.30186943359377,28.776172637939453,42.49640808105469,2.945295715332031,1.689726606313422e+18,94.30242202148438,58.65146484375,54.49098205566406,82.58954772949218,1.6897266063128694e+18,94.30186943359377,0.6176622607572402,-0.7619425796988195,-0.3688836161028108,-2.2465228183496913,0.4778529840635571,0.2343875131689226,-1.1225126277251196
4.35,1.6897266063629734e+18,94.35197333984377,-3.370617010661662,-3.5933790626996753,3.7205808458632226,1.6897266063604695e+18,94.34946938476564,-0.0946563720703125,0.5539031982421875,0.058624267578125,1.6897266063629734e+18,94.35197333984377,2.385223403930664,8.967673339868785,-3.1673704494068025,1.6897266063629734e+18,94.35197333984377,0.4238886639475822,-0.6527095645666122,1.3215413093566897,1.6897266063654797e+18,94.35447978515624,0.4651728004217147,-0.5989653199911118,1.3466596126556396,,,,,,,,,,,,,1.6897266063629734e+18,94.35197333984377,27.161373901367188,43.68161468505859,4.656385803222657,1.6897266063602222e+18,94.34922204589844,56.81622695922851,55.84065628051758,84.44087219238281,1.6897266063629734e+18,94.35197333984377,-3.0676302439596066,-0.7582614252248102,-0.3557973425108867,-2.2156457710305295,0.5017019117563883,0.2159337856503217,-1.1544417144547583
4.4,1.6897266064130772e+18,94.40207744140623,0.6290452142849563,-1.1738111399054527,2.501524321469068,1.6897266064105733e+18,94.39957333984376,0.29072265625,0.8538818359375,-0.0531280517578125,1.6897266064130772e+18,94.40207744140623,1.7530950120341775,9.241552591038346,-2.760457231014967,1.6897266064130772e+18,94.40207744140623,1.1593514204025268,-0.2643824256025254,1.4522897720336914,1.6897266064155835e+18,94.40458388671875,1.1666179060935975,-0.3298083320260048,1.4146825075149536,,,,,,,,,,,,,1.6897266064130772e+18,94.40207744140623,24.15061340332031,45.54671630859375,6.997006225585937,1.689726606407022e+18,94.39602221679688,53.95213317871094,57.52614135742188,86.58972778320313,1.6897266064130772e+18,94.40207744140623,-2.969688611387452,-0.7366106866265271,-0.3487921323910987,-2.134913270582916,0.5374304401964831,0.2161676616392348,-1.230611441922525
4.45,1.6897266064631813e+18,94.45218139648436,10.47272064279556,5.975745791251063,-7.910162416075468,1.6897266064606774e+18,94.44967744140624,1.2073394775390625,1.5698822021484375,-1.064837646484375,1.6897266064631813e+18,94.45218139648436,1.5353079134775698,9.396105322464107,-2.3499492906798425,1.6897266064631813e+18,94.45218139648436,-0.0956074059009551,-1.137449750304222,0.012414202094078,1.6897266064656878e+18,94.4546877441406,-0.1864783763885498,-1.035562950372696,-0.0269027739763259,,,,,,,,,,,,,1.6897266064631813e+18,94.45218139648436,22.033248138427737,46.2692985534668,10.27501220703125,1.689726606459024e+18,94.448023828125,52.04387512207031,58.12088928222656,89.90166931152343,1.6897266064631813e+18,94.45218139648436,-2.934182629100626,-0.7309119479052776,-0.3252551398158398,-2.1494738516986365,0.562037703911126,0.2097810964749981,-1.2804413828769712
4.5,1.6897266065132856e+18,94.50228549804687,3.6954852460862697,-0.0758634594011307,-1.052856726698875,1.6897266065107812e+18,94.49978134765624,0.510113525390625,0.9349609375,-0.340802001953125,1.6897266065132856e+18,94.50228549804687,1.5439555348962544,9.308443054910898,-2.667762346895933,1.6897266065132856e+18,94.50228549804687,-0.9141652107238768,0.4846379935741424,0.1667777836322784,1.689726606515792e+18,94.504791796875,-0.889969801902771,0.4839465916156769,0.1868727818131446,,,,,,,,,,,,,1.6897266065132856e+18,94.50228549804687,22.286172485351564,46.564842224121094,10.19520263671875,1.6897266065110257e+18,94.50002563476563,52.37723999023437,58.45265197753906,89.44719848632812,1.6897266065132856e+18,94.50228549804687,-2.8775758624998575,-0.7347547062293334,-0.3343512883461727,-2.096559119607506,0.5562677736602664,0.1970926788922012,-1.2508436345717306
4.55,1.6897266065633894e+18,94.55238935546876,-1.6704955516023934,5.485114249852299,-1.115846325288415,1.6897266065608852e+18,94.54988540039062,-0.054791259765625,1.49390869140625,-0.455474853515625,1.6897266065633894e+18,94.55238935546876,1.4614219208553432,9.215523246768717,-3.01660536137402,1.6897266065633894e+18,94.55238935546876,-0.5801907420158386,0.2999269753694534,-0.1471058636903762,1.6897266065658957e+18,94.55489580078124,-0.5821715950965881,0.300629660487175,-0.1516741096973419,,,,,,,,,,,,,1.6897266065633894e+18,94.55238935546876,22.500729370117188,46.857076263427736,9.038754272460938,1.6897266065630285e+18,94.55202846679688,52.61920166015625,58.70289306640625,88.36328125,1.6897266065633894e+18,94.55238935546876,-2.821490244081912,-0.7337442037214208,-0.3518893980437822,-2.022093635857475,0.5492132511169957,0.1900769180484999,-1.221935491457072
4.6,1.6897266066134932e+18,94.60249331054686,-6.2833063335220505,-2.343124266965389,5.237349975409209,1.6897266066109896e+18,94.599989453125,-0.4754364013671875,0.6741607666015625,0.288934326171875,1.6897266066134932e+18,94.60249331054686,1.2726016667119413,9.187489460034966,-3.179922647822499,1.6897266066134932e+18,94.60249331054686,0.2810205727815628,0.2355493140406906,1.047307938337326,1.6897266066109893e+18,94.59998919677734,0.1801777649670839,0.0829862970858812,1.101314790546894,,,,,,,,,,,,,1.6897266066134932e+18,94.60249331054686,22.100497436523437,47.102779388427734,8.689591979980468,1.689726606615033e+18,94.60403334960937,51.54568176269531,59.179901123046875,88.24991149902344,1.6897266066134932e+18,94.60249331054686,-2.7568472928994625,-0.7286469482161733,-0.3619080560442662,-1.950385488993452,0.5514460100423608,0.1841888082060789,-1.2136954752269589
4.65,1.6897266066635976e+18,94.6525974609375,-1.6597651033341885,-0.5650319425100088,7.612348863993288,1.6897266066610934e+18,94.65009331054686,-0.1062591552734375,0.923822021484375,0.4632476806640625,1.6897266066635976e+18,94.6525974609375,0.806142648121938,9.3830566896075,-2.725274536987692,1.6897266066635976e+18,94.6525974609375,1.7106394529342652,1.5184982240200042,-0.0803779592737555,1.6897266066560832e+18,94.64508310546876,1.5710635662078858,1.6338698863983154,0.1230261147022247,,,,,,,,,,,,,1.6897266066635976e+18,94.6525974609375,20.887612915039064,47.33459548950195,10.08752899169922,1.689726606661838e+18,94.65083801269532,51.160377502441406,59.01194763183594,89.85334014892578,1.6897266066635976e+18,94.6525974609375,-2.7213605919706145,-0.7034797167815443,-0.3703450722463624,-1.8589711441676855,0.5672178412952847,0.2142952986045532,-1.2766708340777626
4.7,1.6897266067137014e+18,94.70270131835936,-3.244425690488815,0.6773821935003996,-0.4675552309419214,1.6897266067111974e+18,94.70019750976562,-0.2473724365234375,1.048699951171875,-0.2703338623046875,1.6897266067137014e+18,94.70270131835936,0.8627935159831492,9.592545710835456,-1.824862901910841,1.6897266067137014e+18,94.70270131835936,1.8137176752090456,-1.9367015182971952,0.0861921161413192,1.689726606706187e+18,94.6951869140625,1.8919982671737672,-1.3595732629299164,-0.064791353046894,1.689726606730206e+18,94.7192060546875,338.4171772003174,-1.0,-1.0,49.277908605068994,357.59860610961914,-1.0,40.0,20.971832275390625,-122.9096072307549,-1.0,1.6897266067137014e+18,94.70270131835936,22.255069732666016,45.87480087280274,14.362535095214843,1.689726606708641e+18,94.697641015625,52.36410827636719,57.57935485839844,94.24237365722657,1.6897266067137014e+18,94.70270131835936,-2.889265945350273,-0.6943104404145487,-0.3425034605958985,-2.0213041442917623,0.581671458513257,0.248823599442793,-1.3627756563155995
4.75,1.6897266067638062e+18,94.75280629882812,-2.3152804571523147,0.1396519825094938,-6.104401046545505,1.6897266067613025e+18,94.75030234375,-0.155535888671875,0.9972686767578124,-0.7332916259765625,1.6897266067638062e+18,94.75280629882812,0.6262311870840565,9.722722944226264,-1.0958612880712748,1.6897266067638062e+18,94.75280629882812,0.5646482322365045,-2.4212849855422975,1.5535345315933229,1.6897266067562918e+18,94.74529184570312,0.8014850437641143,-2.7363136529922487,1.43096626996994,,,,,,,,,,,,,1.6897266067638062e+18,94.75280629882812,18.70889358520508,45.21285552978516,21.0539794921875,1.689726606760644e+18,94.74964409179688,48.320675659179685,57.094384765625,100.87135009765623,1.6897266067638062e+18,94.75280629882812,-2.8122222465853928,-0.6937957725488241,-0.2819885421048826,-2.077732432210248,0.6230952816218435,0.2245990853790712,-1.4411259214726628
4.8,1.6897266068139105e+18,94.80291025390623,0.764349935797546,-0.0812792885178327,-1.993702005907669,1.6897266068114063e+18,94.80040625,0.0816192626953125,0.98729248046875,-0.2855438232421875,1.6897266068139105e+18,94.80291025390623,-0.0083208179701073,9.749125213461518,-1.0491787396124006,1.6897266068139105e+18,94.80291025390623,-0.2178521752357482,-0.6160026788711548,1.1721073746681214,1.689726606806396e+18,94.7953958984375,-0.1964273020625114,-0.7498826622962952,1.2614227056503295,,,,,,,,,,,,,1.6897266068139105e+18,94.80291025390623,13.677420806884763,46.54707260131836,23.027064514160156,1.6897266068126477e+18,94.80164765625,43.43418884277344,58.50794982910156,102.44271545410156,1.6897266068139105e+18,94.80291025390623,-2.2331725525327815,-0.6793641560241657,-0.2666646944466461,-1.5672045775210566,0.6551941849093053,0.1949093925897674,-1.462481981171028
4.85,1.6897266068640143e+18,94.85301430664065,0.681306410432905,-1.4393971945041415,0.5183292864981294,1.68972660686151e+18,94.85051025390626,0.01402587890625,0.8459075927734375,-0.0625335693359375,1.6897266068640143e+18,94.85301430664065,-0.4427540986799448,9.727255677672028,-1.1596161865579335,1.6897266068640143e+18,94.85301430664065,-0.2364031806588172,0.938328942656517,0.6134792268276215,1.6897266068565e+18,94.84549990234376,-0.2475201606750488,0.5903051540255546,0.6836696624755859,,,,,,,,,,,,,1.6897266068640143e+18,94.85301430664065,11.260577392578124,47.66678161621094,22.777424621582032,1.689726606864652e+18,94.8536521484375,41.21107177734375,59.638848876953126,101.99859619140624,1.6897266068640143e+18,94.85301430664065,-1.8748558613765225,-0.6655170886995492,-0.2753762856753866,-1.209230785209026,0.6683524476558258,0.1857008978684733,-1.4436146998344606
4.9,1.689726606914118e+18,94.90311826171876,0.3146846073842048,0.499582675808668,1.3322294022659955,1.6897266069116145e+18,94.90061430664062,-0.0461669921875,1.039447021484375,0.0204986572265625,1.689726606914118e+18,94.90311826171876,-0.8187837084779144,9.70378677308798,-1.149821075604558,1.689726606914118e+18,94.90311826171876,0.1321702763438224,0.7800168693065643,0.7538653612136841,1.689726606906604e+18,94.89560390625,0.0733844675123691,1.1287452798336743,0.7026827096939087,,,,,,,,,,,,,1.689726606914118e+18,94.90311826171876,11.190641021728515,48.1599853515625,21.955528259277344,1.6897266069114568e+18,94.90045690917968,41.311767578125,60.06745910644531,101.24586868286131,1.689726606914118e+18,94.90311826171876,-1.68675739779966,-0.645753869954494,-0.301865539980805,-0.9546109799663614,0.671264231005105,0.2030152567156172,-1.4259131977109671
4.95,1.6897266069642225e+18,94.95322231445314,0.8618241741073875,-0.8996058424258232,0.1327894617158175,1.6897266069617183e+18,94.95071821289062,-0.03778076171875,0.8922698974609375,-0.09730224609375,1.6897266069642225e+18,94.95322231445314,-1.1413772477427124,9.686086748842,-1.0210382776337863,1.6897266069642225e+18,94.95322231445314,0.375107741355896,-0.2564292296767234,0.4381419956684113,1.6897266069567078e+18,94.94570786132812,0.3586988270282745,-0.2765900492668152,0.5112898528575898,,,,,,,,,,,,,1.6897266069642225e+18,94.95322231445314,9.65268325805664,48.29659576416016,22.511184692382812,1.6897266069582602e+18,94.94726020507812,39.58195190429687,60.13487548828125,101.97867126464844,1.6897266069642225e+18,94.95322231445314,-1.4616785600734894,-0.6329449681505123,-0.3014196072197147,-0.7299973037673451,0.6836129204874994,0.2029349774501184,-1.4138315805873791
5.0,1.6897266070143263e+18,95.00332622070312,-1.064838928593844,-0.3526754907000064,-0.3236827081279456,1.6897266070118223e+18,95.00082236328124,-0.254443359375,0.9526397705078123,-0.11458740234375,1.6897266070143263e+18,95.00332622070312,-1.3999915928587316,9.669949853033422,-0.8274795383394509,1.6897266070143263e+18,95.00332622070312,0.4556467831134796,0.0054181490093469,0.8346248388290405,1.6897266070068116e+18,94.9958119140625,0.4416575133800506,-0.0252591775730251,0.7337411403656005,,,,,,,,,,,,,1.6897266070143263e+18,95.00332622070312,8.056754302978515,48.11448745727539,23.658033752441405,1.689726607010261e+18,94.99926088867188,37.96920471191406,59.9395263671875,103.14411010742188,1.6897266070143263e+18,95.00332622070312,-1.261366674121603,-0.6221425496387007,-0.2956884675127694,-0.5367594258680451,0.6956475013130713,0.2038005722769021,-1.4037880953809314
5.05,1.68972660706443e+18,95.05343012695312,0.2086677971990406,0.0790000038611888,-0.2953518308372422,1.689726607061926e+18,95.05092607421876,-0.1650421142578125,0.992254638671875,-0.0914703369140625,1.68972660706443e+18,95.05343012695312,-1.8943653018474576,9.603091654769182,-0.578382100983411,1.68972660706443e+18,95.05343012695312,0.5051352679729462,0.1133240427821874,1.080013871192932,1.6897266070569157e+18,95.04591567382812,0.5147213935852051,0.1415778517723083,1.0815616846084597,,,,,,,,,,,,,1.68972660706443e+18,95.05343012695312,5.4643302917480465,47.8640869140625,24.817173767089844,1.6897266070622643e+18,95.05126420898436,35.334600830078124,59.69035949707031,104.28542785644532,1.68972660706443e+18,95.05343012695312,-1.0267454219728858,-0.60075057564005,-0.2940871071577603,-0.2997963925940174,0.7141909841195722,0.2060831363968563,-1.3670698472607064
5.1,1.689726607114534e+18,95.10353408203125,2.222463196069151,1.3932505941659212,-1.6450013955749572,1.68972660711203e+18,95.10103002929688,-0.0094207763671875,1.11295166015625,-0.2143218994140625,1.689726607114534e+18,95.10353408203125,-2.397598696796447,9.501234390029312,-0.3562819432669691,1.689726607114534e+18,95.10353408203125,0.4037432491779327,0.0810719557106494,0.9471372365951538,1.6897266071070198e+18,95.09601977539064,0.4197360754013061,0.0413071734830737,1.0062371253967286,,,,,,,,,,,,,1.689726607114534e+18,95.10353408203125,2.8878852844238283,47.51829528808594,25.96898193359375,1.6897266071142684e+18,95.10326850585936,32.75947265625,59.33061828613281,105.45318603515624,1.689726607114534e+18,95.10353408203125,-0.875402238316286,-0.5789792392942382,-0.2922674798018705,-0.1490936464590593,0.7326669432520326,0.2061689527674381,-1.3208909974836844
5.15,1.689726607164638e+18,95.15363803710936,3.5485797268649932,1.1974139000022412,-4.194515168769955,1.689726607162134e+18,95.15113413085938,0.0880035400390625,1.081103515625,-0.4536346435546875,1.689726607164638e+18,95.15363803710936,-2.711836291065514,9.422307217595575,-0.1807385467253718,1.689726607164638e+18,95.15363803710936,0.0653711199760437,0.4270883619785309,0.3683072865009308,1.6897266071571236e+18,95.14612358398438,0.1581808470189571,0.437821763753891,0.4484248757362366,,,,,,,,,,,,,1.689726607164638e+18,95.15363803710936,1.779556655883789,47.28686981201171,26.80613098144531,1.6897266071610724e+18,95.15007232666017,31.766414642333984,59.07994079589844,106.36151504516602,1.689726607164638e+18,95.15363803710936,-0.8066893710963127,-0.5630886811411082,-0.295000184760284,-0.0667672352971887,0.7424517096783803,0.2113103771105223,-1.2899501483209268
5.2,1.689726607214742e+18,95.2037421875,3.9352186281564823,2.49657646057725,-2.857523491312116,1.689726607212238e+18,95.20123803710938,0.1227264404296875,1.224566650390625,-0.3034912109375,1.689726607214742e+18,95.2037421875,-2.703700973857045,9.422806866906882,-0.2502699005884677,1.689726607214742e+18,95.2037421875,-0.4674357831478118,0.2267627865076064,-0.5069992303848266,1.689726607207228e+18,95.19622763671876,-0.4201843917369842,0.2444216221570968,-0.3546452715992927,,,,,,,,,,,,,1.689726607214742e+18,95.2037421875,1.6699016571044922,47.42543182373047,26.62860107421875,1.6897266072078769e+18,95.19687685546872,31.778802490234376,59.304022216796874,105.95044555664064,1.689726607214742e+18,95.2037421875,-0.8508682726222828,-0.5623782815214238,-0.3039385460483394,-0.0928504997577315,0.7385470962702927,0.2141747558304433,-1.2901706524493537
5.25,1.689726607264846e+18,95.25384604492189,5.934945929542184,2.1879064665335415,-2.0806795206801594,1.689726607262342e+18,95.25134208984376,0.4213592529296875,1.1967010498046875,-0.2612548828125,1.689726607264846e+18,95.25384604492189,-2.154770797390044,9.5487996249938,-0.5012573237160965,1.689726607264846e+18,95.25384604492189,-0.649817168712616,-0.0299171686172485,-2.149317216873169,1.6897266072573317e+18,95.24633173828126,-0.6213476419448852,0.0738689512014388,-1.7606420993804932,,,,,,,,,,,,,1.689726607264846e+18,95.25384604492189,3.6784133911132817,47.85285415649414,25.518141174316405,1.689726607259881e+18,95.24888081054686,34.040008544921875,59.701385498046875,104.81711120605468,1.689726607264846e+18,95.25384604492189,-1.0079419807259082,-0.5852800611534154,-0.310292398355979,-0.2372084622388569,0.7165700099156311,0.2178039976036877,-1.3425891492796127
5.3,1.68972660731495e+18,95.30395004882811,2.73773535271246,2.491058690842986,0.1778409164545685,1.689726607312446e+18,95.30144614257811,0.151983642578125,1.248638916015625,-0.059716796875,1.68972660731495e+18,95.30395004882811,-0.6566653449238418,9.730263042794466,-0.90642639454782,1.68972660731495e+18,95.30395004882811,-0.9708313941955566,0.0674049109220504,-3.369109869003296,1.6897266073074355e+18,95.29643564453124,-0.9307471632957458,-0.1741178005933761,-3.4430901050567626,,,,,,,,,,,,,1.68972660731495e+18,95.30395004882811,9.559393310546875,47.13643188476563,24.55723419189453,1.6897266073118843e+18,95.30088432617188,40.173492431640625,58.888525390625,103.84781188964844,1.68972660731495e+18,95.30395004882811,-1.7599492865286075,-0.6446439372548426,-0.3034773614864893,-0.9923823119029188,0.6641337463124192,0.2250153126657245,-1.4471260804866748
5.35,1.689726607365054e+18,95.35405405273436,-6.405225237072706,3.921878494233489,2.0643874635359643,1.6897266073625503e+18,95.35155004882812,-0.5884521484375,1.379156494140625,0.0518646240234375,1.689726607365054e+18,95.35405405273436,0.6440876366942374,9.669375501824616,-1.4670042364192752,1.689726607365054e+18,95.35405405273436,-1.2023813009262083,2.3150119304656984,-2.2651612758636475,1.6897266073575398e+18,95.34653969726564,-1.166994321346283,2.2413540363311766,-2.450485348701477,,,,,,,,,,,,,1.689726607365054e+18,95.35405405273436,17.067788696289064,45.858299255371094,21.457987976074214,1.6897266073638894e+18,95.35288930664062,47.72898864746094,57.60267028808594,100.49267272949218,1.689726607365054e+18,95.35405405273436,-2.8085642649571776,-0.6859501807503727,-0.3267649452583479,-1.9660581521315583,0.5999112573742473,0.2493669007374613,-1.4056848343080044
5.4,1.689726607415158e+18,95.40415786132812,-2.48124614652425,0.7286753921729325,0.1409118609905243,1.6897266074126538e+18,95.40165395507812,-0.0879730224609375,1.0343475341796875,-0.214300537109375,1.689726607415158e+18,95.40415786132812,1.3681815316827597,9.4709224876827,-2.128997035316676,1.689726607415158e+18,95.40415786132812,-1.216370677947998,0.8656944394111633,-1.5004279375076297,1.6897266074076434e+18,95.39664340820312,-1.2109079837799073,1.093952488899231,-1.5600569248199463,,,,,,,,,,,,,1.689726607415158e+18,95.40415786132812,21.78207778930664,45.08662796020508,17.3271728515625,1.6897266074106962e+18,95.3996961669922,52.26933288574219,56.84661483764648,96.34311294555664,1.689726607415158e+18,95.40415786132812,-3.0661014432061213,-0.7063212299740612,-0.3601245153577441,-2.1399678728318916,0.5480610030401711,0.2661396561057479,-1.30963449812164
5.45,1.6897266074652618e+18,95.4542619140625,-2.6643230200970174,0.3917044848918914,0.1400755855229496,1.689726607462758e+18,95.4517578125,-0.085443115234375,0.973333740234375,-0.257391357421875,1.6897266074652618e+18,95.4542619140625,1.9034458786298336,9.231250626541376,-2.700763926717937,1.6897266074652618e+18,95.4542619140625,-1.1836806297302247,-0.541522353887558,-0.7405709147453308,1.6897266074577477e+18,95.44674755859376,-1.2100959300994871,-0.4313971549272537,-0.8531346678733825,,,,,,,,,,,,,1.6897266074652618e+18,95.4542619140625,23.995916748046874,44.789268493652344,14.54709014892578,1.6897266074575025e+18,95.44650239257813,54.16244201660156,56.640811157226565,93.73946228027344,1.6897266074652618e+18,95.4542619140625,-3.1112403925031664,-0.7296540544732791,-0.368703582659733,-2.184472806647535,0.5167016309579601,0.2540780867184402,-1.2270729888830676
5.5,1.689726607515366e+18,95.50436586914064,-3.903770181447565,-1.653559117527008,1.550722661717534,1.689726607512862e+18,95.50186196289062,-0.1789947509765625,0.7428131103515625,-0.150189208984375,1.689726607515366e+18,95.50436586914064,2.220257648848891,9.025037265983224,-3.126227122635543,1.689726607515366e+18,95.50436586914064,-0.9805400133132934,-0.7827720403671264,-0.1893584758043289,1.6897266075078515e+18,95.49685141601564,-1.0039888858795163,-0.7254280388355255,-0.3005716536194086,,,,,,,,,,,,,1.689726607515366e+18,95.50436586914064,24.02155303955078,45.024323272705075,12.787239074707031,1.6897266075095086e+18,95.49850864257812,54.0594482421875,56.8889892578125,92.05151977539062,1.689726607515366e+18,95.50436586914064,-3.073170270072396,-0.7491994739734029,-0.3656271135208341,-2.1883852388352243,0.5030985707219681,0.2276102754624678,-1.16903873563457
5.55,1.68972660756547e+18,95.55446987304688,-3.9598770932382346,-1.8432199872130155,4.172191693280935,1.6897266075629658e+18,95.55196586914062,-0.1686492919921875,0.719476318359375,0.0810699462890625,1.68972660756547e+18,95.55446987304688,2.2520030326777696,8.9086580225116,-3.4247218180757755,1.68972660756547e+18,95.55446987304688,-0.7055033683776856,-0.8025532722473144,0.6298438549041748,1.6897266075579556e+18,95.54695546875,-0.7639125704765319,-0.7930598735809327,0.5237959593534469,,,,,,,,,,,,,1.68972660756547e+18,95.55446987304688,22.613180541992183,46.076959228515626,11.476686096191406,1.6897266075615124e+18,95.55051240234374,52.52759704589844,58.04143371582031,90.77772827148438,1.68972660756547e+18,95.55446987304688,-2.98140481591767,-0.7591862247268958,-0.3603376489437739,-2.1525971942162143,0.5052955007570024,0.1958833528668121,-1.139527422271133
5.6,1.6897266076155738e+18,95.60457387695313,-2.8200477179116006,-2.7306622798275946,4.325153180766404,1.6897266076130698e+18,95.60206987304689,-0.0812713623046875,0.6283721923828125,0.0834075927734375,1.6897266076155738e+18,95.60457387695313,2.0004526638247073,8.925359215752483,-3.535036530037522,1.6897266076155738e+18,95.60457387695313,-0.1213828526437282,-0.8256276607513428,1.0845564365386964,1.6897266076080594e+18,95.59705947265624,-0.2345472604036331,-0.8263625741004944,1.04165917634964,,,,,,,,,,,,,1.6897266076155738e+18,95.60457387695313,19.551377868652345,47.652522277832034,11.06097412109375,1.6897266076135153e+18,95.6025154296875,49.34968872070313,59.62059020996094,90.44739990234376,1.6897266076155738e+18,95.60457387695313,-2.8536008388376928,-0.7579490256743922,-0.3521293748416399,-2.085498392492054,0.5234020118649945,0.1656789267729206,-1.1436483529038806
5.65,1.6897266076656778e+18,95.65467783203124,-1.2544307662446796,-2.1639610597050187,4.905457043592632,1.689726607663174e+18,95.65217392578126,0.049847412109375,0.712353515625,0.1560546875,1.6897266076656778e+18,95.65467783203124,1.6183791707526147,9.076799251211284,-3.337254956190288,1.6897266076656778e+18,95.65467783203124,0.700518149137497,-0.4452957332134247,0.9957316637039184,1.6897266076581632e+18,95.64716318359376,0.5989255845546723,-0.4979141235351562,1.0586352705955506,,,,,,,,,,,,,1.6897266076656778e+18,95.65467783203124,16.386479949951173,48.92507095336914,12.221226501464844,1.6897266076603213e+18,95.64932110595704,46.474639892578125,60.771148681640625,91.55715942382812,1.6897266076656778e+18,95.65467783203124,-2.7395570035228656,-0.7483747763014469,-0.3375800338511325,-2.0217923836467784,0.550854252577422,0.1497848835741689,-1.1828445174109523
5.7,1.689726607715782e+18,95.70478173828124,2.855980441201627,0.7432115163344145,-1.2901906171858308,1.6897266077132774e+18,95.70227763671876,0.454852294921875,1.048974609375,-0.490789794921875,1.689726607715782e+18,95.70478173828124,1.3169929624284804,9.246774241983294,-2.987140489697754,1.689726607715782e+18,95.70478173828124,0.4526127390563488,0.1285847410559654,0.5477684378623963,1.6897266077082673e+18,95.6972673828125,0.59368896484375,-0.0238726288080215,0.5727180123329163,,,,,,,,,,,,,1.689726607715782e+18,95.70478173828124,14.732311248779297,49.23723449707031,13.879792785644533,1.6897266077071245e+18,95.69612446289062,44.688070678710936,61.111593627929686,93.4097686767578,1.689726607715782e+18,95.70478173828124,-2.6821078706230477,-0.7376864558049384,-0.3240612424043356,-1.9857353725820992,0.5725524305573548,0.1515209448122211,-1.2313766066524263
5.75,1.6897266077658854e+18,95.75488544921876,6.197127962464094,3.2073892145144938,-8.566672034321426,1.6897266077633815e+18,95.75238139648437,0.71422119140625,1.2565399169921876,-1.1912689208984375,1.6897266077658854e+18,95.75488544921876,0.9627921034051476,9.275589183770418,-3.0314692854112386,1.6897266077658854e+18,95.75488544921876,-0.5003224596381186,0.8048347592353821,0.4909095048904419,1.689726607758371e+18,95.74737104492188,-0.3558532271534204,0.8412221193313598,0.5541800200939179,,,,,,,,,,,,,1.6897266077658854e+18,95.75488544921876,13.58073959350586,49.78622741699219,14.022102355957031,1.689726607759128e+18,95.7481279785156,43.565966796875,61.68592834472656,93.31658630371092,1.6897266077658854e+18,95.75488544921876,-2.5937982696955717,-0.7251184634910778,-0.3355600291627357,-1.8787912451298805,0.5816096368110962,0.1525730110269101,-1.2402304328670142
5.8,1.689726607810979e+18,95.79997918701171,2.960214079684019,0.262818577259779,-4.738067583108321,1.6897266078134853e+18,95.80248540039062,0.3229400634765625,0.9056884765625,-0.729888916015625,1.689726607810979e+18,95.79997918701171,0.8201181500324979,9.168278885095566,-3.381006931089982,1.689726607810979e+18,95.79997918701171,-0.898158460855484,-0.6126881316304207,0.1271940823644399,1.689726607808475e+18,95.797475,-0.8916619896888733,-0.4798944339156151,0.1474848479032516,,,,,,,,,,,,,1.689726607810979e+18,95.79997918701171,12.74116325378418,50.62217712402344,11.959623336791992,1.689726607811137e+18,95.8001369140625,42.607110595703126,62.5904541015625,90.9684844970703,1.689726607810979e+18,95.79997918701171,-2.5268615537548733,-0.7228248489710463,-0.3498406690971648,-1.808829174820977,0.5794784255787389,0.1388940146937601,-1.2081141040229375
5.85,1.6897266078560727e+18,95.84507265625,-1.0272682288384438,-0.6794658971327543,0.3102150023025273,1.6897266078635894e+18,95.852589453125,-0.0712738037109375,0.990582275390625,-0.2071746826171875,1.6897266078560727e+18,95.84507265625,0.8466854224906861,9.103674281750918,-3.546187921744585,1.6897266078560727e+18,95.84507265625,-0.0913925126194953,-1.3037324666976928,0.6985405921936035,1.689726607858579e+18,95.84757905273436,-0.0396291702985763,-1.2582614183425904,0.7228669822216034,,,,,,,,,,,,,1.6897266078560727e+18,95.84507265625,11.032654571533204,51.28351669311523,10.925999450683594,1.6897266078631432e+18,95.85214331054688,40.25679626464843,63.32805480957031,90.41903381347656,1.6897266078560727e+18,95.84507265625,-2.456764648213447,-0.7288687118511535,-0.3356074882535161,-1.8051364140791435,0.5866273564010245,0.1088373122165781,-1.1898649754135466
5.9,1.6897266079061765e+18,95.89517641601564,1.1471033849176018,5.669756063880324,2.832279832140505,1.6897266079136932e+18,95.90269326171877,0.210772705078125,1.4945526123046875,-0.0540496826171875,1.6897266079061765e+18,95.89517641601564,0.7635293218633532,9.147119221915004,-3.452048742488324,1.6897266079061765e+18,95.89517641601564,0.0669066872447729,0.0795109212398529,-0.0485644489526748,1.689726607908683e+18,95.89768295898438,0.0430188938975334,0.2052118122577667,-0.1003311874344945,,,,,,,,,,,,,1.6897266079061765e+18,95.89517641601564,8.72702407836914,51.71381530761719,11.384907531738282,1.6897266079151508e+18,95.90415087890626,38.76292114257812,63.56296997070312,90.61574096679688,1.6897266079061765e+18,95.89517641601564,-2.389384735052049,-0.7281913197266817,-0.3183657043579269,-1.7884705776328549,0.5997557863476258,0.0930809850134737,-1.2019622467797202
5.95,1.6897266079562806e+18,95.94528051757814,-1.3915672734149545,-1.5938774452155826,5.949659806810319,1.689726607963797e+18,95.95279716796874,-0.1585479736328125,0.568719482421875,0.3524658203125,1.6897266079562806e+18,95.94528051757814,0.5942083891663328,9.161590581051112,-3.443828494249284,1.6897266079562806e+18,95.94528051757814,0.4660114819183946,2.1907092332839966,0.2284747049212455,1.6897266079587868e+18,95.94778686523438,0.5191765338182449,2.2203694581985474,0.2790421932935715,,,,,,,,,,,,,1.6897266079562806e+18,95.94528051757814,9.384144592285155,51.45927124023437,10.417062377929687,1.6897266079619569e+18,95.95095703125,39.58884811401367,63.25498962402344,89.64198303222656,1.6897266079562806e+18,95.94528051757814,-2.4005236839167567,-0.7193229180275585,-0.3376446056187936,-1.7409221314676802,0.5963328406708724,0.112721901756179,-1.2061441123441323
6.0,1.6897266080063844e+18,95.995384375,-2.7491911561131475,-2.5364630652856825,5.858623503553271,1.6897266080139013e+18,96.0029013183594,-0.285394287109375,0.920245361328125,0.1906829833984375,1.6897266080063844e+18,95.995384375,0.1355309460969455,9.32154020308435,-3.035560237212777,1.6897266080063844e+18,95.995384375,1.501522135734558,0.803207790851593,-0.022123683989048,1.689726608008891e+18,95.9978908203125,1.560394036769867,0.6826573789119721,-0.0941360235214233,,,,,,,,,,,,,1.6897266080063844e+18,95.995384375,9.648502349853516,51.29223403930664,10.838308715820313,1.689726608008762e+18,95.99776191406252,39.9963134765625,62.90665893554687,90.96569213867188,1.6897266080063844e+18,95.995384375,-2.354131357241634,-0.6957823172738737,-0.3537731552605789,-1.6151378460063306,0.6065527167454758,0.1506115892652506,-1.255648087747801
6.05,1.6897266080564884e+18,96.04548842773438,-4.232879093955755,2.9080016618877647,0.2873877858489752,1.6897266080640054e+18,96.05300527343748,-0.3785614013671875,1.1856048583984375,-0.320318603515625,1.6897266080564884e+18,96.04548842773438,0.4103563884221762,9.557737783017751,-2.1353522787883876,1.6897266080564884e+18,96.04548842773438,1.8592154264450071,-1.7775545239448547,-0.4229207187891006,1.6897266080589947e+18,96.04799477539062,1.812048578262329,-1.878675651550293,-0.3554887041449547,,,,,,,,,,,,,1.6897266080564884e+18,96.04548842773438,10.875173950195313,49.92270278930664,15.3281494140625,1.6897266080607703e+18,96.04977041015624,40.99019165039063,61.284182739257815,96.38652648925782,1.6897266080564884e+18,96.04548842773438,-2.48081178957695,-0.6996479002158577,-0.3120967008767601,-1.7694418347373968,0.617498870383106,0.1771749702947906,-1.346430726001243
6.1,1.6897266081065925e+18,96.09559248046877,-2.138279973577261,-0.2311307103848456,-3.451459661327898,1.6897266081141092e+18,96.10310913085938,-0.0599456787109375,0.9707611083984377,-0.5016448974609375,1.6897266081065925e+18,96.09559248046877,0.2235768339963839,9.688406131700276,-1.471677386635989,1.6897266081065925e+18,96.09559248046877,0.7452964901924133,-0.705142617225647,1.8984352827072144,1.689726608109099e+18,96.09809887695312,0.7044668793678284,-0.5550159126520157,1.952624833583832,,,,,,,,,,,,,1.6897266081065925e+18,96.09559248046877,8.574960327148437,48.91152725219727,20.16571960449219,1.6897266081127762e+18,96.10177626953126,37.2593994140625,60.84243469238281,100.2037109375,1.6897266081065925e+18,96.09559248046877,-2.3227975103284693,-0.695551548267008,-0.2622291163197199,-1.705818238504642,0.6478030724953363,0.1658426685567849,-1.4160230135574188
6.15,1.689726608156696e+18,96.14569619140624,2.353090598993301,-0.7582201679915188,-3.0169347394588586,1.6897266081642132e+18,96.1532130859375,0.1456695556640625,0.86463623046875,-0.3936065673828125,1.689726608156696e+18,96.14569619140624,-0.5661483135605976,9.7045438458395,-1.2870017287905513,1.689726608156696e+18,96.14569619140624,0.0237092304974794,0.1579293780028819,0.9519968271255492,1.6897266081592028e+18,96.14820278320312,-0.0009599633514881,0.1618812054395675,0.9101861119270324,,,,,,,,,,,,,1.689726608156696e+18,96.14569619140624,4.497747802734375,49.38127822875977,21.272000122070313,1.6897266081647816e+18,96.15378154296876,33.9374755859375,61.35718688964844,100.61768798828123,1.689726608156696e+18,96.14569619140624,-1.7680173741155425,-0.6672378769738542,-0.2619885554129202,-1.1589488608609926,0.6783866548311339,0.1609565763352338,-1.4264435925894143
6.2,1.6897266082068004e+18,96.1958001953125,1.0120145456051826,-1.4606983412081005,-1.016040264763832,1.689726608214317e+18,96.20331704101562,-0.0533172607421875,0.8742279052734375,-0.186236572265625,1.6897266082068004e+18,96.1958001953125,-0.9481490994161366,9.66544821615219,-1.3568528544865548,1.6897266082068004e+18,96.1958001953125,-0.2773114413022995,0.6232060849666595,0.6042102575302124,1.6897266082093066e+18,96.198306640625,-0.2761430650949478,0.6752933442592621,0.5978094577789307,,,,,,,,,,,,,1.6897266082068004e+18,96.1958001953125,2.9655784606933593,50.08367385864258,20.53492431640625,1.689726608211585e+18,96.2005850830078,32.89783477783203,62.08708953857422,99.68649291992188,1.6897266082068004e+18,96.1958001953125,-1.5812771701027095,-0.6533763312308275,-0.2717417645771481,-0.9624896467405292,0.6888218612152366,0.1573023716457612,-1.4010871768574955
6.25,1.6897266082569042e+18,96.24590424804688,-1.2310971346389503,-0.2226413482677935,1.71123576285243,1.6897266082644209e+18,96.25342109375,-0.314959716796875,0.94368896484375,0.1029693603515625,1.6897266082569042e+18,96.24590424804688,-1.351797543858364,9.620271688342092,-1.3286722943063078,1.6897266082569042e+18,96.24590424804688,0.1451427090913057,2.577088499069214,0.7543867588043213,1.6897266082594107e+18,96.24841064453126,0.1775155004113912,2.6946475744247436,0.7795408129692077,,,,,,,,,,,,,1.6897266082569042e+18,96.24590424804688,2.5978858947753904,50.75303344726562,19.535533142089843,1.6897266082583877e+18,96.24738784179688,32.78876647949219,62.66142578125,98.78820190429688,1.6897266082569042e+18,96.24590424804688,-1.4648390005240586,-0.6327271416109792,-0.2984246903248951,-0.7791406253757733,0.6926243710374924,0.1746459824800158,-1.3756092635943773
6.3,1.6897266083070085e+18,96.29600825195313,-0.3003580343201756,-0.6590720453059673,2.7090781076246495,1.6897266083145252e+18,96.30352504882812,-0.133734130859375,0.9270721435546876,0.1617950439453125,1.6897266083070085e+18,96.29600825195313,-2.0038215849620102,9.554668107861875,-0.8972360591676086,1.6897266083070085e+18,96.29600825195313,0.7601234912872314,1.4030507981777192,1.2732292652130126,1.6897266083095148e+18,96.29851455078126,0.7894951581954956,1.1896039724349976,1.2837417602539063,,,,,,,,,,,,,1.6897266083070085e+18,96.29600825195313,2.952056121826172,50.86220932006836,19.49879608154297,1.6897266083103923e+18,96.29939243164064,32.672689819335936,62.61250610351563,99.18780212402343,1.6897266083070085e+18,96.29600825195313,-1.235561004871567,-0.591723604275132,-0.3352600640157204,-0.4260911864601849,0.699797057331022,0.2180000722220036,-1.3439409303463798
6.35,1.6897266083571123e+18,96.34611220703124,3.010742431463897,1.464885622217059,-1.3471613281185553,1.689726608364629e+18,96.35362895507812,0.0533233642578125,1.1659332275390626,-0.33521728515625,1.6897266083571123e+18,96.34611220703124,-2.636409031124562,9.427893610199687,-0.5458142364035546,1.6897266083571123e+18,96.34611220703124,0.8015902996063232,-1.5145681858062745,1.4350858926773071,1.6897266083596186e+18,96.34861850585938,0.7801932573318482,-1.5078747987747192,1.4463686227798462,,,,,,,,,,,,,1.6897266083571123e+18,96.34611220703124,-0.1620223999023437,50.159288787841795,21.325538635253903,1.6897266083623995e+18,96.351399609375,28.4447998046875,61.72574462890625,101.280908203125,1.6897266083571123e+18,96.34611220703124,-0.9843555256088562,-0.5665488498845337,-0.3203818664737814,-0.2060277305554861,0.7291054209893427,0.2109615022804905,-1.292503787735208
6.4,1.689726608407216e+18,96.39621596679687,4.8015164259335394,1.2297074484592676,-5.598976892780065,1.6897266084147328e+18,96.40373286132812,0.192291259765625,0.99154052734375,-0.6608123779296875,1.689726608407216e+18,96.39621596679687,-3.18689657848835,9.266053527470826,-0.3759326522295176,1.689726608407216e+18,96.39621596679687,0.2898350745439529,0.4739560157060623,0.5819906696677208,1.6897266084097224e+18,96.39872236328124,0.2533511459827423,0.5928937494754791,0.4775125429034233,,,,,,,,,,,,,1.689726608407216e+18,96.39621596679687,-4.45503044128418,49.37623825073242,22.781390380859374,1.689726608414406e+18,96.40340576171874,25.330630493164065,61.16309509277344,102.3382843017578,1.689726608407216e+18,96.39621596679687,-0.8514131717990061,-0.5470810508865815,-0.3046288809720793,-0.1179752603054165,0.7547690813028313,0.195400946732355,-1.2373207726421669
6.45,1.68972660845732e+18,96.44632006835936,3.0355835596361755,0.4372829299533366,-5.851646825634539,1.6897266084648369e+18,96.45383681640624,-0.1337921142578125,1.08726806640625,-0.525726318359375,1.68972660845732e+18,96.44632006835936,-3.0758957547324894,9.306937911044956,-0.2808313974352366,1.68972660845732e+18,96.44632006835936,-0.4704082578420639,0.7293831706047058,-0.691755336523056,1.6897266084598264e+18,96.44882646484376,-0.4944514870643616,0.6874291956424713,-0.6796581983566284,,,,,,,,,,,,,1.68972660845732e+18,96.44632006835936,-3.380868148803711,49.66730728149414,22.59162139892578,1.6897266084612111e+18,96.45021099853516,27.17168426513672,61.65394592285156,101.79097747802734,1.68972660845732e+18,96.44632006835936,-0.8707840099778767,-0.5456779745407101,-0.3173197345598385,-0.0914251093874032,0.7457173923112353,0.2130376036633666,-1.2503332539058154
6.5,1.689726608507424e+18,96.4964240234375,0.5939279574832319,4.251281362800002,-1.4493862205944208,1.689726608514941e+18,96.50394082031252,-0.1296417236328125,1.3858123779296876,-0.1974151611328125,1.689726608507424e+18,96.4964240234375,-2.8532163540896773,9.366608360536098,-0.5314265881085768,1.689726608507424e+18,96.4964240234375,-0.7858949422836303,-0.0855939924716949,-0.3932738542556762,1.6897266085099305e+18,96.49893041992188,-0.7958063840866089,-0.1508124131709337,-0.4075295269489288,,,,,,,,,,,,,1.689726608507424e+18,96.4964240234375,-2.0564456939697267,50.61900100708008,20.967974853515624,1.689726608508015e+18,96.49701499023438,28.073458862304687,62.68095703125,99.93580932617188,1.689726608507424e+18,96.4964240234375,-0.9864144717833744,-0.5554594847196668,-0.3313003991506787,-0.1845401777568744,0.7319092945272646,0.2144131894844652,-1.2701079533308153
6.55,1.6897266085575278e+18,96.54652797851564,8.850332207175493,3.496564000684619,-0.7982615687093884,1.6897266085650447e+18,96.55404482421876,0.86888427734375,1.3669342041015624,-0.024456787109375,1.6897266085575278e+18,96.54652797851564,-2.336936372110695,9.459388584851023,-1.0439567817934603,1.6897266085575278e+18,96.54652797851564,-0.8755568146705628,-0.9843927323818208,-2.327432703971863,1.6897266085600343e+18,96.54903422851562,-0.8624826669692993,-0.9187560468912124,-2.5041553020477294,,,,,,,,,,,,,1.6897266085575278e+18,96.54652797851564,-1.1845062255859375,51.7224739074707,18.664779663085938,1.689726608560018e+18,96.54901787109377,29.98729248046875,63.832211303710935,97.34576110839843,1.6897266085575278e+18,96.54652797851564,-1.2017949875794476,-0.5848308405865934,-0.3308442682982842,-0.4305079468220015,0.7138442385819496,0.1963666090215497,-1.3050063632530324
6.6,1.689726608607632e+18,96.59663188476564,1.1130107949884984,4.501890797541141,4.970384507603049,1.6897266086151483e+18,96.60414853515626,-0.3309814453125,1.442449951171875,0.372265625,1.689726608607632e+18,96.59663188476564,-0.6561669991420175,9.662296357218624,-1.459616741903424,1.689726608607632e+18,96.59663188476564,-0.8015128374099731,1.1398386240005494,-3.718257188796997,1.6897266086101384e+18,96.59913828125,-0.8114251852035522,1.2507426381111144,-3.656928110122681,,,,,,,,,,,,,1.689726608607632e+18,96.59663188476564,6.212666320800781,51.78817367553711,16.173248291015625,1.6897266086120238e+18,96.60102392578123,39.09092407226562,63.325497436523435,94.79187927246092,1.689726608607632e+18,96.59663188476564,-1.9518464049205253,-0.6490837262718084,-0.3272647639481764,-1.1665438274952409,0.6526199438234654,0.2118523562752937,-1.3995064205676702
6.65,1.6897266086577357e+18,96.64673579101564,-6.748701522272825,2.7370184877604244,3.598312719709575,1.6897266086652526e+18,96.65425268554688,-0.6012481689453125,1.12113037109375,0.0195281982421875,1.6897266086577357e+18,96.64673579101564,0.7110336082267388,9.589049919221996,-1.897202308065146,1.6897266086577357e+18,96.64673579101564,-0.8950665235519409,2.0035445928573608,-2.588158893585205,1.6897266086602422e+18,96.6492421875,-0.8963066697120666,1.968876314163208,-2.5171802759170534,,,,,,,,,,,,,1.6897266086577357e+18,96.64673579101564,15.347561645507811,50.26486663818359,12.678855895996094,1.6897266086640302e+18,96.65303012695313,47.456546020507815,61.53001403808594,90.89328002929688,1.6897266086577357e+18,96.64673579101564,-2.8016181288007975,-0.6879990103914525,-0.3522792203576247,-1.9155625591760352,0.5824332672382478,0.2504908060771311,-1.3611461863761
6.7,1.68972660870784e+18,96.69683994140624,-2.852630049408227,-0.4560156874740123,-1.6936573776116963,1.6897266087153567e+18,96.70435659179688,0.0286773681640625,0.9203857421875,-0.4728179931640625,1.68972660870784e+18,96.69683994140624,1.4705770241786538,9.383485027248264,-2.428679040845334,1.68972660870784e+18,96.69683994140624,-1.105513095855713,0.7393865823745728,-1.4596482038497924,1.6897266087103462e+18,96.69934624023438,-1.1167949318885804,0.6804574191570281,-1.4463845491409302,,,,,,,,,,,,,1.68972660870784e+18,96.69683994140624,20.887411499023436,48.6052360534668,8.791990661621094,1.6897266087108352e+18,96.6998350830078,51.67680740356445,60.24283599853515,87.53570938110352,1.68972660870784e+18,96.69683994140624,-3.071613128993563,-0.7091125571397942,-0.37615442134355,-2.113664109551538,0.5323291758714626,0.2685214952345138,-1.2769236903451788
6.75,1.6897266087579438e+18,96.74694379882811,-2.6471881992922723,-0.2514304541873932,-0.5775602339804172,1.6897266087654607e+18,96.75446064453124,-0.1286956787109375,0.8672637939453125,-0.2995513916015625,1.6897266087579438e+18,96.74694379882811,2.045585031006038,9.10821040542364,-2.9964440323549506,1.6897266087579438e+18,96.74694379882811,-1.3000428199768066,-0.4523211240768433,-0.8644741654396058,1.6897266087604503e+18,96.7494501953125,-1.305552339553833,-0.4893119633197784,-0.8157306492328644,,,,,,,,,,,,,1.6897266087579438e+18,96.74694379882811,23.646755981445313,47.53632125854492,5.562307739257813,1.6897266087576392e+18,96.74663911132812,53.8776611328125,59.3124755859375,84.72526245117187,1.6897266087579438e+18,96.74694379882811,-3.1313394778078663,-0.7330965727044731,-0.3840501584660871,-2.1695028490791928,0.4981582459093284,0.258405617191422,-1.1917228425323256
