seconds_elapsed_rounded,accelerometer_time,accelerometer_seconds_elapsed,accelerometer_z,accelerometer_y,accelerometer_x,accelerometeruncalibrated_time,accelerometeruncalibrated_seconds_elapsed,accelerometeruncalibrated_z,accelerometeruncalibrated_y,accelerometeruncalibrated_x,gravity_time,gravity_seconds_elapsed,gravity_z,gravity_y,gravity_x,gyroscope_time,gyroscope_seconds_elapsed,gyroscope_z,gyroscope_y,gyroscope_x,gyroscopeuncalibrated_time,gyroscopeuncalibrated_seconds_elapsed,gyroscopeuncalibrated_z,gyroscopeuncalibrated_y,gyroscopeuncalibrated_x,location_time,location_seconds_elapsed,location_bearingAccuracy,location_speedAccuracy,location_verticalAccuracy,location_horizontalAccuracy,location_speed,location_bearing,location_altitude,location_longitude,location_latitude,magnetometer_time,magnetometer_seconds_elapsed,magnetometer_z,magnetometer_y,magnetometer_x,magnetometeruncalibrated_time,magnetometeruncalibrated_seconds_elapsed,magnetometeruncalibrated_z,magnetometeruncalibrated_y,magnetometeruncalibrated_x,orientation_time,orientation_seconds_elapsed,orientation_qz,orientation_qy,orientation_qx,orientation_qw,orientation_roll,orientation_pitch,orientation_yaw
0.0,1.6887020923482007e+18,149.99620060221355,2.5500808556874595,-2.6449203491210938,-0.3959473371505737,1.6887020923482007e+18,149.99620060221355,-0.9012965559959412,-11.536794980367024,1.9988045295079548,1.6887020923482007e+18,149.99620060221355,-3.457223415374756,-8.874369939168295,2.332064469655355,1.6887020923568453e+18,150.00484521484375,-1.4286611080169678,-1.0753264625867207,-2.71071457862854,1.6887020923568453e+18,150.00484521484375,-1.4298828442891438,-1.0708467960357666,-2.708525617917379,,,,,,,,,,,,1.6887020923471823e+18,149.995182421875,-9.10851984024048,33.274279022216795,-35.455640411376955,1.6887020923471823e+18,149.995182421875,-263.6493225097656,128.7392807006836,-168.6674377441406,1.6887020923482007e+18,149.99620060221355,-0.5418525735537211,0.6872300306955973,-0.4497399032115936,0.1776849677165349,-2.533669869105021,1.130977193514506,-1.5519617795944214
0.05,1.6887020924001062e+18,150.04810628255208,18.40510145823161,-7.265274047851563,0.4759624799092609,1.6887020924001062e+18,150.04810628255208,12.588440577189129,-14.5154603322347,3.478964646657308,1.6887020924001062e+18,150.04810628255208,-5.822506745656331,-7.232681592305501,2.940314769744873,1.6887020924087572e+18,150.05675724283853,-0.3410154978434245,5.043914357821147,-7.86870813369751,1.6887020924087572e+18,150.05675724283853,-0.3422881762186686,5.048444906870524,-7.86646827061971,,,,,,,,,,,,1.6887020923971866e+18,150.04518676757812,0.7881199598312378,30.897718811035155,-38.47147979736328,1.6887020923971866e+18,150.04518676757812,-253.75267944335937,126.3627182006836,-171.68327941894532,1.6887020924001062e+18,150.04810628255208,-0.4384291966756184,0.7402315139770508,-0.4967676003774007,0.0903535429388284,-2.665600538253784,0.8368241588274637,-1.398742437362671
0.1,1.6887020924520046e+18,150.10000447591145,1.1396233240763347,-5.105820973714192,-5.533905029296875,1.6887020924520046e+18,150.10000447591145,-4.6450670560201015,-11.32084290186564,-0.5535395940144859,1.6887020924520046e+18,150.10000447591145,-5.790536403656006,-6.197517077128093,4.917678197224935,1.6887020924520074e+18,150.10000744628906,1.999820113182068,4.7487901002168655,-0.4522693678736686,1.6887020924520074e+18,150.10000744628906,1.9985983967781067,4.753218919038773,-0.4499786347150804,,,,,,,,,,,,1.6887020924471854e+18,150.09518549804687,-3.1915199995040893,30.653718948364254,-37.7638801574707,1.6887020924471854e+18,150.09518549804687,-257.73231201171876,126.11871795654297,-170.97567749023438,1.6887020924520046e+18,150.10000447591145,0.4450924595197041,-0.7923406958580017,0.4062638580799103,0.0903888146082559,-2.430972417195638,0.6850384076436361,-1.210702657699585
0.15,1.6887020925039173e+18,150.15191707356772,4.669793128967285,-8.694385051727295,-4.9056315422058105,1.6887020925039173e+18,150.15191707356772,0.0959123323361079,-15.797813733418783,0.1349950830141703,1.6887020925039173e+18,150.15191707356772,-4.579726854960124,-7.085924784342448,4.977939128875732,1.688702092495266e+18,150.14326611328124,0.45804712921381,0.8060875783363978,3.352275768915812,1.688702092495266e+18,150.14326611328124,0.4567744781573613,0.8105672796567281,3.35456649462382,,,,,,,,,,,,1.688702092497183e+18,150.14518295898438,-10.013759899139403,32.04451942443848,-36.21935882568359,1.688702092497183e+18,150.14518295898438,-264.5545593261719,127.50951843261718,-169.43115844726563,1.6887020925039173e+18,150.15191707356772,0.5114882489045461,-0.7656981547673544,0.380998690923055,0.0787440538406372,-2.306260903676351,0.8088173866271973,-1.3001034259796145
0.2,1.688702092555822e+18,150.2038221842448,2.30320143699646,-6.436850070953369,-0.858267625172933,1.688702092555822e+18,150.2038221842448,-1.2333006858825684,-14.776677131652832,2.9419755140940347,1.688702092555822e+18,150.2038221842448,-3.542348146438598,-8.322322686513266,3.737555742263794,1.688702092547168e+18,150.1951680501302,3.1910582383473716,-1.4682146509488423,2.9028825759887695,1.688702092547168e+18,150.1951680501302,3.1898365020751953,-1.463633139928182,2.905020554860433,,,,,,,,,,,,1.688702092547184e+18,150.19518413085936,-15.096279525756836,33.44507942199707,-33.464599609375,1.688702092547184e+18,150.19518413085936,-269.6370788574219,128.91007385253906,-166.67639770507813,1.688702092555822e+18,150.2038221842448,-0.1990381876627604,0.2460541129112243,-0.1053157647450764,0.0263297594307611,-2.3237048784891763,1.016927500565847,-1.3327157497406006
0.25,1.6887020926077284e+18,150.2557283528646,2.8454995155334473,-10.58703104654948,5.926117976506551,1.6887020926077284e+18,150.2557283528646,0.5128616193930308,-19.915462493896484,7.926623662312825,1.6887020926077284e+18,150.2557283528646,-2.3384838898976645,-9.310927708943684,1.9378183285395305,1.6887020925990802e+18,150.247080078125,3.535433530807495,-0.7007642736037573,2.738254388173422,1.6887020925990802e+18,150.247080078125,3.534211794535319,-0.6961827526489895,2.7404942512512207,,,,,,,,,,,,1.688702092597187e+18,150.24518725585938,-18.299999618530272,36.56583938598633,-28.545559692382813,1.688702092597187e+18,150.24518725585938,-272.8407897949219,132.0308410644531,-161.75735473632812,1.6887020926077284e+18,150.2557283528646,-0.6092585325241089,0.7310435970624288,-0.2880123953024546,0.1029077768325805,-2.4449296792348227,1.2556681235631306,-1.2642587820688884
0.3,1.6887020926596334e+18,150.3076334635417,2.0190155108769736,-4.504110972086589,9.495572090148926,1.6887020926596334e+18,150.3076334635417,0.4428716003894806,-14.168700218200684,10.33699385325114,1.6887020926596334e+18,150.3076334635417,-1.5819899638493855,-9.647084871927897,0.7787337998549143,1.6887020926509832e+18,150.29898307291668,2.121382236480713,0.4574362486600876,1.0148507952690125,1.6887020926509832e+18,150.29898307291668,2.1201605796813965,0.4620177447795868,1.0170906285444896,,,,,,,,,,,,1.6887020926471854e+18,150.2951854980469,-22.138119888305663,38.40803985595703,-22.860359954833985,1.6887020926471854e+18,150.2951854980469,-276.6789123535156,133.87304077148437,-156.07215270996093,1.6887020926596334e+18,150.3076334635417,-0.6322157184282938,0.7253133058547974,-0.2305581917365391,0.144552320241928,-2.6752939224243164,1.3903846740722656,-1.0054866472880046
0.35,1.6887020927028895e+18,150.3508896484375,1.322013646364212,4.62878680229187,6.864679574966431,1.6887020927028895e+18,150.3508896484375,-0.0071784853935241,-5.105685472488403,7.026224613189697,1.6887020927028895e+18,150.3508896484375,-1.335038125514984,-9.716967582702637,0.0988575983792543,1.6887020927028887e+18,150.3508885904948,1.798641800880432,0.2347249761223793,0.7371107439200083,1.6887020927028887e+18,150.3508885904948,1.797369162241618,0.2393064598242441,0.7392996648947397,,,,,,,,,,,,1.6887020926971835e+18,150.34518364257812,-24.702559661865234,40.27951889038086,-17.721719551086426,1.6887020926971835e+18,150.34518364257812,-279.243359375,135.74451599121093,-150.9335174560547,1.6887020927028895e+18,150.3508896484375,-0.6370430588722229,0.7265436053276062,-0.1976352110505103,0.164874717593193,0.0844314098358154,1.4352381825447085,-0.6041123569011688
0.4,1.6887020927461404e+18,150.39414046223956,-3.3309679428736367,8.476016998291016,5.201404094696045,1.6887020927461404e+18,150.39414046223956,-4.216552178064982,-1.293320606152217,4.734598477681478,1.6887020927461404e+18,150.39414046223956,-0.8914302388827006,-9.751832962036133,-0.5294929842154185,1.6887020927547914e+18,150.40279142252606,1.4779375394185383,-0.3565925757090251,1.503899335861206,1.6887020927547914e+18,150.40279142252606,1.4767158428827922,-0.3520111019412676,1.506190061569214,,,,,,,,,,,,1.6887020927471867e+18,150.39518681640624,-26.976639556884766,40.51863861083984,-13.607879829406738,1.6887020927471867e+18,150.39518681640624,-281.517431640625,135.98363647460937,-146.819677734375,1.6887020927461404e+18,150.39414046223956,-0.647984782854716,0.7180439233779907,-0.1693162769079208,0.1889320760965346,2.6013617515563965,1.4648147026697795,0.0272721787914633
0.45,1.6887020927980454e+18,150.44604541015624,-4.159004370371501,10.063157399495443,5.1728189786275225,1.6887020927980454e+18,150.44604541015624,-4.070789575576782,0.3028914630413055,4.142972946166992,1.6887020927980454e+18,150.44604541015624,0.08236875385046,-9.742761294047035,-1.0925333897272749,1.6887020928066998e+18,150.45469978841146,0.7642433146635691,-1.2648983001708984,2.218764344851176,1.6887020928066998e+18,150.45469978841146,0.7630216081937155,-1.260316828886668,2.2210550705591836,1.6887020928240018e+18,150.47200170898438,0.0,0.0,1.0532945394515991,6.811999797821045,1.3953183889389038,155.7406005859375,42.900001525878906,-122.756359,49.189924,1.688702092797188e+18,150.4451880859375,-30.565878677368165,38.46171951293945,-12.5708797454834,1.688702092797188e+18,150.4451880859375,-285.10667724609374,133.9267150878906,-145.78267517089844,1.6887020927980454e+18,150.44604541015624,-0.6714587807655334,0.6853491067886353,-0.1568620105584462,0.2333843410015105,1.500103195508321,1.456339160601298,1.0813628832499187
0.5,1.6887020928499535e+18,150.49795345052084,-3.190197308858236,9.90995184580485,3.209408760070801,1.6887020928499535e+18,150.49795345052084,-2.2695923248926797,0.1998006869107484,2.0739790201187134,1.6887020928499535e+18,150.49795345052084,0.9147590001424154,-9.692646344502768,-1.1981172561645508,1.6887020928586015e+18,150.5066016438802,0.036499198526144,-0.9986119270324708,0.8652397195498148,1.6887020928586015e+18,150.5066016438802,0.0352774672210216,-0.9941322803497314,0.8674286405245463,,,,,,,,,,,,1.688702092847188e+18,150.495187890625,-33.15959854125977,36.177879333496094,-13.080839729309082,1.688702092847188e+18,150.495187890625,-287.700390625,131.64288024902345,-146.29263916015626,1.6887020928499535e+18,150.49795345052084,-0.6924389600753784,0.6526830991109213,-0.1606913010279337,0.2619727849960327,0.8951363563537598,1.416404167811076,1.6375529766082764
0.55,1.6887020929018573e+18,150.54985734049478,-7.516571919123332,7.336845715840657,1.0607370932896931,1.6887020929018573e+18,150.54985734049478,-6.534798522790273,-2.3992034946762337,0.2616152775784333,1.6887020929018573e+18,150.54985734049478,0.9759272933006288,-9.718544642130531,-0.8618092338244122,1.6887020929018583e+18,150.5498582763672,-0.8232172429561615,-3.4762814044952393,-0.7476990781724453,1.6887020929018583e+18,150.5498582763672,-0.8245153576135635,-3.471699893474579,-0.7454847022891045,,,,,,,,,,,,1.6887020928971884e+18,150.54518833007813,-32.88631973266602,35.37511978149414,-15.303679847717286,1.6887020928971884e+18,150.54518833007813,-287.4271179199219,130.84011840820312,-148.51547546386718,1.6887020929018573e+18,150.54985734049478,-0.6836629509925842,0.6357342799504598,-0.207537551720937,0.2888836661974588,0.6693539420763651,1.4370568990707395,1.7525715827941897
0.6,1.6887020929537626e+18,150.6017626139323,38.41686725616455,-15.271374384562174,14.73049290974935,1.6887020929537626e+18,150.6017626139323,39.94418589274088,-24.951956431070965,15.298511505126951,1.6887020929537626e+18,150.6017626139323,1.5214733481407166,-9.663078308105469,0.5053308308124542,1.688702092945115e+18,150.59311482747395,-1.6138550837834675,-13.67218271891276,1.8492926756540935,1.688702092945115e+18,150.59311482747395,-1.615076760450999,-13.667652130126951,1.8514816761016848,,,,,,,,,,,,1.6887020929471828e+18,150.59518276367186,-17.86079959869385,34.13071899414062,-31.475999450683595,1.6887020929471828e+18,150.59518276367186,-272.40159301757814,129.59571685791016,-164.68779907226562,1.6887020929537626e+18,150.6017626139323,-0.6098319292068481,0.4976568321386973,-0.4148567418257394,0.4529427389303843,-0.3318685541550318,1.4029868443806963,2.143988529841105
0.65,1.6887020930056714e+18,150.65367130533855,-2.2858986854553223,-6.105652491251628,12.009183565775553,1.6887020930056714e+18,150.65367130533855,-0.6331010262171427,-15.783058484395346,12.389038880666098,1.6887020930056714e+18,150.65367130533855,1.6469516356786091,-9.65990193684896,0.3171675063204019,1.6887020929970204e+18,150.6450201822917,0.9004154006640116,3.096832195917765,-1.0922270516554515,1.6887020929970204e+18,150.6450201822917,0.8991936445236206,3.1013119369745255,-1.0899872208635013,,,,,,,,,,,,1.688702092997186e+18,150.64518598632813,-14.288639450073244,32.91803894042969,-34.94323883056641,1.688702092997186e+18,150.64518598632813,-268.829443359375,128.3830368041992,-168.15503540039063,1.6887020930056714e+18,150.65367130533855,-0.610681434472402,0.4996304909388224,-0.4059475163618724,0.459376315275828,-0.2005072943866253,1.3956294854482014,2.017974456151326
0.7,1.6887020930575762e+18,150.70557649739584,-4.718212445576985,3.9095632235209146,8.109295209248861,1.6887020930575762e+18,150.70557649739584,-3.973880211512248,-5.881358544031779,7.864011605580648,1.6887020930575762e+18,150.70557649739584,0.738486091295878,-9.773417154947916,-0.307971104979515,1.6887020930489254e+18,150.69692569986978,0.3375539444386959,6.968954404195149,-1.6661349534988403,1.6887020930489254e+18,150.69692569986978,0.3362304133673509,6.973484992980957,-1.6638442277908323,,,,,,,,,,,,1.6887020930471867e+18,150.69518671875,-21.079159927368163,35.38975982666015,-28.169799423217775,1.6887020930471867e+18,150.69518671875,-275.6199523925781,130.8547607421875,-161.38159790039063,1.6887020930575762e+18,150.70557649739584,-0.6417393088340759,0.6028830607732137,-0.3108815451463063,0.3546672562758128,0.3962636242310206,1.487112323443095,1.763178030649821
0.75,1.688702093109479e+18,150.75747884114585,-3.412904739379883,7.480953057607015,3.3939629395802817,1.688702093109479e+18,150.75747884114585,-3.680161237716675,-2.335195461908976,3.246262709299723,1.688702093109479e+18,150.75747884114585,-0.2731025144457817,-9.798644065856934,-0.210387693097194,1.6887020931008284e+18,150.74882836914065,-0.3934990242123604,4.227492968241374,-1.758121093114217,1.6887020931008284e+18,150.74882836914065,-0.3947207455833753,4.232023557027181,-1.7558303276697795,,,,,,,,,,,,1.6887020930971868e+18,150.74518671875,-25.888399505615233,37.27831954956055,-21.330479431152344,1.6887020930971868e+18,150.74518671875,-280.42919921875,132.74331665039062,-154.5422790527344,1.688702093109479e+18,150.75747884114585,-0.6503684918085734,0.6716486811637878,-0.2470455020666122,0.2532570362091064,2.243656118710836,1.5281695127487185,0.1743778027594089
0.8,1.6887020931527368e+18,150.80073669433594,-1.878689885139465,0.989952802658081,5.470459699630737,1.6887020931527368e+18,150.80073669433594,-2.9736803770065308,-8.76311469078064,5.97308349609375,1.6887020931527368e+18,150.80073669433594,-1.1008365154266355,-9.735562801361084,0.4399363398551941,1.68870209315273e+18,150.80073006184895,-1.7446820338567095,0.7187338632841905,-1.6241379976272583,1.68870209315273e+18,150.80073006184895,-1.745954712231954,0.7232644421358904,-1.6218981345494587,,,,,,,,,,,,1.6887020931471892e+18,150.79518940429688,-25.688319396972656,38.464159393310545,-19.732279205322264,1.6887020931471892e+18,150.79518940429688,-280.2291198730469,133.9291564941406,-152.94407653808594,1.6887020931527368e+18,150.80073669433594,-0.6376014947891235,0.6998061239719391,-0.2542315274477004,0.1974113285541534,-2.7427961826324463,1.451034426689148,-1.0501466393470764
0.85,1.6887020931959867e+18,150.84398665364583,-1.0253883600234983,0.7036900520324707,4.588205575942993,1.6887020931959867e+18,150.84398665364583,-2.66700025399526,-8.918847878774008,5.750551064809163,1.6887020931959867e+18,150.84398665364583,-1.6474578777949016,-9.605033238728842,1.0996580918629963,1.688702093204639e+18,150.85263916015626,-1.0849475661913557,-0.4542292148495714,-1.4256576697031658,1.688702093204639e+18,150.85263916015626,-1.0862202246983843,-0.4496986332039038,-1.423417846361796,,,,,,,,,,,,1.6887020931971866e+18,150.84518671875,-22.545599746704102,38.661799621582034,-22.57243957519531,1.6887020931971866e+18,150.84518671875,-277.0863952636719,134.12679748535157,-155.78423461914062,1.6887020931959867e+18,150.84398665364583,-0.6230271657307943,0.707090159257253,-0.2869162360827128,0.1713821788628895,-2.532853126525879,1.3683573802312214,-1.272382656733195
0.9,1.6887020932478956e+18,150.89589558919272,0.3899346192677815,3.6098033587137857,0.7627990245819092,1.6887020932478956e+18,150.89589558919272,-2.14656130472819,-5.732804139455159,2.4735804398854575,1.6887020932478956e+18,150.89589558919272,-2.542341947555542,-9.325102806091309,1.6480940183003745,1.688702093256548e+18,150.90454801432293,-1.071101288000743,0.5998696585496267,-1.878461519877116,1.688702093256548e+18,150.90454801432293,-1.0723230640093486,0.6044511695702871,-1.876221736272176,,,,,,,,,,,,1.6887020932471854e+18,150.89518530273438,-19.122279739379884,38.70815887451172,-24.546399688720705,1.6887020932471854e+18,150.89518530273438,-273.66307373046874,134.17315673828125,-157.75819396972656,1.6887020932478956e+18,150.89589558919272,-0.5938797195752462,0.7282761931419373,-0.3125406304995218,0.137679914633433,-2.5535072485605874,1.257574240366618,-1.2444690465927122
0.95,1.6887020932998034e+18,150.9478034667969,0.091089089711507,-0.3908004760742187,0.0075525442759195,1.6887020932998034e+18,150.9478034667969,-3.05443811416626,-9.392626444498696,2.420340061187744,1.6887020932998034e+18,150.9478034667969,-3.1513732274373374,-8.984321276346842,2.350100119908651,1.68870209330845e+18,150.95645003255208,-1.882992108662923,-0.5115487563113371,-0.6137159566084543,1.68870209330845e+18,150.95645003255208,-1.8842647075653076,-0.5069672328730425,-0.6114761233329773,,,,,,,,,,,,1.688702093297188e+18,150.94518793945312,-16.23087959289551,38.217718505859374,-27.55003967285156,1.688702093297188e+18,150.94518793945312,-270.77167358398435,133.68271484375,-160.7618377685547,1.6887020932998034e+18,150.9478034667969,-0.5750081539154053,0.7372916340827942,-0.3397749761740367,0.1006038809816042,-2.492603858311971,1.158876935640971,-1.296548048655192
1.0,1.6887020933517038e+18,150.99970410156251,1.517341136932373,-3.0820417404174805,-0.4000145594278971,1.6887020933517038e+18,150.99970410156251,-2.0269201596577964,-11.71585750579834,2.7176482677459717,1.6887020933517038e+18,150.99970410156251,-3.5501073201497397,-8.616311073303223,3.054975430170695,1.6887020933517082e+18,150.9997082519531,-2.1959078311920166,-2.151391088962555,-0.4307363480329513,1.6887020933517082e+18,150.9997082519531,-2.197129487991333,-2.146885871887207,-0.4285219758749008,1.6887020933430574e+18,150.99105737304689,0.0,0.0,1.0532945394515991,6.791999816894531,1.3687041997909546,153.11026000976562,42.900001525878906,-122.7563492,49.189925,1.6887020933471852e+18,150.99518530273437,-13.685959815979004,35.45320053100586,-31.92739906311035,1.6887020933471852e+18,150.99518530273437,-268.22675170898435,130.91819763183594,-165.13919677734376,1.6887020933517038e+18,150.99970410156251,-0.5585383375485738,0.7210409045219421,-0.3991481264432271,0.0910746331016221,-2.423105001449585,1.072951038678487,-1.450336456298828
1.05,1.6887020934036134e+18,151.05161368815104,21.671663920084637,-8.511923789978027,0.5185670455296835,1.6887020934036134e+18,151.05161368815104,15.87159220377604,-15.753347396850586,3.547359506289164,1.6887020934036134e+18,151.05161368815104,-5.8059186935424805,-7.223919709523519,2.966105063756307,1.6887020933949614e+18,151.04296134440105,-1.7314976056416829,-4.584696412086487,-6.1586925983428955,1.6887020933949614e+18,151.04296134440105,-1.7327192624409993,-4.580216685930888,-6.1564018328984575,,,,,,,,,,,,1.6887020933971804e+18,151.04518046875,0.1952001601457595,32.23239974975586,-36.92207946777344,1.6887020933971804e+18,151.04518046875,-254.34559326171876,127.69739837646485,-170.13387451171874,1.6887020934036134e+18,151.05161368815104,-0.4395936727523803,0.7378900647163391,-0.4998164574305216,0.090082898736,-2.6548867225646973,0.8347791433334351,-1.4159663915634155
1.1,1.6887020934555218e+18,151.10352189127605,-2.678470770517985,-7.404103597005208,-0.5642538865407308,1.6887020934555218e+18,151.10352189127605,-8.645267963409424,-13.42533047993978,4.38424934943517,1.6887020934555218e+18,151.10352189127605,-5.972643216451009,-6.003722667694092,4.885815620422363,1.688702093446866e+18,151.09486596679687,2.0194186766942344,9.38726838429769,-2.423302471637726,1.688702093446866e+18,151.09486596679687,2.018146057923635,9.391747792561848,-2.421011745929718,,,,,,,,,,,,1.688702093447187e+18,151.09518686523438,0.9637999057769776,30.856239318847656,-38.205519104003905,1.688702093447187e+18,151.09518686523438,-253.57699584960935,126.32123718261718,-171.41731872558594,1.6887020934555218e+18,151.10352189127605,0.4318314294020335,-0.7898009419441223,0.4220574895540873,0.0869535567859808,-2.4509979089101157,0.6589971979459127,-1.2269303798675537
1.15,1.6887020935074212e+18,151.15542114257812,6.693411668141683,-8.837742964426676,-8.364029089609781,1.6887020935074212e+18,151.15542114257812,1.9972092310587568,-15.586248397827148,-2.9393831888834634,1.6887020935074212e+18,151.15542114257812,-4.702048460642497,-6.731001377105713,5.3619585037231445,1.6887020934987727e+18,151.14677278645834,0.8792896320422491,1.1060224672158558,1.4986560742060344,1.6887020934987727e+18,151.14677278645834,0.8780169859528542,1.1106039732694626,1.500946839650472,,,,,,,,,,,,1.6887020934971822e+18,151.1451821777344,-11.050759887695312,34.199039459228516,-34.01360092163086,1.6887020934971822e+18,151.1451821777344,-265.591552734375,129.6640380859375,-167.22539978027345,1.6887020935074212e+18,151.15542114257812,0.4952238202095032,-0.7828750411669413,0.3547625044981639,0.1255699917674064,-2.2875214417775473,0.7566078901290894,-1.2088896830876668
1.2,1.688702093559327e+18,151.2073269856771,3.2631696462631226,-6.710323969523112,0.2174550692240397,1.688702093559327e+18,151.2073269856771,-0.5178467035293579,-14.817354838053385,4.249254147211711,1.688702093559327e+18,151.2073269856771,-3.78686245282491,-8.089526494344076,3.969111680984497,1.688702093550676e+18,151.19867578125,4.727842410405477,0.1431969900925954,2.4723244110743203,1.688702093550676e+18,151.19867578125,4.726569890975952,0.1477784911791483,2.4745132525761924,,,,,,,,,,,,1.688702093547188e+18,151.19518803710938,-14.91327953338623,36.709799194335936,-30.007119750976564,1.688702093547188e+18,151.19518803710938,-269.4540771484375,132.17479858398437,-163.2189178466797,1.688702093559327e+18,151.2073269856771,0.5503757993380228,-0.7811074256896973,0.2856989999612172,0.0590684829900662,-2.3346568743387857,0.9743322531382242,-1.1441513697306316
1.25,1.688702093602585e+18,151.25058520507812,4.278485298156738,-10.971205234527588,6.131134271621704,1.688702093602585e+18,151.25058520507812,1.300499141216278,-20.06441593170166,8.403294324874878,1.688702093602585e+18,151.25058520507812,-2.9838321208953857,-9.075706958770752,2.209472417831421,1.6887020936025848e+18,151.2505850423177,3.5040248235066733,-0.2710714638233185,1.6472490231196086,1.6887020936025848e+18,151.2505850423177,3.502701361974081,-0.2665408700704574,1.6493870814641316,,,,,,,,,,,,1.688702093597187e+18,151.24518725585938,-19.734719848632817,40.97979888916016,-20.89127960205078,1.688702093597187e+18,151.24518725585938,-274.2755126953125,136.4447998046875,-154.103076171875,1.688702093602585e+18,151.25058520507812,-0.5897044539451599,0.7780663967132568,-0.2152492552995681,0.0176039212383329,-2.503217816352844,1.1819349527359009,-0.975631982088089
1.3,1.6887020936458363e+18,151.29383658854167,4.354129711786906,-6.722209930419922,11.67778491973877,1.6887020936458363e+18,151.29383658854167,1.8829519748687744,-16.10768477121989,13.24846076965332,1.6887020936458363e+18,151.29383658854167,-2.4770236810048423,-9.367970784505207,1.507988015810649,1.688702093654484e+18,151.30248404947918,1.6090699434280396,0.6956737041473389,1.3033828337987263,1.688702093654484e+18,151.30248404947918,1.6078482468922932,0.7001533905665079,1.305622657140096,,,,,,,,,,,,1.6887020936471872e+18,151.2951871582031,-22.779839706420898,42.2363998413086,-15.95759983062744,1.6887020936471872e+18,151.2951871582031,-277.3206359863281,137.70139770507814,-149.16940002441407,1.6887020936458363e+18,151.29383658854167,-0.6100473205248514,0.7713004549344381,-0.1765806078910827,0.0392105368276436,-2.5927658081054688,1.2699981530507405,-0.8587830464045206
1.35,1.6887020936977462e+18,151.3457462565104,-0.0225878953933716,5.433436870574951,5.059447288513184,1.6887020936977462e+18,151.3457462565104,-1.7012968858083088,-4.210171461105347,5.9282182057698565,1.6887020936977462e+18,151.3457462565104,-1.6845550139745076,-9.62610371907552,0.8060833613077799,1.6887020937063928e+18,151.3543927408854,1.565393090248108,0.1330668119092782,1.588249603907267,1.6887020937063928e+18,151.3543927408854,1.564171353975932,0.13764829809467,1.5905403693517048,,,,,,,,,,,,1.6887020936971848e+18,151.34518486328125,-26.50083923339844,41.49708023071289,-11.56315975189209,1.6887020936971848e+18,151.34518486328125,-281.04163818359376,136.9620819091797,-144.77496032714845,1.6887020936977462e+18,151.3457462565104,-0.6404583056767782,0.7529432972272238,-0.1373690068721771,0.0615816786885261,-2.6974255243937173,1.3784645398457844,-0.727812667687734
1.4,1.6887020937496497e+18,151.39764982096355,-4.322919845581055,9.686609586079916,3.4787333011627197,1.6887020937496497e+18,151.39764982096355,-5.228915611902873,-0.0921236686408519,3.727818250656128,1.6887020937496497e+18,151.39764982096355,-0.9118417104085288,-9.761228879292808,0.1863975053032239,1.688702093758294e+18,151.40629418945312,1.2452996969223022,-0.3263547619183858,2.102954546610514,1.688702093758294e+18,151.40629418945312,1.244078000386556,-0.321824163198471,2.105245272318522,,,,,,,,,,,,1.6887020937471862e+18,151.39518603515626,-29.98271942138672,40.25511932373047,-8.20083990097046,1.6887020937471862e+18,151.39518603515626,-284.5235168457031,135.7201141357422,-141.41263427734376,1.6887020937496497e+18,151.39764982096355,-0.6682080427805582,0.7308400670687357,-0.1086122120420137,0.0856441507736841,-0.8730522791544596,1.4757262865702312,-0.4500772058963775
1.45,1.6887020938015475e+18,151.44954744466148,-2.5593477884928384,10.099104563395182,2.9862075646718345,1.6887020938015475e+18,151.44954744466148,-2.406581401824951,0.280558460081617,2.764906565348307,1.6887020938015475e+18,151.44954744466148,0.1469203829765319,-9.80104160308838,-0.283988411227862,1.688702093801549e+18,151.44954907226565,0.8017606437206268,-0.1182024180889129,2.165288209915161,1.688702093801549e+18,151.44954907226565,0.8005388975143433,-0.1136972904205322,2.167578935623169,,,,,,,,,,,,1.6887020937971794e+18,151.4451794921875,-34.952999114990234,36.96843948364258,-6.417199897766113,1.6887020937971794e+18,151.4451794921875,-289.49379272460936,132.43343811035157,-139.62900085449218,1.6887020938015475e+18,151.44954744466148,-0.7036429047584534,0.6945171356201172,-0.0945016692082087,0.1157853330175081,1.321212391058604,1.5305863618850708,1.5218125482400258
1.5,1.6887020938534572e+18,151.5014571126302,-2.344143867492676,10.159246444702148,1.4688931902249651,1.6887020938534572e+18,151.5014571126302,-1.7465611696243286,0.3597210148970286,1.0879366894563038,1.6887020938534572e+18,151.5014571126302,0.5917366743087769,-9.782020886739096,-0.4436439176400502,1.6887020938448064e+18,151.49280615234375,0.32080606619517,-0.3074688514073689,0.5955936089158058,1.6887020938448064e+18,151.49280615234375,0.3195843448241551,-0.3029891649881998,0.5978843420743942,1.6887020938621036e+18,151.510103515625,0.0,0.0,1.0636733770370483,6.743000030517578,1.3287826776504517,148.05398559570312,42.900001525878906,-122.7563302,49.1899241,1.6887020938471798e+18,151.49517978515627,-38.13475875854492,34.213679504394534,-5.180119800567627,1.6887020938471798e+18,151.49517978515627,-292.6755615234375,129.67868041992188,-138.3919189453125,1.6887020938534572e+18,151.5014571126302,-0.7181635101636251,0.6781682173411051,-0.089747962852319,0.1273834531505902,0.6013672550519308,1.493098258972168,2.2316967646280923
1.55,1.6887020939053658e+18,151.55336555989584,3.735784928003947,3.0677798589070644,0.0725804169972737,1.6887020939053658e+18,151.55336555989584,3.3988049825032554,-6.733801782131195,0.1022931337356567,1.6887020939053658e+18,151.55336555989584,-0.3428257902463277,-9.784077326456703,-0.0329746740559736,1.6887020938967163e+18,151.54471655273437,-1.4663310945034027,-6.002107302347819,-2.7307713429133096,1.6887020938967163e+18,151.54471655273437,-1.4676037927468617,-5.997576872507731,-2.7284805377324424,,,,,,,,,,,,1.6887020938971845e+18,151.54518461914063,-34.811479568481445,35.60204010009765,-10.560319805145264,1.6887020938971845e+18,151.54518461914063,-289.35227661132814,131.0670379638672,-143.7721160888672,1.6887020939053658e+18,151.55336555989584,-0.6711417237917582,0.6894163091977438,-0.1885509565472602,0.1808418631553649,0.3030898173650105,1.5114204088846843,0.2137599885463714
1.6,1.6887020939572695e+18,151.6052692871094,18.643686453501385,-17.340189615885418,7.838010867436727,1.6887020939572695e+18,151.6052692871094,17.850457588831585,-27.09811846415202,8.706883112589518,1.6887020939572695e+18,151.6052692871094,-0.7990758617719015,-9.740424791971842,0.806184728940328,1.688702093948622e+18,151.5966220703125,-2.1423552831014,-5.229261050621669,0.4191044544180233,1.688702093948622e+18,151.5966220703125,-2.143627961476644,-5.224730526407559,0.4213951900601387,,,,,,,,,,,,1.688702093947189e+18,151.59518911132812,-22.338199615478516,36.20471954345703,-27.279199600219727,1.688702093947189e+18,151.59518911132812,-276.87900390625,131.66971740722656,-160.49099731445312,1.6887020939572695e+18,151.6052692871094,-0.6260058879852295,0.6482231815656027,-0.3434186379114787,0.264050414164861,-2.3131934801737466,1.452046275138855,-1.7181309461593628
1.65,1.6887020940091753e+18,151.65717537434895,1.6357121467590332,-9.897460301717125,14.226630846659342,1.6887020940091753e+18,151.65717537434895,0.5798606872558594,-19.619749387105305,15.212569236755373,1.6887020940091753e+18,151.65717537434895,-1.0616974433263142,-9.704785346984863,0.9232512911160788,1.6887020940005194e+18,151.6485193684896,0.8558221956094106,2.394846280415853,-1.2701415816942851,1.6887020940005194e+18,151.6485193684896,0.8545495718717575,2.3993260065714517,-1.2678508559862771,,,,,,,,,,,,1.6887020939971858e+18,151.6451859375,-22.687119674682616,35.10428009033203,-28.726119232177737,1.6887020939971858e+18,151.6451859375,-277.22791748046876,130.56928100585938,-161.9379150390625,1.6887020940091753e+18,151.65717537434895,-0.6279309193293253,0.6680069168408712,-0.3243456284205118,0.231494794289271,-2.3718883991241455,1.424910346666972,-1.5800514221191406
1.7,1.688702094052437e+18,151.70043701171875,-1.5129288434982302,6.20712685585022,2.50775283575058,1.688702094052437e+18,151.70043701171875,-3.4016964435577393,-3.404687523841858,3.3367912769317627,1.688702094052437e+18,151.70043701171875,-1.8946135640144348,-9.59430980682373,0.7663510739803314,1.6887020940524332e+18,151.70043310546876,0.3553199569384257,1.1264864206314087,-1.5396349628766377,1.6887020940524332e+18,151.70043310546876,0.3540982156991958,1.131017029285431,-1.5373442272345226,,,,,,,,,,,,1.6887020940471823e+18,151.69518237304686,-22.130799865722658,38.161599731445314,-25.67611961364746,1.6887020940471823e+18,151.69518237304686,-276.6716003417969,133.62660217285156,-158.8879180908203,1.688702094052437e+18,151.70043701171875,-0.6039016842842102,0.7080721259117126,-0.3049469888210296,0.2022113054990768,-2.7311840057373047,1.3634752035140991,-1.1481398344039917
1.75,1.6887020940956877e+18,151.74368782552082,-0.9198468923568726,8.544924100240072,0.4012890855471293,1.6887020940956877e+18,151.74368782552082,-2.893919587135315,-1.0428718725840251,1.31226380666097,1.6887020940956877e+18,151.74368782552082,-1.9799186786015828,-9.57029151916504,0.8482873241106669,1.6887020941043418e+18,151.7523419596354,-0.0688241510652006,1.817833145459493,0.4033237795035044,1.6887020941043418e+18,151.7523419596354,-0.0700458821374923,1.8224146763483684,0.4055127054452896,,,,,,,,,,,,1.6887020940971835e+18,151.7451838867187,-23.150719833374023,38.766719818115234,-23.482559585571288,1.6887020940971835e+18,151.7451838867187,-277.69151611328124,134.23171691894532,-156.6943603515625,1.6887020940956877e+18,151.74368782552082,-0.6083958546320597,0.7193585435549418,-0.2841496368249257,0.1774016966422398,-2.709794203440348,1.3525543212890625,-1.100904901822408
1.8,1.6887020941475937e+18,151.7955935872396,-5.03153133392334,1.2628488540649414,4.349722305933635,1.6887020941475937e+18,151.7955935872396,-6.766702969868978,-8.294720013936361,5.8638114134470625,1.6887020941475937e+18,151.7955935872396,-1.7410176992416382,-9.540064175923666,1.4514015913009644,1.6887020941562388e+18,151.80423868815103,-1.4114041328430176,2.4560346206029258,-0.3090469191471736,1.6887020941562388e+18,151.80423868815103,-1.4126768112182615,2.4605143070220947,-0.3068070809046427,,,,,,,,,,,,1.6887020941471844e+18,151.79518452148437,-26.8985595703125,37.3637191772461,-22.474839401245116,1.6887020941471844e+18,151.79518452148437,-281.43935546875,132.8287139892578,-155.68663635253907,1.6887020941475937e+18,151.7955935872396,-0.6311880747477213,0.7189340790112814,-0.2620532512664795,0.1245594819386799,-2.4236793518066406,1.3387350638707478,-1.2756574551264446
1.85,1.6887020941994954e+18,151.84749552408854,-2.7940380970637,3.3013054529825845,2.0347596804300943,1.6887020941994954e+18,151.84749552408854,-5.12044099966685,-6.002993583679199,4.202793518702189,1.6887020941994954e+18,151.84749552408854,-2.33224884668986,-9.286794344584148,2.105346441268921,1.6887020942081508e+18,151.85615087890625,-0.4395175476868947,-0.3255911786109209,-2.29939858118693,1.6887020942081508e+18,151.85615087890625,-0.4407392740249634,-0.3210605972756942,-2.2971078554789224,,,,,,,,,,,,1.6887020941971845e+18,151.84518447265626,-27.04983901977539,37.21731948852539,-22.711519622802733,1.6887020941971845e+18,151.84518447265626,-281.59063720703125,132.68231811523438,-155.9233184814453,1.6887020941994954e+18,151.84749552408854,-0.6155610283215841,0.7376379172007242,-0.2666585644086202,0.0745556230346361,-2.378505071004232,1.2468795379002888,-1.2571039994557698
1.9,1.688702094251402e+18,151.89940177408857,2.4044981797536216,3.971432685852051,-0.0453346967697143,1.688702094251402e+18,151.89940177408857,-1.0384850303332012,-4.918048063913981,2.3684955835342407,1.688702094251402e+18,151.89940177408857,-3.448829174041748,-8.871976216634115,2.3511428833007812,1.6887020942514043e+18,151.8994045410156,-0.9314931333065032,-0.29466612637043,-2.1113030910491943,1.6887020942514043e+18,151.8994045410156,-0.9327148795127868,-0.2901609912514686,-2.109012246131897,,,,,,,,,,,,1.6887020942471872e+18,151.8951873535156,-21.603759384155275,39.39135971069336,-24.202359771728517,1.6887020942471872e+18,151.8951873535156,-276.14454956054686,134.85635986328126,-157.41416015625,1.688702094251402e+18,151.89940177408857,-0.5694247086842855,0.7674683531125387,-0.28875998655955,0.0556569943825403,-2.5264357725779214,1.1346925099690754,-1.1194504499435425
1.95,1.6887020943033098e+18,151.95130989583333,2.139496167500814,-2.8418712615966797,1.4087480703989663,1.6887020943033098e+18,151.95130989583333,-2.0953149795532227,-11.207782109578451,4.384249369303386,1.6887020943033098e+18,151.95130989583333,-4.2406571706136065,-8.348406155904135,2.912813901901245,1.6887020942946506e+18,151.942650390625,-1.5675311088562012,-0.5766567885875702,-1.5081753333409629,1.6887020942946506e+18,151.942650390625,-1.5687528451283772,-0.5720752875010172,-1.505935509999593,,,,,,,,,,,,1.6887020942971858e+18,151.94518583984376,-17.223959541320802,39.41819839477539,-26.9083194732666,1.6887020942971858e+18,151.94518583984376,-271.76475830078124,134.88319396972656,-160.1201171875,1.6887020943033098e+18,151.95130989583333,-0.534494419892629,0.7790167133013407,-0.3259990513324737,0.0306862176706392,-2.5279645919799805,1.0216331283251443,-1.1439904769261675
2.0,1.6887020943552074e+18,152.00320735677084,17.634632746378582,-7.834683577219645,1.221546649932861,1.6887020943552074e+18,152.00320735677084,12.179068247477211,-15.379867553710938,4.2604208787282305,1.6887020943552074e+18,152.00320735677084,-5.461411317189534,-7.527679602305095,2.976186831792196,1.6887020943465646e+18,151.99456469726564,-2.0925188859303794,-4.330932855606079,-2.732502063115438,1.6887020943465646e+18,151.99456469726564,-2.093740622202555,-4.326351404190064,-2.7303131024042764,1.6887020943662935e+18,152.01429345703124,0.0,0.0,1.0636733770370483,6.72599983215332,1.3115251064300537,145.43504333496094,42.900001525878906,-122.7563205,49.189925,1.6887020943471867e+18,151.99518657226562,-12.275639724731445,37.72971878051758,-31.74927940368652,1.6887020943471867e+18,151.99518657226562,-266.8164367675781,133.19471435546876,-164.96107788085936,1.6887020943552074e+18,152.00320735677084,-0.4689824084440867,0.7844208677609762,-0.3994309902191162,0.0407892627020676,-2.625402450561523,0.880282441775004,-1.192964514096578
2.05,1.6887020944071168e+18,152.05511686197917,7.949308554331462,-8.574156761169434,0.8349022070566813,1.6887020944071168e+18,152.05511686197917,1.9657036463419597,-15.025929768880207,5.160520792007446,1.6887020944071168e+18,152.05511686197917,-5.989450772603353,-6.434268951416016,4.262931187947591,1.6887020943984645e+18,152.04646427408855,-0.0709112907449404,6.753878712654114,-2.0356575647989907,1.6887020943984645e+18,152.04646427408855,-0.0721329723795255,6.758409301439921,-2.0334686438242593,,,,,,,,,,,,1.6887020943971791e+18,152.04517919921875,-0.6856399655342102,34.90175857543945,-36.29743881225586,1.6887020943971791e+18,152.04517919921875,-255.22643432617187,130.36675720214845,-169.50923767089844,1.6887020944071168e+18,152.05511686197917,0.1676357686519622,-0.2669438123703003,0.1051954627037048,0.0611382214507708,-2.5161639054616294,0.7174447377522787,-1.1549084981282551
2.1,1.688702094459023e+18,152.10702294921873,-1.7446282704671223,-3.281118075052897,-5.282595634460449,1.688702094459023e+18,152.10702294921873,-6.491727828979492,-10.053245226542154,0.0705882708231607,1.688702094459023e+18,152.10702294921873,-4.75294558207194,-6.754622459411621,5.2904965082804365,1.688702094450371e+18,152.09837133789063,0.0322740375995636,1.7686585088570912,1.1448123653729756,1.688702094450371e+18,152.09837133789063,0.031001403927803,1.7731890678405762,1.147001306215922,,,,,,,,,,,,1.6887020944471887e+18,152.09518876953126,-13.922639656066895,35.68987884521484,-33.772039794921874,1.6887020944471887e+18,152.09518876953126,-268.46343383789065,131.15487976074218,-166.983837890625,1.688702094459023e+18,152.10702294921873,0.493443230787913,-0.7885528206825256,0.3436924815177917,0.1281742925445238,-2.2958969275156655,0.7616266012191772,-1.1787732442220051
2.15,1.6887020945022756e+18,152.15027551269532,0.3109002113342285,-7.479848384857178,-5.535379648208618,1.6887020945022756e+18,152.15027551269532,-4.077369928359985,-14.747863292694092,-0.5419743554666638,1.6887020945022756e+18,152.15027551269532,-4.394116163253784,-7.250510215759277,4.930717945098877,1.6887020945022784e+18,152.1502784016927,0.2872593825062116,-3.0357967615127563,2.3732115030288696,1.6887020945022784e+18,152.1502784016927,0.2859867389003436,-3.0312151114145913,2.3754512866338096,,,,,,,,,,,,1.6887020944971845e+18,152.14518442382814,-16.928719329833985,33.85255889892578,-34.58699951171875,1.6887020944971845e+18,152.14518442382814,-271.4695190429687,129.31755981445312,-167.79880065917968,1.6887020945022756e+18,152.15027551269532,0.5212376415729523,-0.7659304141998291,0.3673227876424789,0.0796521492302417,-2.291330575942993,0.8335227072238922,-1.2898774147033691
2.2,1.688702094545536e+18,152.19353588867185,12.59256362915039,-7.747949600219727,-1.1025485197703044,1.688702094545536e+18,152.19353588867185,7.949754426876704,-15.383456548055014,3.0257242918014526,1.688702094545536e+18,152.19353588867185,-4.648655732472737,-7.618002732594808,4.065585374832153,1.6887020945541844e+18,152.20218424479165,2.6026423374811807,1.5033903121948242,0.0328340331713358,1.6887020945541844e+18,152.20218424479165,2.6013696988423667,1.5079209009806316,0.0350738565127055,,,,,,,,,,,,1.6887020945471867e+18,152.19518666992187,-13.964119720458983,34.89931945800781,-34.8627197265625,1.6887020945471867e+18,152.19518666992187,-268.5049133300781,130.36431884765625,-168.07451782226562,1.688702094545536e+18,152.19353588867185,0.514031986395518,-0.7736399372418722,0.3689861098925273,0.0243723249683777,-2.4164881706237793,0.8907873233159384,-1.2482119003931682
2.25,1.6887020945974382e+18,152.24543798828125,1.3702544768651326,-8.67218049367269,3.6751956939697266,1.6887020945974382e+18,152.24543798828125,-2.0205393781264624,-17.28275998433431,6.972286542256673,1.6887020945974382e+18,152.24543798828125,-3.396639903386434,-8.5930757522583,3.234403371810913,1.688702094606089e+18,152.2540887044271,4.068515300750732,1.9622519214948015,1.6234762420256932,1.688702094606089e+18,152.2540887044271,4.067242622375488,1.966833382844925,1.6257160305976868,,,,,,,,,,,,1.6887020945971858e+18,152.24518574218752,-21.940479278564453,38.6959587097168,-26.166559600830077,1.6887020945971858e+18,152.24518574218752,-276.4812805175781,134.16095275878905,-159.37835388183595,1.6887020945974382e+18,152.24543798828125,0.572232981522878,-0.7785255114237467,0.2533896217743555,0.0271971287826696,-2.374421993891398,1.0726161003112793,-1.0993539492289226
2.3,1.688702094649337e+18,152.2973369954427,3.613164742787679,-5.99691645304362,9.06808853149414,1.688702094649337e+18,152.2973369954427,0.8195417672395706,-15.196019172668455,11.136396090189615,1.688702094649337e+18,152.2973369954427,-2.799469073613485,-9.18159834543864,2.0056198040644326,1.688702094657992e+18,152.30599218749998,1.1669053236643474,-0.5072217732667923,1.695354700088501,1.688702094657992e+18,152.30599218749998,1.165683627128601,-0.5026911944150925,1.6975945234298706,,,,,,,,,,,,1.6887020946471793e+18,152.29517924804688,-23.93151931762695,41.42143936157227,-20.186119842529298,1.6887020946471793e+18,152.29517924804688,-278.4723205566406,136.88643493652344,-153.39791564941407,1.688702094649337e+18,152.2973369954427,-0.5986053347587585,0.7774227857589722,-0.191930666565895,0.0155514897002527,-2.5122615496317544,1.2136073112487793,-0.9286252657572428
2.35,1.6887020947012452e+18,152.3492451171875,0.2965458631515503,3.848534266153971,5.346609751383464,1.6887020947012452e+18,152.3492451171875,-1.4049857258796692,-5.703093449274699,6.927221457163493,1.6887020947012452e+18,152.3492451171875,-1.7073776324590046,-9.534123102823893,1.5179240703582764,1.688702094701242e+18,152.34924169921874,1.2196688055992126,-0.2546544522047043,2.368019223213196,1.688702094701242e+18,152.34924169921874,1.2184470891952517,-0.2500729635357857,2.3702335357666016,,,,,,,,,,,,1.6887020946971812e+18,152.34518125,-28.135639572143553,39.47431945800781,-18.78799934387207,1.6887020946971812e+18,152.34518125,-282.6764343261719,134.93931884765624,-151.99979553222656,1.6887020947012452e+18,152.3492451171875,-0.6417079965273539,0.7447496851285299,-0.1761267979939778,0.047150284051895,-2.3988123734792075,1.3365801175435383,-1.062111457188924
2.4,1.688702094753151e+18,152.40115079752604,-1.6559707323710124,9.005976676940918,2.280515750249227,1.688702094753151e+18,152.40115079752604,-2.5449663003285727,-0.729810893535614,3.314059336980184,1.688702094753151e+18,152.40115079752604,-0.8948415915171305,-9.718283335367838,0.9708561102549236,1.688702094744503e+18,152.3925030110677,1.2128220399220784,0.0315613746643066,1.4966707626978557,1.688702094744503e+18,152.3925030110677,1.2115494012832642,0.0360410461823145,1.4988596836725872,,,,,,,,,,,,1.6887020947471798e+18,152.39517973632812,-31.436959075927735,38.06399917602539,-16.355319786071778,1.6887020947471798e+18,152.39517973632812,-285.9777587890625,133.52899780273438,-149.5671173095703,1.688702094753151e+18,152.40115079752604,-0.6709659894307455,0.7210457523663839,-0.155340015888214,0.07508714000384,-2.288061777750651,1.4368573427200315,-1.1816306511561077
2.45,1.6887020948050542e+18,152.45305395507813,-3.390648365020752,9.979748090108236,2.5136194229125977,1.6887020948050542e+18,152.45305395507813,-3.542374531428019,0.1710868229468663,3.112264633178711,1.6887020948050542e+18,152.45305395507813,-0.157572162648042,-9.791156768798828,0.535957803328832,1.688702094796405e+18,152.44440511067708,0.9032151699066162,0.0293215339382489,1.769269347190857,1.688702094796405e+18,152.44440511067708,0.901942531267802,0.0338012129068374,1.7715600728988647,,,,,,,,,,,,1.68870209479718e+18,152.44517998046874,-33.96723937988281,36.741519165039065,-14.0470796585083,1.68870209479718e+18,152.44517998046874,-288.5080261230469,132.20651550292968,-147.25888061523438,1.6887020948050542e+18,152.45305395507813,-0.6965511838595072,0.6983091036478678,-0.1346781353155771,0.0942741806308428,-1.7081466913223269,1.5096715291341145,-1.7588253418604534
2.5,1.6887020948569592e+18,152.50495930989584,-2.1448628107706704,9.622814496358236,1.4743020335833232,1.6887020948569592e+18,152.50495930989584,-1.856032768885295,-0.1884347877154747,2.023131569226583,1.6887020948569592e+18,152.50495930989584,0.2829840381940205,-9.793744723002115,0.4861421088377635,1.6887020948483064e+18,152.49630639648436,0.0394517121215661,0.1087849177420139,0.6289875647053123,1.6887020948483064e+18,152.49630639648436,0.0382299857834974,0.1133664126197497,0.631278316800793,,,,,,,,,,,,1.6887020948471803e+18,152.4951802734375,-36.175439453125,34.81635971069336,-12.841719818115234,1.6887020948471803e+18,152.4951802734375,-290.7162292480469,130.28135681152344,-146.053515625,1.6887020948569592e+18,152.50495930989584,-0.7123727401097616,0.6824689706166586,-0.1304372151692708,0.0986969669659932,-0.9762107531229656,1.5090216795603435,-2.491020361582438
2.55,1.6887020949088648e+18,152.55686490885418,-4.101469119389852,3.890246073404948,0.4538202087084452,1.6887020949088648e+18,152.55686490885418,-4.432703932126363,-5.881159275770187,1.3774683078130086,1.6887020949088648e+18,152.55686490885418,-0.3370809058348338,-9.75390084584554,0.8609607418378195,1.6887020949002143e+18,152.54821459960937,-1.1643600563208265,-3.811748057603836,-1.4152729511260986,1.6887020949002143e+18,152.54821459960937,-1.16558176279068,-3.807166596253712,-1.413033127784729,1.688702094900215e+18,152.5482150878906,0.0,0.0,1.073262333869934,6.677000045776367,1.2919988632202148,140.72042846679688,42.900001525878906,-122.7563017,49.1899242,1.6887020948971802e+18,152.5451802246094,-35.52151947021484,35.048159790039065,-13.583479499816894,1.6887020948971802e+18,152.5451802246094,-290.06231689453125,130.51315612792968,-146.79527893066407,1.6887020949088648e+18,152.55686490885418,-0.6851011315981547,0.6883332928021749,-0.1923265556494394,0.1237744117776552,-1.740712285041809,1.4687288602193196,-1.8534841537475584
2.6,1.6887020949521188e+18,152.60011865234375,36.230061531066895,-17.862988471984863,8.150970697402954,1.6887020949521188e+18,152.60011865234375,35.71048450469971,-27.575486183166504,9.6029953956604,1.6887020949521188e+18,152.60011865234375,-0.5254238396883011,-9.694993495941162,1.3893367648124697,1.6887020949521231e+18,152.60012320963543,-1.674890677134196,-8.303083936373392,1.6361007591088612,1.6887020949521231e+18,152.60012320963543,-1.6761632959047954,-8.298604210217794,1.6383405824502308,,,,,,,,,,,,1.6887020949471803e+18,152.5951806640625,-23.316639709472657,34.59919967651367,-28.569959259033205,1.6887020949471803e+18,152.5951806640625,-277.85744018554686,130.06419677734374,-161.7817596435547,1.6887020949521188e+18,152.60011865234375,-0.6421390473842621,0.6267475783824921,-0.3613556176424026,0.2523246929049491,-1.8873875737190249,1.4134622812271118,-2.155161499977112
2.65,1.6887020949953843e+18,152.64338411458334,3.5622899532318115,-10.802783012390137,10.081669807434082,1.6887020949953843e+18,152.64338411458334,2.9028926293055215,-20.492930094401043,11.626725514729818,1.6887020949953843e+18,152.64338411458334,-0.66524338722229,-9.672643343607584,1.4823676745096843,1.6887020950040348e+18,152.652034749349,0.8703811764717102,3.203326423962911,-1.6191492478052776,1.6887020950040348e+18,152.652034749349,0.869108517964681,3.207857052485148,-1.616909384727478,,,,,,,,,,,,1.6887020949971812e+18,152.64518134765626,-19.236959838867183,33.01807975769043,-33.70859909057617,1.6887020949971812e+18,152.64518134765626,-273.7777587890625,128.4830795288086,-166.92039489746094,1.6887020949953843e+18,152.64338411458334,-0.637917697429657,0.6292136708895365,-0.3673666417598724,0.2480787336826323,-1.9519007205963137,1.399853507677714,-2.0939807891845703
2.7,1.6887020950472858e+18,152.69528588867186,-2.449246327082316,3.0085976918538413,5.182010650634766,1.6887020950472858e+18,152.69528588867186,-3.503690560658773,-6.670391956965129,6.573482433954875,1.6887020950472858e+18,152.69528588867186,-1.060290257136027,-9.661485036214192,1.3287843465805054,1.6887020950559404e+18,152.70394018554688,0.6358089248339335,4.5551713307698565,-0.7924958566824595,1.6887020950559404e+18,152.70394018554688,0.6345362663269043,4.559701919555664,-0.7903069257736206,,,,,,,,,,,,1.6887020950471854e+18,152.69518544921874,-22.718839645385746,36.099798583984374,-28.518719100952147,1.6887020950471854e+18,152.69518544921874,-277.2596374511719,131.5647979736328,-161.7305145263672,1.6887020950472858e+18,152.69528588867186,-0.6468278368314108,0.6826638976732889,-0.2905519604682922,0.1732234160105387,-2.202131509780884,1.396831711133321,-1.6107311248779297
2.75,1.688702095099191e+18,152.74719099934896,-0.8935044606526693,8.088420550028482,1.111933668454488,1.688702095099191e+18,152.74719099934896,-1.9804595311482749,-1.5846467812856038,2.5202404657999673,1.688702095099191e+18,152.74719099934896,-1.0928010940551758,-9.655563036600748,1.3456194003423054,1.6887020951078502e+18,152.75585009765624,0.055792361497879,2.9350547790527344,-0.3037527402242024,1.6887020951078502e+18,152.75585009765624,0.0545197377602259,2.9395853678385415,-0.3014619946479797,,,,,,,,,,,,1.6887020950971825e+18,152.74518247070313,-27.364599227905273,37.22463836669922,-21.79163932800293,1.6887020950971825e+18,152.74518247070313,-281.9053955078125,132.68963623046875,-155.0034393310547,1.688702095099191e+18,152.74719099934896,-0.6604998111724854,0.7094649871190389,-0.2204705874125162,0.1064304982622463,-2.2105526129404702,1.3950434525807698,-1.39951757589976
2.8,1.688702095151101e+18,152.79910042317707,-2.2278681993484497,0.2945178349812825,5.021628697713216,1.688702095151101e+18,152.79910042317707,-3.4955151875813804,-9.256833712259928,6.990830739339192,1.688702095151101e+18,152.79910042317707,-1.273492972056071,-9.533846855163574,1.9065144856770833,1.6887020951511004e+18,152.79910034179687,-1.7037795186042786,0.7566329538822174,-0.9002626538276672,1.6887020951511004e+18,152.79910034179687,-1.7050012350082395,0.7612144201993942,-0.898124635219574,,,,,,,,,,,,1.6887020951471862e+18,152.79518627929687,-28.689519500732423,37.82732009887695,-19.2833194732666,1.6887020951471862e+18,152.79518627929687,-283.2303039550781,133.2923156738281,-152.4951171875,1.688702095151101e+18,152.79910042317707,-0.6603307326634725,0.7200992306073507,-0.2060520648956298,0.0522374634941418,-2.128124713897705,1.3368436098098757,-1.3833944002787273
2.85,1.688702095203002e+18,152.8510020345052,-0.5256950855255127,2.4932541847229004,2.3291656970977783,1.688702095203002e+18,152.8510020345052,-2.2787647247314453,-6.827520688374837,4.949354330698649,1.688702095203002e+18,152.8510020345052,-1.758915662765503,-9.30327033996582,2.5575013160705566,1.6887020951943547e+18,152.84235481770835,-0.9903652866681416,-0.2031126916408538,-1.0260500113169353,1.6887020951943547e+18,152.84235481770835,-0.9916379054387412,-0.198531207938989,-1.0238101681073506,,,,,,,,,,,,1.688702095197186e+18,152.8451859375,-26.825359344482425,37.46864013671875,-21.630599212646484,1.688702095197186e+18,152.8451859375,-281.36615600585935,132.9336395263672,-154.84239501953124,1.688702095203002e+18,152.8510020345052,-0.6430281599362692,0.729437510172526,-0.2318056921164194,0.0238730801890293,-2.1468861897786455,1.250826358795166,-1.3630696932474773
2.9,1.6887020952549115e+18,152.90291153971356,0.6410203377405802,4.196376800537109,-0.6406051317850748,1.6887020952549115e+18,152.90291153971356,-2.0594226916631064,-4.72163724899292,2.5168506304423013,1.6887020952549115e+18,152.90291153971356,-2.706289052963257,-8.900509516398111,3.0947683652242026,1.6887020952462643e+18,152.8942644856771,-1.0953831672668457,0.3939062853654225,-2.3092233339945474,1.6887020952462643e+18,152.8942644856771,-1.0966049432754517,0.3984368542830149,-2.307034413019816,,,,,,,,,,,,1.6887020952471867e+18,152.89518666992188,-23.37275924682617,38.57395858764649,-23.19951972961426,1.6887020952471867e+18,152.89518666992188,-277.91356201171874,134.03895874023436,-156.41131896972655,1.6887020952549115e+18,152.90291153971356,0.191885491212209,-0.2586627006530761,0.0863592972358067,0.0128703248531867,-2.2696621417999268,1.1412627299626668,-1.219365080197652
2.95,1.6887020953068155e+18,152.95481575520833,0.6897221406300863,-0.951958974202474,-0.6513554255167643,1.6887020953068155e+18,152.95481575520833,-2.7320051987965903,-9.39781093597412,3.070789098739624,1.6887020953068155e+18,152.95481575520833,-3.4275733629862466,-8.42834726969401,3.6594571272532144,1.688702095298162e+18,152.94616194661458,-1.432580828666687,-0.3323615888754527,-1.2143492102622986,1.688702095298162e+18,152.94616194661458,-1.4338025252024331,-0.3277801151076953,-1.212058464686076,,,,,,,,,,,,1.6887020952971845e+18,152.94518452148438,-19.48339958190918,39.03023910522461,-25.297919845581056,1.6887020952971845e+18,152.94518452148438,-274.0242004394531,134.4952362060547,-158.509716796875,1.6887020953068155e+18,152.95481575520833,0.5721622705459595,-0.7713104883829752,0.2756600181261698,0.0391510998209317,-2.3094282944997153,1.0376362005869548,-1.1807175477345784
3.0,1.688702095358723e+18,153.00672322591146,1.3776752948760986,-5.015544573465983,-0.3945554097493489,1.688702095358723e+18,153.00672322591146,-2.626122792561849,-12.961322148640951,3.818147341410319,1.688702095358723e+18,153.00672322591146,-4.009644110997518,-7.928272883097331,4.150015354156494,1.6887020953500716e+18,152.99807161458332,-2.222124139467875,-2.366084734598795,-0.3578143119812011,1.6887020953500716e+18,152.99807161458332,-2.223345915476481,-2.3615031639734902,-0.3555235763390859,,,,,,,,,,,,1.6887020953471872e+18,152.99518725585938,-17.209319496154784,37.23195953369141,-29.841199111938476,1.6887020953471872e+18,152.99518725585938,-271.7501220703125,132.69696044921875,-163.05299682617186,1.688702095358723e+18,153.00672322591146,0.5454428195953369,-0.7643470764160156,0.3408924440542856,0.035939016068975,-2.3262314796447754,0.9442077477773032,-1.273084322611491
3.05,1.688702095401966e+18,153.04996630859375,41.811594009399414,-9.772807121276855,1.108411192893982,1.688702095401966e+18,153.04996630859375,35.64438458904624,-16.562520503997803,4.5616172552108765,1.688702095401966e+18,153.04996630859375,-6.17305326461792,-6.772209167480469,3.3905186653137207,1.6887020954019676e+18,153.04996761067707,-1.515403926372528,-4.0315578778584795,-5.484093586603801,1.6887020954019676e+18,153.04996761067707,-1.516625662644704,-4.027027289072673,-5.481802860895793,1.688702095419268e+18,153.06726806640626,0.0,0.0,1.073262333869934,6.691999912261963,1.2880200147628784,138.4470977783203,42.900001525878906,-122.7562893,49.1899237,1.68870209539718e+18,153.04517993164063,-3.721000003814697,33.942839813232425,-36.287679290771486,1.68870209539718e+18,153.04517993164063,-258.2617950439453,129.4078384399414,-169.49947509765624,1.688702095401966e+18,153.04996630859375,-0.4307059049606323,0.7830772697925568,-0.445639356970787,0.0202870345674454,-2.62510597705841,0.766381710767746,-1.250319480895996
3.1,1.6887020954452316e+18,153.09323152669273,0.5464280446370443,-8.991419315338135,1.3079727490743,1.6887020954452316e+18,153.09323152669273,-5.207380374272664,-14.878371874491371,6.61775000890096,1.6887020954452316e+18,153.09323152669273,-5.759654521942139,-5.869448184967041,5.247089703877767,1.6887020954538824e+18,153.10188240559896,1.6634879112243652,9.351735909779867,-0.2449569801489512,1.6887020954538824e+18,153.10188240559896,1.6622660954793294,9.356266498565674,-0.2427171468734741,,,,,,,,,,,,1.6887020954471854e+18,153.09518549804687,-2.949959945678711,32.83263931274414,-37.236839294433594,1.6887020954471854e+18,153.09518549804687,-257.4907592773437,128.29763793945312,-170.44863891601562,1.6887020954452316e+18,153.09323152669273,0.4333716531594594,-0.8030839165051779,0.3801523943742116,0.1313519552350043,-2.394629875818888,0.6441593964894613,-1.1448023319244385
3.15,1.6887020954971372e+18,153.14513720703124,-3.594003995259603,-5.568817138671875,-7.781662305196126,1.6887020954971372e+18,153.14513720703124,-7.851449171702067,-11.846266587575276,-1.4847464511791866,1.6887020954971372e+18,153.14513720703124,-4.263291200002034,-6.259944756825765,6.234228452046712,1.688702095505786e+18,153.15378580729163,-0.2048434739311536,-1.0985902547836304,1.4319699704647064,1.688702095505786e+18,153.15378580729163,-0.2061161150534947,-1.0940087636311848,1.4342607433597248,,,,,,,,,,,,1.6887020954971835e+18,153.14518388671877,-14.622919654846193,35.011558532714844,-33.47679901123047,1.6887020954971835e+18,153.14518388671877,-269.16371459960936,130.4765594482422,-166.6885955810547,1.6887020954971372e+18,153.14513720703124,0.4900417029857635,-0.7870875398317972,0.3081274231274922,0.212753156820933,-2.1634952227274575,0.6950037280718485,-1.1271350383758545
3.2,1.6887020955490417e+18,153.19704158528646,12.363133430480955,-6.583974838256836,-3.931434154510498,1.6887020955490417e+18,153.19704158528646,8.068398614724478,-13.405988375345864,1.727219184239705,1.6887020955490417e+18,153.19704158528646,-4.300580660502116,-6.8045088450113935,5.59596586227417,1.6887020955576934e+18,153.205693359375,2.263153930505117,0.3748167753219604,1.5778648853302002,1.6887020955576934e+18,153.205693359375,2.2619322538375854,0.3793473243713379,1.5801047881444297,,,,,,,,,,,,1.6887020955471864e+18,153.19518652343748,-13.754279708862304,34.22099914550781,-34.13315963745117,1.6887020955471864e+18,153.19518652343748,-268.2950744628906,129.68599548339844,-167.34495849609374,1.6887020955490417e+18,153.19704158528646,0.5097567439079285,-0.7801931301752726,0.3283737500508625,0.1523948361476262,-2.2188588778177896,0.76927250623703,-1.1939805746078491
3.25,1.6887020956009472e+18,153.2489473470052,0.220392386118571,-6.813164075215657,-0.057132879892985,1.6887020956009472e+18,153.2489473470052,-2.720041116078695,-15.086946487426758,4.33978271484375,1.6887020956009472e+18,153.2489473470052,-2.946279525756836,-8.256277720133463,4.3342281977335615,1.6887020956095992e+18,153.25759903971354,4.5273261070251465,-0.1518000165621439,2.440457582473755,1.6887020956095992e+18,153.25759903971354,4.526053349177043,-0.1472185254096985,2.442697366078695,,,,,,,,,,,,1.6887020955971866e+18,153.24518657226562,-19.444359397888185,37.56135940551758,-27.45731964111328,1.6887020955971866e+18,153.24518657226562,-273.9851501464844,133.02635803222657,-160.6691162109375,1.6887020956009472e+18,153.2489473470052,0.5829646587371826,-0.7677241166432699,0.2405931452910105,0.1062586531043052,-2.1613217194875083,1.0070817470550537,-1.1785399516423545
3.3,1.6887020956528543e+18,153.3008543294271,1.9443310499191284,-8.256477991739908,6.8097654183705645,1.6887020956528543e+18,153.3008543294271,-0.3898307085037231,-17.36351776123047,9.717053254445394,1.6887020956528543e+18,153.3008543294271,-2.340007702509562,-9.0895357131958,2.844600200653076,1.6887020956528492e+18,153.30084912109373,1.454393744468689,-1.071686714887619,0.9332494139671326,1.6887020956528492e+18,153.30084912109373,1.4531720876693726,-1.0671052038669586,0.9355401396751404,,,,,,,,,,,,1.6887020956471818e+18,153.29518178710936,-23.375199127197263,40.157518768310545,-20.70584030151367,1.6887020956471818e+18,153.29518178710936,-277.91599731445314,135.62251892089844,-153.91764221191406,1.6887020956528543e+18,153.3008543294271,0.6177522937456766,-0.7609312136967977,0.1952418635288874,0.0327242581794659,-2.2495102882385254,1.1877070267995198,-1.126726150512695
3.35,1.6887020957047636e+18,153.3527635904948,2.8777785499890647,1.0432828267415364,6.578563372294108,1.6887020957047636e+18,153.3527635904948,1.0699904958407085,-8.38265609741211,8.713064670562744,1.6887020957047636e+18,153.3527635904948,-1.8136339982350669,-9.40843423207601,2.0718135436375937,1.6887020956961047e+18,153.34410473632812,1.700343410174052,-0.464970255891482,1.5069027543067932,1.6887020956961047e+18,153.34410473632812,1.6991216739018755,-0.4603887796401977,1.5090917348861694,,,,,,,,,,,,1.6887020956971863e+18,153.34518657226562,-24.87091979980469,40.79923858642578,-17.648519897460936,1.6887020956971863e+18,153.34518657226562,-279.4117126464844,136.2642364501953,-150.86031799316407,1.6887020957047636e+18,153.3527635904948,-0.2213626503944397,0.2439872622489929,-0.0515748411417007,0.0121884113953759,-2.275311311086019,1.2876693805058796,-1.1369914611180625
3.4,1.688702095756664e+18,153.4046641438802,-1.3399528861045835,7.652766704559326,2.2915167808532715,1.688702095756664e+18,153.4046641438802,-2.3178475499153137,-2.027119596799215,3.7194434801737466,1.688702095756664e+18,153.4046641438802,-0.98374072710673,-9.662381807963056,1.3652393023173015,1.6887020957480133e+18,153.396013671875,1.428406556447347,0.4302018483479817,1.47483229637146,1.6887020957480133e+18,153.396013671875,1.4271339178085327,0.4346815347671509,1.4770721991856892,,,,,,,,,,,,1.688702095747184e+18,153.39518369140623,-28.82371940612793,39.994039154052736,-13.46635971069336,1.688702095747184e+18,153.39518369140623,-283.36451416015626,135.45903930664062,-146.67815856933595,1.688702095756664e+18,153.4046641438802,-0.671090841293335,0.7261614203453064,-0.1443696171045303,0.0368636411925156,-2.170090913772583,1.3996973832448325,-1.2294822533925374
3.45,1.6887020958085704e+18,153.4565702311198,-4.51528004805247,9.29853661855062,2.110841910044352,1.6887020958085704e+18,153.4565702311198,-5.010770082473755,-0.4683950344721476,3.1250263849894204,1.6887020958085704e+18,153.4565702311198,-0.5013360381126404,-9.74942715962728,0.9514969984690348,1.6887020957999188e+18,153.4479188639323,0.7931067148844401,-0.9641998906930288,1.2532409230868022,1.6887020957999188e+18,153.4479188639323,0.7918849587440491,-0.9597201943397522,1.2554807861646016,,,,,,,,,,,,1.6887020957971866e+18,153.44518647460936,-31.034359741210935,39.10343933105469,-11.001959800720217,1.6887020957971866e+18,153.44518647460936,-285.5751525878906,134.56844177246094,-144.21375732421876,1.6887020958085704e+18,153.4565702311198,-0.687709907690684,0.710155169169108,-0.1361705958843231,0.0628292523324489,-1.9956206878026328,1.4616443713506062,-1.428783098856608
3.5,1.6887020958518246e+18,153.4998244628906,-1.023409754037857,9.279783725738524,2.036091387271881,1.6887020958518246e+18,153.4998244628906,-1.163210928440094,-0.5066801756620407,2.982055187225342,1.6887020958518246e+18,153.4998244628906,-0.1456471942365169,-9.768959522247314,0.8832764029502869,1.6887020958518208e+18,153.49982055664063,0.0089593542118867,-0.7863362729549408,0.7376706997553507,1.6887020958518208e+18,153.49982055664063,0.0076867255071798,-0.7817548116048177,0.7398596306641897,,,,,,,,,,,,1.688702095847184e+18,153.4951841308594,-32.805799102783205,37.56623916625976,-12.016999816894533,1.688702095847184e+18,153.4951841308594,-287.3466003417969,133.03123779296874,-145.22879943847656,1.6887020958518246e+18,153.4998244628906,-0.6984201669692993,0.6936868727207184,-0.1526972576975822,0.0876360014081001,-1.6701764464378357,1.4783952236175537,-1.8133254051208496
3.55,1.688702095895078e+18,153.5430778808594,-1.462712049484253,8.695014317830404,1.2375768025716145,1.688702095895078e+18,153.5430778808594,-1.6301104029019673,-1.0707881251970928,2.376870552698771,1.688702095895078e+18,153.5430778808594,-0.1732444142301877,-9.748298009236654,1.0766063332557678,1.688702095903731e+18,153.55173087565103,-0.6491970519224802,-1.7192293405532837,-0.7001024819910525,1.688702095903731e+18,153.55173087565103,-0.650418758392334,-1.7146987815697987,-0.6978117302060127,,,,,,,,,,,,1.6887020958971827e+18,153.54518266601562,-32.77895927429199,37.227080535888675,-13.332159614562988,1.6887020958971827e+18,153.54518266601562,-287.31975708007815,132.69207763671875,-146.54395751953126,1.688702095895078e+18,153.5430778808594,-0.6974092523256937,0.6910359462102255,-0.167799358566602,0.0885137617588042,-1.6669321060180664,1.4579676787058513,-1.8397634824117024
3.6,1.6887020959469855e+18,153.59498583984376,15.17945901552836,-9.885165214538574,4.518516898155212,1.6887020959469855e+18,153.59498583984376,14.00160127878189,-19.52144495646159,6.063811302185059,1.6887020959469855e+18,153.59498583984376,-1.1837049921353655,-9.618775685628256,1.4826067288716631,1.6887020959556357e+18,153.6036356608073,-1.717905839284261,-9.516720612843832,1.1636982758839924,1.6887020959556357e+18,153.6036356608073,-1.719127535820007,-9.512190024058023,1.1658364137013753,1.6887020959383337e+18,153.58633374023438,0.0,0.0,1.0837093591690063,6.693999767303467,1.2890677452087402,136.3398895263672,42.900001525878906,-122.7562774,49.1899235,1.688702095947185e+18,153.59518510742186,-24.67816009521484,37.76387939453125,-22.372359657287596,1.688702095947185e+18,153.59518510742186,-279.2189575195313,133.22887573242187,-155.5841552734375,1.6887020959469855e+18,153.59498583984376,-0.6428460478782654,0.6829976240793864,-0.294849028189977,0.1634698659181594,-2.1902363300323486,1.3750436305999756,-1.6171103318532307
3.65,1.6887020959988836e+18,153.64688338216146,12.937668402989706,-9.449750582377115,5.912568251291911,1.6887020959988836e+18,153.64688338216146,12.204990863800049,-19.113468170166016,7.599604765574138,1.6887020959988836e+18,153.64688338216146,-0.7385230859120687,-9.64621384938558,1.6243489185969036,1.6887020960075415e+18,153.65554117838542,0.0159843042492866,0.6000223358472186,-0.2555962006251017,1.6887020960075415e+18,153.65554117838542,0.0147625828782717,0.6045529246330261,-0.2533054749170939,,,,,,,,,,,,1.6887020959971866e+18,153.64518662109376,-18.236559677124024,34.757799530029295,-31.85419921875,1.6887020959971866e+18,153.64518662109376,-272.77735595703126,130.22279357910156,-165.0659973144531,1.6887020959988836e+18,153.64688338216146,-0.6296734611193339,0.6177698373794556,-0.392040600379308,0.260992149511973,-1.962296962738037,1.384352485338847,-2.143831729888916
3.7,1.6887020960507948e+18,153.698794921875,-3.3365634282430015,-3.6630613009134927,9.43136994043986,1.6887020960507948e+18,153.698794921875,-4.164109547932942,-13.325429757436115,11.080763022104898,1.6887020960507948e+18,153.698794921875,-0.8333920836448669,-9.644864082336426,1.5867054065068562,1.6887020960594432e+18,153.70744319661458,0.683863639831543,5.698049068450928,-0.7503461440404257,1.6887020960594432e+18,153.70744319661458,0.6826419035593668,5.702579816182454,-0.748106320699056,,,,,,,,,,,,1.688702096047186e+18,153.69518583984376,-21.06695976257324,36.070519256591794,-29.06771926879883,1.688702096047186e+18,153.69518583984376,-275.6077514648438,131.53551635742187,-162.2795166015625,1.6887020960507948e+18,153.698794921875,-0.6475252111752828,0.6557265122731527,-0.3302654027938843,0.1997381895780562,-2.0203023751576743,1.3854477008183796,-1.8938003381093345
3.75,1.688702096102702e+18,153.7507019856771,-1.7130340735117595,7.803942044576009,1.3632138172785442,1.688702096102702e+18,153.7507019856771,-2.41675082842509,-1.8721843163172405,2.9884360631306968,1.688702096102702e+18,153.7507019856771,-0.7095627188682556,-9.658622105916342,1.5625348488489788,1.688702096102696e+18,153.75069580078124,0.5861251950263977,4.646240949630737,-0.2870303019881248,1.688702096102696e+18,153.75069580078124,0.5849034786224365,4.650822401046753,-0.2848159223794937,,,,,,,,,,,,1.6887020960971863e+18,153.7451861816406,-27.29139976501465,37.46131973266601,-21.44271926879883,1.6887020960971863e+18,153.7451861816406,-281.8321960449219,132.9263153076172,-154.6545166015625,1.688702096102702e+18,153.7507019856771,-0.673808733622233,0.6910805304845175,-0.2344870616992314,0.1113638977209726,-1.9585752487182615,1.3947308858235676,-1.6793652375539143
3.8,1.6887020961545997e+18,153.8025997721354,-2.4058557748794556,5.45274019241333,2.4349050919214883,1.6887020961545997e+18,153.8025997721354,-3.203790068626404,-4.165505448977153,4.327419837315877,1.6887020961545997e+18,153.8025997721354,-0.8037802775700887,-9.600741068522137,1.8298273086547852,1.6887020961459525e+18,153.79395231119793,-0.6851362784703573,2.265546460946401,-0.6841181516647339,1.6887020961459525e+18,153.79395231119793,-0.6864089171091715,2.270077049732208,-0.6818274259567261,,,,,,,,,,,,1.688702096147182e+18,153.79518212890625,-30.321879196166993,38.161599731445314,-15.61843948364258,1.688702096147182e+18,153.79518212890625,-284.8626708984375,133.62659606933593,-148.83023681640626,1.6887020961545997e+18,153.8025997721354,-0.6784430344899496,0.7081649502118429,-0.1888756901025771,0.0478095194945732,-1.9450377623240152,1.3665054241816204,-1.5346618096033733
3.85,1.688702096206512e+18,153.85451212565104,-1.627771258354187,-0.049806276957194,4.127851645151774,1.688702096206512e+18,153.85451212565104,-3.365903933842977,-9.309475898742676,6.943373044331868,1.688702096206512e+18,153.85451212565104,-1.74397869904836,-9.242164929707846,2.752833843231201,1.688702096197858e+18,153.84585799153646,-1.7442238728205364,-0.1848376393318176,-2.3980023860931396,1.688702096197858e+18,153.84585799153646,-1.7454456289609273,-0.1803070505460103,-2.39576256275177,,,,,,,,,,,,1.6887020961971855e+18,153.84518559570313,-28.262519454956056,38.80575942993164,-17.34595947265625,1.6887020961971855e+18,153.84518559570313,-282.8033081054688,134.27075805664063,-150.55775451660156,1.688702096206512e+18,153.85451212565104,0.2019428213437398,-0.253114362557729,0.0810238867998123,0.0063789334380999,-2.10366161664327,1.2330735127131145,-1.3561995029449463
3.9,1.6887020962584177e+18,153.90641764322916,0.6679418881734213,3.536369482676188,-0.4520124594370524,1.6887020962584177e+18,153.90641764322916,-2.4594229062398276,-5.253043333689372,2.669392983118693,1.6887020962584177e+18,153.90641764322916,-3.133210817972819,-8.771908124287924,3.058718045552572,1.688702096249763e+18,153.89776318359375,-0.7100799481074015,-0.6115270058314005,-2.5856398741404214,1.688702096249763e+18,153.89776318359375,-0.7113525966803232,-0.6069455146789551,-2.583400011062622,,,,,,,,,,,,1.688702096247185e+18,153.8951849609375,-21.39879989624023,40.78459930419922,-20.19099960327149,1.688702096247185e+18,153.8951849609375,-275.93959350585936,136.24959411621094,-153.40279541015624,1.6887020962584177e+18,153.90641764322916,0.5861469705899557,-0.7719146013259888,0.2448682487010955,0.0176883690680066,-2.350222110748291,1.1116375923156738,-1.1228888034820557
3.95,1.6887020963016632e+18,153.94966333007812,1.5898712873458862,0.8441135883331299,-0.992684006690979,1.6887020963016632e+18,153.94966333007812,-2.1290138959884644,-7.5391857624053955,2.584248423576355,1.6887020963016632e+18,153.94966333007812,-3.724731206893921,-8.365794658660889,3.51424503326416,1.6887020963016724e+18,153.94967220052084,-1.868076841036479,-0.5082398851712545,-0.7619525790214539,1.6887020963016724e+18,153.94967220052084,-1.8692984978357952,-0.5037092963854471,-0.7596618433793386,,,,,,,,,,,,1.6887020962971848e+18,153.94518491210937,-17.10439987182617,41.11643905639649,-23.08483963012695,1.6887020962971848e+18,153.94518491210937,-271.64519653320315,136.58143615722656,-156.29664001464843,1.6887020963016632e+18,153.94966333007812,0.5591334998607635,-0.7810032069683075,0.276042029261589,0.03348237182945,-2.372180700302124,1.025414228439331,-1.1275408267974854
4.0,1.6887020963449275e+18,153.992927734375,1.1808054447174072,-3.1938956578572593,-0.8389517466227213,1.6887020963449275e+18,153.992927734375,-2.7399813334147134,-11.189835866292318,3.3603206475575766,1.6887020963449275e+18,153.992927734375,-3.926632801691691,-7.978435516357422,4.136584997177124,1.688702096353574e+18,154.00157421875,-2.188679297765096,-1.6744834383328755,-0.0741183161735534,1.688702096353574e+18,154.00157421875,-2.1899519761403403,-1.669952889283498,-0.071878479172786,,,,,,,,,,,,1.6887020963471844e+18,153.99518432617188,-14.791279602050782,38.7789192199707,-28.562639236450195,1.6887020963471844e+18,153.99518432617188,-269.3320739746094,134.2439178466797,-161.7744384765625,1.6887020963449275e+18,153.992927734375,0.5486639738082886,-0.7703592777252197,0.3208559652169545,0.0472126988073189,-2.318303346633911,0.9531847238540648,-1.2325003147125244
4.05,1.6887020963968284e+18,154.04482836914062,14.499898195266724,-8.435611565907797,0.6292634010314941,1.6887020963968284e+18,154.04482836914062,9.08714254697164,-15.546368281046549,4.56331205368042,1.6887020963968284e+18,154.04482836914062,-5.418601195017497,-7.093252499898274,3.871361255645752,1.6887020964054835e+18,154.0534833984375,-1.7038049896558125,-5.417152851819992,-5.248554189999898,1.6887020964054835e+18,154.0534833984375,-1.7050776680310566,-5.412571380535762,-5.24626346429189,,,,,,,,,,,,1.6887020963971866e+18,154.04518662109376,-4.684799921512604,35.46539840698242,-34.457678985595706,1.6887020963971866e+18,154.04518662109376,-259.22560119628906,130.93039245605468,-167.6694793701172,1.6887020963968284e+18,154.04482836914062,0.2069250742594401,-0.2469067374865214,0.1058275997638702,0.0251359806085625,-2.499708414077759,0.8136982917785645,-1.2859549125035603
4.1,1.688702096448737e+18,154.09673689778646,9.004470825195312,-9.039859771728516,2.1757583618164062,1.688702096448737e+18,154.09673689778646,2.7714870770772286,-14.5776735941569,7.301698207855225,1.688702096448737e+18,154.09673689778646,-6.238829930623372,-5.520309766133626,5.063252210617065,1.6887020964573888e+18,154.1053885904948,1.709557314713796,10.158790588378906,-1.157386044661204,1.6887020964573888e+18,154.1053885904948,1.708335558573405,10.163270314534506,-1.1551462213198345,1.6887020964573875e+18,154.10538745117188,0.0,0.0,1.0837093591690063,6.701000213623047,1.2886260747909546,132.5232391357422,42.900001525878906,-122.7562632,49.1899253,1.6887020964471877e+18,154.0951875488281,1.4883999347686767,33.43287963867188,-36.541439819335935,1.6887020964471877e+18,154.0951875488281,-253.05239868164065,128.8978759765625,-169.75323791503905,1.688702096448737e+18,154.09673689778646,0.4067808787027995,-0.8066707650820414,0.4041456778844197,0.1193731029828389,-2.453580935796102,0.6003343462944031,-1.1491443713506062
4.15,1.6887020965006446e+18,154.14864436848958,-3.746354579925537,-4.275924841562907,-7.727380275726318,1.6887020965006446e+18,154.14864436848958,-8.234301090240479,-10.202995777130129,-1.253639688094457,1.6887020965006446e+18,154.14864436848958,-4.493792533874512,-5.909566243489583,6.41105318069458,1.6887020965092905e+18,154.1572906901042,0.1402444715301195,0.2956587473551433,1.2494739095369976,1.6887020965092905e+18,154.1572906901042,0.1389718453089396,0.3001384834448497,1.2517646849155426,,,,,,,,,,,,1.6887020964971832e+18,154.14518325195314,-11.299639701843262,36.11443939208984,-32.97659912109375,1.6887020964971832e+18,154.14518325195314,-265.84043579101564,131.57943725585938,-166.1883972167969,1.6887020965006446e+18,154.14864436848958,0.4701932668685912,-0.7940525412559509,0.3095335861047109,0.2291439473628997,-2.175518353780111,0.6496184468269348,-1.0930736064910889
4.2,1.6887020965525476e+18,154.2005478515625,12.33566427230835,-9.26604175567627,-3.0611509482065835,1.6887020965525476e+18,154.2005478515625,7.713662783304851,-15.828521728515623,2.633700122435888,1.6887020965525476e+18,154.2005478515625,-4.627847353617351,-6.544975757598877,5.632163683573405,1.6887020965525489e+18,154.2005489501953,1.390100210905075,-4.535292625427246,1.4019357562065125,1.6887020965525489e+18,154.2005489501953,1.3888785243034365,-4.5307875871658325,1.4042264819145205,,,,,,,,,,,,1.688702096547185e+18,154.19518491210937,-11.870599937438964,35.623999786376956,-33.215719604492186,1.688702096547185e+18,154.19518491210937,-266.41139526367186,131.08899841308593,-166.42752075195312,1.6887020965525476e+18,154.2005478515625,0.4913703401883443,-0.7872748374938965,0.3368063569068908,0.1558484335740406,-2.2531108061472573,0.733357568581899,-1.1693209807078044
4.25,1.6887020966044485e+18,154.25244848632812,0.4247700373331706,-7.527630805969238,0.8681508700052897,1.6887020966044485e+18,154.25244848632812,-3.132603645324707,-15.44427490234375,5.470590750376384,1.6887020966044485e+18,154.25244848632812,-3.563219706217448,-7.8991397221883135,4.53975248336792,1.6887020965958034e+18,154.2438034667969,3.9353976249694824,2.371938864390055,2.711783488591512,1.6887020965958034e+18,154.2438034667969,3.934175729751587,2.3764694134394326,2.7140233516693115,,,,,,,,,,,,1.6887020965971878e+18,154.24518764648437,-14.40819969177246,38.71059875488281,-28.108799362182616,1.6887020965971878e+18,154.24518764648437,-268.94899291992186,134.17559509277345,-161.32059631347656,1.6887020966044485e+18,154.25244848632812,0.5546847780545553,-0.7803842624028524,0.2638313273588816,0.1105140497287114,-2.2276116212209067,0.9418372710545858,-1.1429475943247478
4.3,1.6887020966563566e+18,154.30435668945313,2.457516590754191,-7.973135948181152,6.632714192072551,1.6887020966563566e+18,154.30435668945313,-0.358724037806193,-16.85344696044922,9.798808097839355,1.6887020966563566e+18,154.30435668945313,-2.822086731592814,-8.862807273864746,3.1034061908721924,1.688702096647705e+18,154.295705078125,2.5895086526870728,-1.0483974814414978,1.3008884191513062,1.688702096647705e+18,154.295705078125,2.5882869958877563,-1.0438669125239055,1.3031792243321736,,,,,,,,,,,,1.688702096647185e+18,154.295184765625,-20.027519607543944,41.9997200012207,-20.664359664916994,1.688702096647185e+18,154.295184765625,-274.5683166503906,137.4647186279297,-153.87615661621095,1.6887020966563566e+18,154.30435668945313,0.5965954462687174,-0.7737061580022176,0.2077226986487706,0.0449505529055992,-2.3012595176696777,1.1307886838912964,-1.076745589574178
4.35,1.688702096708262e+18,154.3562619628906,3.5971927642822266,0.4907970428466798,7.085789839426677,1.688702096708262e+18,154.3562619628906,1.6065810124079387,-8.821938196818033,9.534600734710692,1.688702096708262e+18,154.3562619628906,-1.9964578946431475,-9.295230547587076,2.3861231009165444,1.6887020966996145e+18,154.3476144205729,1.2918272813161211,-0.5345071156819662,2.272011478741964,1.6887020966996145e+18,154.3476144205729,1.2904528379440308,-0.5299764970938364,2.2743022044499717,,,,,,,,,,,,1.6887020966971863e+18,154.34518632812498,-22.447999572753908,42.16807861328125,-18.180439758300786,1.6887020966971863e+18,154.34518632812498,-276.9888000488281,137.6330780029297,-151.39223937988282,1.688702096708262e+18,154.3562619628906,-0.2219651142756144,0.2418685356775919,-0.0596238722403844,0.0078565328537175,-2.251133998235067,1.2487918933232625,-1.1727077563603718
4.4,1.6887020967515195e+18,154.39951977539062,-0.5433366298675536,6.79492974281311,2.254522740840912,1.6887020967515195e+18,154.39951977539062,-1.6396817564964294,-2.7690939903259277,4.282853364944458,1.6887020967515195e+18,154.39951977539062,-1.102191150188446,-9.54651927947998,1.9656432271003723,1.6887020967515246e+18,154.3995244140625,1.1961759726206462,0.9144143859545388,1.5806138118108113,1.6887020967515246e+18,154.3995244140625,1.1949541966120405,0.9189958572387696,1.582853635152181,,,,,,,,,,,,1.6887020967471852e+18,154.39518515625,-26.94491958618164,40.489359283447264,-15.091399955749512,1.6887020967471852e+18,154.39518515625,-281.4857116699219,135.95435791015626,-148.3031982421875,1.6887020967515195e+18,154.39951977539062,-0.6672532558441162,0.7254306077957153,-0.1679557934403419,0.0156945176422595,-2.065301537513733,1.3396756649017334,-1.3385199904441831
4.45,1.688702096794766e+18,154.44276603190104,-4.502272764841716,9.004559834798178,1.85218878587087,1.688702096794766e+18,154.44276603190104,-5.06660254796346,-0.674975390235583,3.49711020787557,1.688702096794766e+18,154.44276603190104,-0.5701759159564972,-9.662030537923176,1.582234025001526,1.6887020968034212e+18,154.4514212239583,1.018210530281067,0.3926336169242859,1.5536848306655884,1.6887020968034212e+18,154.4514212239583,1.0169379512468977,0.3971642355124156,1.5559756358464558,,,,,,,,,,,,1.6887020967971858e+18,154.44518583984376,-30.726919174194336,39.564599609375,-11.123959732055663,1.6887020967971858e+18,154.44518583984376,-285.26771240234376,135.02959594726562,-144.33575744628905,1.688702096794766e+18,154.44276603190104,-0.6875234246253967,0.7123012940088908,-0.1391735821962356,0.0204725538690884,-1.8809903860092163,1.3984614610671997,-1.4877205689748128
4.5,1.6887020968466737e+18,154.49467350260417,-2.803287943204244,9.463950157165527,1.062581181526184,1.6887020968466737e+18,154.49467350260417,-2.7453651428222656,-0.2827518830696742,2.376471678415934,1.6887020968466737e+18,154.49467350260417,0.0520768190423647,-9.72919782002767,1.2512030998865764,1.6887020968553285e+18,154.5033282877604,0.42495858669281,-0.464970255891482,0.7721336508790652,1.6887020968553285e+18,154.5033282877604,0.4237368553876877,-0.4604396820068359,0.7743226190408071,,,,,,,,,,,,1.6887020968471864e+18,154.49518637695311,-34.164879608154294,37.524758911132814,-9.442799758911132,1.6887020968471864e+18,154.49518637695311,-288.70567626953124,132.98975830078126,-142.65459594726562,1.6887020968466737e+18,154.49467350260417,-0.7098766565322876,0.6906858682632446,-0.1312479476133982,0.0418161749839782,-1.4800750811894734,1.440904140472412,-1.9074056148529053
4.55,1.6887020968985856e+18,154.5465856933594,-0.9798189004262288,9.622940381368002,0.0364721020062764,1.6887020968985856e+18,154.5465856933594,-0.9609176913897196,-0.1258225937684377,1.33559383948644,1.6887020968985856e+18,154.5465856933594,0.0130551879604657,-9.731258710225424,1.23643434047699,1.6887020969072394e+18,154.5552393391927,-0.1479312007625897,-0.3855068646371364,-0.6596326728661855,1.6887020969072394e+18,154.5552393391927,-0.1491529271006584,-0.3809762876480818,-0.6573928097883861,,,,,,,,,,,,1.6887020968971776e+18,154.5451775390625,-34.43083877563477,37.30027847290039,-9.620919609069826,1.6887020968971776e+18,154.5451775390625,-288.971630859375,132.7652801513672,-142.8327178955078,1.6887020968985856e+18,154.5465856933594,-0.708545466264089,0.6909483869870504,-0.13544296224912,0.0467390728493531,-1.5029104948043823,1.442467451095581,-1.897579789161682
4.6,1.68870209695049e+18,154.59848999023438,13.911505142847696,-2.2537720998128257,-0.004034678141276,1.68870209695049e+18,154.59848999023438,12.870394706726074,-11.890134970347086,1.6137595176696775,1.68870209695049e+18,154.59848999023438,-1.0469566980997722,-9.618858973185224,1.5551067193349202,1.688702096959138e+18,154.60713818359375,-2.4187718629837036,-10.981320858001707,0.3182607491811116,1.688702096959138e+18,154.60713818359375,-2.41999351978302,-10.976790269215902,0.3205006122589113,1.6887020969764436e+18,154.62444360351563,0.0,0.0,1.0837093591690063,6.6620001792907715,1.289514422416687,130.5902099609375,42.900001525878906,-122.7562527,49.1899249,1.6887020969471864e+18,154.5951865234375,-28.61631965637207,38.451959228515626,-16.196719551086424,1.6887020969471864e+18,154.5951865234375,-283.15711669921876,133.91695556640624,-149.40851745605468,1.68870209695049e+18,154.59848999023438,-0.6611499190330505,0.699675718943278,-0.233963186542193,0.103524263948202,-2.083473801612854,1.3769394954045613,-1.5446269114812214
4.65,1.6887020970023954e+18,154.6503953450521,15.778223514556885,-14.656977653503418,7.516002655029297,1.6887020970023954e+18,154.6503953450521,14.787843704223633,-24.212574005126953,9.641679445902506,1.6887020970023954e+18,154.6503953450521,-0.9962257544199624,-9.538092613220217,2.062989155451457,1.6887020970023962e+18,154.65039611816405,-1.01563985273242,-1.934686541557312,0.3300963342189789,1.6887020970023962e+18,154.65039611816405,-1.0168615449219942,-1.9301814287900925,0.3323870599269867,,,,,,,,,,,,1.6887020969971845e+18,154.645184375,-20.74243927001953,34.93103942871094,-30.619559860229497,1.6887020969971845e+18,154.645184375,-275.2832397460937,130.3960388183594,-163.83135375976562,1.6887020970023954e+18,154.6503953450521,-0.6380113363265991,0.6338102022806803,-0.38172181447347,0.2130551487207412,-1.9839941660563152,1.3314731121063232,-2.0324891010920205
4.7,1.6887020970543012e+18,154.70230110677085,-1.9113827745119731,-4.385917981465657,10.13931655883789,1.6887020970543012e+18,154.70230110677085,-3.0410782297452292,-13.95274798075358,12.139387766520182,1.6887020970543012e+18,154.70230110677085,-1.135541518529256,-9.549325625101725,1.937383492787679,1.6887020970456517e+18,154.69365128580728,1.0655526121457417,4.445979118347168,-1.1193596720695496,1.6887020970456517e+18,154.69365128580728,1.0643308957417803,4.450509707132976,-1.117119828859965,,,,,,,,,,,,1.6887020970471803e+18,154.69518051757814,-22.321119689941405,35.936319732666014,-28.550439453125,1.6887020970471803e+18,154.69518051757814,-276.86192016601564,131.401318359375,-161.76223754882812,1.6887020970543012e+18,154.70230110677085,-0.6460909048716227,0.6679228146870931,-0.3279547989368438,0.1657690952221552,-2.064449151357015,1.3385234673817952,-1.7959953546524048
4.75,1.68870209710621e+18,154.75420996093752,-0.922468384106954,6.428801377614339,1.957254608472188,1.68870209710621e+18,154.75420996093752,-2.3910280068715415,-3.0943185488382974,3.942773501078288,1.68870209710621e+18,154.75420996093752,-1.4744056463241575,-9.50561555226644,1.9228314956029255,1.688702097097554e+18,154.7455537923177,0.4145229707161585,2.565684954325358,-1.265305519104004,1.688702097097554e+18,154.7455537923177,0.4133012493451435,2.5702664057413735,-1.2631675004959106,,,,,,,,,,,,1.6887020970971855e+18,154.745185546875,-24.60739936828613,38.39827880859375,-22.979919815063475,1.6887020970971855e+18,154.745185546875,-279.1481994628906,133.8632781982422,-156.19171447753905,1.68870209710621e+18,154.75420996093752,-0.6459445953369141,0.7061473528544108,-0.2695410947004953,0.10518629103899,-2.191192150115967,1.3224756320317586,-1.4911022186279297
4.8,1.6887020971581125e+18,154.80611263020833,-1.314447005589803,4.396056175231934,2.557950576146444,1.6887020971581125e+18,154.80611263020833,-3.0877381960550943,-4.963312387466431,5.016353368759155,1.6887020971581125e+18,154.80611263020833,-1.7791372140248616,-9.341863950093588,2.3957153956095376,1.6887020971494584e+18,154.79745825195312,-0.7460700770219167,2.481589158376058,-1.149953842163086,1.6887020971494584e+18,154.79745825195312,-0.7472918331623077,2.4860688050587973,-1.1477140188217163,,,,,,,,,,,,1.6887020971471846e+18,154.7951848144531,-25.18079948425293,39.76955947875977,-19.80303955078125,1.6887020971471846e+18,154.7951848144531,-279.7216003417969,135.23456115722655,-153.01483764648438,1.6887020971581125e+18,154.80611263020833,-0.6412657499313354,0.7273059884707133,-0.2400123576323191,0.0417719384034474,-2.183513879776001,1.2639442682266235,-1.3641308943430583
4.85,1.6887020972013676e+18,154.84936743164062,-3.8427844047546382,0.4561781883239746,3.608140468597412,1.6887020972013676e+18,154.84936743164062,-5.671587944030762,-8.663812637329102,6.832106828689575,1.6887020972013676e+18,154.84936743164062,-1.834649384021759,-9.10248613357544,3.1612789630889893,1.688702097201369e+18,154.8493689778646,-1.2680035432179768,2.299551328023275,-0.8837183912595113,1.688702097201369e+18,154.8493689778646,-1.269225279490153,2.304030974706014,-0.8814785480499268,,,,,,,,,,,,1.6887020971971812e+18,154.8451811035156,-25.856679153442386,39.85008010864258,-19.190599822998045,1.6887020971971812e+18,154.8451811035156,-280.39747924804686,135.31507873535156,-152.40239562988282,1.6887020972013676e+18,154.84936743164062,0.6402983069419861,-0.7340523302555084,0.2245156988501548,0.0251142946071922,-2.074432373046875,1.19139564037323,-1.3552998304367063
4.9,1.68870209724462e+18,154.89262011718748,-2.599799553553263,3.705766995747884,0.2028335730234781,1.68870209724462e+18,154.89262011718748,-5.108078082402547,-5.078367233276367,3.855236053466797,1.68870209724462e+18,154.89262011718748,-2.5141244729359946,-8.766629536946615,3.589715083440145,1.6887020972532705e+18,154.90127026367188,-0.93777996301651,-0.6457354724407196,-2.5596780776977544,1.6887020972532705e+18,154.90127026367188,-0.9390016992886862,-0.641255795955658,-2.557387351989746,,,,,,,,,,,,1.6887020972471795e+18,154.89517968750002,-23.663119506835937,40.54547958374023,-19.925039291381836,1.6887020972471795e+18,154.89517968750002,-278.20391235351565,136.0104766845703,-153.1368377685547,1.68870209724462e+18,154.89262011718748,0.6109970211982727,-0.7537842194239298,0.2347682416439056,0.0540744016567865,-2.157514810562134,1.110261003176371,-1.2473660707473757
4.95,1.688702097296518e+18,154.9445177408854,1.6267510255177815,1.7981748580932615,-1.5760378042856853,1.688702097296518e+18,154.9445177408854,-1.9730816682179768,-6.425725936889648,2.4640091260274253,1.688702097296518e+18,154.9445177408854,-3.6056787172953286,-8.206396102905273,3.977359533309937,1.68870209730517e+18,154.95317008463542,-1.2846496105194092,-0.0372627821440498,-1.4061100085576377,1.68870209730517e+18,154.95317008463542,-1.2858713467915852,-0.0327321969283124,-1.4038701852162678,,,,,,,,,,,,1.6887020972971814e+18,154.94518144531247,-17.86079921722412,41.55807952880859,-22.513879013061523,1.6887020972971814e+18,154.94518144531247,-272.40159301757814,137.02307739257813,-155.72567749023438,1.688702097296518e+18,154.9445177408854,0.5611450870831808,-0.7827686866124471,0.2577529350916544,0.0759386817614237,-2.2911325295766196,0.9963414271672568,-1.1193980773289998
5.0,1.688702097348432e+18,154.99643188476563,1.2193429470062256,-3.0876320203145347,-1.5461464722951253,1.688702097348432e+18,154.99643188476563,-2.743171771367391,-10.803793589274088,3.11665145556132,1.688702097348432e+18,154.99643188476563,-3.968360741933187,-7.698656876881917,4.6001105308532715,1.6887020973570798e+18,155.00507983398438,-2.13120706876119,-0.8915578176577886,-0.2545780887206395,1.6887020973570798e+18,155.00507983398438,-2.1324287255605063,-0.8870272388060888,-0.2523382455110549,,,,,,,,,,,,1.6887020973471788e+18,154.99517875976562,-16.07228012084961,40.401519012451175,-25.74687957763672,1.6887020973471788e+18,154.99517875976562,-270.6130737304687,135.86651306152345,-158.95867614746095,1.688702097348432e+18,154.99643188476563,0.5403150121370951,-0.7829199035962423,0.2911648750305175,0.1004495869080224,-2.2692243258158364,0.9070383310317992,-1.1587151288986206
5.05,1.6887020974003387e+18,155.04833886718748,10.313313484191896,-9.016696135203045,-1.2581257025400798,1.6887020974003387e+18,155.04833886718748,5.036692142486573,-15.734803199768066,3.4931223392486572,1.6887020974003387e+18,155.04833886718748,-5.282467365264893,-6.700602690378825,4.6885606447855634,1.688702097408986e+18,155.05698592122397,-2.464077671368917,-4.854953289031982,-5.305262843767802,1.688702097408986e+18,155.05698592122397,-2.465350310007731,-4.850422700246175,-5.303023020426433,,,,,,,,,,,,1.6887020973971845e+18,155.04518422851564,-10.93119969367981,37.40763931274414,-31.522359085083007,1.6887020973971845e+18,155.04518422851564,-265.47199096679685,132.8726379394531,-164.7341552734375,1.6887020974003387e+18,155.04833886718748,0.4740078846613566,-0.7881839076677958,0.3777962028980255,0.0814796239137649,-2.395012299219767,0.7585812211036682,-1.2095343669255574
5.1,1.6887020974522483e+18,155.10024845377606,10.624306519826254,-10.74975029627482,0.531815767288208,1.6887020974522483e+18,155.10024845377606,4.671786467234294,-15.673786163330078,6.5318076610565186,1.6887020974522483e+18,155.10024845377606,-5.958367347717285,-4.9065314928690595,5.937304337819417,1.688702097452245e+18,155.10024487304688,1.0630581956356764,11.101025104522703,-1.9808833003044128,1.688702097452245e+18,155.10024487304688,1.061836501583457,11.105530261993408,-1.978592559695244,,,,,,,,,,,,1.6887020974471823e+18,155.09518237304687,1.6469999432563782,34.016039276123045,-36.44383926391602,1.6887020974471823e+18,155.09518237304687,-252.89379272460937,129.4810363769531,-169.6556365966797,1.6887020974522483e+18,155.10024845377606,0.3954148590564728,-0.8143048882484436,0.368706335624059,0.1963358397285143,-2.350176731745402,0.5278747081756592,-1.0746965805689497
5.15,1.6887020975041495e+18,155.15214957682292,-4.583725611368815,-4.0363491376241045,-8.655837376912435,1.6887020975041495e+18,155.15214957682292,-8.914261182149252,-9.33739217122396,-1.5575280686219533,1.6887020975041495e+18,155.15214957682292,-4.336381594340007,-5.283538341522217,7.035621643066406,1.688702097495502e+18,155.1435020345052,0.6536767333745956,2.137519260247549,0.4890994330247243,1.688702097495502e+18,155.1435020345052,0.6523532122373581,2.142100731531779,0.4912883738676707,1.6887020974954985e+18,155.14349853515623,0.0,0.0,1.0932409763336182,6.698999881744385,1.299565672874451,127.68254089355467,42.900001525878906,-122.7562389,49.1899247,1.6887020974971814e+18,155.14518139648436,-11.42651958465576,35.9436393737793,-33.38407974243164,1.6887020974971814e+18,155.14518139648436,-265.9673156738281,131.408642578125,-166.59587707519532,1.6887020975041495e+18,155.15214957682292,0.4474293688933055,-0.7943559090296427,0.2940663595994313,0.2866552472114563,-2.115224123001098,0.5732825597127279,-1.038242777188619
5.2,1.688702097556051e+18,155.20405094401042,11.072747548421225,-8.814667701721191,-4.04741891225179,1.688702097556051e+18,155.20405094401042,6.410371621449788,-14.939189592997232,2.0849460562070212,1.688702097556051e+18,155.20405094401042,-4.668222109476726,-6.107017358144124,6.069677511850993,1.6887020975474025e+18,155.19540275065106,0.9259698887666068,-4.242255528767903,2.9077185789744058,1.6887020975474025e+18,155.19540275065106,0.9247481872638068,-4.237724939982097,2.9099584023157754,,,,,,,,,,,,1.6887020975471823e+18,155.19518227539064,-11.467999839782715,35.516639709472656,-33.80863952636719,1.6887020975471823e+18,155.19518227539064,-266.0087951660156,130.98163757324218,-167.02043762207032,1.688702097556051e+18,155.20405094401042,0.4776752293109894,-0.7879359722137451,0.336972971757253,0.1899361312389373,-2.219067096710205,0.6760351260503134,-1.1532686154047649
5.25,1.6887020976079565e+18,155.25595654296876,5.848431428273519,-8.542748610178629,1.5676393508911133,1.6887020976079565e+18,155.25595654296876,1.86799689133962,-15.835899353027344,6.80319356918335,1.6887020976079565e+18,155.25595654296876,-3.986280520757039,-7.275647004445394,5.172866662343343,1.6887020975993057e+18,155.2473056640625,3.89956005414327,3.611180861790975,1.1902709205945332,1.6887020975993057e+18,155.2473056640625,3.898287375768026,3.6156604488690696,1.192561646302541,,,,,,,,,,,,1.6887020975971835e+18,155.24518344726562,-12.082879638671876,38.94240036010742,-29.731399536132812,1.6887020975971835e+18,155.24518344726562,-266.62367553710936,134.4073974609375,-162.9431945800781,1.6887020976079565e+18,155.25595654296876,0.5215666790803274,-0.7943952878316244,0.2596300890048345,0.1638129502534866,-2.214343309402466,0.8417599201202393,-1.0736733675003052
5.3,1.6887020976512092e+18,155.29920922851562,2.0044926404953003,-9.052279949188232,5.372308015823364,1.6887020976512092e+18,155.29920922851562,-0.8988039791584015,-17.53041648864746,9.447162628173828,1.6887020976512092e+18,155.29920922851562,-2.9091426134109497,-8.460632801055908,4.012166738510132,1.6887020976512184e+18,155.29921858723958,3.86947496732076,0.6312274672091007,0.7415395279725393,1.6887020976512184e+18,155.29921858723958,3.868253310521444,0.6357580286761125,0.7437793562809626,,,,,,,,,,,,1.6887020976471836e+18,155.2951836425781,-20.25199966430664,43.47591934204102,-18.165799713134767,1.6887020976471836e+18,155.2951836425781,-274.79279174804685,138.94091796875,-151.37759399414062,1.6887020976512092e+18,155.29920922851562,0.5769180953502655,-0.7884345948696136,0.1539356932044029,0.1469328477978705,-2.190327763557434,1.0442777276039124,-0.9615278840065002
5.35,1.68870209769447e+18,155.34246997070312,2.0011085669199624,-4.904410044352214,8.364376068115234,1.68870209769447e+18,155.34246997070312,-0.4578267534573874,-13.82094383239746,11.720045725504557,1.68870209769447e+18,155.34246997070312,-2.4647813638051352,-8.899029413859049,3.2929816246032715,1.68870209770312e+18,155.3511200358073,0.8743517796198527,-1.011185606320699,2.651460568110148,1.68870209770312e+18,155.3511200358073,0.8730791608492533,-1.0066549976666768,2.653751293818156,,,,,,,,,,,,1.688702097697177e+18,155.345176953125,-22.757879638671874,43.593038940429686,-14.371599578857422,1.688702097697177e+18,155.345176953125,-277.298681640625,139.05803833007812,-147.5833984375,1.68870209769447e+18,155.34246997070312,0.6044986049334208,-0.7764395872751871,0.1413695265849431,0.1060817738374074,-2.1997350056966147,1.140696366628011,-0.9928799271583556
5.4,1.688702097746375e+18,155.3943748372396,0.051126480102539,4.822976589202881,2.3832605679829917,1.688702097746375e+18,155.3943748372396,-1.3559328317642212,-4.502893527348836,5.186243534088135,1.688702097746375e+18,155.3943748372396,-1.4129053354263306,-9.30836550394694,2.7402955691019693,1.6887020977550223e+18,155.4030222981771,1.4229087432225545,0.0060577442248662,1.594460129737854,1.6887020977550223e+18,155.4030222981771,1.4216870466868083,0.0106392378608386,1.5967508554458618,,,,,,,,,,,,1.6887020977471867e+18,155.39518662109376,-27.43291931152344,41.51171875,-12.016999816894533,1.6887020977471867e+18,155.39518662109376,-281.9737121582031,136.97671813964843,-145.22879333496093,1.688702097746375e+18,155.3943748372396,0.6525326569875082,-0.7420943776766459,0.1361595143874485,0.0687557434042294,-2.0277164379755654,1.252903739611308,-1.210455060005188
5.45,1.68870209779828e+18,155.44628002929687,-2.143834352493286,8.89598560333252,0.5302596489588419,1.68870209779828e+18,155.44628002929687,-3.04486683011055,-0.6542375932137171,2.715853691101074,1.68870209779828e+18,155.44628002929687,-0.9068784713745116,-9.532718658447266,2.1229066451390586,1.688702097806931e+18,155.45493098958335,1.406211773554484,0.6106107185284296,0.5998696684837341,1.688702097806931e+18,155.45493098958335,1.404990037282308,0.6151413172483444,0.6021604140599569,,,,,,,,,,,,1.6887020977971796e+18,155.44517958984375,-30.28039932250977,40.58695907592774,-8.51560001373291,1.6887020977971796e+18,155.44517958984375,-284.8211975097656,136.0519561767578,-141.72739868164064,1.68870209779828e+18,155.44628002929687,0.6738664905230204,-0.7295197049776713,0.1041066646575927,0.0523210912942885,-1.9495569467544556,1.3354365825653076,-1.2658178408940632
5.5,1.6887020978501847e+18,155.49818481445314,-1.9907331069310503,9.767978032430014,0.2304849624633788,1.6887020978501847e+18,155.49818481445314,-2.704487760861715,0.0911266654729842,1.842274069786072,1.6887020978501847e+18,155.49818481445314,-0.7196006774902344,-9.65934689839681,1.549101710319519,1.6887020978588357e+18,155.50683553059895,0.8457429309686025,-1.0529280503590903,0.3563889637589454,1.6887020978588357e+18,155.50683553059895,0.8444702823956808,-1.0483465989430745,0.3586797043681144,,,,,,,,,,,,1.6887020978471885e+18,155.49518842773438,-31.47843894958496,40.45275955200195,-5.5070798873901365,1.6887020978471885e+18,155.49518842773438,-286.01923217773435,135.91775817871093,-138.71887817382813,1.6887020978501847e+18,155.49818481445314,0.6830538511276245,-0.7243862946828207,0.0893040920297304,0.0249598032484451,-1.964085539182027,1.3987310727437336,-1.2688712279001872
5.55,1.6887020979020828e+18,155.5500828450521,0.2838427821795146,9.551357587178549,1.0172526041666666e-05,1.6887020979020828e+18,155.5500828450521,-0.6380860308806101,-0.1304088371495405,1.4638092517852783,1.6887020979020828e+18,155.5500828450521,-0.9277748465538024,-9.664261817932127,1.4011116822560628,1.688702097902083e+18,155.5500830078125,-0.0311541259288787,-0.6982190012931824,-0.5655084997415543,1.688702097902083e+18,155.5500830078125,-0.0323758572340011,-0.6937138438224792,-0.5632177591323853,,,,,,,,,,,,1.688702097897178e+18,155.54517807617188,-31.524798965454103,40.40883865356445,-6.012159824371338,1.688702097897178e+18,155.54517807617188,-286.0655883789062,135.87383728027345,-139.22395935058594,1.6887020979020828e+18,155.5500828450521,0.6761541565259298,-0.7296527226765951,0.1017441526055335,0.0041260625390956,-2.105809052785238,1.402700384457906,-1.1744438807169597
5.6,1.6887020979540017e+18,155.60200138346354,1.5722556114196775,2.740086237589518,0.9333922863006592,1.6887020979540017e+18,155.60200138346354,-0.1022931337356567,-6.772286355495453,2.7623143593470254,1.6887020979540017e+18,155.60200138346354,-1.6803947687149048,-9.494868278503418,1.7662346363067627,1.688702097945346e+18,155.59334619140623,-1.6153313318888347,-3.813479006290436,-1.3363186120986938,1.688702097945346e+18,155.59334619140623,-1.616553048292796,-3.808897535006205,-1.334027886390686,,,,,,,,,,,,1.6887020979471836e+18,155.59518374023438,-29.01891975402832,41.40923919677734,-8.674199771881103,1.6887020979471836e+18,155.59518374023438,-283.55971069335936,136.87423706054688,-141.88599853515626,1.6887020979540017e+18,155.60200138346354,-0.2043586373329162,0.2495031754175821,-0.0863437727093696,0.0234179769176989,-2.2849411964416504,1.3240045309066772,-1.1243541638056438
5.65,1.6887020980059013e+18,155.6539012044271,30.187453905741375,-14.767888387044271,6.826612154642741,1.6887020980059013e+18,155.6539012044271,29.012974739074707,-24.24148686726888,9.200203895568848,1.6887020980059013e+18,155.6539012044271,-1.1803256670633953,-9.456094741821287,2.3109042644500732,1.688702097997251e+18,155.6452511393229,-2.820263067881266,-9.149539709091188,4.001370906829834,1.688702097997251e+18,155.6452511393229,-2.821535666783651,-9.14500912030538,4.003559867540996,1.6887020980145556e+18,155.6625556640625,0.0,0.0,1.0932409763336182,6.706999778747559,1.3098275661468506,126.55168914794922,42.900001525878906,-122.7562282,49.1899233,1.6887020979971866e+18,155.64518647460935,-23.14339942932129,37.449119567871094,-24.797718811035157,1.6887020979971866e+18,155.64518647460935,-277.6841979980469,132.91412048339845,-158.0095184326172,1.6887020980059013e+18,155.6539012044271,-0.6459986766179403,0.6553506255149841,-0.3535307645797729,0.1634470373392104,-2.003810405731201,1.2983252207438152,-1.894115924835205
5.7,1.6887020980578035e+18,155.70580354817707,0.6580596764882406,-6.817007064819336,9.777473449707031,1.6887020980578035e+18,155.70580354817707,-0.6504490772883097,-16.251054445902508,12.255239804585775,1.6887020980578035e+18,155.70580354817707,-1.3143548568089802,-9.416543324788412,2.415078639984131,1.6887020980491515e+18,155.6971516113281,0.8604545990626017,3.671758313973745,-1.7198402484258015,1.6887020980491515e+18,155.6971516113281,0.8592328975598017,3.6762889126936593,-1.717549443244934,,,,,,,,,,,,1.688702098047182e+18,155.69518212890625,-21.26947937011719,34.50647964477539,-31.14903869628906,1.688702098047182e+18,155.69518212890625,-275.8102783203125,129.9714782714844,-164.3608367919922,1.6887020980578035e+18,155.70580354817707,-0.6466240485509237,0.6696938077608744,-0.3358009258906047,0.1358279610673586,-2.030314564704895,1.2845197518666585,-1.7993791103363037
5.75,1.6887020981010586e+18,155.7490587158203,-4.736887454986572,2.603245973587036,5.22856879234314,1.6887020981010586e+18,155.7490587158203,-6.0314085483551025,-6.823133707046509,7.7440712451934814,1.6887020981010586e+18,155.7490587158203,-1.3003671765327454,-9.408874988555908,2.4528146982192993,1.6887020981010598e+18,155.7490598958333,0.6022113412618637,6.50138791402181,-1.4875077803929646,1.6887020981010598e+18,155.7490598958333,0.600989580154419,6.505918502807617,-1.4853188196818037,,,,,,,,,,,,1.6887020980971858e+18,155.74518579101564,-25.8810791015625,37.73215942382812,-23.104359436035157,1.6887020980971858e+18,155.74518579101564,-280.421875,133.19715576171876,-156.316162109375,1.6887020981010586e+18,155.7490587158203,-0.6613291800022125,0.7128644287586212,-0.229185290634632,0.0346019132994115,-2.0191200971603394,1.2851002216339111,-1.5017607808113098
5.8,1.6887020981443123e+18,155.79231233723957,-2.8550076484680176,6.339719136555989,0.7669560114542643,1.6887020981443123e+18,155.79231233723957,-4.266003926595052,-2.994617541631063,3.5503505865732827,1.6887020981443123e+18,155.79231233723957,-1.4168424208958943,-9.316832224527994,2.7207071781158447,1.688702098152964e+18,155.80096427408853,-0.4929682699342568,2.634916305541992,-1.4064154227574666,1.688702098152964e+18,155.80096427408853,-0.4941899714370568,2.6394469340642295,-1.4042265017827351,,,,,,,,,,,,1.688702098147181e+18,155.79518115234376,-28.74807929992676,40.22095947265625,-14.330119514465332,1.688702098147181e+18,155.79518115234376,-283.28887329101565,135.6859558105469,-147.5419128417969,1.6887020981443123e+18,155.79231233723957,0.6570360461870829,-0.7336958448092142,0.166608765721321,0.0410060497621695,-2.0130703449249268,1.2563345829645791,-1.3086148500442505
5.85,1.6887020981962166e+18,155.84421638997398,-0.7087906201680502,-0.4638309478759765,3.753000736236572,1.6887020981962166e+18,155.84421638997398,-2.5970102151234946,-9.483952522277832,7.210571765899658,1.6887020981962166e+18,155.84421638997398,-1.8940656185150144,-9.002616882324219,3.394883632659912,1.6887020982048645e+18,155.85286409505207,-1.5001323620478313,0.3837760885556538,-0.9939795732498168,1.6887020982048645e+18,155.85286409505207,-1.5013540188471477,0.3883575797080993,-0.9917397499084472,,,,,,,,,,,,1.6887020981971796e+18,155.84517958984375,-26.881479263305664,40.94075927734375,-15.271959686279295,1.6887020981971796e+18,155.84517958984375,-281.4222717285156,136.4057586669922,-148.48375854492187,1.6887020981962166e+18,155.84421638997398,0.6334425210952759,-0.7500808636347452,0.1659480532010395,0.0915804530183473,-2.0496602058410645,1.1682295401891072,-1.1993200381596882
5.9,1.688702098248117e+18,155.89611669921874,0.7027188936869303,3.9709725379943848,0.0161957740783691,1.688702098248117e+18,155.89611669921874,-1.5449658433596294,-4.688736041386922,4.130011876424153,1.688702098248117e+18,155.89611669921874,-2.253530740737915,-8.64220396677653,4.05112870534261,1.68870209825677e+18,155.90477010091146,-1.145474135875702,1.00670591990153,-1.523447076479594,1.68870209825677e+18,155.90477010091146,-1.1467467943827312,1.0112365086873372,-1.5212071935335796,,,,,,,,,,,,1.6887020982471788e+18,155.89517856445315,-25.275959396362303,41.18475875854492,-17.02143974304199,1.6887020982471788e+18,155.89517856445315,-279.816748046875,136.649755859375,-150.23323669433594,1.688702098248117e+18,155.89611669921874,0.6120482484499613,-0.7593756516774496,0.1789320210615793,0.1284778739015261,-2.053798198699951,1.083827058474223,-1.1612907648086548
5.95,1.6887020983000256e+18,155.9480255533854,0.613719622294108,3.163081804911295,-2.3583447138468423,1.6887020983000256e+18,155.9480255533854,-2.1547368367513022,-4.982654333114624,2.4378875096639,1.6887020983000256e+18,155.9480255533854,-2.7743024826049805,-8.128231525421143,4.733544826507568,1.6887020983086728e+18,155.9566728515625,-1.2333369255065918,0.7359908074140549,-1.50685187180837,1.6887020983086728e+18,155.9566728515625,-1.234609564145406,0.7405213862657547,-1.5045611063639324,,,,,,,,,,,,1.6887020982971786e+18,155.94517871093748,-22.435799407958985,42.12171859741211,-18.014519882202148,1.6887020982971786e+18,155.94517871093748,-276.9765991210937,137.5867156982422,-151.226318359375,1.6887020983000256e+18,155.9480255533854,0.57688969373703,-0.7766486406326294,0.1790125966072082,0.178128441174825,-2.080800453821818,0.9835800528526306,-1.0620370705922444
6.0,1.68870209835193e+18,155.99993001302084,0.0472714900970459,-2.5714826583862305,-1.992692708969116,1.68870209835193e+18,155.99993001302084,-3.1864421367645264,-10.17707347869873,3.369891881942749,1.68870209835193e+18,155.99993001302084,-3.2395596504211426,-7.588086128234863,5.299897193908691,1.688702098351929e+18,155.99992907714844,-1.9047541618347168,-1.1068114638328552,-0.5490914881229401,1.688702098351929e+18,155.99992907714844,-1.9059759974479675,-1.1022300124168396,-0.5468771010637283,,,,,,,,,,,,1.6887020983471793e+18,155.99517934570312,-19.607839584350582,41.92651901245117,-20.793679428100585,1.6887020983471793e+18,155.99517934570312,-274.1486328125,137.39151916503906,-154.00547485351564,1.68870209835193e+18,155.99993001302084,0.54816073179245,-0.7850205898284912,0.2064502338568369,0.2008531838655471,-2.1018293698628745,0.8914127349853516,-1.0482680400212605
6.05,1.6887020984038372e+18,156.05183723958334,2.8161661624908447,-4.993629137674968,-2.773115317026774,1.6887020984038372e+18,156.05183723958334,-1.3944174150625863,-11.89691480000814,2.843470891316732,1.6887020984038372e+18,156.05183723958334,-4.216429551442464,-6.885780970255534,5.553898811340332,1.6887020983951852e+18,156.04318505859374,-2.273844003677368,-3.4119369983673096,-0.5052364567915598,1.6887020983951852e+18,156.04318505859374,-2.275065819422404,-3.4073553880055747,-0.5029966235160828,,,,,,,,,,,,1.6887020983971794e+18,156.04517934570313,-15.984439659118651,39.42063980102539,-27.098639297485352,1.6887020983971794e+18,156.04517934570313,-270.5252319335938,134.8856414794922,-160.31043395996093,1.6887020984038372e+18,156.05183723958334,0.5090292990207672,-0.7918358643849691,0.2857948044935862,0.1763413896163304,-2.203488032023112,0.7842536369959513,-1.1063838402430215
6.1,1.6887020984557394e+18,156.10373925781252,20.50572458902995,-11.980199495951334,-0.956108331680298,1.6887020984557394e+18,156.10373925781252,13.948760350545248,-16.788441975911457,4.505286296208699,1.6887020984557394e+18,156.10373925781252,-6.562810897827148,-4.790738423665364,5.3987070719401045,1.6887020984470876e+18,156.09508748372397,-1.8195639451344807,-1.6569210688273113,-7.020776112874349,1.6887020984470876e+18,156.09508748372397,-1.82083660364151,-1.6524416605631511,-7.018485387166341,,,,,,,,,,,,1.6887020984471772e+18,156.09517729492185,-1.3712799727916718,36.64147872924805,-33.85011978149414,1.6887020984471772e+18,156.09517729492185,-255.91207275390624,132.10647888183593,-167.06191711425782,1.6887020984557394e+18,156.10373925781252,0.3671284019947052,-0.8401937484741211,0.3524931669235229,0.1755568434794743,-2.4438165028889975,0.518731007973353,-0.986650745073954
6.15,1.688702098507652e+18,156.15565209960937,-2.058608055114746,-5.050315697987874,-7.152655124664307,1.688702098507652e+18,156.15565209960937,-7.005586306254069,-9.46461057662964,0.1014956633249918,1.688702098507652e+18,156.15565209960937,-4.9528242746988935,-4.396790186564128,7.191463470458984,1.6887020984989962e+18,156.1469961751302,2.2565362056096396,7.172423362731934,-0.302225594719251,1.6887020984989962e+18,156.1469961751302,2.2553144296010337,7.176903088887532,-0.2999857217073441,,,,,,,,,,,,1.6887020984971832e+18,156.14518325195314,-1.246839952468872,35.982678985595705,-34.562599182128906,1.6887020984971832e+18,156.14518325195314,-255.78763427734376,131.4476776123047,-167.77439575195314,1.688702098507652e+18,156.15565209960937,0.3748303850491841,-0.8272012074788412,0.2519190957148869,0.3310822645823161,-2.164236625035604,0.4717670977115631,-0.8468593955039978
6.2,1.688702098559562e+18,156.20756217447916,8.057896137237549,-10.935147285461426,-8.357927163441977,1.688702098559562e+18,156.20756217447916,4.124827176332474,-15.886547724405924,-0.7930213212966919,1.688702098559562e+18,156.20756217447916,-3.938915014266968,-4.933896382649739,7.502218246459961,1.688702098550909e+18,156.19890909830727,-0.00010180970033,0.6703227758407593,1.085762043793996,1.688702098550909e+18,156.19890909830727,-0.0013235509395599,0.6748024225234985,1.0879509846369426,1.6887020985336074e+18,156.181607421875,0.0,0.0,1.103706955909729,6.730999946594238,1.324590802192688,124.8380889892578,42.900001525878906,-122.7562161,49.1899231,1.688702098547187e+18,156.1951869140625,-10.318759727478028,38.29091949462891,-31.029479598999025,1.688702098547187e+18,156.1951869140625,-264.85955810546875,133.75591735839845,-164.24127807617188,1.688702098559562e+18,156.20756217447916,0.4169918497403462,-0.8037408590316772,0.2255972077449162,0.3591084877649942,-2.04586124420166,0.5331426461537679,-0.8779126405715942
6.25,1.6887020986028068e+18,156.2508068847656,3.0544002056121826,-6.484536409378052,-4.3444132804870605,1.6887020986028068e+18,156.2508068847656,-0.0640079975128174,-12.715160369873049,2.620738983154297,1.6887020986028068e+18,156.2508068847656,-3.1242542266845703,-6.213119268417358,6.902464866638184,1.688702098602809e+18,156.25080908203128,4.408716440200806,0.6223189731438955,2.340682864189148,1.688702098602809e+18,156.25080908203128,4.40749454498291,0.6269004642963409,2.342973589897156,,,,,,,,,,,,1.688702098597178e+18,156.24517807617187,-14.881559371948242,39.40843963623047,-27.4597599029541,1.688702098597178e+18,156.24517807617187,-269.4223571777344,134.8734375,-160.6715576171875,1.6887020986028068e+18,156.2508068847656,0.480030208826065,-0.789636641740799,0.1787721589207649,0.3368903994560241,-1.9874140620231628,0.6919208765029907,-0.9064058661460876
6.3,1.688702098646064e+18,156.29406404622395,2.7099180221557617,-10.49689563115438,0.4273026784261067,1.688702098646064e+18,156.29406404622395,0.3766701618830363,-18.29372755686442,5.949155330657959,1.688702098646064e+18,156.29406404622395,-2.3390938440958657,-7.779327869415283,5.459165096282959,1.688702098654717e+18,156.30271647135416,4.1159082253774,-0.2803871432940165,1.698103626569112,1.688702098654717e+18,156.30271647135416,4.114686489105225,-0.275907464325428,1.70039435227712,,,,,,,,,,,,1.688702098647184e+18,156.2951841796875,-20.63507995605469,42.87323989868164,-18.099919509887695,1.688702098647184e+18,156.2951841796875,-275.17587890625,138.33824157714844,-151.31171875,1.688702098646064e+18,156.29406404622395,0.553843080997467,-0.7761661012967428,0.1140433798233667,0.2768790423870086,-1.9661108652750652,0.9231646458307902,-0.93177197376887
6.35,1.6887020986979743e+18,156.34597436523438,5.023876984914144,-11.161093711853027,9.196966171264648,1.6887020986979743e+18,156.34597436523438,3.1389844020207724,-19.858832995096844,13.412568728129068,1.6887020986979743e+18,156.34597436523438,-1.890738566716512,-8.680235226949057,4.152914841969808,1.6887020987066278e+18,156.3546279296875,1.8579975763956704,0.4158974140882492,0.737721582253774,1.6887020987066278e+18,156.3546279296875,1.8567758003870647,0.4203771005074183,0.7399614353974661,,,,,,,,,,,,1.6887020986971845e+18,156.34518432617188,-23.8387996673584,44.43971939086914,-10.552999687194824,1.6887020986971845e+18,156.34518432617188,-278.3795959472656,139.90471801757812,-143.76479797363282,1.6887020986979743e+18,156.34597436523438,0.5951610604921976,-0.7678283254305521,0.0590291892488797,0.2292246222496032,-1.986186186472575,1.0909677346547444,-0.906984567642212
6.4,1.6887020987498765e+18,156.39787662760418,-0.2582219044367471,2.8846179644266763,3.0613315105438232,1.6887020987498765e+18,156.39787662760418,-1.6257236003875732,-6.245267311731975,6.473981062571208,1.6887020987498765e+18,156.39787662760418,-1.3733477195103962,-9.112380663553871,3.3499619166056314,1.6887020987585318e+18,156.40653165690105,1.7624480724334717,-0.754622201124827,1.4781920512517293,1.6887020987585318e+18,156.40653165690105,1.7611754337946577,-0.7500916123390198,1.4804319540659587,,,,,,,,,,,,1.6887020987471887e+18,156.39518896484373,-25.7224796295166,43.741879272460935,-5.9706799507141115,1.6887020987471887e+18,156.39518896484373,-280.2632751464844,139.20687561035157,-139.18247985839844,1.6887020987498765e+18,156.39787662760418,0.6272770563761393,-0.7520925005276998,0.0327644416441519,0.1987789173920948,-1.943665107091268,1.196487545967102,-0.9583304127057394
6.45,1.688702098801784e+18,156.4497841796875,-1.2041744788487752,8.869999567667643,0.0935406684875487,1.688702098801784e+18,156.4497841796875,-1.9696918328603108,-0.5507480104764303,2.833102067311605,1.688702098801784e+18,156.4497841796875,-0.771363377571106,-9.403243064880373,2.6768740018208823,1.688702098801785e+18,156.44978515625002,1.221272349357605,-0.1001055396336596,1.4998268485069275,1.688702098801785e+18,156.44978515625002,1.2199742197990415,-0.0955240543698892,1.5020412802696228,,,,,,,,,,,,1.6887020987971863e+18,156.44518618164062,-28.66999931335449,42.24860000610352,-2.837719964981079,1.6887020987971863e+18,156.44518618164062,-283.21079711914064,137.71359558105468,-136.0495178222656,1.688702098801784e+18,156.4497841796875,0.6610044042269388,-0.7314561406771342,0.0220655420174201,0.1655411720275878,-1.823724587758382,1.2860010067621868,-1.1125131448109944
6.5,1.6887020988536906e+18,156.50169083658855,-2.991351763407389,10.15272585550944,0.0358150800069173,1.6887020988536906e+18,156.50169083658855,-2.9196424086888633,0.583250512679418,2.311865488688151,1.6887020988536906e+18,156.50169083658855,0.0658633559942245,-9.551970799763998,2.21336301167806,1.6887020988450363e+18,156.4930363769531,1.020603080590566,-0.7253515720367432,2.2552635272343955,1.6887020988450363e+18,156.4930363769531,1.019381403923035,-0.7208209882179895,2.2574524879455566,,,,,,,,,,,,1.688702098847184e+18,156.4951839355469,-33.06931915283203,39.44991912841797,-1.0491999745368958,1.688702098847184e+18,156.4951839355469,-287.6101135253906,134.9149139404297,-134.26099853515626,1.6887020988536906e+18,156.50169083658855,0.6990662415822347,-0.7009963989257812,0.0214450409015019,0.1381071905295053,-1.4941688776016235,1.342319170633952,-1.4811457792917888
6.55,1.6887020989055962e+18,156.55359619140623,-1.8122652371724448,10.415038108825684,0.0687692562739054,1.6887020989055962e+18,156.55359619140623,-0.942772130171458,0.8159524997075399,2.0474585692087808,1.6887020989055962e+18,156.55359619140623,0.8636471430460612,-9.581581115722656,1.9160019159317017,1.6887020988969454e+18,156.5449453938802,0.7680103381474813,-1.041372537612915,1.6128369967142742,1.6887020988969454e+18,156.5449453938802,0.766737679640452,-1.0367910265922546,1.615076780319214,,,,,,,,,,,,1.6887020988971845e+18,156.54518408203126,-37.41739959716797,36.270599365234375,-0.7710400015115738,1.6887020988971845e+18,156.54518408203126,-291.95818481445315,131.7355987548828,-133.98283996582032,1.6887020989055962e+18,156.55359619140623,0.7336288889249166,-0.6703019142150879,0.0360635593533515,0.1051345864931742,-1.1002277135849,1.3510891199111938,-1.9430485566457112
