seconds_elapsed_rounded,accelerometer_time,accelerometer_seconds_elapsed,accelerometer_z,accelerometer_y,accelerometer_x,accelerometeruncalibrated_time,accelerometeruncalibrated_seconds_elapsed,accelerometeruncalibrated_z,accelerometeruncalibrated_y,accelerometeruncalibrated_x,gravity_time,gravity_seconds_elapsed,gravity_z,gravity_y,gravity_x,gyroscope_time,gyroscope_seconds_elapsed,gyroscope_z,gyroscope_y,gyroscope_x,gyroscopeuncalibrated_time,gyroscopeuncalibrated_seconds_elapsed,gyroscopeuncalibrated_z,gyroscopeuncalibrated_y,gyroscopeuncalibrated_x,location_time,location_seconds_elapsed,location_bearingAccuracy,location_speedAccuracy,location_verticalAccuracy,location_horizontalAccuracy,location_speed,location_bearing,location_altitude,location_longitude,location_latitude,magnetometer_time,magnetometer_seconds_elapsed,magnetometer_z,magnetometer_y,magnetometer_x,magnetometeruncalibrated_time,magnetometeruncalibrated_seconds_elapsed,magnetometeruncalibrated_z,magnetometeruncalibrated_y,magnetometeruncalibrated_x,orientation_time,orientation_seconds_elapsed,orientation_qz,orientation_qy,orientation_qx,orientation_qw,orientation_roll,orientation_pitch,orientation_yaw
0.0,1.688702032344664e+18,89.99266414388022,-3.73393714427948,6.570907274881999,1.8564680417378745,1.688702032344664e+18,89.99266414388022,-5.222335418065389,-2.6283162037531533,5.031707127888997,1.688702032344664e+18,89.99266414388022,-1.4942443370819092,-9.181718826293944,3.11255153020223,1.688702032353323e+18,90.00132291666667,1.216181794802348,3.3874513308207193,-1.4604770342508953,1.688702032353323e+18,90.00132291666667,1.2149091958999634,3.391981919606527,-1.4582371711730957,,,,,,,,,,,,1.6887020323471892e+18,89.99518916015624,-2.3570398807525637,49.49295959472656,8.36187973022461,1.6887020323471892e+18,89.99518916015624,-256.8978332519531,144.9579620361328,-124.84991760253908,1.688702032344664e+18,89.99266414388022,0.4643395940462748,-0.6875809629758199,-0.3239732583363851,0.4537397424379985,-2.021810452143351,1.2030803362528484,0.0678915934016307
0.05,1.6887020323965788e+18,90.04457877604166,0.6885216236114502,8.267126083374023,-0.7264877160390218,1.6887020323965788e+18,90.04457877604166,-1.1447662711143494,-0.9308080288271108,2.2620150248209634,1.6887020323965788e+18,90.04457877604166,-1.8391339381535847,-9.180429458618164,2.9258153438568115,1.6887020324052262e+18,90.05322599283853,-0.3150028412540753,1.9491691589355469,-1.168941577275594,1.6887020324052262e+18,90.05322599283853,-0.3162245824933052,1.953699787457784,-1.1666508118311565,,,,,,,,,,,,1.688702032397192e+18,90.04519194335937,2.5131999969482424,48.90979919433594,11.180079650878906,1.688702032397192e+18,90.04519194335937,-252.02759399414063,144.37479553222656,-122.0317169189453,1.6887020323965788e+18,90.04457877604166,0.4273491303126017,-0.6717577974001566,-0.380459467569987,0.4702114462852478,-2.1303603649139404,1.2003215948740642,0.3061229934295018
0.1,1.6887020324484864e+18,90.0964864908854,-1.8400590817133584,0.670548439025879,2.3066462675730386,1.6887020324484864e+18,90.0964864908854,-3.7808591524759927,-8.080960591634115,6.361917177836101,1.6887020324484864e+18,90.0964864908854,-1.9466461340586343,-8.734004338582357,3.992583513259888,1.6887020324571348e+18,90.10513492838544,-2.81125275293986,1.1313224335511525,-0.1040507306655248,1.6887020324571348e+18,90.10513492838544,-2.812525431315104,1.1359039346377056,-0.1018108601371447,,,,,,,,,,,,1.6887020324471885e+18,90.09518828125,5.67544002532959,49.19527969360352,6.568479776382446,1.6887020324471885e+18,90.09518828125,-248.8653533935547,144.6602783203125,-126.64331817626952,1.6887020324484864e+18,90.0964864908854,0.3684515158335368,-0.677743136882782,-0.376737376054128,0.5122215549151102,-2.0280332962671914,1.0880589882532756,0.2951642175515492
0.15,1.6887020325003889e+18,90.14838875325522,-0.5102127790451049,1.7097290356953938,-0.7709611256917318,1.6887020325003889e+18,90.14838875325522,-2.1774686177571616,-6.677371184031169,4.12642256418864,1.6887020325003889e+18,90.14838875325522,-1.6731018622716267,-8.369595527648926,4.834696292877197,1.6887020325090424e+18,90.15704223632812,-0.8606073260307312,-0.3553199569384257,0.6692028716206551,1.6887020325090424e+18,90.15704223632812,-0.8618799646695455,-0.3508402804533639,0.6714936246474584,,,,,,,,,,,,1.6887020324971912e+18,90.14519111328124,4.435920000076294,49.751599884033205,1.4444799900054932,1.6887020324971912e+18,90.14519111328124,-250.10487365722656,145.2165985107422,-131.76731567382814,1.6887020325003889e+18,90.14838875325522,0.3489888707796733,-0.68637086947759,-0.3412106732527415,0.5390788912773132,-1.90676744778951,1.0102012952168782,0.1744171877702076
0.2,1.688702032552293e+18,90.2002932128906,-0.8706210454305013,0.2624890009562174,-2.4437896410624185,1.688702032552293e+18,90.2002932128906,-2.6703900496164956,-7.794819196065267,2.9351957639058432,1.688702032552293e+18,90.2002932128906,-1.8056150277455647,-8.039803504943848,5.316298007965088,1.6887020325522903e+18,90.20029040527344,-1.6828573942184448,-0.5506950169801712,-0.7168503701686859,1.6887020325522903e+18,90.20029040527344,-1.6841554641723635,-0.5461898967623711,-0.714635968208313,,,,,,,,,,,,1.6887020325471918e+18,90.19519184570314,4.265119886398315,49.84675903320313,-1.3956799685955048,1.6887020325471918e+18,90.19519184570314,-250.2756774902344,145.31175842285157,-134.60747680664062,1.688702032552293e+18,90.2002932128906,0.3350269198417663,-0.7035213907559713,-0.3155021170775096,0.5413565039634705,-1.9015073378880816,0.949542740980784,0.1395365595817565
0.25,1.6887020326042002e+18,90.25220019531248,0.4724041620890299,-4.1204727490743,-2.7777504126230874,1.6887020326042002e+18,90.25220019531248,-2.4155545234680176,-11.561919530232748,2.987638552983602,1.6887020326042002e+18,90.25220019531248,-2.8938047091166177,-7.423942089080811,5.702701568603516,1.6887020325955505e+18,90.2435506998698,-1.7251852750778198,-2.9794443448384604,-1.1977540453275044,1.6887020325955505e+18,90.2435506998698,-1.726407011349996,-2.974913756052653,-1.19551420211792,1.6887020326128525e+18,90.2608525390625,0.0,0.0,0.9791743755340576,6.461999893188477,1.4605257511138916,272.11785888671875,42.60000228881836,-122.7560414,49.1906106,1.688702032597188e+18,90.24518818359374,6.268359851837158,49.30507888793945,-5.424119901657105,1.688702032597188e+18,90.24518818359374,-248.2724365234375,144.77007446289062,-138.63591613769532,1.6887020326042002e+18,90.25220019531248,0.3094762067000071,-0.7560919324556986,-0.2795815567175547,0.5034911632537842,-2.0419193506240845,0.8481350541114807,0.167575846115748
0.3,1.6887020326561075e+18,90.30410774739585,7.102261861165364,-6.458051681518555,-1.9919888178507488,1.6887020326561075e+18,90.30410774739585,2.2689940532048545,-13.02931785583496,3.4795629183451333,1.6887020326561075e+18,90.30410774739585,-4.8391140302022295,-6.5537614822387695,5.408864339192708,1.6887020326474568e+18,90.29545686848958,-1.7061466375986736,-4.671541055043538,-1.9974275827407837,1.6887020326474568e+18,90.29545686848958,-1.7073683738708496,-4.6669596036275225,-1.995136817296346,,,,,,,,,,,,1.688702032647193e+18,90.29519316406252,11.977959632873535,48.12411880493164,-7.768959903717041,1.688702032647193e+18,90.29519316406252,-242.56283569335935,143.5891143798828,-140.9807586669922,1.6887020326561075e+18,90.30410774739585,0.2806324263413747,-0.8329439163208008,-0.23413248360157,0.4131302734216054,-2.2993781566619873,0.7231401602427164,0.2101370890935261
0.35,1.6887020327080133e+18,90.35601334635416,21.707008997599285,-11.371115366617838,3.079362154006958,1.6887020327080133e+18,90.35601334635416,15.374085744222006,-15.722639401753744,9.087342341740928,1.6887020327080133e+18,90.35601334635416,-6.338769276936849,-4.334019502003987,5.9452924728393555,1.6887020326993626e+18,90.34736271158856,-0.1055778662363688,4.5795548756917315,-7.287316640218099,1.6887020326993626e+18,90.34736271158856,-0.1069014271100362,4.584034601847331,-7.2850767771403,,,,,,,,,,,,1.688702032697192e+18,90.345191796875,24.580559539794923,42.30959930419922,-9.913719654083252,1.688702032697192e+18,90.345191796875,-229.96023254394532,137.77459716796875,-143.12551879882812,1.6887020327080133e+18,90.35601334635416,0.1272852718830108,-0.8669706781705221,-0.2652690708637237,0.3907802999019623,-2.390143712361654,0.4507365624109904,0.4182931184768676
0.4,1.6887020327512612e+18,90.39926110839843,-6.419453859329224,-5.462764263153076,-8.543303489685059,1.6887020327512612e+18,90.39926110839843,-10.359127521514893,-9.95563793182373,-0.6951149702072144,1.6887020327512612e+18,90.39926110839843,-3.9455195665359497,-4.475368976593018,7.78550124168396,1.688702032751269e+18,90.39926920572915,2.01076469818751,4.25070595741272,0.060781080275774,1.688702032751269e+18,90.39926920572915,2.009543021519979,4.255236546198527,0.0629191218564908,,,,,,,,,,,,1.6887020327471895e+18,90.39518935546874,26.37151947021484,37.87367935180664,-20.134879684448244,1.6887020327471895e+18,90.39518935546874,-228.16927795410157,133.33867797851562,-153.3466766357422,1.6887020327512612e+18,90.39926110839843,0.0557190161198377,-0.7671012282371521,-0.3354071676731109,0.5439243018627167,-2.0379267930984497,0.4672379940748214,0.5334359407424927
0.45,1.6887020327945188e+18,90.44251879882812,5.380144834518433,-9.367321014404297,-9.154891967773438,1.6887020327945188e+18,90.44251879882812,1.7120645890633266,-14.406188011169434,-1.5160524944464366,1.6887020327945188e+18,90.44251879882812,-3.67392627398173,-5.021362940470378,7.576152165730794,1.68870203280317e+18,90.4511698404948,0.8151997029781342,-0.0042251646518708,2.718604803085327,1.68870203280317e+18,90.4511698404948,0.8139270146687826,0.0002545515696207,2.7208446264266968,,,,,,,,,,,,1.6887020327971912e+18,90.44519116210935,22.15031967163086,40.88951873779297,-19.10519943237305,1.6887020327971912e+18,90.44519116210935,-232.3904754638672,136.35451965332032,-152.3169952392578,1.6887020327945188e+18,90.44251879882812,0.1002041026949882,-0.7635569373766581,-0.3229012787342071,0.5496682325998942,-2.0208418369293213,0.5326344768206278,0.4602925678094228
0.5,1.6887020328464294e+18,90.49442952473956,3.423049290974935,-9.120347340901692,-4.2311027844746905,1.6887020328464294e+18,90.49442952473956,0.308674156665802,-15.530017217000326,2.5537399450937905,1.6887020328464294e+18,90.49442952473956,-3.1202211380004883,-6.392165342966716,6.722155412038167,1.68870203285508e+18,90.50307991536458,3.826561689376831,-0.8962920556465784,2.813594420750936,1.68870203285508e+18,90.50307991536458,3.825339953104655,-0.8917614171902338,2.815885146458944,,,,,,,,,,,,1.6887020328471887e+18,90.49518862304689,16.596880149841308,45.29371948242188,-13.390719604492189,1.6887020328471887e+18,90.49518862304689,-237.94391174316405,140.7587158203125,-146.6025146484375,1.6887020328464294e+18,90.49442952473956,0.1921229064464568,-0.7407986124356588,-0.3319163223107655,0.5503096580505371,-2.004570484161377,0.7086653113365173,0.3782738745212555
0.55,1.688702032898334e+18,90.54633422851562,2.545275886853536,-10.420504252115885,2.4954732259114585,1.688702032898334e+18,90.54633422851562,0.2464607444902261,-18.35713768005371,7.848059336344401,1.688702032898334e+18,90.54633422851562,-2.304661194483439,-7.919129689534505,5.28989855448405,1.6887020329069855e+18,90.55498600260417,2.947119394938151,0.1941024338205655,1.2251920402050018,1.6887020329069855e+18,90.55498600260417,2.9458977381388345,0.1986839200059572,1.227431873480479,,,,,,,,,,,,1.6887020328971884e+18,90.54518828125,11.15811996459961,48.45351943969727,-4.8873199939727785,1.6887020328971884e+18,90.54518828125,-243.38267517089844,143.91851806640625,-138.0991180419922,1.688702032898334e+18,90.54633422851562,0.2943580647309621,-0.6955037514368693,-0.3651307721932729,0.5437899231910706,-1.9796627362569172,0.9391305049260458,0.3236512541770934
0.6,1.6887020329502372e+18,90.59823730468752,4.099094311396281,-3.521351973215739,7.254034678141276,1.6887020329502372e+18,90.59823730468752,2.2045872608820596,-12.115259647369385,11.67597738901774,1.6887020329502372e+18,90.59823730468752,-1.9003531535466511,-8.576403299967447,4.359254837036133,1.6887020329588887e+18,90.60688850911458,1.935017466545105,1.0045169989267986,0.425416735932231,1.6887020329588887e+18,90.60688850911458,1.933795730272929,1.0090475678443909,0.4276056600113709,,,,,,,,,,,,1.688702032947193e+18,90.59519311523437,8.937719917297363,49.20503845214843,1.2517199903726577,1.688702032947193e+18,90.59519311523437,-245.6030731201172,144.67003479003907,-131.96007690429687,1.6887020329502372e+18,90.59823730468752,0.331158181031545,-0.6583164930343628,-0.4033522009849548,0.5422208309173584,-1.977638880411784,1.062671780586243,0.3614104787508647
0.65,1.688702033002147e+18,90.65014721679688,-0.67137078444163,5.554002285003662,2.319578250249227,1.688702033002147e+18,90.65014721679688,-2.0518454710642495,-3.4664023319880166,6.015356699625651,1.688702033002147e+18,90.65014721679688,-1.38632071018219,-9.002900123596191,3.6330910523732505,1.6887020330021468e+18,90.65014672851564,1.6236798763275146,0.1815796941518783,1.0676397681236267,1.6887020330021468e+18,90.65014672851564,1.6224581003189087,0.1861611902713775,1.0698541402816772,,,,,,,,,,,,1.688702032997189e+18,90.64518925781248,7.4200397491455075,49.20991897583008,5.6461597919464115,1.688702032997189e+18,90.64518925781248,-247.12075805664065,144.67492065429687,-127.56563720703124,1.688702033002147e+18,90.65014721679688,0.3621066908041636,-0.6237020492553711,-0.425398180882136,0.5465832153956095,-1.9285169045130413,1.1601152817408245,0.3435916304588318
0.7,1.6887020330540526e+18,90.702052734375,-4.6955180168151855,9.205789883931478,0.8042758305867513,1.6887020330540526e+18,90.702052734375,-5.520042419433594,-0.1224327709060162,3.8311084111531577,1.6887020330540526e+18,90.702052734375,-0.8303703268369039,-9.310718218485514,2.9641451835632324,1.688702033045403e+18,90.69340315755208,1.425454060236613,-0.6830491622289022,1.575472394625346,1.688702033045403e+18,90.69340315755208,1.4242323239644368,-0.6784676611423492,1.5776613156000774,,,,,,,,,,,,1.688702033047189e+18,90.6951888671875,3.9015600204467775,49.09280014038086,9.68191967010498,1.688702033047189e+18,90.6951888671875,-250.63923034667968,144.55780029296875,-123.52987670898438,1.6887020330540526e+18,90.702052734375,0.4048524697621663,-0.6011525789896647,-0.4255939424037933,0.5415233572324117,-1.8388663132985432,1.2465543746948242,0.2287012139956156
0.75,1.688702033105959e+18,90.75395865885416,-1.3130511840184529,9.48616091410319,0.3764704863230387,1.688702033105959e+18,90.75395865885416,-1.4825530449549358,-0.0229312156637509,2.906083106994629,1.688702033105959e+18,90.75395865885416,-0.1753478674218058,-9.49158732096354,2.4669252236684165,1.688702033097306e+18,90.74530582682291,0.922711968421936,-0.9731592188278833,1.6428711811701455,1.688702033097306e+18,90.74530582682291,0.921490212281545,-0.9686286598443984,1.6451110045115154,,,,,,,,,,,,1.688702033097191e+18,90.74519106445312,-2.1301199421286583,48.54867858886719,12.52695960998535,1.688702033097191e+18,90.74519106445312,-256.67091064453126,144.01367797851563,-120.6848388671875,1.688702033105959e+18,90.75395865885416,0.45661328236262,-0.5896519621213278,-0.4029860496520996,0.5303915739059448,-1.6472671031951904,1.309092879295349,-0.0374488942325115
0.8,1.688702033157858e+18,90.80585799153648,-2.2096747954686484,9.588671684265137,-0.8780907789866129,1.688702033157858e+18,90.80585799153648,-2.269193450609843,0.0331007142861683,1.473779300848643,1.688702033157858e+18,90.80585799153648,-0.0653646617429331,-9.538066546122232,2.289182662963867,1.68870203314921e+18,90.79721004231772,0.3504330217838287,-1.1086695144573848,0.1849903513987859,1.68870203314921e+18,90.79721004231772,0.3492113028963406,-1.1042407006025314,0.1872811168432235,1.688702033131901e+18,90.77990087890625,0.0,0.0,0.9905364513397216,6.767000198364258,1.4588637351989746,272.62127685546875,42.60000228881836,-122.7560524,49.1906124,1.6887020331471916e+18,90.79519145507813,-4.106519889831543,47.88011932373047,14.31059970855713,1.6887020331471916e+18,90.79519145507813,-258.6473083496094,143.3451171875,-118.9011978149414,1.688702033157858e+18,90.80585799153648,0.4758560558160146,-0.5930095513661703,-0.3919583062330882,0.5177006324132284,-1.6156487464904783,1.3269283771514893,-0.1157379448413848
0.85,1.6887020332011192e+18,90.84911926269533,17.584580898284916,-2.2987771034240723,1.743514895439148,1.6887020332011192e+18,90.84911926269533,16.301104068756104,-11.735598802566528,4.191028952598572,1.6887020332011192e+18,90.84911926269533,-1.2893234193325045,-9.419317722320557,2.38482666015625,1.688702033201116e+18,90.84911555989584,-1.8026633461316424,-11.415900548299154,0.1848376592000325,1.688702033201116e+18,90.84911555989584,-1.803885022799174,-11.411369959513346,0.1870265404383341,,,,,,,,,,,,1.6887020331971912e+18,90.8451911621094,-5.590039825439453,48.46327896118164,12.553799819946288,1.6887020331971912e+18,90.8451911621094,-260.13084106445314,143.92827453613282,-120.65799713134766,1.6887020332011192e+18,90.84911926269533,0.5046029984951019,-0.6832023561000824,-0.3157889991998672,0.4165064692497253,-2.072114109992981,1.2792710661888125,0.0352718383073806
0.9,1.6887020332443745e+18,90.89237418619793,24.46328639984131,-16.76106357574463,6.173967123031616,1.6887020332443745e+18,90.89237418619793,23.062822182973225,-26.026333491007488,9.170891602834066,1.6887020332443745e+18,90.89237418619793,-1.4063105980555215,-9.24776554107666,2.9342368443806968,1.6887020332530204e+18,90.9010204264323,-1.9745200375715892,-1.4928528865178423,-0.2592613498369853,1.6887020332530204e+18,90.9010204264323,-1.9757418781518936,-1.4883222977320354,-0.2569706241289775,,,,,,,,,,,,1.6887020332471892e+18,90.89518920898438,-13.607879638671877,48.40959930419922,2.6425199419260026,1.6887020332471892e+18,90.89518920898438,-268.14866943359374,143.87459411621094,-130.56927947998048,1.6887020332443745e+18,90.89237418619793,0.5658764044443766,-0.7420221964518229,-0.1565615485111872,0.3225624362627665,-2.038921356201172,1.2263038953145344,-0.4004531701405843
0.95,1.6887020332962847e+18,90.94428466796874,-1.247960050900777,-6.533536911010742,10.229803085327148,1.6887020332962847e+18,90.94428466796874,-2.9042884906133017,-15.702500025431316,13.408779780069986,1.6887020332962847e+18,90.94428466796874,-1.6621744235356648,-9.151459058125814,3.116288741429647,1.6887020333049316e+18,90.9529315592448,1.4965180555979412,6.291708469390869,-1.5685492356618245,1.6887020333049316e+18,90.9529315592448,1.49529633919398,6.296289920806885,-1.566360314687093,,,,,,,,,,,,1.6887020332971914e+18,90.94519130859376,-10.760399627685548,48.68532028198242,1.710439956560731,1.6887020332971914e+18,90.94519130859376,-265.3011962890625,144.1503173828125,-131.50135803222656,1.6887020332962847e+18,90.94428466796874,0.528730571269989,-0.7385739684104919,-0.2029748757680256,0.3626263737678528,-2.072397470474243,1.1954466104507446,-0.2297213325897852
1.0,1.688702033348186e+18,90.99618611653644,-1.0114266475041709,7.352807362874349,0.9136969248453776,1.688702033348186e+18,90.99618611653644,-2.3110678990681968,-1.8404794136683147,4.1900317668914795,1.688702033348186e+18,90.99618611653644,-1.3054872353871665,-9.175782521565756,3.213647445042928,1.6887020333568315e+18,91.00483121744792,0.5308928191661835,5.7129645347595215,-1.308269739151001,1.6887020333568315e+18,91.00483121744792,0.5296201705932617,5.717545986175537,-1.3059790134429932,,,,,,,,,,,,1.688702033347187e+18,90.99518691406249,-4.0455199718475345,49.35875854492187,7.839719772338867,1.688702033347187e+18,90.99518691406249,-258.58631591796876,144.82375793457032,-125.37207641601564,1.688702033348186e+18,90.99618611653644,0.4651550849278767,-0.6829500595728556,-0.319226195414861,0.4621003270149231,-1.9633782704671223,1.2002756595611572,0.016886884967486
1.05,1.6887020334000878e+18,91.048087890625,-1.8871777455012004,6.145065784454346,0.2596944173177083,1.6887020334000878e+18,91.048087890625,-3.0508488019307456,-2.9343981544176736,3.885146379470825,1.6887020334000878e+18,91.048087890625,-1.1695170402526855,-9.061959266662598,3.562764565149943,1.688702033408743e+18,91.05674275716144,-1.438740372657776,2.7038423220316568,-1.4281011422475178,1.688702033408743e+18,91.05674275716144,-1.4399620940287907,2.7083218495051065,-1.42581041653951,,,,,,,,,,,,1.6887020333971942e+18,91.04519423828124,1.4371599912643434,49.48563919067383,8.457039833068848,1.6887020333971942e+18,91.04519423828124,-253.1036346435547,144.9506378173828,-124.75475616455078,1.6887020334000878e+18,91.048087890625,0.3957991302013397,-0.640783945719401,-0.3885499835014342,0.5301756461461385,-1.8912388881047568,1.167803446451823,0.2001439630985259
1.1,1.6887020334519905e+18,91.09999047851562,-1.4155834118525188,-2.299313227335612,2.355405330657959,1.6887020334519905e+18,91.09999047851562,-3.0721848805745444,-10.812567392985024,7.020342191060384,1.6887020334519905e+18,91.09999047851562,-1.662447492281596,-8.495749473571777,4.602249463399251,1.6887020334519977e+18,91.09999780273438,-2.3470969796180725,-1.0648908466100693,-1.0184651017189026,1.6887020334519977e+18,91.09999780273438,-2.348471403121948,-1.060385689139366,-1.01617431640625,,,,,,,,,,,,1.688702033447189e+18,91.09518901367188,5.338719844818115,49.632039642333986,3.0011999011039734,1.688702033447189e+18,91.09518901367188,-249.20207824707032,145.09703674316407,-130.2105972290039,1.6887020334519905e+18,91.09999047851562,0.3346461355686188,-0.6660635868708292,-0.3778817057609558,0.5488300720850626,-1.9175854921340945,1.0369873841603596,0.2699635525544483
1.15,1.6887020335039035e+18,91.15190356445312,1.6509664456049602,3.634939352671305,-2.2495452562967935,1.6887020335039035e+18,91.15190356445312,-0.645264506340027,-4.5890350341796875,2.667997201283773,1.6887020335039035e+18,91.15190356445312,-2.302076975504557,-8.206469853719076,4.854855060577393,1.6887020334952545e+18,91.14325439453124,-0.7179702719052633,-2.177378257115682,-0.0870483014732599,1.6887020334952545e+18,91.14325439453124,-0.7191920081774393,-2.172847628593445,-0.0848593612511952,,,,,,,,,,,,1.6887020334971886e+18,91.1451884765625,6.661199760437012,49.51735916137695,0.2928000032901764,1.6887020334971886e+18,91.1451884765625,-247.8795928955078,144.98235778808595,-132.91899719238282,1.6887020335039035e+18,91.15190356445312,0.3329113125801086,-0.7066703637441,-0.3465459843476613,0.5191173553466797,-2.0146168867746987,0.9800306955973308,0.2617151339848836
1.2,1.6887020335558095e+18,91.20380973307292,0.0499809583028157,0.5931965510050455,-3.1745288372039795,1.6887020335558095e+18,91.20380973307292,-2.6141587098439536,-7.23170820871989,2.1884357929229736,1.6887020335558095e+18,91.20380973307292,-2.6699856917063394,-7.807400067647298,5.300277233123779,1.6887020335471585e+18,91.19515844726564,-1.595885435740153,-0.4939354509115219,-0.5108360747496287,1.6887020335471585e+18,91.19515844726564,-1.597107172012329,-0.489353967209657,-0.5086471140384674,,,,,,,,,,,,1.6887020335471913e+18,91.19519130859376,7.185799980163575,49.62227935791016,-2.1911199629306792,1.6887020335471913e+18,91.19519130859376,-247.35499572753903,145.0872772216797,-135.40291748046874,1.6887020335558095e+18,91.20380973307292,0.3162561158339181,-0.732469896475474,-0.3189722994963328,0.5114215811093649,-2.0387967427571616,0.9103162288665771,0.2366176098585128
1.25,1.6887020336077146e+18,91.25571435546874,1.2817394733428955,-3.7224857012430825,-3.0806241035461426,1.6887020336077146e+18,91.25571435546874,-2.174278179804484,-11.01416269938151,2.569093863169352,1.6887020336077146e+18,91.25571435546874,-3.4618636767069497,-7.274172306060791,5.587030569712321,1.6887020335990633e+18,91.24706347656247,-1.481704552968343,-2.3438390493392944,-0.7937684853871664,1.6887020335990633e+18,91.24706347656247,-1.4829262892405193,-2.3393593629201255,-0.7915286421775818,,,,,,,,,,,,1.6887020335971912e+18,91.24519111328124,9.28663969039917,48.66335830688477,-5.475359916687012,1.6887020335971912e+18,91.24519111328124,-245.254150390625,144.12835693359375,-138.6871551513672,1.6887020336077146e+18,91.25571435546874,0.297678530216217,-0.7729422648747762,-0.284813384215037,0.4819723665714264,-2.1263264815012612,0.8258286515871683,0.2275919566551843
1.3,1.6887020336596224e+18,91.30762247721354,7.492645343144734,-7.470008373260498,-2.121129989624023,1.6887020336596224e+18,91.30762247721354,2.3870400389035544,-13.872588475545248,3.2787652015686035,1.6887020336596224e+18,91.30762247721354,-5.111451466878255,-6.385075410207112,5.337207794189453,1.6887020336509665e+18,91.29896614583332,-1.816967765490214,-4.431114753087361,-2.445751667022705,1.6887020336509665e+18,91.29896614583332,-1.8182404041290283,-4.426635026931763,-2.4435118039449057,1.6887020336448783e+18,91.29287841796877,0.0,0.0,0.9905364513397216,6.822999954223633,1.461249828338623,272.876220703125,42.60000228881836,-122.7560644,49.1906133,1.688702033647194e+18,91.29519423828124,12.951519775390626,47.51899948120117,-8.03735990524292,1.688702033647194e+18,91.29519423828124,-241.5892761230469,142.98399658203124,-141.24915771484376,1.6887020336596224e+18,91.30762247721354,0.2676181991895039,-0.8388124306996664,-0.2416770656903584,0.4048426449298858,-2.3310009638468423,0.7014381090799967,0.2461570799350737
1.35,1.6887020337028705e+18,91.35087060546876,27.87742519378662,-11.654615879058838,1.536856174468994,1.6887020337028705e+18,91.35087060546876,21.093629837036133,-16.00409507751465,7.143173694610595,1.6887020337028705e+18,91.35087060546876,-6.789643287658691,-4.331975221633911,5.543629884719849,1.688702033702871e+18,91.3508709309896,0.0838412443796793,4.922810077667235,-6.293184518814087,1.688702033702871e+18,91.3508709309896,0.0826195180416107,4.927340666453044,-6.290893793106079,,,,,,,,,,,,1.688702033697194e+18,91.34519399414064,26.693599700927734,41.43851928710937,-9.638000011444092,1.688702033697194e+18,91.34519399414064,-227.84719543457032,136.903515625,-142.84979553222655,1.6887020337028705e+18,91.35087060546876,0.136976670473814,-0.8816134035587311,-0.2630702182650566,0.3630933463573456,-2.4568625688552856,0.4500668793916702,0.4190327674150467
1.4,1.688702033746131e+18,91.3941310221354,-4.227199236551921,-6.210983753204346,-6.45635191599528,1.688702033746131e+18,91.3941310221354,-8.812366803487143,-10.65384324391683,1.030110239982605,1.688702033746131e+18,91.3941310221354,-4.591013590494792,-4.425354798634847,7.423774719238281,1.6887020337547786e+18,91.40277864583334,1.6460781767964363,3.855425039927165,0.3803145103156566,1.6887020337547786e+18,91.40277864583334,1.6448564554254217,3.86000649134318,0.3825543696681658,,,,,,,,,,,,1.6887020337471898e+18,91.39518969726562,27.14011917114258,38.07620010375977,-18.97587890625,1.6887020337471898e+18,91.39518969726562,-227.40067443847656,133.54119567871095,-152.18767700195312,1.688702033746131e+18,91.3941310221354,0.0688395624359448,-0.7907339930534363,-0.3285403152306874,0.5102645556131998,-2.121537129084269,0.4614757200082143,0.5254972775777181
1.45,1.6887020337980372e+18,91.4460372721354,6.858099460601807,-11.29905891418457,-8.183144251505533,1.6887020337980372e+18,91.4460372721354,3.0059834718704224,-16.409778277079266,-0.685144821802775,1.6887020337980372e+18,91.4460372721354,-3.857961893081665,-5.093215465545654,7.435312430063884,1.6887020338066824e+18,91.45468237304688,1.528181231270234,0.1409571518500646,2.2359195152918496,1.6887020338066824e+18,91.45468237304688,1.526908605049054,0.14553864300251,2.2382102409998574,,,,,,,,,,,,1.6887020337971884e+18,91.44518837890624,23.477679443359374,40.26731948852539,-19.022239685058594,1.6887020337971884e+18,91.44518837890624,-231.0631134033203,135.73231811523436,-152.23403930664062,1.6887020337980372e+18,91.4460372721354,0.1027275125185648,-0.7665072679519653,-0.3303344051043193,0.5407213568687439,-2.0475213527679443,0.5406602422396342,0.4788672924041748
1.5,1.6887020338499382e+18,91.49793806966149,1.8889749844868975,-7.653673489888509,-3.0172012646993003,1.6887020338499382e+18,91.49793806966149,-1.223330597082774,-14.352947235107422,3.4761730829874673,1.6887020338499382e+18,91.49793806966149,-3.1181516647338867,-6.681769053141276,6.430686950683594,1.6887020338585956e+18,91.50659537760416,3.896658500035604,-0.8638652563095093,3.1501301924387612,1.6887020338585956e+18,91.50659537760416,3.895436763763428,-0.8593855996926626,3.1523701349894204,,,,,,,,,,,,1.6887020338471905e+18,91.49519038085938,18.153599739074707,44.588558959960935,-13.605439567565918,1.6887020338471905e+18,91.49519038085938,-236.3871948242187,140.05355529785157,-146.817236328125,1.6887020338499382e+18,91.49793806966149,0.1993039846420287,-0.7305155793825785,-0.3538104693094889,0.5477164586385092,-2.020165761311849,0.7473606069882711,0.4187657535076141
1.55,1.6887020339018458e+18,91.5498457845052,2.518595258394877,-10.681696573893229,3.954314390818278,1.6887020339018458e+18,91.5498457845052,0.0747757057348887,-18.780467351277668,8.992626508076986,1.6887020339018458e+18,91.5498457845052,-2.4496655464172363,-8.08126703898112,4.975624402364095,1.688702033901849e+18,91.54984887695312,2.6592490673065186,-1.346117913722992,1.760437309741974,1.688702033901849e+18,91.54984887695312,2.6579511165618896,-1.3416128158569336,1.7627280354499817,,,,,,,,,,,,1.688702033897192e+18,91.54519165039062,11.41919994354248,48.48767929077148,-4.316359961032868,1.688702033897192e+18,91.54519165039062,-243.1215942382813,143.95267639160156,-137.5281555175781,1.6887020339018458e+18,91.5498457845052,0.3072018524010976,-0.6979549328486124,-0.3713165918986003,0.5292355815569559,-2.026868979136149,0.965432067712148,0.3465253412723541
1.6,1.688702033953751e+18,91.60175097656249,4.275477329889934,-3.1244219144185386,7.301586469014485,1.688702033953751e+18,91.60175097656249,2.3716860810915628,-11.805190245310463,11.541381200154625,1.688702033953751e+18,91.60175097656249,-1.9096373716990152,-8.663263956705729,4.177106857299805,1.6887020339451057e+18,91.59310587565103,1.70151420434316,0.7988590399424235,0.9774862130482992,1.6887020339451057e+18,91.59310587565103,1.7002925475438435,0.8033895989259084,0.9796751340230306,,,,,,,,,,,,1.6887020339471846e+18,91.59518471679688,7.285839748382568,49.35387954711914,1.7885199293494225,1.6887020339471846e+18,91.59518471679688,-247.2549560546875,144.81887817382812,-131.42327880859375,1.688702033953751e+18,91.60175097656249,0.3517139156659443,-0.6668789386749268,-0.3903492887814839,0.5281270543734232,-1.994694193204244,1.079291820526123,0.3205629487832387
1.65,1.68870203400566e+18,91.65365991210938,-0.26323930422465,6.175758679707845,1.4940234820048015,1.68870203400566e+18,91.65365991210938,-1.4388840595881145,-2.927020271619161,5.054239749908447,1.68870203400566e+18,91.65365991210938,-1.181490778923035,-9.085274378458658,3.497528870900472,1.6887020339970097e+18,91.64500968424478,1.6178765694300334,0.310115922242403,1.3811153968175252,1.6887020339970097e+18,91.64500968424478,1.616654912630717,0.3146974158783753,1.383406122525533,,,,,,,,,,,,1.6887020339971904e+18,91.645190234375,4.138239955902099,49.312398529052736,6.224440002441407,1.6887020339971904e+18,91.645190234375,-250.40255737304688,144.77739868164062,-126.98735656738282,1.68870203400566e+18,91.65365991210938,0.3896293044090271,-0.6299514770507812,-0.4040430386861165,0.5365926225980123,-1.8907246987024944,1.1799885034561155,0.2394176969925562
1.7,1.6887020340575665e+18,91.70556665039062,-4.988397598266602,8.938382466634115,0.5417207082112631,1.6887020340575665e+18,91.70556665039062,-5.469793081283569,-0.3988037755091985,3.617549101511637,1.6887020340575665e+18,91.70556665039062,-0.4872414867083232,-9.319681803385416,3.0131409962972007,1.6887020340489144e+18,91.69691438802084,1.0842349131902058,0.6378960410753886,1.4175128142038982,1.6887020340489144e+18,91.69691438802084,1.0829622745513916,0.6424266248941422,1.4197017351786296,,,,,,,,,,,,1.6887020340471926e+18,91.695192578125,1.4859599053859711,49.00251922607422,9.64043960571289,1.6887020340471926e+18,91.695192578125,-253.054833984375,144.46751708984374,-123.57135772705078,1.6887020340575665e+18,91.70556665039062,0.4171943962574005,-0.5973019599914551,-0.4103359679381053,0.548296848932902,-1.7277309497197468,1.2479215065638225,0.1003285801659027
1.75,1.6887020341094707e+18,91.7574707845052,-2.259782552719116,9.6222349802653,-0.1654086112976074,1.6887020341094707e+18,91.7574707845052,-2.024128556251526,0.1657029638687769,2.5557339986165366,1.6887020341094707e+18,91.7574707845052,0.2298080573479334,-9.439027468363443,2.65845521291097,1.6887020341008212e+18,91.74882145182292,0.7489207784334818,-0.8943067193031311,1.7236581246058147,1.6887020341008212e+18,91.74882145182292,0.7476990620295206,-0.8897252281506857,1.7258979479471843,,,,,,,,,,,,1.6887020340971912e+18,91.74519111328124,-3.250079989433289,48.494999694824216,12.214639854431152,1.6887020340971912e+18,91.74519111328124,-257.79087829589844,143.96000061035156,-120.99715728759766,1.6887020341094707e+18,91.7574707845052,0.4598047832647959,-0.5810777147610983,-0.3895980417728424,0.5468313495318095,-1.4941786924997966,1.2886210680007937,-0.1821658338109651
1.8,1.6887020341527273e+18,91.80072729492188,-1.166785478591919,9.580931663513184,-1.013942539691925,1.6887020341527273e+18,91.80072729492188,-0.8419744670391083,0.1016949601471423,1.6193427443504331,1.6887020341527273e+18,91.80072729492188,0.3189650475978851,-9.461731910705566,2.570597887039185,1.6887020341527273e+18,91.80072737630208,0.1515454848607381,-0.9301441113154092,-0.0691295936703682,1.6887020341527273e+18,91.80072737630208,0.1503237585226694,-0.925613562266032,-0.0668897355596224,1.6887020341700293e+18,91.818029296875,0.0,0.0,1.0001047849655151,7.0370001792907715,1.4640125036239624,273.44989013671875,42.60000228881836,-122.7560759,49.1906148,1.688702034147193e+18,91.79519331054688,-6.668519973754883,48.1826789855957,13.246759605407714,1.688702034147193e+18,91.79519331054688,-261.2093139648438,143.6476806640625,-119.96503601074218,1.6887020341527273e+18,91.80072729492188,0.4749061316251755,-0.5848539769649506,-0.3786195367574692,0.5376251637935638,-1.4628627300262451,1.296519756317139,-0.2529375851154327
1.85,1.688702034195982e+18,91.84398209635415,3.999451875686647,2.252006689707438,-1.3424743016560872,1.688702034195982e+18,91.84398209635415,3.3409787019093833,-7.119644482930503,1.518844226996104,1.688702034195982e+18,91.84398209635415,-0.6643195437888304,-9.35414695739746,2.7986311117808023,1.6887020342046298e+18,91.85262955729168,-1.8129462003707888,-9.210626284281412,-0.4500040610631307,1.6887020342046298e+18,91.85262955729168,-1.8141679763793943,-9.206095695495604,-0.4477133353551227,,,,,,,,,,,,1.6887020341971894e+18,91.84518930664062,-6.158559799194336,48.78291931152344,11.153239631652832,1.6887020341971894e+18,91.84518930664062,-260.69935302734376,144.24791564941407,-122.05855865478516,1.688702034195982e+18,91.84398209635415,0.4795935750007629,-0.6461429397265116,-0.3405268291632334,0.481103499730428,-1.7969253460566204,1.258210301399231,-0.0840745365712791
1.9,1.688702034247888e+18,91.89588826497396,24.625105539957683,-16.6009620030721,4.879900614420573,1.688702034247888e+18,91.89588826497396,23.14816649754842,-25.714269002278645,8.293323675791422,1.688702034247888e+18,91.89588826497396,-1.4827863375345869,-9.095803260803224,3.3507351875305176,1.688702034256539e+18,91.9045389811198,-1.710117223362128,-2.318895290295283,0.1907426416873931,1.688702034256539e+18,91.9045389811198,-1.7113389844695728,-2.314364731311798,0.1929825544357299,,,,,,,,,,,,1.688702034247186e+18,91.89518603515624,-11.355759811401366,48.69995880126953,2.442439964413643,1.688702034247186e+18,91.89518603515624,-265.8965576171875,144.16495361328126,-130.76935729980468,1.688702034247888e+18,91.89588826497396,0.5360281864802042,-0.7385298808415731,-0.1817211757103602,0.3654260436693827,-2.0016841491063437,1.1813041766484578,-0.3290260881185531
1.95,1.6887020342997906e+18,91.94779069010416,1.5124324560165403,-7.391104698181152,8.271116256713867,1.6887020342997906e+18,91.94779069010416,-0.2476570606231689,-16.401204109191895,11.83310635884603,1.6887020342997906e+18,91.94779069010416,-1.7659356196721394,-8.992595354715982,3.4993021488189697,1.688702034308441e+18,91.95644124348958,1.0135781367619832,4.148080507914226,-1.3634003003438313,1.688702034308441e+18,91.95644124348958,1.012356420358022,4.152611096700032,-1.3611604770024617,,,,,,,,,,,,1.6887020342971912e+18,91.94519125976562,-9.750239658355714,49.417317962646486,0.1390799880027771,1.6887020342971912e+18,91.94519125976562,-264.29103393554686,144.88231506347657,-133.07271728515624,1.6887020342997906e+18,91.94779069010416,0.5119381050268809,-0.7432818015416464,-0.199958657224973,0.3801086843013763,-2.047454913457235,1.15294353167216,-0.228390946984291
2.0,1.6887020343516948e+18,91.99969474283851,-0.748143196105957,4.773765563964844,1.299544334411621,1.6887020343516948e+18,91.99969474283851,-2.5076781113942466,-4.2004008293151855,4.952345371246338,1.6887020343516948e+18,91.99969474283851,-1.76538089911143,-8.956661860148111,3.590113639831543,1.6887020343516997e+18,91.99969970703124,0.3972151279449463,3.2433890104293823,-1.915597081184387,1.6887020343516997e+18,91.99969970703124,0.3959170430898666,3.247970461845398,-1.913382709026337,,,,,,,,,,,,1.688702034347189e+18,91.9951890625,-4.809239864349365,49.7101188659668,3.891800022125244,1.688702034347189e+18,91.9951890625,-259.35003662109375,145.17511596679688,-129.31999816894532,1.6887020343516948e+18,91.99969474283851,0.4616051216920216,-0.7161178588867188,-0.2815972169240315,0.440595805644989,-2.032407601674398,1.142836610476176,-0.0089882908699413
2.05,1.6887020344036055e+18,92.0516053873698,-0.1563887993494669,6.381693363189697,-0.8373889923095704,1.6887020344036055e+18,92.0516053873698,-2.083949089050293,-2.490729014078776,2.9770700931549072,1.6887020344036055e+18,92.0516053873698,-1.933406313260396,-8.854917844136557,3.751771688461304,1.6887020343949537e+18,92.04295385742188,0.2573269853989283,2.8040751616160073,-1.3723596731821697,1.6887020343949537e+18,92.04295385742188,0.2560034394264221,2.808554728825887,-1.370068947474162,,,,,,,,,,,,1.6887020343971878e+18,92.04518784179687,-0.1073599934577941,49.62959899902344,5.751079845428467,1.6887020343971878e+18,92.04518784179687,-254.64815673828124,145.09459838867187,-127.4607177734375,1.6887020344036055e+18,92.0516053873698,0.4122797151406606,-0.697317103544871,-0.3379412690798442,0.4786685903867085,-2.04807448387146,1.117279688517253,0.1754337400197982
2.1,1.6887020344555118e+18,92.1035118001302,-1.5484370787938435,-1.6079295476277669,2.435520648956299,1.6887020344555118e+18,92.1035118001302,-3.4025937716166177,-10.16171964009603,6.951947371164958,1.6887020344555118e+18,92.1035118001302,-1.8600027163823445,-8.536285400390625,4.453739325205485,1.6887020344468616e+18,92.09486157226564,-1.3216578563054402,2.3477587699890137,-0.6506224125623704,1.6887020344468616e+18,92.09486157226564,-1.322879632314046,2.352238416671753,-0.6483825619022051,,,,,,,,,,,,1.6887020344471867e+18,92.09518676757811,3.425759935379028,49.52467880249024,3.899119901657104,1.6887020344471867e+18,92.09518676757811,-251.1150360107422,144.98967895507812,-129.31267700195312,1.6887020344555118e+18,92.1035118001302,0.3593884607156117,-0.6851416428883871,-0.3563684324423472,0.5235398014386495,-1.968244711558024,1.0468237002690632,0.2268513689438501
2.15,1.6887020345074102e+18,92.1554102376302,-0.2600799004236857,3.051820437113444,-2.181188583374023,1.6887020345074102e+18,92.1554102376302,-1.6171493132909138,-5.30289363861084,2.8654050827026367,1.6887020345074102e+18,92.1554102376302,-1.3629154364267986,-8.337209383646647,4.983906269073486,1.6887020344987625e+18,92.14676245117188,-0.8470664819081625,0.6779077053070068,0.8084292610486349,1.6887020344987625e+18,92.14676245117188,-0.8483391006787618,0.6824383040269214,0.8106690843900045,,,,,,,,,,,,1.688702034497184e+18,92.14518393554688,3.9479199409484864,49.79795837402344,0.9881999745965004,1.688702034497184e+18,92.14518393554688,-250.59287719726564,145.26295776367186,-132.22359619140624,1.6887020345074102e+18,92.1554102376302,0.3446891506512959,-0.6739320357640585,-0.3417350153128306,0.5569024682044983,-1.84028426806132,1.0068975885709126,0.1444892560442288
2.2,1.688702034559316e+18,92.20731599934896,-0.5358420213063557,1.4133440653483074,-3.175636370976766,1.688702034559316e+18,92.20731599934896,-1.8295122782389324,-6.609574317932129,2.4011975129445395,1.688702034559316e+18,92.20731599934896,-1.2995162804921467,-8.005413691202799,5.514146486918132,1.6887020345506673e+18,92.1986670735677,-1.4298828442891438,-0.1476766690611839,-0.2051489154497782,1.6887020345506673e+18,92.1986670735677,-1.43110454082489,-0.1431460852424303,-0.2029090722401937,,,,,,,,,,,,1.6887020345471872e+18,92.19518710937498,1.8275599479675293,49.83211975097656,-1.9129599332809448,1.6887020345471872e+18,92.19518710937498,-252.71323852539064,145.2971160888672,-135.1247589111328,1.688702034559316e+18,92.20731599934896,0.3289091785748799,-0.6832519769668579,-0.3177685439586639,0.5690918366114298,-1.804792602856954,0.9462499022483826,0.1022066697478293
2.25,1.6887020346025797e+18,92.25057971191406,-0.3670459389686585,-2.14076566696167,-3.338675856590271,1.6887020346025797e+18,92.25057971191406,-2.4191436767578125,-9.755239009857178,2.573480725288391,1.6887020346025797e+18,92.25057971191406,-2.0579437613487244,-7.596968650817871,5.849469184875488,1.6887020346025746e+18,92.25057462565104,-1.3290900389353435,-2.5494460662206015,-1.4309518337249756,1.6887020346025746e+18,92.25057462565104,-1.3303117752075195,-2.5449664990107217,-1.428712010383606,,,,,,,,,,,,1.6887020345971884e+18,92.24518833007812,4.67992000579834,49.30263900756836,-5.8193999290466305,1.6887020345971884e+18,92.24518833007812,-249.86087646484376,144.76763916015625,-139.03119506835938,1.6887020346025797e+18,92.25057971191406,0.3060958087444305,-0.7183324992656708,-0.3008769601583481,0.5473063588142395,-1.9107813239097595,0.8775480091571808,0.1522468551993369
2.3,1.688702034645833e+18,92.29383308919267,2.27569842338562,-4.3898725509643555,-2.9650655587514243,1.688702034645833e+18,92.29383308919267,-1.298704465230306,-11.42871888478597,2.9072795708974204,1.688702034645833e+18,92.29383308919267,-3.580248912175497,-7.021341641743978,5.809657732645671,1.6887020346544886e+18,92.30248852539064,-1.7890206575393677,-4.692463080088298,-2.0108666022618613,1.6887020346544886e+18,92.30248852539064,-1.7902424335479736,-4.687881628672282,-2.008626699447632,,,,,,,,,,,,1.6887020346471936e+18,92.29519365234374,10.767719745635986,47.99235916137695,-8.13007984161377,1.6887020346471936e+18,92.29519365234374,-243.7730743408203,143.4573547363281,-141.34187927246094,1.688702034645833e+18,92.29383308919267,0.2862483362356822,-0.7807409564654032,-0.2723345359166463,0.48271045088768,-2.121925592422486,0.7903311053911845,0.2115835050741831
2.35,1.688702034697736e+18,92.34573575846356,26.177696863810223,-10.193164189656576,0.6774520874023438,1.688702034697736e+18,92.34573575846356,20.05723778406779,-15.579668362935385,6.102894147237142,1.688702034697736e+18,92.34573575846356,-6.1263054211934405,-5.369000593821208,5.362754503885905,1.6887020347063905e+18,92.35439021809896,-0.4346305926640828,2.5165104071299234,-6.738963445027669,1.6887020347063905e+18,92.35439021809896,-0.4358523686726888,2.52109185854594,-6.73672358194987,1.6887020346890885e+18,92.33708813476562,0.0,0.0,1.0001047849655151,7.315000057220459,1.465912938117981,274.0483093261719,42.60000228881836,-122.7560935,49.1906162,1.6887020346971878e+18,92.34518779296874,23.0604398727417,43.37099914550781,-8.632719802856446,1.6887020346971878e+18,92.34518779296874,-231.48035278320313,138.83599548339845,-141.84451599121093,1.688702034697736e+18,92.34573575846356,0.2022492786248524,-0.8647613724072775,-0.2553731352090835,0.3770850698153178,-2.4195967515309653,0.5747464100519816,0.3491485317548116
2.4,1.6887020347496428e+18,92.39764290364585,-7.368494669596355,-6.853258768717448,-4.982897917429606,1.6887020347496428e+18,92.39764290364585,-11.883554776509603,-11.435299555460611,2.442274252573649,1.6887020347496428e+18,92.39764290364585,-4.520906050999959,-4.5645365715026855,7.362484773000081,1.688702034758288e+18,92.40628816731773,1.7219273447990415,5.438533504803975,0.0849611883362134,1.688702034758288e+18,92.40628816731773,1.7207055886586506,5.443063775698344,0.0872010178864002,,,,,,,,,,,,1.6887020347471867e+18,92.39518662109376,27.501239395141603,38.642279052734374,-17.41671962738037,1.6887020347471867e+18,92.39518662109376,-227.0395538330078,134.1072784423828,-150.6285186767578,1.6887020347496428e+18,92.39764290364585,0.0764315848549206,-0.7877274751663208,-0.3296813368797302,0.5119900107383728,-2.1179829438527427,0.4778209825356801,0.5197837054729462
2.45,1.6887020348015503e+18,92.44955021158852,6.557328224182129,-8.089564800262451,-8.246093908945719,1.6887020348015503e+18,92.44955021158852,2.558525641759237,-13.085549036661783,-0.7411768088738123,1.6887020348015503e+18,92.44955021158852,-4.0046482880910235,-4.9784800211588545,7.442229747772217,1.6887020348015524e+18,92.44955236816406,-0.7880925238132477,-2.415361166000366,2.14039546251297,1.6887020348015524e+18,92.44955236816406,-0.7893142700195312,-2.410856008529663,2.142686188220978,,,,,,,,,,,,1.6887020347971886e+18,92.44518847656248,23.567959594726563,40.08675994873047,-18.70015983581543,1.6887020347971886e+18,92.44518847656248,-230.97283630371095,135.5517608642578,-151.91195373535157,1.6887020348015503e+18,92.44955021158852,0.0981098537643749,-0.7723433375358582,-0.3279851774374643,0.5345688660939535,-2.0631914933522544,0.5265199939409891,0.4834016362826029
2.5,1.688702034853456e+18,92.50145581054689,0.8566957314809164,-8.459245681762695,-5.682406902313232,1.688702034853456e+18,92.50145581054689,-2.325424830118815,-14.434303919474283,1.4695918957392375,1.688702034853456e+18,92.50145581054689,-3.1879665851593018,-5.957553704579671,7.089311440785726,1.6887020348447982e+18,92.49279809570312,2.3080525398254395,1.058527648448944,2.14958393573761,1.6887020348447982e+18,92.49279809570312,2.30677992105484,1.0630582471688588,2.151874661445618,,,,,,,,,,,,1.688702034847186e+18,92.4951859375,18.978319549560545,42.926919555664064,-16.98727951049805,1.688702034847186e+18,92.4951859375,-235.5624786376953,138.3919189453125,-150.19907836914064,1.688702034853456e+18,92.50145581054689,0.1618116448322931,-0.7462007800738016,-0.3251833617687225,0.5571327805519104,-1.992113987604777,0.6489161849021912,0.3926727970441182
2.55,1.6887020349053594e+18,92.5533594563802,2.60828161239624,-8.92076031366984,-0.4925599892934164,1.6887020349053594e+18,92.5533594563802,0.0823529660701751,-16.48395601908366,5.277569691340129,1.6887020349053594e+18,92.5533594563802,-2.5317746798197427,-7.54569149017334,5.707442283630371,1.6887020348967055e+18,92.54470540364582,3.4636058807373047,-1.384271542231242,2.7628417015075684,1.6887020348967055e+18,92.54470540364582,3.4623842239379883,-1.3796900510787964,2.7650306224823,,,,,,,,,,,,1.6887020348971932e+18,92.5451931640625,12.61479969024658,47.37503967285157,-9.428159713745115,1.6887020348971932e+18,92.5451931640625,-241.92599182128907,142.8400390625,-142.63995971679688,1.6887020349053594e+18,92.5533594563802,0.2729897002379099,-0.7133147517840067,-0.347370704015096,0.5431539416313171,-1.98813529809316,0.8750590880711874,0.3156378467877705
2.6,1.6887020349572687e+18,92.6052685546875,4.369885126749675,-8.516427675882975,7.005287488301595,1.6887020349572687e+18,92.6052685546875,2.404786785443624,-16.981264114379883,11.639686584472656,1.6887020349572687e+18,92.6052685546875,-1.9709443251291912,-8.447332382202148,4.57171106338501,1.6887020349486177e+18,92.59661767578125,2.2415699561436973,0.190742681423823,1.2694288889567058,1.6887020349486177e+18,92.59661767578125,2.240348299344381,0.1952732602755228,1.2717196146647136,,,,,,,,,,,,1.6887020349471918e+18,92.59519174804689,7.441999912261963,49.23919830322266,-1.7323999881744383,1.6887020349471918e+18,92.59519174804689,-247.0987976074219,144.70419921875,-134.94419860839844,1.6887020349572687e+18,92.6052685546875,0.3437098960081736,-0.6820366581281027,-0.368186742067337,0.5299374461174011,-1.9760022560755417,1.0339536666870115,0.2726658880710602
2.65,1.6887020350091702e+18,92.65717008463542,1.3352156678835552,3.10738468170166,3.8488303820292153,1.6887020350091702e+18,92.65717008463542,-0.1008973717689514,-5.815755446751912,7.755138238271077,1.6887020350091702e+18,92.65717008463542,-1.4419591029485066,-8.905635515848795,3.8436203002929688,1.68870203500052e+18,92.64851993815104,1.9286034107208252,1.1109093725681305,0.4885394821564356,1.68870203500052e+18,92.64851993815104,1.927330772082011,1.1154908339182537,0.4906775057315826,,,,,,,,,,,,1.6887020349971868e+18,92.64518671875,6.336679840087891,49.47587966918945,3.0499999284744264,1.6887020349971868e+18,92.64518671875,-248.20411682128903,144.9408752441406,-130.16179504394532,1.6887020350091702e+18,92.65717008463542,0.3669486145178477,-0.6409464478492737,-0.4034884075323741,0.539933959643046,-1.9268577098846436,1.134415864944458,0.2899776995182037
2.7,1.6887020350524175e+18,92.70041760253908,-2.527141571044922,7.447434425354004,0.3883807659149169,1.6887020350524175e+18,92.70041760253908,-3.612264990806579,-1.7527426481246948,3.7235312461853023,1.6887020350524175e+18,92.70041760253908,-1.090969443321228,-9.182672500610352,3.272463083267212,1.6887020350524183e+18,92.70041829427085,1.4039719502131145,0.1820887476205825,0.9273443420728048,1.6887020350524183e+18,92.70041829427085,1.4026993115743,0.1866702437400818,0.9295842051506042,,,,,,,,,,,,1.688702035047183e+18,92.69518305664064,4.635999870300293,48.98543853759766,7.434679889678955,1.688702035047183e+18,92.69518305664064,-249.90479431152343,144.4504364013672,-125.77711791992188,1.6887020350524175e+18,92.70041760253908,0.3908432424068451,-0.6167677938938141,-0.4189867973327636,0.5396756231784821,-1.8901795148849487,1.2065300345420835,0.2696038633584976
2.75,1.6887020350956762e+18,92.74367602539064,-3.999168554941813,9.29167111714681,0.1963435808817545,1.6887020350956762e+18,92.74367602539064,-4.618147691090901,-0.0897308525939782,3.1068808237711587,1.6887020350956762e+18,92.74367602539064,-0.624825100104014,-9.363897641499838,2.8478498458862305,1.6887020351043254e+18,92.75232543945312,0.7944302558898926,-1.2105822165807087,1.9513580799102783,1.6887020351043254e+18,92.75232543945312,0.7931576172510783,-1.2061025301615398,1.953597942988078,,,,,,,,,,,,1.6887020350971835e+18,92.74518354492189,0.9271999821066856,48.67311935424805,11.380159759521485,1.6887020350971835e+18,92.74518354492189,-253.61359558105468,144.13811645507812,-121.83163909912108,1.6887020350956762e+18,92.74367602539064,0.4264808595180511,-0.6037126779556274,-0.4100839694341023,0.5340172052383423,-1.7861274480819702,1.263044555981954,0.1282016200323899
2.8,1.6887020351475814e+18,92.79558129882814,-1.785967191060384,9.350707372029625,-0.3431195418039958,1.6887020351475814e+18,92.79558129882814,-1.7986050049463909,-0.1050847955048083,2.3924238681793213,1.6887020351475814e+18,92.79558129882814,-0.0184838284427921,-9.438287734985352,2.672856012980143,1.6887020351562314e+18,92.80423168945312,0.0805833078920841,-0.3102686454852422,0.8470664620399475,1.6887020351562314e+18,92.80423168945312,0.0793615765869617,-0.3057380566994349,0.8493572175502777,,,,,,,,,,,,1.688702035147183e+18,92.7951830078125,-4.709199905395508,48.38275909423828,12.439119720458985,1.688702035147183e+18,92.7951830078125,-259.2499938964844,143.8477569580078,-120.77267761230468,1.6887020351475814e+18,92.79558129882814,0.4631046950817108,-0.5955419937769572,-0.3842585384845733,0.5321376721064249,-1.5877312421798706,1.2889057000478108,-0.1268650218844413
2.85,1.6887020351994872e+18,92.84748714192706,-2.465786814689636,8.805242856343588,-2.2109891970952353,1.6887020351994872e+18,92.84748714192706,-2.585245450337728,-0.6055835137764612,0.6664011279741923,1.6887020351994872e+18,92.84748714192706,-0.1253046647955974,-9.393321990966797,2.8147029081980386,1.6887020352081364e+18,92.85613639322918,-0.9835948348045348,-3.7436368068059287,-1.2484558696548145,1.6887020352081364e+18,92.85613639322918,-0.9848166157801946,-3.7391062577565513,-1.2462160388628645,1.6887020352081367e+18,92.85613671875,0.0,0.0,1.010494589805603,7.439000129699707,1.4693087339401243,274.3568420410156,42.60000228881836,-122.7560988,49.1906168,1.68870203519718e+18,92.84517978515626,-5.8633198738098145,48.48035888671875,12.009679794311523,1.68870203519718e+18,92.84517978515626,-260.40411987304685,143.9453552246094,-121.20211791992188,1.6887020351994872e+18,92.84748714192706,0.4677942097187041,-0.6103150248527527,-0.3681445320447286,0.5222513874371847,-1.6245729525883992,1.272244215011597,-0.1363950297236442
2.9,1.6887020352513925e+18,92.89939233398438,22.818850835164387,-13.629560152689615,2.898824135462443,1.6887020352513925e+18,92.89939233398438,20.924436569213867,-22.74836540222168,6.081159512201945,1.6887020352513925e+18,92.89939233398438,-1.9002612431844077,-9.101300875345864,3.1196479002634683,1.688702035251396e+18,92.89939611816408,-2.3541983366012573,-11.13393521308899,1.0219011902809143,1.688702035251396e+18,92.89939611816408,-2.3554199934005737,-11.129353761672974,1.024191930890083,,,,,,,,,,,,1.688702035247185e+18,92.89518481445312,-5.895039987564087,49.31483917236328,5.83159990310669,1.688702035247185e+18,92.89518481445312,-260.4358337402344,144.77983703613282,-127.38019714355468,1.6887020352513925e+18,92.89939233398438,0.4979456166426341,-0.7318822344144186,-0.2472907503445942,0.3877347608407338,-2.125176191329956,1.1822220881779988,-0.0632517623404661
2.95,1.688702035303299e+18,92.95129915364583,3.4146206378936768,-15.77055295308431,8.961647033691406,1.688702035303299e+18,92.95129915364583,1.333599845568339,-24.74078941345215,12.449058850606283,1.688702035303299e+18,92.95129915364583,-2.086866855621338,-8.952733039855957,3.4247241020202637,1.6887020352946476e+18,92.9426476236979,-0.3191770911216735,1.0690141916275024,-0.570904495815436,1.6887020352946476e+18,92.9426476236979,-0.3203988124926884,1.073595643043518,-0.568715530137221,,,,,,,,,,,,1.6887020352971832e+18,92.94518330078124,-7.700639915466309,49.56371841430664,0.9393999829888344,1.6887020352971832e+18,92.94518330078124,-262.24144287109374,145.02871398925782,-132.27239685058595,1.688702035303299e+18,92.95129915364583,0.5053199827671051,-0.7540346582730612,-0.2008711298306782,0.3677862286567688,-2.1264495849609375,1.143893877665202,-0.1668712397416432
3.0,1.6887020353552148e+18,93.0032147623698,-0.822505513827006,3.5656332969665527,1.5509110291798909,1.6887020353552148e+18,93.0032147623698,-2.673181692759196,-5.446662425994873,5.0588258902231855,1.6887020353552148e+18,93.0032147623698,-1.8565222024917605,-8.994791030883789,3.445227305094401,1.6887020353465618e+18,92.99456184895833,0.7869471510251363,3.887546380360922,-0.7886779507001241,1.6887020353465618e+18,92.99456184895833,0.7857254346211752,3.89202610651652,-0.7863872150580088,,,,,,,,,,,,1.6887020353471898e+18,92.99518969726564,-4.872679901123047,49.59299850463867,3.3793999671936037,1.6887020353471898e+18,92.99518969726564,-259.4134765625,145.05799865722656,-129.8323974609375,1.6887020353552148e+18,93.0032147623698,0.4736239512761434,-0.7236660321553549,-0.2701140741507212,0.4221708675225575,-2.0709834893544516,1.1539172728856404,-0.0221426080291469
3.05,1.688702035407118e+18,93.05511791992188,-0.1984838048617045,8.532990455627441,-2.012336572011312,1.688702035407118e+18,93.05511791992188,-1.5754742821057637,-0.5720840096473694,1.474178155263265,1.688702035407118e+18,93.05511791992188,-1.3828365008036296,-9.087569872538248,3.423827250798543,1.6887020353984653e+18,93.04646525065104,0.8132143616676331,3.2191580136617026,-0.0446949736991276,1.6887020353984653e+18,93.04646525065104,0.8119417230288187,3.2237394650777182,-0.0424042299079398,,,,,,,,,,,,1.688702035397187e+18,93.0451869140625,-3.3061999320983886,49.749158477783205,6.187839794158935,1.688702035397187e+18,93.0451869140625,-257.84699096679685,145.2141571044922,-127.02395782470704,1.688702035407118e+18,93.05511791992188,0.4495312074820201,-0.6826440890630087,-0.3262610932191213,0.4743558168411255,-1.9599936405817668,1.177683432896932,0.0493841270605722
3.1,1.688702035459023e+18,93.10702327473956,-0.4357647895812988,0.9165232976277672,2.3601152102152505,1.688702035459023e+18,93.10702327473956,-1.7096718152364094,-8.01077143351237,6.306084871292114,1.688702035459023e+18,93.10702327473956,-1.279753049214681,-8.9097900390625,3.8832821051279702,1.6887020354503729e+18,93.09837263997396,-1.420058062300086,1.5262468059857686,-0.7147123515605927,1.6887020354503729e+18,93.09837263997396,-1.421381591508786,1.5307265122731526,-0.7124724785486857,,,,,,,,,,,,1.688702035447193e+18,93.09519316406252,-2.5131999254226685,49.612518310546875,6.9491198539733885,1.688702035447193e+18,93.09519316406252,-257.05400390625,145.0775146484375,-126.26267700195312,1.688702035459023e+18,93.10702327473956,0.4127853512763977,-0.6699300607045492,-0.344146579504013,0.5118296146392822,-1.8949819405873616,1.133088191350301,0.0913907761375109
3.15,1.688702035502275e+18,93.15027526855472,0.1688445806503296,-2.94368839263916,2.3181676864624023,1.688702035502275e+18,93.15027526855472,-1.4682958126068115,-11.457133769989014,7.000800848007202,1.688702035502275e+18,93.15027526855472,-1.6429864168167114,-8.495940685272217,4.619945526123047,1.6887020355022817e+18,93.15028157552082,-1.0476339322825272,-0.3898338451981544,-1.0721702973047893,1.6887020355022817e+18,93.15028157552082,-1.0488556331644456,-0.3854050611456235,-1.069981376330058,,,,,,,,,,,,1.6887020354971914e+18,93.14519140625,0.6783200144767761,49.68571853637695,2.117919993400574,1.6887020354971914e+18,93.14519140625,-253.8624725341797,145.15072021484374,-131.09387817382813,1.688702035502275e+18,93.15027526855472,0.3743079453706741,-0.6906373500823975,-0.3296771347522735,0.5236372649669647,-1.9158461093902588,1.0397469401359558,0.125287190079689
3.2,1.6887020355455352e+18,93.1935352376302,1.2080995639165242,3.991812864939371,-2.02657159169515,1.6887020355455352e+18,93.1935352376302,-0.9826525251070658,-4.355734904607137,2.723430951436361,1.6887020355455352e+18,93.1935352376302,-2.1965980927149453,-8.330043156941732,4.687315146128337,1.6887020355541865e+18,93.2021865234375,-0.8756753404935201,-0.5157229776183764,-1.2767592668533323,1.6887020355541865e+18,93.2021865234375,-0.8768970568974813,-0.5111415137847265,-1.274519403775533,,,,,,,,,,,,1.6887020355471887e+18,93.19518891601562,3.506279945373535,49.82967987060547,0.71735999584198,1.6887020355471887e+18,93.19518891601562,-251.03451538085935,145.2946807861328,-132.49443359375,1.6887020355455352e+18,93.1935352376302,0.3592692812283833,-0.7105380098025004,-0.3300807575384775,0.506926973660787,-2.010579228401184,1.0070113738377888,0.1967939088741938
3.25,1.6887020355974418e+18,93.24544189453124,1.0386083523432414,0.6070868174235026,-2.2848989168802896,1.6887020355974418e+18,93.24544189453124,-1.747358759244283,-7.262814839680989,2.947159926096598,1.6887020355974418e+18,93.24544189453124,-2.7918131351470947,-7.852396965026856,5.169371445973714,1.6887020356060856e+18,93.25408553059896,-1.316312829653422,-0.2656245628992716,-1.1907800038655598,1.6887020356060856e+18,93.25408553059896,-1.3175344864527383,-0.2610430866479873,-1.1885401407877605,,,,,,,,,,,,1.688702035597189e+18,93.24518896484376,7.156519794464112,49.4368392944336,-1.8446399807929992,1.688702035597189e+18,93.24518896484376,-247.38427734375,144.90183715820314,-135.05643310546876,1.6887020355974418e+18,93.24544189453124,0.3203207949797312,-0.7344006697336832,-0.3234845002492268,0.5032419959704081,-2.0668609142303467,0.9209468166033428,0.2548804978529612
3.3,1.6887020356493445e+18,93.29734431966146,1.3778870503107707,-2.5336828231811523,-2.580922524134318,1.6887020356493445e+18,93.29734431966146,-2.096112688382467,-9.877771377563477,2.991626501083374,1.6887020356493445e+18,93.29734431966146,-3.4798457622528076,-7.326583862304688,5.5098616282145185,1.6887020356580006e+18,93.30600065104166,-1.5818864504496255,-2.04069717725118,-0.9764681061108909,1.6887020356580006e+18,93.30600065104166,-1.5831081867218018,-2.036166548728943,-0.9742791453997294,,,,,,,,,,,,1.6887020356471895e+18,93.29518955078125,10.235799789428713,48.72191848754883,-4.926359939575195,1.6887020356471895e+18,93.29518955078125,-244.30499572753905,144.18691711425782,-138.13815612792968,1.6887020356493445e+18,93.29734431966146,0.2913632690906524,-0.7655287981033325,-0.3046192228794098,0.4857491155465444,-2.134209712346395,0.8364502787590027,0.2767055332660675
3.35,1.68870203570125e+18,93.3492499186198,3.656698703765869,-6.734606901804606,-1.6573143005371094,1.68870203570125e+18,93.3492499186198,-1.2095718396206696,-13.282758076985678,3.810171127319336,1.68870203570125e+18,93.3492499186198,-4.872116565704346,-6.5306464831034345,5.4047980308532715,1.688702035701253e+18,93.3492530517578,-2.069076895713806,-4.935333013534546,-1.8561903834342957,1.688702035701253e+18,93.3492530517578,-2.070298671722412,-4.930827856063843,-1.8538996279239657,,,,,,,,,,,,1.688702035697188e+18,93.34518808593752,13.637159729003908,47.54095993041992,-8.020279884338379,1.688702035697188e+18,93.34518808593752,-240.90363464355468,143.0059600830078,-141.2320770263672,1.68870203570125e+18,93.3492499186198,0.2682653864224751,-0.8261847893397013,-0.2579841514428456,0.4202826023101806,-2.3016344706217446,0.7225775122642517,0.2688234150409698
3.4,1.6887020357531594e+18,93.4011591796875,24.696990172068272,-11.94382349650065,0.4725407759348551,1.6887020357531594e+18,93.4011591796875,18.188643137613933,-16.766108830769856,5.9712889194488525,1.6887020357531594e+18,93.4011591796875,-6.514193852742513,-4.804781277974446,5.436060746510823,1.688702035744504e+18,93.39250415039062,-0.4176282286643982,2.1637865702311205,-4.8716502984364825,1.688702035744504e+18,93.39250415039062,-0.4188499252001444,2.168266296386719,-4.869359572728475,1.6887020357272018e+18,93.37520190429689,0.0,0.0,1.010494589805603,7.666999816894531,1.471739649772644,274.9125671386719,42.60000228881836,-122.7561175,49.1906178,1.688702035747193e+18,93.39519301757812,24.97827911376953,42.26079788208008,-9.606279754638672,1.688702035747193e+18,93.39519301757812,-229.56251525878903,137.72579345703124,-142.81807556152344,1.6887020357531594e+18,93.4011591796875,0.1654287527004877,-0.8743745883305868,-0.2597044954697291,0.3679553667704264,-2.4472777048746743,0.5058603982130686,0.393058309952418
3.45,1.6887020358050673e+18,93.45306722005208,-4.526016712188721,-7.961823463439941,-7.180634260177612,1.6887020358050673e+18,93.45306722005208,-8.579465548197428,-13.236496607462565,0.0865404407183329,1.6887020358050673e+18,93.45306722005208,-4.059294939041138,-5.257168451944987,7.204487164815267,1.6887020357964147e+18,93.4444148763021,1.6584482590357463,5.920047601064046,0.897055596113205,1.6887020357964147e+18,93.4444148763021,1.6572265028953552,5.924578348795573,0.899295449256897,,,,,,,,,,,,1.688702035797192e+18,93.44519184570312,22.26499938964844,41.78499908447266,-17.067799758911132,1.688702035797192e+18,93.44519184570312,-232.27579650878903,137.2499969482422,-150.27959594726562,1.6887020358050673e+18,93.45306722005208,0.126150702436765,-0.7783906658490499,-0.3181015948454539,0.5256744424502054,-2.0824140707651773,0.5598782300949097,0.441862940788269
3.5,1.688702035856971e+18,93.50497102864584,12.493395964304606,-9.312430699666342,-4.040651957194011,1.688702035856971e+18,93.50497102864584,8.373882293701172,-15.206786473592125,2.6939194202423096,1.688702035856971e+18,93.50497102864584,-4.1253593762715655,-5.8768510818481445,6.671883900960286,1.688702035848317e+18,93.49631665039064,0.9544260452191036,-2.5841127038002014,1.331380844116211,1.688702035848317e+18,93.49631665039064,0.9532043039798735,-2.579633047183355,1.3335697650909424,,,,,,,,,,,,1.6887020358471882e+18,93.49518823242188,19.798159408569337,43.27827835083008,-15.38175983428955,1.6887020358471882e+18,93.49518823242188,-234.74263610839844,138.74327697753907,-148.59355773925782,1.688702035856971e+18,93.50497102864584,0.1762744883696238,-0.7824210921923319,-0.3141536315282185,0.5074142018953959,-2.1245272159576416,0.637335479259491,0.400163471698761
3.55,1.6887020359088737e+18,93.55687337239584,-0.2711184819539388,-6.685394128163655,-0.5480122566223145,1.6887020359088737e+18,93.55687337239584,-3.2372896671295166,-14.117653528849283,5.166303475697835,1.6887020359088737e+18,93.55687337239584,-2.972017208735148,-7.414754549662272,5.651628335316976,1.6887020359002222e+18,93.54822216796876,4.130212704340617,1.7401005911330385,2.592512051264445,1.6887020359002222e+18,93.54822216796876,4.128990809122722,1.7446311527940754,2.5947519143422446,,,,,,,,,,,,1.688702035897191e+18,93.54519057617188,14.986479949951171,46.79431915283203,-9.132919883728029,1.688702035897191e+18,93.54519057617188,-239.5543182373047,142.2593200683594,-142.34471435546874,1.6887020359088737e+18,93.55687337239584,0.2592619657516479,-0.7238271832466125,-0.3574268321196238,0.5289934674898783,-2.053382317225138,0.8547715743382772,0.3791845639546712
3.6,1.6887020359521357e+18,93.6001358642578,1.2982112169265747,-6.648062705993652,3.3835225105285645,1.6887020359521357e+18,93.6001358642578,-1.068395309150219,-14.98624849319458,8.067102432250977,1.6887020359521357e+18,93.6001358642578,-2.37245261669159,-8.320681095123291,4.620892286300659,1.6887020359521293e+18,93.60012923177084,1.6848681171735127,-1.338100334008535,1.7217236359914143,1.6887020359521293e+18,93.60012923177084,1.6835954984029131,-1.3335188229878745,1.7239635388056438,,,,,,,,,,,,1.688702035947187e+18,93.59518686523435,9.125599670410155,49.144039154052734,-1.1785199701786042,1.688702035947187e+18,93.59518686523435,-245.41519470214843,144.60903625488282,-134.39032287597655,1.6887020359521357e+18,93.6001358642578,0.3310136646032333,-0.6954590678215027,-0.371610164642334,0.518222987651825,-2.0447059869766235,1.0078164339065552,0.3315776139497757
3.65,1.688702035995383e+18,93.64338330078124,5.429897944132487,-2.6191134452819824,6.535167535146077,1.688702035995383e+18,93.64338330078124,3.46161671479543,-11.292328039805094,10.760324160257976,1.688702035995383e+18,93.64338330078124,-1.9741272926330569,-8.655709902445475,4.1624687512715655,1.6887020360040343e+18,93.65203434244792,1.5078190167744954,0.908152997493744,1.3512848218282063,1.6887020360040343e+18,93.65203434244792,1.5065973202387493,0.9127344998220602,1.353575587272644,,,,,,,,,,,,1.6887020359971858e+18,93.64518579101562,5.504639959335327,49.658879089355466,2.3106799840927126,1.6887020359971858e+18,93.64518579101562,-249.0361541748047,145.123876953125,-130.9011199951172,1.688702035995383e+18,93.64338330078124,0.3669455846150716,-0.681470513343811,-0.3699974119663238,0.5136067469914755,-2.0115570227305093,1.0765817960103352,0.2705207268397013
3.7,1.6887020360472955e+18,93.69529606119792,-1.5041557550430298,6.098384380340576,0.982824961344401,1.6887020360472955e+18,93.69529606119792,-2.659622351328532,-2.989632487297058,4.588237444559733,1.6887020360472955e+18,93.69529606119792,-1.1613126198450725,-9.070512453715006,3.542725086212158,1.688702036055944e+18,93.70394384765623,1.4897476037343342,0.92622443040212,0.9381872018178304,1.688702036055944e+18,93.70394384765623,1.4885258674621582,0.9308059215545654,0.9404779275258384,,,,,,,,,,,,1.6887020360471887e+18,93.6951888671875,2.615679931640625,49.55151901245117,6.409879875183106,1.6887020360471887e+18,93.6951888671875,-251.92511596679688,145.01651916503906,-126.80191650390626,1.6887020360472955e+18,93.69529606119792,0.3979294300079345,-0.6378332376480103,-0.3911117017269134,0.5307162404060364,-1.886144479115804,1.1755812168121338,0.1990451216697692
3.75,1.688702036099195e+18,93.74719490559896,-4.54066268603007,8.487467447916666,-0.1491641998291015,1.688702036099195e+18,93.74719490559896,-5.2652067343393965,-0.8289136489232382,2.9485557079315186,1.688702036099195e+18,93.74719490559896,-0.7303899526596069,-9.298876762390137,3.0350325107574463,1.6887020361078497e+18,93.75584977213542,0.793666660785675,-0.6292930096387863,1.0635163982709248,1.6887020361078497e+18,93.75584977213542,0.7923940618832906,-0.6247624283035597,1.0658071438471477,,,,,,,,,,,,1.6887020360971886e+18,93.74518872070313,0.5392399668693543,49.097679138183594,9.711199951171874,1.6887020360971886e+18,93.74518872070313,-254.0015563964844,144.56267700195312,-123.50059509277344,1.688702036099195e+18,93.74719490559896,0.4232483704884847,-0.6145584583282471,-0.4006943901379903,0.5315314531326294,-1.8088358640670776,1.2414141496022542,0.1309669191638628
3.8,1.6887020361511055e+18,93.79910530598958,-0.7370112637678782,8.860420862833658,-0.4114839235941569,1.6887020361511055e+18,93.79910530598958,-1.2703894178072612,-0.5455635587374369,2.444068988164266,1.6887020361511055e+18,93.79910530598958,-0.5392242074012756,-9.388479868570965,2.792865514755249,1.6887020361510943e+18,93.79909436035156,0.3697261959314346,-1.0160216093063354,0.3792709596455096,1.6887020361510943e+18,93.79909436035156,0.368428111076355,-1.0114401280879974,0.3815616965293883,,,,,,,,,,,,1.6887020361471913e+18,93.79519111328123,-2.8303999423980715,48.85367889404297,11.460679817199708,1.6887020361471913e+18,93.79519111328123,-257.37119140625,144.3186767578125,-121.75111846923828,1.6887020361511055e+18,93.79910530598958,0.4493486583232879,-0.615163246790568,-0.3878684441248576,0.5188039739926656,-1.7676899433135986,1.2708758513132732,0.0370908236751953
3.85,1.68870203620301e+18,93.85101017252605,0.083574632803599,7.998597145080566,-0.7220737139383951,1.68870203620301e+18,93.85101017252605,-0.8484550416469574,-1.3667005499204,2.155933221181234,1.68870203620301e+18,93.85101017252605,-0.9378757079442342,-9.347792943318684,2.815319538116455,1.6887020361943606e+18,93.84236059570313,-0.1621847326556841,-1.431053678194682,-0.6808093090852102,1.6887020361943606e+18,93.84236059570313,-0.1634064589937528,-1.4265739520390828,-0.678569475809733,,,,,,,,,,,,1.688702036197186e+18,93.84518588867186,-2.964599943161011,48.631639099121095,11.743719863891602,1.688702036197186e+18,93.84518588867186,-257.5054016113281,144.0966369628906,-121.46807708740236,1.68870203620301e+18,93.85101017252605,0.4530682265758514,-0.63888947168986,-0.3756040136019389,0.4952018558979034,-1.894606987635295,1.256604274113973,0.0993848120172818
3.9,1.6887020362549166e+18,93.90291666666668,20.1184344291687,-10.232615311940512,-1.5089755058288574,1.6887020362549166e+18,93.90291666666668,18.3874458471934,-19.376678943634033,1.6991034249464672,1.6887020362549166e+18,93.90291666666668,-1.7368344068527222,-9.126559575398764,3.1453915437062583,1.6887020362462646e+18,93.89426448567708,-2.006946841875712,-6.172386248906453,0.9076948364575704,1.6887020362462646e+18,93.89426448567708,-2.0082194805145264,-6.1678556601206465,0.9099855621655784,1.6887020362462656e+18,93.894265625,0.0,0.0,1.0208910703659058,7.764999866485596,1.474895715713501,275.1448669433594,42.60000228881836,-122.7561227,49.1906182,1.6887020362471887e+18,93.89518862304688,-2.6717999458312987,49.13915863037109,8.759599876403808,1.6887020362471887e+18,93.89518862304688,-257.21259765625,144.60415649414062,-124.45219573974607,1.6887020362549166e+18,93.90291666666668,0.4770818948745727,-0.7090120116869608,-0.2928401778141657,0.4252169926961263,-2.080671787261963,1.1893765926361084,0.027741428464651
3.95,1.6887020363068224e+18,93.95482250976562,8.686636050542196,-11.014737129211426,2.8036534786224365,1.6887020363068224e+18,93.95482250976562,6.86600528160731,-19.997217178344727,6.403991063435872,1.6887020363068224e+18,93.95482250976562,-1.826476494471232,-8.964975674947103,3.537650187810262,1.6887020362981676e+18,93.9461678059896,-0.9383399188518524,-2.032654047012329,0.0167478819688161,1.6887020362981676e+18,93.9461678059896,-0.9395616153875986,-2.0281234880288443,0.0190386176109313,,,,,,,,,,,,1.6887020362971878e+18,93.945187890625,-8.15935983657837,49.39779815673828,2.142319893836975,1.6887020362971878e+18,93.945187890625,-262.7001525878906,144.8627960205078,-131.069482421875,1.6887020363068224e+18,93.95482250976562,0.5060371359189352,-0.7434020837148031,-0.2067283739646275,0.3853338559468587,-2.053705374399821,1.1474000612894697,-0.2028501480817794
4.0,1.6887020363587249e+18,94.00672509765624,-0.2892142534255982,-4.080737431844075,5.892613013585408,1.6887020363587249e+18,94.00672509765624,-2.003191351890564,-13.018549919128418,9.653443813323976,1.6887020363587249e+18,94.00672509765624,-1.719823122024536,-8.920308430989584,3.698143164316813,1.6887020363500772e+18,93.9980771484375,0.2454151076575119,3.694411198298136,-0.6923139293988546,1.6887020363500772e+18,93.9980771484375,0.2441933813194433,3.6988909244537354,-0.6901250084241232,,,,,,,,,,,,1.6887020363471885e+18,93.99518842773438,-6.268359756469726,49.59543838500976,2.1081599235534667,1.6887020363471885e+18,93.99518842773438,-260.8091613769531,145.06043701171876,-131.1036376953125,1.6887020363587249e+18,94.00672509765624,0.4782314002513885,-0.7263058026631674,-0.2482110013564427,0.4255556066830953,-2.01096240679423,1.1361016829808552,-0.1106293400128682
4.05,1.6887020364019832e+18,94.04998315429688,-0.8781431913375854,6.546675443649292,-1.1180012226104736,1.6887020364019832e+18,94.04998315429688,-2.7182465195655823,-2.353640198707581,2.6736801862716675,1.6887020364019832e+18,94.04998315429688,-1.845949411392212,-8.882811069488525,3.7289940118789673,1.688702036401977e+18,94.04997705078124,0.5642867684364319,1.3892093698183696,-1.7751744190851848,1.688702036401977e+18,94.04997705078124,0.5630141496658325,1.393790860970815,-1.772934516270955,,,,,,,,,,,,1.6887020363971884e+18,94.04518818359377,-2.4619599342346192,49.9419189453125,4.084559965133667,1.6887020363971884e+18,94.04518818359377,-257.0027587890625,145.40691833496095,-129.12723693847656,1.6887020364019832e+18,94.04998315429688,0.4436266869306564,-0.7120932936668396,-0.2977907210588455,0.4553615301847457,-2.032978057861328,1.126638650894165,0.0464907451532781
4.1,1.688702036445238e+18,94.09323811848958,1.3183410962422688,5.851472854614258,-1.2428474028905232,1.688702036445238e+18,94.09323811848958,-0.9950154026349386,-2.94696052869161,2.5256242752075195,1.688702036445238e+18,94.09323811848958,-2.319202502568563,-8.78092892964681,3.705784320831299,1.6887020364538893e+18,94.10188907877604,-0.4670573870340983,1.075377345085144,-1.1989248593648274,1.6887020364538893e+18,94.10188907877604,-0.4682791332403819,1.0799588561058044,-1.1966850360234578,,,,,,,,,,,,1.6887020364471882e+18,94.09518818359376,1.356639975309372,49.80039901733399,5.070319890975952,1.6887020364471882e+18,94.09518818359376,-253.1841552734375,145.2654022216797,-128.1414779663086,1.688702036445238e+18,94.09323811848958,0.4174013137817382,-0.7180216908454895,-0.3228077292442321,0.4537444412708282,-2.130438963572184,1.102705677350362,0.1885930001735687
4.15,1.688702036497142e+18,94.14514208984376,-0.0933763186136881,-2.795895576477051,2.692546844482422,1.688702036497142e+18,94.14514208984376,-2.3948167165120444,-11.24626636505127,7.196015199025472,1.688702036497142e+18,94.14514208984376,-2.3072864214579263,-8.432866096496582,4.440780798594157,1.688702036505795e+18,94.15379541015623,-1.0849475761254628,2.044820507367452,0.0199040348331133,1.688702036505795e+18,94.15379541015623,-1.0862202445665996,2.0493001540501914,0.0221947655081748,,,,,,,,,,,,1.688702036497189e+18,94.1451890625,3.877159929275513,49.77599945068359,1.8446399748325348,1.688702036497189e+18,94.1451890625,-250.66363220214845,145.24099731445312,-131.36716003417968,1.688702036497142e+18,94.14514208984376,0.3741078078746795,-0.7154294649759928,-0.327157328526179,0.4907434582710266,-2.0515870650609336,1.0286459922790527,0.19794362783432
4.2,1.6887020365490483e+18,94.19704825846354,0.5444362163543701,3.132912794748942,-2.351710001627604,1.6887020365490483e+18,94.19704825846354,-1.216949701309204,-5.212764263153076,2.582453886667887,1.6887020365490483e+18,94.19704825846354,-1.7672319412231443,-8.328172365824381,4.871476491292317,1.688702036557697e+18,94.20569694010418,-0.6456845800081888,0.515061209599177,0.707534670829773,1.688702036557697e+18,94.20569694010418,-0.6470081110795339,0.5196427007516226,0.7098254164059957,,,,,,,,,,,,1.6887020365471862e+18,94.19518608398438,2.8572399616241455,49.675959777832034,-0.0195200055837631,1.6887020365471862e+18,94.19518608398438,-251.68355407714844,145.14096069335938,-133.2313201904297,1.6887020365490483e+18,94.19704825846354,0.3625567456086476,-0.6979782978693644,-0.3225383857885995,0.5265803933143616,-1.920116106669108,1.0079798698425293,0.1288014451662699
4.25,1.6887020366009528e+18,94.24895255533856,0.4080511132876078,1.803167184193929,-2.873794953028361,1.6887020366009528e+18,94.24895255533856,-1.1738788882891338,-6.340182463328044,2.4482563734054565,1.6887020366009528e+18,94.24895255533856,-1.5877760251363118,-8.125844955444336,5.259363969167073,1.6887020366096036e+18,94.257603515625,-1.1324423948923747,-1.0425433715184529,-0.1260927617549896,1.6887020366096036e+18,94.257603515625,-1.1337149540583291,-1.0379618604977925,-0.1238020285964011,,,,,,,,,,,,1.688702036597189e+18,94.24518886718752,1.0296799659729003,49.90531845092774,-2.1325599551200867,1.688702036597189e+18,94.24518886718752,-253.51111450195313,145.3703186035156,-135.3443572998047,1.6887020366009528e+18,94.24895255533856,0.3587376574675242,-0.7019300659497579,-0.2988654573758443,0.5377500057220459,-1.8657220204671223,0.9704468846321106,0.0597993135452269
4.3,1.6887020366528632e+18,94.3008631184896,1.1453228791554768,-1.73777437210083,-2.685371478398641,1.6887020366528632e+18,94.3008631184896,-1.3395818869272869,-9.53380298614502,2.7938198248545327,1.6887020366528632e+18,94.3008631184896,-2.490750789642334,-7.778523921966553,5.41650390625,1.688702036652862e+18,94.30086193847656,-0.7918340861797333,-3.015994429588318,-1.4692072868347168,1.688702036652862e+18,94.30086193847656,-0.7930558025836945,-3.0114892721176147,-1.4669929146766665,,,,,,,,,,,,1.6887020366471918e+18,94.295191796875,3.2354399442672728,49.5393180847168,-4.8385200023651125,1.6887020366471918e+18,94.295191796875,-251.30535583496095,145.0043182373047,-138.0503173828125,1.6887020366528632e+18,94.3008631184896,0.3460062841574351,-0.7435978452364603,-0.2738871375719706,0.5016623834768931,-2.0015991926193237,0.9101265867551168,0.0970452825228373
4.35,1.688702036704768e+18,94.35276814778643,3.706919431686402,-3.748242060343424,-2.3179499308268228,1.688702036704768e+18,94.35276814778643,-0.5976074536641439,-10.936994234720864,2.8313074111938477,1.688702036704768e+18,94.35276814778643,-4.310372829437256,-7.171247482299805,5.086569945017497,1.688702036696113e+18,94.34411279296876,-1.1183415452639265,-4.106388886769612,-2.228640000025431,1.688702036696113e+18,94.34411279296876,-1.1195633014043171,-4.101858297983806,-2.226502021153768,,,,,,,,,,,,1.688702036697191e+18,94.34519086914062,9.25492000579834,48.77315902709961,-5.965799999237061,1.688702036697191e+18,94.34519086914062,-245.2858734130859,144.2381591796875,-139.17759704589844,1.688702036704768e+18,94.35276814778643,0.3209217290083567,-0.8125652472178141,-0.2455921520789463,0.4185687899589538,-2.271454095840454,0.8149675925572714,0.1895292997360229
4.4,1.6887020367566733e+18,94.40467325846356,24.481749216715496,-9.14299233754476,1.324872891108195,1.6887020367566733e+18,94.40467325846356,18.023537635803223,-14.817554155985514,6.0426749388376875,1.6887020367566733e+18,94.40467325846356,-6.46405824025472,-5.657057444254558,4.655114491780599,1.6887020367480238e+18,94.39602368164064,-0.7752388815085093,-1.920152982076009,-5.498754421869914,1.6887020367480238e+18,94.39602368164064,-0.7764606227477392,-1.9156225522359211,-5.496463696161906,1.6887020367653276e+18,94.41332763671876,0.0,0.0,1.0208910703659058,7.88700008392334,1.4777216911315918,275.3182373046875,42.60000228881836,-122.7561421,49.190619,1.6887020367471898e+18,94.39518999023436,19.427279663085937,45.83783874511719,-6.173199844360352,1.6887020367471898e+18,94.39518999023436,-235.11351318359377,141.30283813476564,-139.38499755859374,1.6887020367566733e+18,94.40467325846356,0.2359328915675481,-0.8799420595169067,-0.2361452480157215,0.3336429993311564,-2.5159674485524497,0.6117636561393738,0.3196453799804051
4.45,1.6887020368085798e+18,94.45657983398438,-4.431950410207112,-6.935298442840576,-3.87644624710083,1.6887020368085798e+18,94.45657983398438,-9.445467948913574,-11.96172030766805,2.923431078592936,1.6887020368085798e+18,94.45657983398438,-5.019363562266032,-5.008917331695557,6.737189928690593,1.6887020367999273e+18,94.44792716471352,1.5690582394599917,8.973305066426596,-1.0280862152576449,1.6887020367999273e+18,94.44792716471352,1.5678365627924598,8.977835814158121,-1.025846391916275,,,,,,,,,,,,1.688702036797191e+18,94.4451908203125,27.367039489746094,40.34539947509766,-12.085319805145264,1.688702036797191e+18,94.4451908203125,-227.1737518310547,135.81039733886718,-145.2971160888672,1.6887020368085798e+18,94.45657983398438,0.1283013323942819,-0.8109169205029806,-0.3121529817581177,0.475578228632609,-2.2083560625712075,0.5313231150309244,0.4618916511535644
4.5,1.688702036851835e+18,94.4998348388672,4.604673147201538,-8.383456945419312,-7.642410278320312,1.688702036851835e+18,94.4998348388672,0.0454638004302978,-13.647164821624756,-0.6616154313087463,1.688702036851835e+18,94.4998348388672,-4.5650553703308105,-5.246203184127808,6.918107271194458,1.6887020368518267e+18,94.49982657877604,-0.0374154907961686,-0.944346730907758,1.068047006924947,1.6887020368518267e+18,94.49982657877604,-0.0386372270683447,-0.9398671040932336,1.0702359278996785,,,,,,,,,,,,1.6887020368471905e+18,94.495190234375,24.360959625244146,41.13351821899414,-16.15035972595215,1.6887020368471905e+18,94.495190234375,-230.1798370361328,136.59851989746093,-149.362158203125,1.688702036851835e+18,94.4998348388672,0.1303728930652141,-0.7922202050685883,-0.3242421448230743,0.5001141428947449,-2.1526036262512207,0.5598032176494598,0.4695115238428115
4.55,1.6887020368950858e+18,94.54308610026042,5.507076581319173,-8.612318992614746,-6.227260112762451,1.6887020368950858e+18,94.54308610026042,1.530808299779892,-14.72602907816569,0.3908277203639348,1.6887020368950858e+18,94.54308610026042,-3.982114315032959,-6.096205870310466,6.555400371551514,1.6887020369037366e+18,94.55173681640626,2.2979731957117715,-0.5283984343210856,2.956282377243042,1.6887020369037366e+18,94.55173681640626,2.296751538912455,-0.5239187876383463,2.9585222403208413,,,,,,,,,,,,1.6887020368971886e+18,94.54518872070312,19.76399955749512,43.64915924072265,-14.24715976715088,1.6887020368971886e+18,94.54518872070312,-234.77679443359375,139.1141571044922,-147.45895690917968,1.6887020368950858e+18,94.54308610026042,0.1935489028692245,-0.7784234484036764,-0.3118044734001159,0.508591890335083,-2.1151765982309976,0.6673036615053812,0.3758250872294108
4.6,1.688702036946996e+18,94.59499584960936,1.4409435590108235,-6.632043679555257,-0.8552039464314779,1.688702036946996e+18,94.59499584960936,-1.6737794876098633,-14.235898971557615,4.553740819295247,1.688702036946996e+18,94.59499584960936,-3.1205690701802573,-7.586350599924724,5.346257368723552,1.6887020369556426e+18,94.60364249674478,2.615368684132894,-1.624290664990743,3.641316811243693,1.6887020369556426e+18,94.60364249674478,2.6140451431274414,-1.6197601159413657,3.6436075369517007,,,,,,,,,,,,1.688702036947189e+18,94.5951888183594,11.78031997680664,48.0582389831543,-7.271199798583984,1.688702036947189e+18,94.5951888183594,-242.7604766845703,143.5232360839844,-140.48299865722657,1.688702036946996e+18,94.59499584960936,0.3074174523353576,-0.7488481203715006,-0.3142527043819427,0.4946700632572174,-2.0974628925323486,0.882291575272878,0.2633504718542098
4.65,1.688702036998901e+18,94.64690104166668,2.9252874851226807,-8.052279154459635,5.688391367594401,1.688702036998901e+18,94.64690104166668,0.6893323461214701,-16.64507293701172,9.940184275309244,1.688702036998901e+18,94.64690104166668,-2.241801102956136,-8.575289726257324,4.189105033874512,1.6887020370075525e+18,94.6555526529948,2.0044524669647217,-0.0045305670549472,1.4527393380800884,1.6887020370075525e+18,94.6555526529948,2.0031798680623374,5.091664691766103e-05,1.4549792408943176,,,,,,,,,,,,1.688702036997191e+18,94.6451908203125,3.935719919204712,49.65887985229492,0.1805600076913833,1.688702036997191e+18,94.6451908203125,-250.60507507324215,145.1238800048828,-133.03123474121094,1.688702036998901e+18,94.64690104166668,0.4010068476200104,-0.7192880511283875,-0.3123487631479898,0.4731939435005188,-2.0612823963165283,1.0608375867207844,0.1427667091290155
4.7,1.688702037050805e+18,94.69880509440104,3.6836725870768223,0.8783432642618815,5.249827861785889,1.688702037050805e+18,94.69880509440104,2.0893330176671348,-8.172087669372559,8.777870178222656,1.688702037050805e+18,94.69880509440104,-1.6001855532328289,-9.032926241556805,3.465354601542155,1.6887020370594578e+18,94.70745784505208,1.8286251227060957,2.036777416865031,0.5446372826894125,1.6887020370594578e+18,94.70745784505208,1.8274033466974895,2.0413080056508384,0.5468771060307821,,,,,,,,,,,,1.6887020370471913e+18,94.69519140625,1.476199984550476,49.678399658203126,4.870239877700806,1.6887020370471913e+18,94.69519140625,-253.0645965576172,145.14339599609374,-128.34155883789063,1.688702037050805e+18,94.69880509440104,0.4290147324403127,-0.6784876783688863,-0.3484805027643839,0.4834492405255635,-2.00083327293396,1.1668713887532551,0.1476597587267557
4.75,1.688702037102714e+18,94.75071427408854,-1.599396586418152,6.003258387247722,1.3340872128804524,1.688702037102714e+18,94.75071427408854,-2.7112675507863364,-3.345963637034098,4.202394723892212,1.688702037102714e+18,94.75071427408854,-1.117716948191325,-9.331717491149902,2.8056201140085855,1.688702037102717e+18,94.75071704101562,1.4688254594802856,0.7543422281742096,0.475253164768219,1.688702037102717e+18,94.75071704101562,1.4676037430763245,0.7589237093925476,0.477543905377388,,,,,,,,,,,,1.6887020370971896e+18,94.74518959960938,0.3806399956345558,49.039118957519534,9.58431978225708,1.6887020370971896e+18,94.74518959960938,-254.16015625,144.50411376953124,-123.62747802734376,1.688702037102714e+18,94.75071427408854,0.4452543755372365,-0.6398452917734782,-0.3846769829591115,0.4942235648632049,-1.9480682611465456,1.253650784492493,0.1680445124705631
4.8,1.688702037154616e+18,94.80261604817709,-4.836226383845012,8.192868709564209,0.7332430680592855,1.688702037154616e+18,94.80261604817709,-5.681557973225911,-1.311266819636027,3.1411778926849365,1.688702037154616e+18,94.80261604817709,-0.8511776526769003,-9.486631075541178,2.345247427622477,1.6887020371459653e+18,94.79396508789064,0.833576520284017,-0.8556694785753888,0.911105493704478,1.6887020371459653e+18,94.79396508789064,0.8323547840118408,-0.8511388997236887,0.9133962790171304,,,,,,,,,,,,1.6887020371471903e+18,94.79519057617188,-1.2126799702644349,48.3510383605957,12.451319885253906,1.6887020371471903e+18,94.79519057617188,-255.75347900390625,143.8160369873047,-120.76047821044922,1.688702037154616e+18,94.80261604817709,0.4698141713937123,-0.6270163456598917,-0.3884589274724324,0.4847858448823293,-1.9182495673497515,1.3092156251271565,0.1214580287535984
4.85,1.688702037206525e+18,94.85452498372396,0.1869835754235585,9.102680206298828,0.3683421611785888,1.688702037206525e+18,94.85452498372396,-0.4281158534189065,-0.4440680046876271,2.676571528116862,1.688702037206525e+18,94.85452498372396,-0.6209454735120138,-9.52924378712972,2.245541969935099,1.6887020371978744e+18,94.84587467447916,0.1143336122234662,-0.6459390868743261,0.5784384707609812,1.6887020371978744e+18,94.84587467447916,0.1131118759512901,-0.6413576155900955,0.5806274116039276,,,,,,,,,,,,1.6887020371971932e+18,94.84519326171876,-4.008919954299927,48.13631973266602,13.739639854431152,1.6887020371971932e+18,94.84519326171876,-258.5497131347656,143.6013153076172,-119.47215881347655,1.688702037206525e+18,94.85452498372396,0.4930348396301269,-0.6297788222630819,-0.3686853547890981,0.4736646314462025,-1.8433279991149905,1.32635498046875,-0.010989603276054
4.9,1.6887020372584325e+18,94.90643212890625,-1.1686017711957295,8.32208251953125,-0.3963194688161214,1.6887020372584325e+18,94.90643212890625,-1.8877376317977903,-1.158126175403595,2.1445672512054443,1.6887020372584325e+18,94.90643212890625,-0.7249818642934164,-9.46270434061686,2.478199323018392,1.6887020372497766e+18,94.89777661132814,-0.486961414416631,-0.2695951970915,-0.2517273873090743,1.6887020372497766e+18,94.89777661132814,-0.488183135787646,-0.2650646058221658,-0.2494875478247801,,,,,,,,,,,,1.6887020372471846e+18,94.89518466796876,-4.487159967422485,48.09483871459961,13.30287971496582,1.6887020372471846e+18,94.89518466796876,-259.0279541015625,143.5598358154297,-119.90891723632812,1.6887020372584325e+18,94.90643212890625,0.4865799148877461,-0.6392712195714315,-0.3594322601954142,0.474635104338328,-1.8564521471659343,1.2993860642115276,-0.0099366291736563
4.95,1.6887020373016863e+18,94.94968627929688,20.326707839965824,-8.965748310089111,0.5716928243637086,1.6887020373016863e+18,94.94968627929688,18.764514446258545,-18.21506357192993,3.553640842437744,1.6887020373016863e+18,94.94968627929688,-1.5680397152900696,-9.231810569763184,2.919260621070862,1.6887020373016855e+18,94.94968546549478,-2.606511116027832,-8.638601779937744,1.3898202379544575,1.6887020373016855e+18,94.94968546549478,-2.6077837149302163,-8.634020328521729,1.3921109636624651,1.6887020372843853e+18,94.93238525390623,0.0,0.0,0.9725979566574096,7.982999801635742,1.482263684272766,275.5581970214844,43.10000228881836,-122.7561593,49.1906177,1.688702037297191e+18,94.94519091796874,-5.243559837341309,48.9439582824707,8.945039844512939,1.688702037297191e+18,94.94519091796874,-259.78435668945315,144.40895385742186,-124.26675720214844,1.6887020373016863e+18,94.94968627929688,0.5006160885095596,-0.7087572813034058,-0.2772497981786727,0.4082526266574859,-2.065273404121399,1.2210772037506104,-0.0451249647885561
5.0,1.6887020373449408e+18,94.99294091796877,18.286787668863933,-13.513869285583496,2.401668389638265,1.6887020373449408e+18,94.99294091796877,17.00020710627238,-22.675782839457195,5.771886984507243,1.6887020373449408e+18,94.99294091796877,-1.292426864306132,-9.14440949757894,3.307531197865804,1.688702037353597e+18,95.00159708658856,-0.5445863505204519,-1.351488510767619,0.2656245579322178,1.688702037353597e+18,95.00159708658856,-0.5458589941263199,-1.3469578822453816,0.2678644259770711,,,,,,,,,,,,1.6887020373471892e+18,94.9951892089844,-13.60055980682373,48.311998748779295,0.2293599903583526,1.6887020373471892e+18,94.9951892089844,-268.141357421875,143.7769989013672,-132.98244018554686,1.6887020373449408e+18,94.99294091796877,0.5597153306007385,-0.7380406061808268,-0.1512233465909957,0.3447566827138265,-1.950613300005595,1.1963080565134685,-0.4608897864818573
5.05,1.6887020373968466e+18,95.04484659830727,-0.7227764129638672,-3.083383560180664,5.193778355916341,1.6887020373968466e+18,95.04484659830727,-2.1539392471313477,-12.229317982991535,8.548957347869873,1.6887020373968466e+18,95.04484659830727,-1.4370088577270508,-9.128429730733236,3.2924911181131997,1.6887020374054943e+18,95.0534942220052,0.6398813426494598,3.959323088328043,-1.0660616755485537,1.6887020374054943e+18,95.0534942220052,0.6386087238788605,3.963853677113851,-1.0637709101041155,,,,,,,,,,,,1.688702037397189e+18,95.04518901367187,-11.790079879760745,49.307518768310544,0.4538399815559387,1.688702037397189e+18,95.04518901367187,-266.33087768554685,144.77251892089845,-132.7579559326172,1.6887020373968466e+18,95.04484659830727,0.5396862030029297,-0.7352116505304972,-0.1842349569002786,0.3653246561686198,-1.9876351753870647,1.1915547450383503,-0.3399816155433655
5.1,1.6887020374487508e+18,95.09675073242188,-1.31649649143219,3.1823903719584146,2.5619777838389077,1.6887020374487508e+18,95.09675073242188,-2.4151556491851807,-5.977071603139241,6.0057854652404785,1.6887020374487508e+18,95.09675073242188,-1.104505181312561,-9.14195728302002,3.381120045979818,1.688702037457405e+18,95.10540470377605,0.4110105037689209,4.2440370718638105,-0.9056586424509684,1.688702037457405e+18,95.10540470377605,0.4097378651301066,4.2486186027526855,-0.9033678770065308,,,,,,,,,,,,1.6887020374471887e+18,95.09518872070312,-8.737639904022217,49.63691940307617,4.374919891357422,1.6887020374471887e+18,95.09518872070312,-263.27843017578124,145.10191955566407,-128.83687591552734,1.6887020374487508e+18,95.09675073242188,0.5005570948123932,-0.6986081202824911,-0.26267272233963,0.4374724229176839,-1.8900255759557087,1.19500732421875,-0.194638654589653
5.15,1.6887020375006556e+18,95.14865576171876,-0.91130926211675,3.6067800521850586,1.092584768931071,1.6887020375006556e+18,95.14865576171876,-1.979263106981913,-5.473781267801921,4.7481575806935625,1.6887020375006556e+18,95.14865576171876,-1.0737998684247334,-9.063056627909342,3.592885414759318,1.6887020375093064e+18,95.15730647786457,-0.8550077180067698,1.4879149893919628,-1.5453872283299763,1.6887020375093064e+18,95.15730647786457,-0.8562294592459997,1.4924455483754475,-1.5430965026219683,,,,,,,,,,,,1.688702037497189e+18,95.14518925781248,-4.801919937133789,49.39291915893555,6.400119876861572,1.688702037497189e+18,95.14518925781248,-259.34271240234375,144.85791625976563,-126.81167755126953,1.6887020375006556e+18,95.14865576171876,0.4551437397797902,-0.6753042737642924,-0.3155518968900044,0.4867520531018575,-1.8620840708414712,1.173587203025818,-0.0450190178429087
5.2,1.6887020375525652e+18,95.20056510416664,0.6357816457748414,0.0198157628377277,1.3424222469329834,1.6887020375525652e+18,95.20056510416664,-1.2195419470469158,-8.709076881408691,5.503093242645264,1.6887020375525652e+18,95.20056510416664,-1.8611696163813272,-8.711387952168783,4.0979835987091064,1.6887020375525652e+18,95.20056518554688,-0.9203448593616484,-0.584139883518219,-1.9338467121124268,1.6887020375525652e+18,95.20056518554688,-0.9215665459632872,-0.5795584172010422,-1.9315558671951296,,,,,,,,,,,,1.6887020375471867e+18,95.19518671875,0.3123199939727783,49.993157958984376,4.182159948348999,1.6887020375471867e+18,95.19518671875,-254.2284729003906,145.458154296875,-129.029638671875,1.6887020375525652e+18,95.20056510416664,0.4065111875534057,-0.7006119688351949,-0.3235820531845092,0.4888260165850321,-1.9946880737940471,1.0885836283365884,0.1191876928011576
5.25,1.688702037604473e+18,95.25247306315104,1.944672505060832,3.1494285265604653,-1.7864174842834473,1.688702037604473e+18,95.25247306315104,-0.7519445220629374,-5.23489777247111,2.6219353675842285,1.688702037604473e+18,95.25247306315104,-2.702462991078695,-8.36682160695394,4.345665454864502,1.6887020375958218e+18,95.24382169596356,-0.8136725028355917,-1.0424924691518147,-1.2387838164965312,1.6887020375958218e+18,95.24382169596356,-0.8148942391077677,-1.0380127429962158,-1.2365439931551616,,,,,,,,,,,,1.688702037597191e+18,95.245190625,5.228919935226441,49.641798400878905,1.7494799494743347,1.688702037597191e+18,95.245190625,-249.31187133789064,145.10679626464844,-131.46231689453126,1.688702037604473e+18,95.25247306315104,0.3777689933776855,-0.7336068948109945,-0.3166324893633524,0.4676739474137624,-2.1251158714294434,1.0169556736946106,0.2125840733448663
5.3,1.688702037656376e+18,95.30437613932293,1.9801005919774373,0.8481059074401855,-2.2153875827789307,1.688702037656376e+18,95.30437613932293,-1.2029915650685628,-7.194220542907715,2.4989044666290283,1.688702037656376e+18,95.30437613932293,-3.1889382203420005,-8.024821758270264,4.651604652404785,1.6887020376477286e+18,95.2957285970052,-1.154077172279358,-0.7795149485270182,-0.5751805305480957,1.6887020376477286e+18,95.2957285970052,-1.155298908551534,-0.7749843796094259,-0.5729406873385111,,,,,,,,,,,,1.6887020376471877e+18,95.29518779296876,6.836879730224609,49.495399475097656,-0.2513199865818024,1.6887020376471877e+18,95.29518779296876,-247.7039123535156,144.96039733886718,-133.4631134033203,1.688702037656376e+18,95.30437613932293,0.3592507143815358,-0.7583675583203634,-0.2968034744262695,0.4556430379549662,-2.170364777247111,0.9535229007403055,0.213842620452245
5.35,1.688702037708285e+18,95.35628450520834,2.170024116834005,-2.9379088083902993,-2.3292453289031982,1.688702037708285e+18,95.35628450520834,-1.4993027846018474,-10.587442715962728,2.6763721307118735,1.688702037708285e+18,95.35628450520834,-3.675172964731852,-7.632029215494792,4.9429300626118975,1.6887020376996334e+18,95.34763346354168,-1.2628620465596516,-1.3672691186269124,-0.5748241941134135,1.6887020376996334e+18,95.34763346354168,-1.2640838225682576,-1.3627385298411052,-0.5725334386030833,,,,,,,,,,,,1.6887020376971935e+18,95.34519345703126,8.605879974365234,49.38315887451172,-3.272039890289306,1.6887020376971935e+18,95.34519345703126,-245.93491821289064,144.84815979003906,-136.483837890625,1.688702037708285e+18,95.35628450520834,0.343630850315094,-0.7851126591364542,-0.2675171295801798,0.4401512841383616,-2.208665529886882,0.8871214985847473,0.1869985312223434
5.4,1.6887020377515382e+18,95.3995382080078,4.24500572681427,-4.513632535934448,-2.370882034301758,1.6887020377515382e+18,95.3995382080078,-0.1827518194913864,-11.712567806243896,2.6856443881988525,1.6887020377515382e+18,95.3995382080078,-4.433603525161743,-7.1814305782318115,4.9938390254974365,1.6887020377515418e+18,95.39954174804689,-1.3854423761367798,-3.0544280211130777,-2.2160664002100625,1.6887020377515418e+18,95.39954174804689,-1.3866641124089558,-3.0498464902242026,-2.2137756745020547,,,,,,,,,,,,1.6887020377471908e+18,95.39519082031252,11.187399864196776,48.26319961547851,-5.7925599098205565,1.6887020377471908e+18,95.39519082031252,-243.3533935546875,143.7281951904297,-139.00435485839844,1.6887020377515382e+18,95.3995382080078,0.3254444450139999,-0.8177972137928009,-0.2405968457460403,0.4088657051324844,-2.2953083515167236,0.8171234726905823,0.1868801936507225
5.45,1.6887020377947894e+18,95.4427892252604,21.513359705607098,-8.693342844645182,-0.066356341044108,1.6887020377947894e+18,95.4427892252604,15.180864334106444,-14.458829879760742,4.722833633422852,1.6887020377947894e+18,95.4427892252604,-6.33834187189738,-5.747982343037923,4.726502577463786,1.68870203780344e+18,95.45143994140624,-0.2823724746704101,3.2208380699157715,-5.261077006657918,1.68870203780344e+18,95.45143994140624,-0.2835941910743713,3.225317478179931,-5.258786201477051,1.6887020378034348e+18,95.45143481445312,0.0,0.0,0.9725979566574096,8.015000343322754,1.484919786453247,275.4376220703125,43.10000228881836,-122.7561686,49.1906172,1.68870203779719e+18,95.44519028320312,23.289799880981445,43.73211898803711,-6.5587200164794925,1.68870203779719e+18,95.44519028320312,-231.2509979248047,139.1971221923828,-139.77052001953126,1.6887020377947894e+18,95.4427892252604,0.2395249356826145,-0.8752165039380392,-0.2393246938784916,0.3417655229568481,-2.4986414909362793,0.623952845732371,0.3189540008703868
5.5,1.6887020378466957e+18,95.49469555664062,-3.169564406077067,-5.951895872751872,-4.4583823680877686,1.6887020378466957e+18,95.49469555664062,-8.044470310211182,-11.142776807149252,2.3188445568084717,1.6887020378466957e+18,95.49469555664062,-4.880751927693685,-5.173376242319743,6.714539686838786,1.6887020378553508e+18,95.50335091145833,0.9982556303342184,5.551136215527852,-0.1298088630040486,1.6887020378553508e+18,95.50335091145833,0.9969829718271892,5.55566684405009,-0.1275690297285715,,,,,,,,,,,,1.6887020378471956e+18,95.495195703125,25.41015968322754,40.730918884277344,-14.337439727783202,1.6887020378471956e+18,95.495195703125,-229.1306365966797,136.19591369628907,-147.5492401123047,1.6887020378466957e+18,95.49469555664062,0.1400824983914692,-0.8076765338579813,-0.3087739745775859,0.4799491862456004,-2.196168581644694,0.5519096851348877,0.4421607355276744
5.55,1.6887020378986015e+18,95.5466013997396,5.673570473988851,-9.407381852467855,-7.937114715576172,1.6887020378986015e+18,95.5466013997396,1.4925230344136555,-14.79960791269938,-0.817348301410675,1.6887020378986015e+18,95.5466013997396,-4.186893304189046,-5.374721844991048,7.057079156239827,1.688702037907256e+18,95.5552557779948,0.0418442736069361,-0.3159700632095336,1.5471689502398174,1.688702037907256e+18,95.5552557779948,0.0406225323677063,-0.3114903767903647,1.5493578910827637,,,,,,,,,,,,1.6887020378971873e+18,95.54518735351564,22.76275978088379,41.66543884277344,-16.801839447021486,1.6887020378971873e+18,95.54518735351564,-231.77803955078124,137.13043518066405,-150.01363830566407,1.6887020378986015e+18,95.5466013997396,0.1396168619394302,-0.7833218375841776,-0.3154333929220835,0.5169050494829813,-2.104263861974081,0.5763554374376932,0.4304123818874359
5.6,1.6887020379505032e+18,95.59850325520834,2.4794533252716064,-8.155395348866781,-5.063616434733073,1.6887020379505032e+18,95.59850325520834,-0.8223333358764648,-14.513067881266275,1.687338799238205,1.6887020379505032e+18,95.59850325520834,-3.3076326052347818,-6.340168158213298,6.688267707824707,1.688702037959162e+18,95.60716178385417,3.5139005184173584,0.5783366759618124,2.4486023585001626,1.688702037959162e+18,95.60716178385417,3.512627919514974,0.582816352446874,2.45089320341746,,,,,,,,,,,,1.6887020379471872e+18,95.595187109375,18.568400192260743,44.06883926391602,-14.844959831237793,1.6887020379471872e+18,95.595187109375,-235.97239379882816,139.533837890625,-148.05675659179687,1.6887020379505032e+18,95.59850325520834,0.1956048806508382,-0.7503076990445455,-0.3241698443889617,0.5410496791203817,-2.0272220770517984,0.7008744875590006,0.3672688206036885
5.65,1.6887020380024102e+18,95.6504102376302,1.9230106671651204,-6.4161122639973955,-0.1497133572896321,1.6887020380024102e+18,95.6504102376302,-0.4490530590216319,-14.375081380208334,5.127021312713623,1.6887020380024102e+18,95.6504102376302,-2.3779097398122153,-7.941464424133301,5.214047273000081,1.6887020380024054e+18,95.65040551757812,3.4093916416168213,-1.5654948949813845,2.981404185295105,1.6887020380024054e+18,95.65040551757812,3.408169984817505,-1.560913383960724,2.9836186170578003,,,,,,,,,,,,1.688702037997183e+18,95.64518295898436,11.52411994934082,47.95819931030273,-6.668519973754883,1.688702037997183e+18,95.64518295898436,-243.0166748046875,143.4231964111328,-139.88031921386718,1.6887020380024102e+18,95.6504102376302,0.3088268041610717,-0.7061765193939209,-0.3499168356259663,0.5314471324284872,-1.9963847398757937,0.9423529505729676,0.2851497133572896
5.7,1.68870203805432e+18,95.7023203125,3.6497740745544434,-6.247151056925456,6.217135111490886,1.68870203805432e+18,95.7023203125,1.9575282732645671,-14.960126558939615,10.483155250549316,1.68870203805432e+18,95.7023203125,-1.698091745376587,-8.695471127827963,4.203332265218099,1.6887020380456663e+18,95.69366634114584,1.7205019394556682,-0.0796669870615005,1.4978415568669636,1.6887020380456663e+18,95.69366634114584,1.7192293802897136,-0.0751364255944887,1.5001322825749714,,,,,,,,,,,,1.6887020380471836e+18,95.69518369140626,6.099999809265137,49.49783935546875,0.292799973487854,1.6887020380471836e+18,95.69518369140626,-248.4407958984375,144.96283874511718,-132.91900024414062,1.68870203805432e+18,95.7023203125,0.3799434800942738,-0.6776899695396423,-0.3567398885885874,0.5185635884602865,-1.951403299967448,1.086699446042379,0.1924780905246734
5.75,1.6887020381062287e+18,95.75422884114585,0.7074204683303833,3.3564764658610025,3.7838216622670497,1.6887020381062287e+18,95.75422884114585,-0.3166501969099044,-5.745765368143718,7.391628583272298,1.6887020381062287e+18,95.75422884114585,-1.029916723569234,-9.084737141927084,3.545119285583496,1.688702038097575e+18,95.74557478841145,1.71989111105601,0.9845620393753052,0.9756027062733968,1.688702038097575e+18,95.74557478841145,1.7186693747838335,0.9890926877657572,0.9778934717178344,,,,,,,,,,,,1.6887020380971855e+18,95.745185546875,3.2476398944854736,49.63203887939453,4.174839925765991,1.6887020380971855e+18,95.745185546875,-251.29315185546875,145.09703979492187,-129.03695526123047,1.6887020381062287e+18,95.75422884114585,0.4089804291725158,-0.638543426990509,-0.380330075820287,0.5292853911717733,-1.8492844104766848,1.181166410446167,0.137771983941396
5.8,1.6887020381581304e+18,95.80613053385416,-2.783745964368185,7.108521143595378,0.7146223386128744,1.6887020381581304e+18,95.80613053385416,-3.358924706776937,-2.246461590131124,3.724229017893473,1.6887020381581304e+18,95.80613053385416,-0.5810247858365377,-9.337478319803871,2.9469192822774253,1.6887020381494838e+18,95.79748404947917,1.2590950727462769,0.3380630115667979,0.7452556093533834,1.6887020381494838e+18,95.79748404947917,1.2578733762105303,0.3425426880518595,0.7474445303281149,,,,,,,,,,,,1.6887020381471877e+18,95.79518774414063,0.6465999573469162,49.38559799194336,8.20083990097046,1.6887020381471877e+18,95.79518774414063,-253.89419555664065,144.85059814453126,-125.01095886230468,1.6887020381581304e+18,95.80613053385416,0.435643861691157,-0.611498494942983,-0.3945800860722859,0.5296441515286764,-1.7626773516337078,1.255855639775594,0.0673352119823296
5.85,1.688702038201391e+18,95.84939123535156,-3.379029393196106,8.00378942489624,-0.0035642385482788,1.688702038201391e+18,95.84939123535156,-3.73459792137146,-1.4560325741767883,2.6946173906326294,1.688702038201391e+18,95.84939123535156,-0.3614146560430527,-9.442317485809326,2.6354942321777344,1.6887020382013898e+18,95.84938989257812,0.615803082784017,-0.964963455994924,0.7263696988423666,1.6887020382013898e+18,95.84938989257812,0.6145304342110952,-0.960432897011439,0.7286095221837362,,,,,,,,,,,,1.6887020381971876e+18,95.84518764648438,-1.6689599573612213,48.62431869506836,11.277679824829102,1.6887020381971876e+18,95.84518764648438,-256.2097534179687,144.08931579589844,-121.93411865234376,1.688702038201391e+18,95.84939123535156,0.4564927667379379,-0.6036555469036102,-0.3926858305931091,0.5224637687206268,-1.706562101840973,1.2923906445503237,-0.0107798760291189
5.9,1.688702038244641e+18,95.89264095052084,-0.1284510890642802,8.20736312866211,-0.3707559108734131,1.688702038244641e+18,95.89264095052084,-0.5994020650784174,-1.254836082458496,2.2987049420674643,1.688702038244641e+18,95.89264095052084,-0.4767970045407613,-9.444695154825846,2.6067734559377036,1.6887020382532913e+18,95.90129117838542,-0.2879720653096835,-0.6208936274051666,-0.5148576001326243,1.6887020382532913e+18,95.90129117838542,-0.2892446878055731,-0.6164648334185282,-0.5125668495893478,,,,,,,,,,,,1.6887020382471872e+18,95.89518715820311,-2.4887999534606933,48.54867935180664,12.12923984527588,1.6887020382471872e+18,95.89518715820311,-257.02958984375,144.01367797851563,-121.08255920410156,1.688702038244641e+18,95.89264095052084,0.4661047259966532,-0.6154699722925822,-0.381809542576472,0.5080571373303732,-1.7507747014363606,1.2932235399882,-0.0139012982447942
5.95,1.688702038296549e+18,95.94454907226562,-0.0677135586738586,5.308067003885905,-0.348479429880778,1.688702038296549e+18,95.94454907226562,-1.0791630347569785,-3.993222196896871,2.7024938265482583,1.688702038296549e+18,95.94454907226562,-1.01729549964269,-9.283784548441568,2.988285859425863,1.688702038305202e+18,95.95320190429688,-1.4018848339716594,-2.5910867949326835,-0.4996877511342366,1.688702038305202e+18,95.95320190429688,-1.4031065503756206,-2.5865053236484528,-0.4974479079246521,1.688702038322504e+18,95.97050390625,0.0,0.0,0.9828923940658568,8.001999855041504,1.4885069131851196,275.0932922363281,43.10000228881836,-122.7561819,49.1906157,1.688702038297192e+18,95.94519189453123,-0.936959993839264,49.06351852416992,10.279719734191897,1.688702038297192e+18,95.94519189453123,-255.4777618408203,144.528515625,-122.9320785522461,1.688702038296549e+18,95.94454907226562,0.4477479557196299,-0.6439834833145142,-0.3705200354258219,0.4972026149431864,-1.8938595453898113,1.238646070162455,0.0953632121284802
6.0,1.6887020383484488e+18,95.99644881184896,21.860225041707356,-12.113373438517252,-1.3115063110987346,1.6887020383484488e+18,95.99644881184896,20.820747057596844,-21.28774642944336,2.104886293411255,1.6887020383484488e+18,95.99644881184896,-1.0453239281972249,-9.156869252522789,3.3537052472432456,1.6887020383571044e+18,96.00510424804686,-0.8676831821600596,-5.264029343922933,2.8545223474502563,1.6887020383571044e+18,96.00510424804686,-0.8689048985640208,-5.259447892506917,2.8567622105280557,,,,,,,,,,,,1.6887020383471867e+18,95.9951868652344,-5.902359962463379,49.26115951538086,5.660799932479859,1.6887020383471867e+18,95.9951868652344,-260.4431518554687,144.72615661621094,-127.55099792480468,1.6887020383484488e+18,95.99644881184896,0.5020841161410013,-0.6944140593210856,-0.2652479310830434,0.4389495154221852,-1.8740884860356648,1.2000149091084795,-0.2035492758732289
6.05,1.6887020384003602e+18,96.04836018880208,7.998708407084147,-2.6208006540934243,0.1319790681203206,1.6887020384003602e+18,96.04836018880208,6.82014258702596,-11.769696235656738,3.572085460027059,1.6887020384003602e+18,96.04836018880208,-1.184411644935608,-9.131391207377115,3.3774189949035645,1.6887020384090094e+18,96.05700952148436,0.1419243589043617,1.588147866151606,-2.1558961868286133,1.6887020384090094e+18,96.05700952148436,0.1407026275992393,1.5926783881150186,-2.1536563634872437,,,,,,,,,,,,1.6887020383971948e+18,96.04519487304688,-9.45011978149414,48.99031829833984,3.5672799587249755,1.6887020383971948e+18,96.04519487304688,-263.99091796875,144.45531311035157,-129.64451293945314,1.6887020384003602e+18,96.04836018880208,0.5207503239313761,-0.7136986056963602,-0.2275107999642689,0.4090834856033325,-1.908980131149292,1.1930504242579143,-0.2803467959165572
6.1,1.688702038452272e+18,96.10027221679688,0.6205426057179769,-4.660378297170003,8.008156458536783,1.688702038452272e+18,96.10027221679688,-0.986441135406494,-13.694323380788168,11.583056290944418,1.688702038452272e+18,96.10027221679688,-1.6128297646840413,-9.016440709431969,3.512212038040161,1.6887020384522683e+18,96.1002684326172,0.5200753957033157,4.407469034194946,-1.9150624871253967,1.6887020384522683e+18,96.1002684326172,0.5188536792993546,4.412050485610962,-1.9128481149673464,,,,,,,,,,,,1.6887020384471887e+18,96.09518881835938,-2.998759937286377,49.76379928588867,4.640879917144775,1.6887020384471887e+18,96.09518881835938,-257.5395477294922,145.22879638671876,-128.5709213256836,1.688702038452272e+18,96.10027221679688,0.4621555010477702,-0.703437348206838,-0.2955338458220164,0.4506928225358327,-2.000281016031901,1.162090579668681,-0.0023513939231634
6.15,1.6887020385041748e+18,96.15217488606773,-2.22338596979777,5.111393769582112,-0.2489256858825683,1.6887020385041748e+18,96.15217488606773,-3.5477583408355713,-3.8773697217305503,3.55074938138326,1.6887020385041748e+18,96.15217488606773,-1.3302184343338013,-8.971258799235025,3.7369876702626543,1.6887020384955238e+18,96.14352384440105,0.00524326103429,2.924822727839152,-0.2366084804137548,1.6887020384955238e+18,96.14352384440105,0.0040215297291676,2.929353396097819,-0.234368622303009,,,,,,,,,,,,1.68870203849719e+18,96.14518979492188,0.8661999955773354,49.72231903076172,5.485119819641113,1.68870203849719e+18,96.14518979492188,-253.67459411621093,145.18731689453125,-127.72667999267578,1.6887020385041748e+18,96.15217488606773,0.4211821655432383,-0.6697266896565756,-0.3455808063348134,0.5043806533018748,-1.9112988710403445,1.1505343119303386,0.0934893290201822
6.2,1.688702038556069e+18,96.2040692545573,-2.6075924237569175,-0.98830779393514,1.9611029624938965,1.688702038556069e+18,96.2040692545573,-3.7497525215148926,-9.781460285186768,6.251049836476644,1.688702038556069e+18,96.2040692545573,-1.1480061213175456,-8.77564779917399,4.227259476979573,1.688702038547423e+18,96.1954228515625,-1.2217304905255637,0.1448259701331457,0.107105037352691,1.688702038547423e+18,96.1954228515625,-1.2229522069295249,0.1493056466182073,0.1093448794757326,,,,,,,,,,,,1.6887020385471826e+18,96.1951825683594,1.0345599889755248,49.78819885253906,4.150439929962158,1.6887020385471826e+18,96.1951825683594,-253.50623779296876,145.2531982421875,-129.0613571166992,1.688702038556069e+18,96.2040692545573,0.4019361833731333,-0.666972021261851,-0.3372716208299001,0.5288780728975931,-1.8348798751831057,1.1040328741073608,0.0552540731926758
6.25,1.6887020386079767e+18,96.25597672526042,-0.2047488490740458,0.7036409378051758,-0.4843880335489909,1.6887020386079767e+18,96.25597672526042,-1.5649059812227886,-7.825527191162109,4.259024937947591,1.6887020386079767e+18,96.25597672526042,-1.366003155708313,-8.511663436889648,4.680725574493408,1.6887020385993257e+18,96.24732552083331,-1.1207850178082783,-1.9067649443944297,0.5204571882883707,1.6887020385993257e+18,96.24732552083331,-1.1220576763153076,-1.902234435081482,0.5227479388316473,,,,,,,,,,,,1.688702038597183e+18,96.24518315429688,0.1561600022017955,49.990719604492185,0.71735996901989,1.688702038597183e+18,96.24518315429688,-254.38463439941407,145.455712890625,-132.49443664550782,1.6887020386079767e+18,96.25597672526042,0.4035686453183492,-0.6948778430620829,-0.2947445213794707,0.5168006420135498,-1.8542073170344036,1.0467729171117146,-0.0148320303608973
6.3,1.6887020386512307e+18,96.29923059082032,1.4398446083068848,3.910921573638916,-2.9419890642166138,1.6887020386512307e+18,96.29923059082032,-0.1247258931398391,-4.446163654327393,2.0416759252548218,1.6887020386512307e+18,96.29923059082032,-1.5704165697097778,-8.339580535888672,4.920977592468262,1.68870203865123e+18,96.29922998046874,-1.0830131769180298,-2.3485732873280845,0.7182757059733073,1.68870203865123e+18,96.29922998046874,-1.0842349131902058,-2.343991835912069,0.7204646468162537,,,,,,,,,,,,1.688702038647184e+18,96.29518408203126,-1.3981199622154237,49.99315948486328,-2.0398399353027346,1.688702038647184e+18,96.29518408203126,-255.93890991210935,145.45815734863282,-135.25163879394532,1.6887020386512307e+18,96.29923059082032,0.4179999977350234,-0.7201906442642212,-0.2486135438084601,0.4946275502443313,-1.879907250404358,1.0124857425689695,-0.1047418937087058
6.35,1.6887020386944873e+18,96.3424873046875,1.56430717309316,1.4335161844889324,-3.150938669840494,1.6887020386944873e+18,96.3424873046875,-0.3637090424696604,-6.752744992574056,1.9844475984573364,1.6887020386944873e+18,96.3424873046875,-1.9338622490564985,-8.168756484985352,5.072698911031087,1.688702038703138e+18,96.35113793945312,-0.6567310492197672,-1.736129959424337,-0.636877921409905,1.688702038703138e+18,96.35113793945312,-0.6580036878585815,-1.7316502332687378,-0.6345871693144242,,,,,,,,,,,,1.6887020386971848e+18,96.34518461914062,-1.8885599493980407,49.70523910522461,-4.479839849472046,1.6887020386971848e+18,96.34518461914062,-256.4293548583984,145.17023620605468,-137.69163818359374,1.6887020386944873e+18,96.3424873046875,0.4217486083507538,-0.7433982094128927,-0.2155829419692357,0.4720540146032969,-1.9350210825602217,0.9803762435913086,-0.1402851243813831
6.4,1.688702038746394e+18,96.39439388020833,2.676843643188477,-2.719604174296061,-2.8931690057118735,1.688702038746394e+18,96.39439388020833,-0.2841476968800028,-10.592427571614584,2.225325028101603,1.688702038746394e+18,96.39439388020833,-2.9668374061584473,-7.855318705240886,5.055806636810303,1.6887020387550433e+18,96.40304337565104,-0.5311473409334818,-2.0692551533381143,-2.348166028658549,1.6887020387550433e+18,96.40304337565104,-0.5324199597040812,-2.0646736224492392,-2.3459771474202475,,,,,,,,,,,,1.6887020387471834e+18,96.39518325195311,1.888559877872467,49.41487884521485,-6.387919807434082,1.6887020387471834e+18,96.39518325195311,-252.65223083496093,144.87987670898437,-139.59971618652344,1.688702038746394e+18,96.39439388020833,0.3984489142894745,-0.7814934253692627,-0.2024736553430556,0.4348081350326538,-2.09964124361674,0.925278921922048,-0.051610508856053
6.45,1.6887020387982984e+18,96.4462985839844,7.977421760559082,-4.021685759226481,-1.8786437511444092,1.6887020387982984e+18,96.4462985839844,3.1413774018486342,-11.090533256530762,2.9168508052825928,1.6887020387982984e+18,96.4462985839844,-4.8418904940287275,-7.051342805226644,4.732807159423828,1.6887020388069496e+18,96.45494970703125,-0.1727730532487233,-2.3826798597971597,-5.731494029362996,1.6887020388069496e+18,96.45494970703125,-0.173994779586792,-2.378098408381144,-5.729254166285197,,,,,,,,,,,,1.6887020387971832e+18,96.44518310546876,11.958439826965332,48.033837890625,-6.856399917602539,1.6887020387971832e+18,96.44518310546876,-242.5823516845703,143.49883728027345,-140.06820068359374,1.6887020387982984e+18,96.4462985839844,0.3362354139486949,-0.8392470081647238,-0.2064014573891957,0.371817002693812,-2.3613785107930503,0.8002979755401611,0.1338703495760758
6.5,1.6887020388502067e+18,96.49820670572916,14.125857988993326,-7.783339500427246,2.711005369822184,1.6887020388502067e+18,96.49820670572916,8.243673006693522,-13.148360888163248,8.412965297698975,1.6887020388502067e+18,96.49820670572916,-5.888031800587972,-5.3475165367126465,5.639272212982178,1.6887020388588593e+18,96.506859375,0.9732610384623208,9.66073195139567,-3.44339652856191,1.6887020388588593e+18,96.506859375,0.9719884395599364,9.66521167755127,-3.4411566853523254,1.688702038841552e+18,96.48955224609377,0.0,0.0,0.9828923940658568,8.045999526977539,1.4910032749176023,274.9861755371094,43.10000228881836,-122.7561948,49.1906154,1.6887020388471846e+18,96.49518461914064,26.486199569702148,41.67519912719727,-9.70631971359253,1.6887020388471846e+18,96.49518461914064,-228.05459899902343,137.14020080566405,-142.91811828613282,1.6887020388502067e+18,96.49820670572916,0.1860376000404357,-0.8499096632003784,-0.2759359230597814,0.4003144204616546,-2.378295024236043,0.5740292469660441,0.3948973516623179
6.55,1.6887020389021212e+18,96.5501212565104,-3.4151390393575034,-4.647433439890544,-7.265519142150879,1.6887020389021212e+18,96.5501212565104,-7.886145114898682,-9.907482147216797,-0.2247259269158046,1.6887020389021212e+18,96.5501212565104,-4.476852099100749,-5.242544015248616,6.9781060218811035,1.6887020389021153e+18,96.5501151123047,0.1229366362094879,-0.3521638214588163,-0.1721876263618469,1.6887020389021153e+18,96.5501151123047,0.1217148974537849,-0.3476586937904358,-0.1699732542037964,,,,,,,,,,,,1.6887020388971904e+18,96.54519028320313,25.768839645385743,39.98671951293945,-16.51635913848877,1.6887020388971904e+18,96.54519028320313,-228.7719543457031,135.45171508789062,-149.72815551757813,1.6887020389021212e+18,96.5501212565104,0.1236581231156984,-0.7852374712626139,-0.3333524366219837,0.5068391760190328,-2.1389900048573813,0.561186154683431,0.4896978934605916
6.6,1.688702038954024e+18,96.60202384440105,6.692338466644287,-10.515820662180582,-6.268257300059001,1.688702038954024e+18,96.60202384440105,2.097707827885946,-16.16850185394287,0.3728815267483393,1.688702038954024e+18,96.60202384440105,-4.600476423899333,-5.635177135467529,6.578451474507649,1.688702038945375e+18,96.59337475585936,-0.6483316322167715,-2.5027658144632974,2.700889825820923,1.688702038945375e+18,96.59337475585936,-0.6496042807896932,-2.4981842835744223,2.703129688898722,,,,,,,,,,,,1.6887020389471887e+18,96.59518862304688,23.624079132080077,41.86063919067383,-15.474479866027831,1.6887020389471887e+18,96.59518862304688,-230.91671752929688,137.3256378173828,-148.68627319335937,1.688702038954024e+18,96.60202384440105,0.1812135924895603,-0.8062296509742737,-0.2899474799633026,0.4821048279603322,-2.1793881257375083,0.6093255877494812,0.3652122616767883
