seconds_elapsed_rounded,accelerometer_time,accelerometer_seconds_elapsed,accelerometer_z,accelerometer_y,accelerometer_x,accelerometeruncalibrated_time,accelerometeruncalibrated_seconds_elapsed,accelerometeruncalibrated_z,accelerometeruncalibrated_y,accelerometeruncalibrated_x,gravity_time,gravity_seconds_elapsed,gravity_z,gravity_y,gravity_x,gyroscope_time,gyroscope_seconds_elapsed,gyroscope_z,gyroscope_y,gyroscope_x,gyroscopeuncalibrated_time,gyroscopeuncalibrated_seconds_elapsed,gyroscopeuncalibrated_z,gyroscopeuncalibrated_y,gyroscopeuncalibrated_x,location_time,location_seconds_elapsed,location_altitude,location_speedAccuracy,location_bearingAccuracy,location_latitude,location_altitudeAboveMeanSeaLevel,location_bearing,location_horizontalAccuracy,location_verticalAccuracy,location_longitude,location_speed,magnetometer_time,magnetometer_seconds_elapsed,magnetometer_z,magnetometer_y,magnetometer_x,magnetometeruncalibrated_time,magnetometeruncalibrated_seconds_elapsed,magnetometeruncalibrated_z,magnetometeruncalibrated_y,magnetometeruncalibrated_x,orientation_time,orientation_seconds_elapsed,orientation_yaw,orientation_qx,orientation_qz,orientation_roll,orientation_qw,orientation_qy,orientation_pitch
0.0,1.689726692010142e+18,179.99914184570312,0.0437885221308469,-0.0130402157413959,-0.0458874306388571,1.689726692007638e+18,179.99663798828124,-0.1229248046875,0.9902130126953124,-0.0410980224609375,1.689726692010142e+18,179.99914184570312,-1.2399018609285355,9.72116905123472,-0.3631916897760704,1.689726692010142e+18,179.99914184570312,-0.0007518490776419,0.0174621395766734,-0.0079964478034525,1.6897266920126482e+18,180.00164829101564,0.0008283496463263,0.0236683646216988,-0.0072031050920486,,,,,,,,,,,,,1.689726692010142e+18,179.99914184570312,-21.16301383972168,41.56676025390625,9.531272888183594,1.689726692006987e+18,179.99598706054687,8.915939331054688,53.41543273925781,88.91053466796875,1.689726692010142e+18,179.99914184570312,0.328260313866167,0.6259888535756797,-0.2139663874284779,-0.2849485364089527,-0.7193301241876112,0.2119446826000803,-1.4386651877984005
0.05,1.6897266920602455e+18,180.04924531249998,-0.0161036949652433,-0.0274804783129691,0.002181691420637,1.6897266920577413e+18,180.0467412597656,-0.127825927734375,0.9885162353515624,-0.037799072265625,1.6897266920602455e+18,180.04924531249998,-1.2376499026702343,9.721483290202617,-0.3624491935391724,1.6897266920602455e+18,180.04924531249998,0.0046263538068159,-0.0027163818944245,-0.0021839300403371,1.6897266920627515e+18,180.0517517578125,0.0055418784264474,0.0044278781744651,-0.0022256037394981,,,,,,,,,,,,,1.6897266920602455e+18,180.04924531249998,-21.111456298828124,41.616780853271486,9.466999816894532,1.6897266920589972e+18,180.04799711914063,8.975430297851563,53.46052551269531,88.86275329589844,1.6897266920602455e+18,180.04924531249998,0.3279272036858698,0.6261221081416919,-0.2138272432178536,-0.2848869906410478,-0.7192916665777673,0.2118219074439135,-1.4389086808438911
0.1,1.6897266921103488e+18,180.09934897460937,-0.04991019065544,-0.0809586198091506,-0.0168376717955991,1.6897266921078449e+18,180.09684482421875,-0.1314208984375,0.9830474853515624,-0.0378173828125,1.6897266921103488e+18,180.09934897460937,-1.235716304259151,9.72175006599307,-0.3618950083355605,1.6897266921103488e+18,180.09934897460937,0.0033192703151143,0.0053227730095386,0.0021581235807389,1.6897266921128556e+18,180.10185537109373,0.004874383797869,0.0101237402763217,0.0027672373689711,,,,,,,,,,,,,1.6897266921103488e+18,180.09934897460937,-21.12926483154297,41.66870346069336,9.389627075195312,1.68972669211101e+18,180.10000991210936,8.949337768554688,53.50992431640625,88.8306884765625,1.6897266921103488e+18,180.09934897460937,0.3276664283524304,0.6262263317390924,-0.2137361524767559,-0.2848960368700631,-0.7192502249941403,0.21174649972191,-1.4391156943950636
0.15,1.689726692160452e+18,180.14945224609377,-0.0079436232547462,-0.0236964005035161,-0.0162380765476822,1.6897266921579484e+18,180.1469483886719,-0.126214599609375,0.9890899658203124,-0.0389556884765625,1.689726692160452e+18,180.14945224609377,-1.2405426430501043,9.721230542937516,-0.3593222644641995,1.689726692160452e+18,180.14945224609377,0.0063440883532165,-0.0050946264527737,0.0121788619086145,1.6897266921629586e+18,180.15195844726563,0.0078041804023086,0.0025167937390506,0.0131722079589962,,,,,,,,,,,,,1.689726692160452e+18,180.14945224609377,-21.167485809326173,41.74704132080078,9.455859375,1.6897266921630228e+18,180.15202299804687,8.86090087890625,53.611090087890624,88.82479858398438,1.689726692160452e+18,180.14945224609377,0.3309070495948017,0.6260489593546763,-0.2139750528273261,-0.2819348261019245,-0.7193502423432034,0.2116899136130355,-1.4387130133155452
0.2,1.689726692210556e+18,180.199555859375,0.0808279207146167,-0.0195508543574809,-0.0153625285156443,1.6897266922080517e+18,180.19705190429687,-0.1194976806640625,0.9892547607421877,-0.0377655029296875,1.689726692210556e+18,180.199555859375,-1.24288359476611,9.721005618914363,-0.3573247631975263,1.689726692210556e+18,180.199555859375,0.0046205924823879,0.0077138884924351,-0.0105580047704279,1.6897266922130624e+18,180.2020623046875,0.005214416142553,0.014680728688836,-0.0106217515654861,,,,,,,,,,,,,1.689726692210556e+18,180.199555859375,-21.248617935180665,41.78747329711914,9.4611328125,1.689726692215035e+18,180.20403491210936,8.874954223632812,53.661859130859376,88.840283203125,1.689726692210556e+18,180.199555859375,0.3326961982735726,0.6260070555760129,-0.2139963450576049,-0.2799461116288715,-0.7194268817736914,0.2115318668790118,-1.438538742805856
0.25,1.6897266922606597e+18,180.249659375,-0.1101262328784167,-0.052128597357273,0.000532294858843,1.6897266922581553e+18,180.24715522460937,-0.137396240234375,0.9863037109375,-0.0364898681640625,1.6897266922606597e+18,180.249659375,-1.241610038472861,9.721230542937516,-0.355592591029629,1.6897266922606597e+18,180.249659375,0.0035856915870681,-0.0039822503924369,0.0108366412110626,1.6897266922631654e+18,180.252165625,0.0054083473980426,0.0017503891780506,0.0132565770938526,,,,,,,,,,,,,1.6897266922606597e+18,180.249659375,-21.353091430664065,41.84520721435547,9.46156005859375,1.6897266922618478e+18,180.25084783935543,8.654186248779297,53.680198669433594,88.84272384643555,1.6897266922606597e+18,180.249659375,0.3335656845015539,0.6260893831322131,-0.2139909119092576,-0.2789302463409423,-0.7193832725058268,0.2114416866756335,-1.4387129213274712
0.3,1.689726692310763e+18,180.299762890625,0.0726454618157445,-0.0273448692345618,0.0010120485063269,1.689726692308259e+18,180.29725903320312,-0.1193389892578125,0.9882781982421877,-0.03568115234375,1.689726692310763e+18,180.299762890625,-1.2438589572173355,9.721018244587182,-0.3535582429643347,1.689726692310763e+18,180.299762890625,0.0088527879677712,0.0048158328048884,-0.0028783755842596,1.6897266923132692e+18,180.30226928710937,0.0101838214322924,0.0109848471824079,-0.0031176560558378,,,,,,,,,,,,,1.689726692310763e+18,180.299762890625,-21.402630615234376,41.753038024902345,9.38703155517578,1.6897266923086584e+18,180.29765834960935,8.672744750976562,53.59377746582031,88.77795715332032,1.689726692310763e+18,180.299762890625,0.3357124587252217,0.6260138010262997,-0.2141399602761898,-0.2769385096076571,-0.7194186860276114,0.2113943196897171,-1.4385484914690605
0.35,1.6897266923608663e+18,180.34986625976563,-0.0277277310723066,-0.0429897145164012,-0.038632425315827,1.6897266923583624e+18,180.3473623046875,-0.1299468994140625,0.987127685546875,-0.03927001953125,1.6897266923608663e+18,180.34986625976563,-1.2446107984979449,9.721070383939743,-0.3494378531791269,1.6897266923608663e+18,180.34986625976563,0.0068449240177869,-0.0011597322300076,0.0016953458543866,1.6897266923633723e+18,180.35237250976564,0.0085477352142333,0.0038833682890981,0.0038527951575815,,,,,,,,,,,,,1.6897266923608663e+18,180.34986625976563,-21.36645927429199,41.72456512451172,9.461337280273437,1.6897266923606715e+18,180.34967158203125,8.701589965820313,53.56450500488281,88.85396423339844,1.6897266923608663e+18,180.34986625976563,0.3386889464192496,0.6260599058067882,-0.2142013409305432,-0.2737141578810741,-0.7194269964600213,0.2111670040400994,-1.4385887846007748
0.4,1.6897266924109696e+18,180.39996982421872,0.0331464827984571,-0.0206406369686126,-0.0175473909675329,1.6897266924084657e+18,180.397465625,-0.12354736328125,0.9894317626953124,-0.0371185302734375,1.6897266924109696e+18,180.39996982421872,-1.2456000725701453,9.721018244587182,-0.3473885924991219,1.6897266924109696e+18,180.39996982421872,0.0036769345635547,-0.0048723648302256,0.0025335890473798,1.6897266924134764e+18,180.4024763671875,0.0050772099522873,0.0015781891066581,0.0015097460593096,,,,,,,,,,,,,1.6897266924109696e+18,180.39996982421872,-21.38123550415039,41.782107543945315,9.500245666503906,1.6897266924126843e+18,180.401684375,8.745367431640625,53.634271240234376,88.87979736328126,1.6897266924109696e+18,180.39996982421872,0.3408364277104557,0.6260034316307055,-0.2144314517957853,-0.2719815038205047,-0.719393594284792,0.2112149926228147,-1.438548507411182
0.45,1.6897266924610732e+18,180.45007333984375,0.0011999065351486,-0.0447369673490523,0.0060983022620529,1.6897266924585692e+18,180.4475692871094,-0.1273468017578125,0.9863037109375,-0.0349456787109375,1.6897266924610732e+18,180.45007333984375,-1.2451970155011116,9.721112469515798,-0.3461945019567757,1.6897266924610732e+18,180.45007333984375,0.0061414223164319,-0.0015166755765676,-0.0013176882639527,1.6897266924635796e+18,180.4525795410156,0.0069540994241833,0.0032493228063685,0.0014936071645934,,,,,,,,,,,,,1.6897266924610732e+18,180.45007333984375,-21.356769180297853,41.806348419189455,9.496347045898435,1.689726692464695e+18,180.4536951660156,8.755145263671874,53.66011352539063,88.87626647949219,1.6897266924610732e+18,180.45007333984375,0.3417515265521091,0.6260205802873314,-0.2145078240971008,-0.2711751666395748,-0.7193565401398196,0.2112128157406444,-1.4386213776940189
0.5,1.689726692511177e+18,180.5001768554687,0.0637436610533296,-0.0266566531616448,-0.0397815003661438,1.689726692508673e+18,180.49767294921875,-0.1202392578125,0.98868408203125,-0.0387298583984375,1.689726692511177e+18,180.5001768554687,-1.2469581507286427,9.720958740258812,-0.3441585976019501,1.689726692511177e+18,180.5001768554687,0.0049144474556668,0.0001028071157634,9.332563495264011e-05,1.6897266925136832e+18,180.5026832519531,0.0062847938854246,0.0068524732487275,0.0005476525751873,,,,,,,,,,,,,1.689726692511177e+18,180.5001768554687,-21.235229873657225,41.80514373779297,9.505670166015625,1.6897266925115044e+18,180.50050439453125,8.821281433105469,53.62390899658203,88.90018463134766,1.689726692511177e+18,180.5001768554687,0.3436223601385787,0.625980342438784,-0.2145926897260681,-0.2692941004489021,-0.7193936170299093,0.2111194863623978,-1.4385024782180158
0.55,1.6897266925612805e+18,180.55028037109375,-0.054178281815648,-0.0423529363697766,-0.0474984825646876,1.6897266925587763e+18,180.54777626953123,-0.1333648681640625,0.987030029296875,-0.03946533203125,1.6897266925612805e+18,180.55028037109375,-1.2445564087361096,9.721332015937566,-0.3423072852598875,1.6897266925612805e+18,180.55028037109375,0.0022355802357196,0.0011827777605503,0.0019746095407754,1.6897266925637865e+18,180.55278657226563,0.0040143425110727,0.0073048377409576,0.0041668883524834,,,,,,,,,,,,,1.6897266925612805e+18,180.55028037109375,-21.33559646606445,41.911478424072264,9.503646850585938,1.6897266925583163e+18,180.54731655273437,8.719317626953124,53.77976684570312,88.88636474609375,1.6897266925612805e+18,180.55028037109375,0.3445794460055082,0.6260827813286977,-0.2146573475603212,-0.2684067640669283,-0.7192892294417189,0.2111057391237662,-1.438791446191681
0.6,1.6897266926113838e+18,180.6003837890625,0.0305540405394136,-0.0246903215247392,0.0309023425204306,1.68972669260888e+18,180.5978796875,-0.12325439453125,0.9888519287109376,-0.03160400390625,1.6897266926113838e+18,180.6003837890625,-1.2470178304135795,9.72102736312866,-0.341998811139129,1.6897266926113838e+18,180.6003837890625,0.0066386819817125,-0.007416419358924,0.0060591262299567,1.6897266926138903e+18,180.6028903320312,0.006875003594905,-0.0005173456360353,0.0049526806629728,,,,,,,,,,,,,1.6897266926113838e+18,180.6003837890625,-21.43796997070313,41.864138793945315,9.473770141601562,1.6897266926103286e+18,180.59932851562505,8.629879760742188,53.699703979492185,88.85986633300782,1.6897266926113838e+18,180.6003837890625,0.3454926433922584,0.6259769054862498,-0.2147573581550064,-0.2676720056804054,-0.7193466007434065,0.21112247041474,-1.4385555955064775
0.65,1.689726692661487e+18,180.6504872070313,-0.0005055529823899,-0.0383664970821141,-0.0254159323855489,1.6897266926589834e+18,180.6479833984375,-0.1284088134765625,0.987213134765625,-0.03690185546875,1.689726692661487e+18,180.6504872070313,-1.2468435259860755,9.721116678073404,-0.3400888785580545,1.689726692661487e+18,180.6504872070313,0.0046557436697184,0.0060919664800166,-0.0053357056807726,1.6897266926639936e+18,180.65299350585937,0.0067052002996205,0.0126121448585762,-0.002921540942043,,,,,,,,,,,,,1.689726692661487e+18,180.6504872070313,-21.447943496704102,41.79075317382812,9.461395263671877,1.6897266926623383e+18,180.65133833007812,8.625762939453125,53.62547912597656,88.85572204589843,1.689726692661487e+18,180.6504872070313,0.3468623249162884,0.6260074879204465,-0.2148145434836955,-0.2662822154548482,-0.7193233292754522,0.2110528223007675,-1.4386245243190632
0.7,1.689726692711591e+18,180.70059072265627,-0.0612965601621567,-0.0551911413460969,-0.0090790204928442,1.6897266927090867e+18,180.69808671875,-0.1328338623046875,0.98602294921875,-0.0355010986328125,1.689726692711591e+18,180.70059072265627,-1.248690732061863,9.720971599740384,-0.3374219170645997,1.689726692711591e+18,180.70059072265627,0.0047914639580994,-0.0091572161763905,0.0124850940890609,1.6897266927140972e+18,180.70309707031248,0.0057363423518836,-0.0032018653582781,0.0140676690265535,,,,,,,,,,,,,1.689726692711591e+18,180.70059072265627,-21.433575057983397,41.71174545288086,9.464761352539062,1.6897266927143483e+18,180.7033482421875,8.633392333984375,53.50504150390625,88.82573852539062,1.689726692711591e+18,180.70059072265627,0.3494239609622979,0.6259494226827129,-0.2149968861794605,-0.2639179372040734,-0.7193342535020213,0.2110019088394537,-1.438512429975901
0.75,1.6897266927616942e+18,180.75069428710935,0.0376894453772902,-0.029226328293085,0.0232479699227958,1.6897266927591905e+18,180.748190234375,-0.12403564453125,0.9881561279296877,-0.0314239501953125,1.6897266927616942e+18,180.75069428710935,-1.2530160186889767,9.72047545756042,-0.3356913157992809,1.6897266927616942e+18,180.75069428710935,0.0070114327594637,-0.001950314361602,0.0014800513396039,1.6897266927642004e+18,180.7532005371094,0.0072206819429993,0.0041166077833622,0.0019680761033669,,,,,,,,,,,,,1.6897266927616942e+18,180.75069428710935,-21.479327392578124,41.73551025390625,9.44113311767578,1.689726692761159e+18,180.75015869140623,8.602218627929688,53.62589263916016,88.82743453979492,1.6897266927616942e+18,180.75069428710935,0.351885354914781,0.6257781806580576,-0.2152100882411276,-0.2617600783557515,-0.7194238274568499,0.2109872715974753,-1.4381294061925292
0.8,1.6897266928117978e+18,180.80079765625,-0.036136136907637,-0.0369237801539897,-0.0033387671143188,1.6897266928092938e+18,180.79829375,-0.13201904296875,0.9872772216796876,-0.034521484375,1.6897266928117978e+18,180.80079765625,-1.256014499078691,9.720183196615576,-0.3329566301383823,1.6897266928117978e+18,180.80079765625,0.0073899827897548,-0.0093606769107281,0.0113175116479396,1.689726692814304e+18,180.80330400390625,0.0078719845041632,-0.0042901928085484,0.0128030405845492,,,,,,,,,,,,,1.6897266928117978e+18,180.80079765625,-21.430453491210937,41.76664657592774,9.424618530273438,1.6897266928079688e+18,180.79696879882812,8.63658447265625,53.606744384765626,88.81012573242188,1.6897266928117978e+18,180.80079765625,0.3547516498522692,0.6256744471169513,-0.2154203886975527,-0.2591302581352752,-0.7194671837903702,0.2109326097698546,-1.4379042931466246
0.85,1.689726692861901e+18,180.8509010742187,0.0350571679514646,-0.0409649306905269,-0.0059381797968968,1.689726692859397e+18,180.8483970703125,-0.124810791015625,0.9867645263671876,-0.0339263916015625,1.689726692861901e+18,180.8509010742187,-1.2610379971030354,9.719614106103776,-0.3305371405999734,1.689726692861901e+18,180.8509010742187,0.0053713925182818,-0.0081223669927566,0.008197005232796,1.6897266928644073e+18,180.8534072753906,0.0069902651943265,-0.0014154167409287,0.0072037973441182,,,,,,,,,,,,,1.689726692861901e+18,180.8509010742187,-21.36875762939453,41.71055297851562,9.33942108154297,1.689726692859979e+18,180.84897885742183,8.72105712890625,53.53959350585937,88.73952026367188,1.689726692861901e+18,180.8509010742187,0.3581595098229894,0.6254512634886666,-0.2157810328357935,-0.2563486860957822,-0.7195370090480171,0.2109873694774692,-1.437467042132727
0.9,1.6897266929120046e+18,180.9010045410156,-0.000950052653402,-0.0349843365240096,0.000966463105455,1.6897266929095004e+18,180.89850043945313,-0.12923583984375,0.98731689453125,-0.03323974609375,1.6897266929120046e+18,180.9010045410156,-1.2637869450980426,9.719350252922773,-0.3278049172375351,1.6897266929120046e+18,180.9010045410156,0.007627229578793,-0.0093544226139783,0.0040739396121352,1.6897266929145108e+18,180.9035108886719,0.0085389463230966,-0.0045221539388876,0.0068003284744918,,,,,,,,,,,,,1.6897266929120046e+18,180.9010045410156,-21.3311279296875,41.6168815612793,9.369924926757813,1.689726692911991e+18,180.90099096679688,8.7038818359375,53.513330078125,88.78821411132813,1.6897266929120046e+18,180.9010045410156,0.3611032313873478,0.6253409805630769,-0.2160422462632054,-0.2537902687649712,-0.7195560795470847,0.2109821201472313,-1.4372648701968829
0.95,1.689726692962108e+18,180.95110800781248,0.0008894377334415,-0.0277289001160859,-0.0192539683831855,1.6897266929596042e+18,180.94860415039065,-0.12891845703125,0.9882110595703124,-0.0353546142578125,1.689726692962108e+18,180.95110800781248,-1.2669133481033146,9.719009125947952,-0.3258699744261055,1.689726692962108e+18,180.95110800781248,0.0048464379273354,-0.008130562165752,0.010588599834591,1.689726692964614e+18,180.9536142578125,0.0060129382647573,-0.0007502657012082,0.0110142482444643,,,,,,,,,,,,,1.689726692962108e+18,180.95110800781248,-21.4367374420166,41.78941040039062,9.40930633544922,1.6897266929640054e+18,180.95300546875,8.624249267578126,53.615264892578125,88.76725769042969,1.689726692962108e+18,180.95110800781248,0.3636820534830681,0.6251904776657188,-0.2163380215735723,-0.2517587218948616,-0.7195780357807084,0.2110503717943617,-1.4370037516639471
1.0,1.6897266930122117e+18,181.0012114746094,0.0321284502492844,-0.0202238728612661,0.0078873484098166,1.6897266930097075e+18,180.99870756835935,-0.12623291015625,0.9890289306640624,-0.0321624755859375,1.6897266930122117e+18,181.0012114746094,-1.2702299545314908,9.718625445779562,-0.3243709022812917,1.6897266930122117e+18,181.0012114746094,0.0056748742237686,-0.0133366306312381,0.0056400558911263,1.689726693014718e+18,181.00371787109376,0.0074816716834902,-0.0079572589733288,0.0061677744612097,,,,,,,,,,,,,1.6897266930122117e+18,181.0012114746094,-21.318353271484376,41.77025909423829,9.370819091796877,1.6897266930108196e+18,180.9998194580078,8.843238830566406,53.62469100952149,88.75406265258789,1.6897266930122117e+18,181.0012114746094,0.3658815123030335,0.6250368646595852,-0.2165901117021117,-0.250020907733807,-0.7196196335770194,0.2111047370927945,-1.436710884685562
1.05,1.6897266930623153e+18,181.05131508789063,-0.0063623454126714,-0.0370861603349446,0.0002115603914484,1.6897266930598108e+18,181.04881103515623,-0.1304168701171875,0.9871917724609376,-0.033331298828125,1.6897266930623153e+18,181.05131508789063,-1.2724706315173209,9.71839982033014,-0.3223512914741411,1.6897266930623153e+18,181.05131508789063,0.0068446541205048,-0.0140445474535226,0.0079457408748566,1.6897266930648212e+18,181.0538213378906,0.0085966305807232,-0.0060222593136131,0.0074616447091102,,,,,,,,,,,,,1.6897266930623153e+18,181.05131508789063,-21.39253044128418,41.63380889892578,9.34576873779297,1.6897266930576328e+18,181.04663271484375,8.670993041992187,53.46392822265625,88.73507995605469,1.6897266930623153e+18,181.05131508789063,0.3686121230474606,0.6248913728340304,-0.2169770952379711,-0.2481078122964136,-0.7195824484318735,0.211264815661996,-1.4365388107784582
1.1,1.6897266931124183e+18,181.10141826171875,0.0087960023003816,-0.0395092373764514,-0.0056973421652987,1.689726693109914e+18,181.0989142578125,-0.1289031982421875,0.9869842529296876,-0.033087158203125,1.6897266931124183e+18,181.10141826171875,-1.275567954558581,9.7180688640362,-0.3200638308175653,1.6897266931124183e+18,181.10141826171875,0.0060745660215615,-0.0064875449519604,0.007898940052837,1.6897266931149248e+18,181.1039247558594,0.0072953568771481,-0.0010654241836163,0.0095566469244658,,,,,,,,,,,,,1.6897266931124183e+18,181.10141826171875,-21.431536865234374,41.737448120117186,9.35546875,1.6897266931096438e+18,181.09864365234375,8.636642456054688,53.5980712890625,88.74161071777344,1.6897266931124183e+18,181.10141826171875,0.3714320327811883,0.6247450157651402,-0.2172880414521776,-0.2458435272345645,-0.7195983108365818,0.211323914670636,-1.436286885305461
1.15,1.689726693162522e+18,181.15152197265624,0.0079418696890771,-0.042128479964137,0.0033239860170334,1.6897266931600182e+18,181.14901811523436,-0.129718017578125,0.9866424560546876,-0.0322998046875,1.689726693162522e+18,181.15152197265624,-1.2790835322380063,9.717666245358586,-0.3182810755866393,1.689726693162522e+18,181.15152197265624,0.0047425135038792,-0.0136637872084974,0.0091746917925774,1.689726693165028e+18,181.15402817382812,0.0061401840299367,-0.0076718746684491,0.0113590743392705,,,,,,,,,,,,,1.689726693162522e+18,181.15152197265624,-21.50407485961914,41.69741287231445,9.364697265625,1.6897266931616535e+18,181.150653515625,8.556741333007812,53.52591247558594,88.75090637207032,1.689726693162522e+18,181.15152197265624,0.3739178242575142,0.6245807280789075,-0.2175744843732922,-0.2438824773027793,-0.7196363767927595,0.2113854259865411,-1.4359811329835517
1.2,1.6897266932126254e+18,181.2016252929687,0.0315020765922963,-0.0044577977395057,0.0179266287695616,1.6897266932101212e+18,181.19912128906248,-0.1277923583984375,0.990380859375,-0.030230712890625,1.6897266932126254e+18,181.2016252929687,-1.2827117472855745,9.717225515853762,-0.3171417182127386,1.6897266932126254e+18,181.2016252929687,0.0051672134548425,-0.0097943820990621,0.0036907149944454,1.689726693215132e+18,181.20413188476564,0.0067861072719096,-0.0032211465761064,0.0060972006991505,,,,,,,,,,,,,1.6897266932126254e+18,181.2016252929687,-21.555063247680664,41.75608367919922,9.279611206054687,1.689726693213664e+18,181.2026640625,8.521694946289063,53.59803161621094,88.68953247070313,1.6897266932126254e+18,181.2016252929687,0.3760844327538409,0.6243897782467738,-0.2178909823341065,-0.242382388769736,-0.7196691693952445,0.2115119482089106,-1.4356471551135832
1.25,1.689726693262729e+18,181.2517290527344,-0.0208866037797927,-0.0438275681930779,0.010826339084208,1.689726693260225e+18,181.24922504882812,-0.132965087890625,0.9859039306640623,-0.0315399169921875,1.689726693262729e+18,181.2517290527344,-1.2839831408478315,9.717150463243126,-0.3142614500686898,1.689726693262729e+18,181.2517290527344,0.0069199997931718,-0.008002006728202,0.0081083578057586,1.6897266932652357e+18,181.25423530273437,0.0082941488362848,-0.0014137656544335,0.0083844832843169,,,,,,,,,,,,,1.689726693262729e+18,181.2517290527344,-21.52166175842285,41.86562271118164,9.229869079589845,1.6897266932604751e+18,181.24947509765624,8.565750122070312,53.75556182861328,88.56707763671875,1.689726693262729e+18,181.2517290527344,0.3788457270030063,0.6243323646334146,-0.2181532776669582,-0.2400364815439549,-0.7196346904951494,0.2115281916409907,-1.43559039924492
1.3,1.689726693312832e+18,181.3018321777344,0.0321285379275679,-0.0218984111708402,-0.0111850017157197,1.6897266933103283e+18,181.29932836914065,-0.1279510498046875,0.9889129638671876,-0.032525634765625,1.689726693312832e+18,181.3018321777344,-1.2879770620156823,9.716679923121928,-0.3124808941013738,1.689726693312832e+18,181.3018321777344,0.0031709575094282,-0.0015261062420904,0.0079834551084786,1.6897266933153388e+18,181.3043385742188,0.0053763363510369,0.0054444067180156,0.0066040004370733,,,,,,,,,,,,,1.689726693312832e+18,181.3018321777344,-21.61137962341309,41.714901733398435,9.342181396484374,1.689726693307287e+18,181.29628706054692,8.444244384765625,53.54672546386719,88.73840637207032,1.689726693312832e+18,181.3018321777344,0.3811827409775088,0.6241724414334671,-0.2183695293581783,-0.2380152546487052,-0.719710619462644,0.2115188098185732,-1.435234772554981
1.35,1.6897266933629363e+18,181.35193613281248,-0.0152264152871071,-0.0344490313774346,0.0004584551311284,1.689726693360432e+18,181.34943208007812,-0.1331939697265625,0.98714599609375,-0.0317596435546875,1.6897266933629363e+18,181.35193613281248,-1.2915288800522684,9.71627122541666,-0.3105074678300321,1.6897266933629363e+18,181.35193613281248,0.0044184244237839,-0.0061931591480969,0.010125852562487,1.6897266933654423e+18,181.3544423339844,0.0051480501890181,-0.0009147958131506,0.0111989117227494,,,,,,,,,,,,,1.6897266933629363e+18,181.35193613281248,-21.598278427124026,41.68004760742187,9.360951232910155,1.6897266933592998e+18,181.34829965820313,8.481246948242188,53.5204833984375,88.75443115234376,1.6897266933629363e+18,181.35193613281248,0.3833691099013892,0.6240525159296976,-0.2185147866532428,-0.2359411082761188,-0.7197923097641302,0.211444566349944,-1.4349268951347562
1.4,1.6897266934130394e+18,181.4020392578125,0.053011722254306,-0.0140534259849786,-0.0019039412317052,1.6897266934105352e+18,181.39953520507817,-0.126513671875,0.98907470703125,-0.0314697265625,1.6897266934130394e+18,181.4020392578125,-1.2959017175351082,9.71571744937837,-0.3096116515014692,1.6897266934130394e+18,181.4020392578125,0.002681020903401,0.0007733543403446,0.0045054334914311,1.6897266934155456e+18,181.404545703125,0.004028084327001,0.0075069184415042,0.0065870626654941,,,,,,,,,,,,,1.6897266934130394e+18,181.4020392578125,-21.531557464599608,41.683930206298825,9.285690307617188,1.6897266934113142e+18,181.40031425781248,8.540011596679687,53.53541870117188,88.6607879638672,1.6897266934130394e+18,181.4020392578125,0.3850047131730079,0.6238790018702686,-0.2186679787779131,-0.2345199119579024,-0.7199006375669568,0.211429401930085,-1.4345105703327534
1.45,1.689726693463143e+18,181.45214282226564,-0.0221149473048746,-0.038693127914071,0.0116219062554277,1.689726693460639e+18,181.44963891601563,-0.13482666015625,0.9865936279296876,-0.0303436279296875,1.689726693463143e+18,181.45214282226564,-1.2973595151279866,9.715607442358731,-0.3069465787443705,1.689726693463143e+18,181.45214282226564,0.0053021574858575,-0.0022437739185988,0.0063052413985132,1.6897266934656492e+18,181.45464921875,0.0060770139389205,0.0048408809991087,0.0082229361170902,,,,,,,,,,,,,1.689726693463143e+18,181.45214282226564,-21.66708755493164,41.558274841308595,9.354524230957033,1.6897266934633295e+18,181.45232963867187,8.375790405273438,53.36643981933594,88.75167846679688,1.689726693463143e+18,181.45214282226564,0.3871589532767234,0.6238608270059167,-0.2187592619417601,-0.2323215929753081,-0.7199245454646277,0.2113072193677957,-1.434428197601776
1.5,1.6897266935132462e+18,181.5022462402343,0.0031484979327022,-0.029472412008643,0.0072082910642586,1.6897266935107425e+18,181.49974228515623,-0.1322265625,0.9876861572265624,-0.030181884765625,1.6897266935132462e+18,181.5022462402343,-1.3017035356816649,9.71506523985386,-0.3057054086170717,1.6897266935132462e+18,181.5022462402343,0.0015569540904834,-0.0001044572331011,0.0115146510303019,1.6897266935157527e+18,181.50475263671876,0.0030985879246145,0.0074455592082812,0.0110681506805121,,,,,,,,,,,,,1.6897266935132462e+18,181.5022462402343,-21.717608642578124,41.541693115234374,9.345301818847656,1.689726693510142e+18,181.4991417236328,8.379467010498047,53.41439437866211,88.70795822143555,1.6897266935132462e+18,181.5022462402343,0.3889723250455326,0.623697825575005,-0.2189054086454777,-0.2306705183087253,-0.7200338962862164,0.211264311329287,-1.434021931707408
1.55,1.6897266935633498e+18,181.5523499511719,0.0112832306192814,-0.0238703542178868,0.0177004955167509,1.6897266935608458e+18,181.54984580078127,-0.1320404052734375,0.9881103515625,-0.029241943359375,1.6897266935633498e+18,181.5523499511719,-1.3057084458610415,9.71458055430293,-0.3040171011637337,1.6897266935633498e+18,181.5523499511719,0.0038918444886803,0.0011183118447661,0.0045546308625488,1.6897266935658565e+18,181.55485629882813,0.0062047923915087,0.0079402681440114,0.0071130901575088,,,,,,,,,,,,,1.6897266935633498e+18,181.5523499511719,-21.732974243164065,41.40827178955078,9.39386444091797,1.6897266935569556e+18,181.54595546875,8.3372314453125,53.24231567382813,88.78809509277343,1.6897266935633498e+18,181.5523499511719,0.390821723350823,0.6235759580921714,-0.2189835277052998,-0.2287614017817542,-0.7201519220594236,0.211140756084331,-1.4336600260593015
1.6,1.6897266936134533e+18,181.6024532226563,-0.0138323598062991,-0.030640052935481,-0.0168462569608538,1.6897266936109494e+18,181.5999493652344,-0.1347564697265625,0.9873809814453124,-0.032415771484375,1.6897266936134533e+18,181.6024532226563,-1.308395463761836,9.714287825740575,-0.3018220570711791,1.6897266936134533e+18,181.6024532226563,0.0019227090291678,0.0021257324144244,0.0073450150899588,1.6897266936109494e+18,181.59994940185547,0.0031607727287336,0.0108530471334233,0.0084575337823479,,,,,,,,,,,,,1.6897266936134533e+18,181.6024532226563,-21.640870666503908,41.5304458618164,9.33564453125,1.6897266936089682e+18,181.59796826171876,8.423123168945313,53.3775146484375,88.72357482910157,1.6897266936134533e+18,181.6024532226563,0.3926988286170423,0.6235200789441041,-0.2190262574854434,-0.2267154580143516,-0.7202340578421572,0.2109812925302501,-1.433441738240847
1.65,1.6897266936635569e+18,181.65255683593747,0.0265284675112366,-0.0163843823766707,0.0109032219790108,1.689726693661053e+18,181.6500529296875,-0.1309112548828125,0.988787841796875,-0.0297882080078125,1.6897266936635569e+18,181.65255683593747,-1.3113468316872416,9.713918992428182,-0.3009006825229897,1.6897266936635569e+18,181.65255683593747,0.0015550820389762,-0.0011253917589783,0.0025879622786305,1.6897266936560422e+18,181.64504243164063,0.0030152309918775,0.0021359084639698,0.0050146257970481,,,,,,,,,,,,,1.6897266936635569e+18,181.65255683593747,-21.711032485961915,41.43408279418945,9.357452392578123,1.6897266936609818e+18,181.64998178710937,8.358639526367188,53.27315368652344,88.74135131835938,1.6897266936635569e+18,181.65255683593747,0.3939876307450768,0.6234083505277825,-0.2191345370147147,-0.2255548046559018,-0.7203056316398698,0.210954848553772,-1.433167389016479
1.7,1.6897266937136604e+18,181.7026603027344,-0.016425006648004,-0.0325149653488397,-0.0046759120826423,1.6897266937111562e+18,181.70015620117184,-0.13529052734375,0.9872650146484376,-0.0308135986328125,1.6897266937136604e+18,181.7026603027344,-1.311459030663967,9.713917823384405,-0.3004351364106871,1.6897266937136604e+18,181.7026603027344,0.0023983993800356,-0.0013867706526071,0.0002901156549341,1.6897266937061463e+18,181.69514614257815,0.0027211114065721,0.0072831594850867,-0.0008595086168497,,,,,,,,,,,,,1.6897266937136604e+18,181.7026603027344,-21.88126220703125,41.46416397094727,9.362950134277344,1.6897266937129948e+18,181.70199487304689,8.201260375976563,53.31242370605469,88.75360107421875,1.6897266937136604e+18,181.7026603027344,0.3943204504256624,0.6234120172424135,-0.2191435350652474,-0.2251988544123054,-0.7203068302543529,0.2109304476571714,-1.433166501431528
1.75,1.6897266937637637e+18,181.7527638671875,0.0031449908013641,-0.0316771116721629,-0.0149360175057873,1.68972669376126e+18,181.7502598632813,-0.1333984375,0.98751220703125,-0.0318389892578125,1.6897266937637637e+18,181.7527638671875,-1.3119053715789315,9.713857617629769,-0.3004104659336805,1.6897266937637637e+18,181.7527638671875,-0.0007254328811541,-0.0047068763524293,0.0019685991574078,1.689726693756249e+18,181.74524921875,0.0009312008915003,8.186558261513988e-05,0.004710492864251,,,,,,,,,,,,,1.6897266937637637e+18,181.7527638671875,-21.978834915161137,41.439089965820315,9.394308471679688,1.689726693765008e+18,181.7540080078125,8.052108764648438,53.28380737304688,88.77608642578124,1.6897266937637637e+18,181.7527638671875,0.3946837172974691,0.6233671634299239,-0.2192468319848033,-0.225106912400748,-0.7202911246664997,0.2110090511050923,-1.4331216652378214
1.8,1.6897266938138673e+18,181.8028671875,-0.0352423444861173,-0.0359063613528012,0.0387947945369966,1.6897266938113633e+18,181.80036333007817,-0.13743896484375,0.9866302490234377,-0.0267333984375,1.6897266938138673e+18,181.8028671875,-1.3131120877940954,9.71371838451564,-0.2996728650676086,1.6897266938138673e+18,181.8028671875,0.0058107054792343,-0.0067109359428285,0.0033756403368897,1.689726693806353e+18,181.79535302734377,0.0057571150187868,0.0008938101062085,0.0042367164045571,,,,,,,,,,,,,1.6897266938138673e+18,181.8028671875,-21.923053359985353,41.478730010986325,9.360882568359376,1.689726693811821e+18,181.80082092285156,8.194473266601562,53.32400894165039,88.74211120605469,1.6897266938138673e+18,181.8028671875,0.3955700513529602,0.6233151294666766,-0.2193395642206309,-0.2243732691964498,-0.7203056907558253,0.2110169796930337,-1.4330183239610677
1.85,1.689726693863971e+18,181.85297094726565,0.0004036123648285,-0.0280302796024083,-0.0237188351842947,1.689726693861467e+18,181.85046694335935,-0.1339508056640625,0.987567138671875,-0.03302001953125,1.689726693863971e+18,181.85297094726565,-1.3152989595399798,9.71347370365262,-0.2980019069546088,1.689726693863971e+18,181.85297094726565,0.0030482009984552,-0.0072508482262491,0.005186155065894,1.6897266938564562e+18,181.84545634765624,0.0045880938647314,-5.075986264272007e-05,0.006276165228337,,,,,,,,,,,,,1.689726693863971e+18,181.85297094726565,-21.82730598449707,41.48719711303711,9.509640502929688,1.6897266938586345e+18,181.8476345703125,8.256072998046875,53.33112487792969,88.90886535644532,1.689726693863971e+18,181.85297094726565,0.397519191829892,0.6232136234157567,-0.2195569248105441,-0.2228045600336012,-0.7203168452036004,0.2110525869067127,-1.4328367297111313
1.9,1.6897266939140744e+18,181.90307426757812,-0.0014134031553566,-0.0337290173137187,-5.1163931656639935e-05,1.6897266939115704e+18,181.9005704589844,-0.134613037109375,0.9871490478515624,-0.0300994873046875,1.6897266939140744e+18,181.90307426757812,-1.3171631752027568,9.713247142968177,-0.29715896428423,1.6897266939140744e+18,181.90307426757812,0.0019700675969942,-0.0041264103725552,0.0014651551144197,1.6897266939065605e+18,181.8955601074219,0.0026729082223027,0.0025462482823058,0.0022708241594954,,,,,,,,,,,,,1.6897266939140744e+18,181.90307426757812,-21.70486717224121,41.480987548828125,9.480509948730468,1.6897266939106488e+18,181.89964877929688,8.359100341796875,53.33390808105469,88.86519470214844,1.6897266939140744e+18,181.90307426757812,0.3987132035346382,0.6231250538102623,-0.2197060629505089,-0.2218905124217853,-0.7203373711569551,0.2110889269601842,-1.4326688727963464
1.95,1.689726693964178e+18,181.9531778320313,-0.0050206923192739,-0.0332262115842103,-5.770692355928017e-05,1.6897266939616737e+18,181.9506737304687,-0.1346099853515625,0.9872833251953124,-0.0300140380859375,1.689726693964178e+18,181.9531778320313,-1.3184640286682543,9.713073423062562,-0.2970626314235478,1.689726693964178e+18,181.9531778320313,0.0023212915286421,-0.0077330685220658,0.0023123864084482,1.6897266939566633e+18,181.94566333007813,0.0036306875525042,-0.0010232929998892,0.004183186776936,,,,,,,,,,,,,1.689726693964178e+18,181.9531778320313,-21.988694763183595,41.428900146484374,9.5464599609375,1.689726693962661e+18,181.95166098632816,8.07825927734375,53.26686096191406,88.94389038085937,1.689726693964178e+18,181.9531778320313,0.3993444086642717,0.6230412077686922,-0.2198488335974174,-0.2216091479247225,-0.720339829831061,0.2111793001006812,-1.4325402551107338
2.0,1.6897266940142812e+18,182.00328134765624,-0.0056598670056462,-0.0283361014550924,0.0021087905812076,1.6897266940117773e+18,182.00077729492187,-0.1351287841796875,0.987298583984375,-0.03009033203125,1.6897266940142812e+18,182.00328134765624,-1.3187525778990985,9.713061148102875,-0.2961765181583538,1.6897266940142812e+18,182.00328134765624,0.0031688599847257,-0.0018719597719609,-0.0001635186141356,1.689726694006767e+18,181.9957671875,0.003992025181651,0.0033329993719234,0.0002278067768202,,,,,,,,,,,,,1.6897266940142812e+18,182.00328134765624,-21.923319244384764,41.42610549926758,9.548805236816406,1.6897266940146747e+18,182.00367480468748,8.1999755859375,53.28146667480469,88.89518432617187,1.6897266940142812e+18,182.00328134765624,0.4002580277758616,0.6230168495457121,-0.2199642669522533,-0.2209226517985349,-0.7203147933063716,0.2112163261150044,-1.4325311955351283
2.05,1.6897266940643848e+18,182.05338471679687,-0.0034486791491508,-0.0372933148926496,-0.0068642414799891,1.6897266940618808e+18,182.0508808105469,-0.1346527099609375,0.98673095703125,-0.030633544921875,1.6897266940643848e+18,182.05338471679687,-1.3205149113965036,9.712830846478342,-0.2958825474869832,1.6897266940643848e+18,182.05338471679687,-0.0004400860285386,-0.0067922209855168,0.0042259393958374,1.6897266940568704e+18,182.0458703125,0.0010573814506642,0.0018486066721379,0.0039655001368373,1.6897266940849418e+18,182.0739418945313,337.98524284362793,-1.0,-1.0,49.27800633572973,357.1666717529297,-1.0,35.0,20.469972610473633,-122.9098680540012,-1.0,1.6897266940643848e+18,182.05338471679687,-21.800530242919923,41.405721282958986,9.548695373535155,1.6897266940614856e+18,182.05048559570312,8.262348175048828,53.19693756103515,88.97176742553711,1.6897266940643848e+18,182.05338471679687,0.4009239969478441,0.6229373975823096,-0.2200533248525912,-0.2204253297617874,-0.7203499717996739,0.2112379557447375,-1.4323608719749037
2.1,1.6897266941144883e+18,182.10348842773436,0.0245000596496462,-0.0245485165143012,0.0109965153258666,1.6897266941119844e+18,182.10098432617187,-0.132476806640625,0.9876983642578124,-0.0288726806640625,1.6897266941144883e+18,182.10348842773436,-1.320810445663929,9.712775199994445,-0.2963853239903971,1.6897266941144883e+18,182.10348842773436,-0.0008002396440133,0.0021473063156008,-0.0040469530271365,1.6897266941069742e+18,182.09597416992187,0.0007054713758406,0.0061107296729459,-0.0001783785468433,,,,,,,,,,,,,1.6897266941144883e+18,182.10348842773436,-21.77953681945801,41.44575881958008,9.543833923339845,1.689726694108295e+18,182.0972949707031,8.285189819335937,53.3072021484375,88.9231201171875,1.6897266941144883e+18,182.10348842773436,0.4007927440295423,0.6229012648405138,-0.2201050770548982,-0.2207400181660126,-0.7203446120985191,0.2113088291215443,-1.432319767450169
2.15,1.689726694164592e+18,182.15359184570312,-0.0261941209903359,-0.0453228920912742,0.0013398995277285,1.6897266941620877e+18,182.1510876953125,-0.137548828125,0.9859710693359376,-0.0302734375,1.689726694164592e+18,182.15359184570312,-1.3200055590218305,9.712899235539435,-0.2958866866326145,1.689726694164592e+18,182.15359184570312,-0.0001090514939278,0.0008279291912912,0.0016679242486133,1.6897266941570772e+18,182.14607744140625,0.0019320701016112,0.0069698122330009,0.0016679910826496,,,,,,,,,,,,,1.689726694164592e+18,182.15359184570312,-21.859308624267577,41.51960906982422,9.439288330078124,1.6897266941603067e+18,182.14930673828127,8.224774169921876,53.357565307617186,88.82886657714843,1.689726694164592e+18,182.15359184570312,0.4009216253207779,0.6229473587876095,-0.2200779006155115,-0.2205106142246196,-0.7203243839755574,0.2112700509842908,-1.432411447033271
2.2,1.6897266942146954e+18,182.20369536132813,-0.00609746931836,-0.0264265853458642,0.0321972229028679,1.6897266942121915e+18,182.20119135742183,-0.1350341796875,0.9878326416015624,-0.0265838623046875,1.6897266942146954e+18,182.20369536132813,-1.3216369011637568,9.712677818647624,-0.2958886082483268,1.6897266942146954e+18,182.20369536132813,0.0003226076602004,0.0035406242590397,0.0035317907342686,1.6897266942071813e+18,182.1961812011719,0.0003959055109589,0.0069468023721128,0.0059256932465358,,,,,,,,,,,,,1.6897266942146954e+18,182.20369536132813,-21.76038627624512,41.363059997558594,9.481544494628906,1.6897266942123177e+18,182.20131772460937,8.297433471679687,53.195379638671874,88.88159484863282,1.6897266942146954e+18,182.20369536132813,0.4011764720370908,0.6228879026411239,-0.2200919755395523,-0.2202486013330862,-0.7203778656612883,0.2112485087924356,-1.4322479732113724
2.25,1.6897266942647987e+18,182.2537987792969,-0.0158263101024925,-0.0359302098459005,0.0010613931136019,1.6897266942622948e+18,182.25129477539065,-0.1370880126953125,0.98624267578125,-0.03017578125,1.6897266942647987e+18,182.2537987792969,-1.3217842591321467,9.712694769782424,-0.2946801713468506,1.6897266942647987e+18,182.2537987792969,0.0026610207976772,0.0145788155496119,-0.0012993001961149,1.6897266942572844e+18,182.24628432617183,0.0048274056054651,0.0192795287817716,-0.0014651646721176,,,,,,,,,,,,,1.6897266942647987e+18,182.2537987792969,-21.76137924194336,41.451734924316405,9.504684448242188,1.6897266942643282e+18,182.25332802734377,8.331283569335938,53.29857482910156,88.8889892578125,1.6897266942647987e+18,182.2537987792969,0.4015654372707556,0.6229498786703714,-0.2199530944438807,-0.2193539773583074,-0.7204255171602544,0.2110478566215383,-1.4322604680220468
2.3,1.6897266943149025e+18,182.30390244140625,-0.0079919924411177,-0.0371236866402625,-0.0042812940483912,1.6897266943123983e+18,182.3013982421875,-0.135394287109375,0.9867279052734376,-0.030206298828125,1.6897266943149025e+18,182.30390244140625,-1.325159288523197,9.712301854168176,-0.2924500997800566,1.6897266943149025e+18,182.30390244140625,0.0011575538199394,-0.0011132826097309,0.0090043608099221,1.689726694307388e+18,182.29638803710935,0.0038878955878316,0.0075310997664928,0.011404507793486,,,,,,,,,,,,,1.6897266943149025e+18,182.30390244140625,-21.896220779418947,41.38053207397461,9.47603454589844,1.6897266943111388e+18,182.30013873291017,8.192604064941406,53.22596740722656,88.84351348876953,1.6897266943149025e+18,182.30390244140625,0.4033070274488975,0.6228935918034175,-0.219919843230898,-0.2172092931108972,-0.720555039589641,0.2108061932175885,-1.4319705374032636
2.35,1.6897266943650058e+18,182.35400576171875,0.0717524000465869,-0.0232670107233524,-0.0284016227056644,1.689726694362502e+18,182.3515018554687,-0.12816162109375,0.9883270263671876,-0.0328094482421875,1.6897266943650058e+18,182.35400576171875,-1.3262241120496392,9.712152216564416,-0.2926008772015012,1.6897266943650058e+18,182.35400576171875,-0.0032396239228546,0.0147158440202474,-0.0072157463990151,1.6897266943574912e+18,182.34649135742188,-0.0011163438728544,0.0188885231502353,-0.003704883204773,,,,,,,,,,,,,1.6897266943650058e+18,182.35400576171875,-21.965528869628905,41.413665008544925,9.478939819335938,1.689726694357949e+18,182.34694892578125,8.099136352539062,53.25552673339844,88.87409973144531,1.6897266943650058e+18,182.35400576171875,0.4031376125227444,0.6228768014323609,-0.2198425599333012,-0.2171483748785437,-0.720616313416051,0.210727009321799,-1.431860343672312
2.4,1.6897266944151094e+18,182.40410932617183,-0.0489414917537569,-0.0304662161254882,0.0151063435311801,1.6897266944126054e+18,182.4016053222656,-0.1403045654296875,0.987103271484375,-0.0282501220703125,1.6897266944151094e+18,182.40410932617183,-1.3244623046219348,9.712408704769611,-0.2920854092665575,1.6897266944151094e+18,182.40410932617183,0.0027797527611255,-0.0022079439833759,0.0013910209760069,1.6897266944075948e+18,182.39659492187496,0.0034812308847903,0.0068921012927603,0.0010572749306447,,,,,,,,,,,,,1.6897266944151094e+18,182.40410932617183,-21.77818717956543,41.43020858764648,9.453826904296877,1.68972669440996e+18,182.39895991210935,8.291983032226563,53.28620910644531,88.83746643066407,1.6897266944151094e+18,182.40410932617183,0.4028689138133766,0.6229857984575279,-0.2197124546070014,-0.2170570105744945,-0.7205937060114147,0.2106179241230582,-1.4320492356672383
2.45,1.689726694465213e+18,182.45421284179687,0.0241373053649067,-0.0577902763807773,-0.0172618666374682,1.6897266944627087e+18,182.45170864257813,-0.13255615234375,0.9841796875,-0.030987548828125,1.689726694465213e+18,182.45421284179687,-1.3243681673716008,9.712468092193603,-0.2905126946701667,1.689726694465213e+18,182.45421284179687,0.0054748238995671,0.00095438323915,-0.0016181279439479,1.6897266944576983e+18,182.44669838867188,0.006222688872367,0.0047869787784293,0.0018307634163648,,,,,,,,,,,,,1.689726694465213e+18,182.45421284179687,-21.876583862304688,41.42612228393555,9.530003356933594,1.689726694461971e+18,182.45097075195312,8.212637329101563,53.257843017578125,88.9214599609375,1.689726694465213e+18,182.45421284179687,0.4041763057590605,0.6229875111372799,-0.2198341873865278,-0.2159390376652109,-0.7205532108821698,0.2106242480831107,-1.4320931350383028
2.5,1.6897266945153162e+18,182.50431616210935,-0.0381399656237661,-0.0555022238957881,-0.020619378638137,1.689726694512812e+18,182.5018121582031,-0.13935546875,0.985577392578125,-0.0315155029296875,1.6897266945153162e+18,182.50431616210935,-1.32293375065431,9.712784201631546,-0.2864667072149924,1.6897266945153162e+18,182.50431616210935,0.012636169977486,-0.0147097079083323,-0.0046839503105729,1.689726694507802e+18,182.4968020019531,0.0138434840366243,-0.0041170341719407,-0.0030068687046877,,,,,,,,,,,,,1.6897266945153162e+18,182.50431616210935,-21.69166679382324,41.37416534423828,9.566632080078126,1.689726694513981e+18,182.50298071289063,8.390789794921876,53.207421875,88.96389770507812,1.6897266945153162e+18,182.50431616210935,0.4070773363054034,0.6230654247563756,-0.2200342437294268,-0.2132462267093353,-0.7204414162283321,0.2105673898007246,-1.4323264440954726
2.55,1.6897266945654195e+18,182.5544196777344,-0.0561727874076366,-0.0480505050373077,-0.0945560602679848,1.6897266945629158e+18,182.5519158203125,-0.1402374267578125,0.986102294921875,-0.0378265380859375,1.6897266945654195e+18,182.5544196777344,-1.3238749185749887,9.71275439101517,-0.2830991779704391,1.6897266945654195e+18,182.5544196777344,0.0049817129038274,-0.0098647081293165,0.0070850289426743,1.6897266945579054e+18,182.5469053222656,0.0090057456633075,-0.0022912237793207,0.0099590506870299,,,,,,,,,,,,,1.6897266945654195e+18,182.5544196777344,-21.76816253662109,41.28446273803711,9.7267578125,1.6897266945607895e+18,182.54978942871097,8.307605743408203,53.11817932128906,89.11801528930664,1.6897266945654195e+18,182.5544196777344,0.410411289300693,0.6229899549819682,-0.2204329587482559,-0.2106689667855699,-0.7203528187364511,0.2106767075195326,-1.4323045265476453
2.6,1.689726694615523e+18,182.60452314453124,0.0666965487356483,0.1666983948671817,-0.1513466544336639,1.6897266946130191e+18,182.60201909179688,-0.1278289794921875,1.0076385498046876,-0.0460784912109375,1.689726694615523e+18,182.60452314453124,-1.3244005498842897,9.71270517427206,-0.2823032162469439,1.689726694615523e+18,182.60452314453124,0.0104899802245199,-0.0389501854777335,-0.0198071043007075,1.6897266946080087e+18,182.5970087890625,0.0088045170065015,-0.0272844575345516,-0.0138234041631221,,,,,,,,,,,,,1.689726694615523e+18,182.60452314453124,-21.761023330688477,41.1842529296875,9.712359619140624,1.689726694607599e+18,182.59659897460935,8.31756591796875,53.03462829589843,89.08270568847657,1.689726694615523e+18,182.60452314453124,0.4120743394157536,0.6228735880203311,-0.2208285396507495,-0.210012702777137,-0.7202501763641662,0.2109569201539852,-1.432268333858236
2.65,1.689726694665627e+18,182.6546267578125,-0.091478377162218,-0.0701824911552667,-0.1827759909300505,1.6897266946631227e+18,182.6521227050781,-0.1439971923828125,0.985260009765625,-0.04713134765625,1.689726694665627e+18,182.6546267578125,-1.3145763735799492,9.714115976305006,-0.2796642241259105,1.689726694665627e+18,182.6546267578125,0.0269394643604755,-0.1314541116356849,-0.011281937547028,1.6897266946581125e+18,182.64711240234377,0.0263409001752733,-0.1137434490025043,-0.0135450506582856,,,,,,,,,,,,,1.689726694665627e+18,182.6546267578125,-21.89035949707031,41.32664260864258,9.552919006347656,1.6897266946596127e+18,182.64861279296875,8.173162841796875,53.16590270996094,88.94560241699219,1.689726694665627e+18,182.6546267578125,0.4163959295736676,0.6228513369425478,-0.2222302894684795,-0.209615302478585,-0.7194704472776886,0.2122052551933599,-1.4333139004604816
2.7,1.6897266947157302e+18,182.70473007812495,-0.1566103069296478,-0.3527710015767812,0.0882630574177391,1.6897266947132262e+18,182.70222622070312,-0.15068359375,0.955328369140625,-0.016107177734375,1.6897266947157302e+18,182.70473007812495,-1.3124418165431917,9.714547821077108,-0.2746217620195075,1.6897266947157302e+18,182.70473007812495,0.041745052859187,-0.1372517749667167,0.0225999560207128,1.6897266947082158e+18,182.69721572265627,0.0402167674154042,-0.1346622064709663,0.0150279512628912,,,,,,,,,,,,,1.6897266947157302e+18,182.70473007812495,-21.971986770629883,41.35683670043945,9.516046142578125,1.6897266947116262e+18,182.70062612304687,8.089773559570313,53.21405944824219,88.89510803222656,1.6897266947157302e+18,182.70473007812495,0.42700053615626,0.6222147212677891,-0.224993256891614,-0.2062739315620133,-0.718535416017258,0.2143189440663976,-1.433635792221268
2.75,1.6897266947658337e+18,182.75483374023435,-0.1395346397401392,-0.0487930816459655,0.3882744666040688,1.6897266947633298e+18,182.75232973632816,-0.149237060546875,0.9824981689453124,0.01363525390625,1.6897266947658337e+18,182.75483374023435,-1.3267043260081113,9.713018478004932,-0.2597355530852451,1.6897266947658337e+18,182.75483374023435,0.0475735377520322,-0.0342836813069879,0.037771951034665,1.6897266947583194e+18,182.74731943359376,0.0474695146083831,-0.0483495816588401,0.0362124919891356,,,,,,,,,,,,,1.6897266947658337e+18,182.75483374023435,-21.94391632080078,41.34325637817383,9.519407653808594,1.6897266947636372e+18,182.75263720703123,8.152175903320312,53.173422241210936,88.90737915039062,1.6897266947658337e+18,182.75483374023435,0.445040943812318,0.6213165364745438,-0.2274927523994076,-0.1933444989985663,-0.7182548420761102,0.2152268994076799,-1.432500154820651
2.8,1.6897266948159373e+18,182.80493725585936,0.0666093965218961,0.0973240636765956,0.0328453700002468,1.689726694813433e+18,182.8024331542969,-0.12852783203125,0.9998199462890623,-0.0237091064453125,1.6897266948159373e+18,182.80493725585936,-1.3495424730210006,9.710403443974853,-0.2390159216365031,1.6897266948159373e+18,182.80493725585936,0.0226643584668635,0.0218029531650244,0.0451643392443656,1.689726694808423e+18,182.7974228515625,0.0330651688389479,0.0173328112578019,0.0504010677337646,,,,,,,,,,,,,1.6897266948159373e+18,182.80493725585936,-21.934842681884767,41.26358795166016,9.63760223388672,1.68972669481045e+18,182.79944982910155,8.170879364013672,53.082298278808594,88.9904670715332,1.6897266948159373e+18,182.80493725585936,0.4635281365327117,0.6206713491630482,-0.2286102439381001,-0.1753078056580736,-0.7187105534265643,0.2143815421560908,-1.430580014134346
2.85,1.6897266948610304e+18,182.85003045654295,0.2742048444751649,0.140030109719932,-0.2315915227831574,1.689726694863537e+18,182.85253686523436,-0.111614990234375,0.998895263671875,-0.0431243896484375,1.6897266948610304e+18,182.85003045654295,-1.3600125240938736,9.70900474154502,-0.2365871528130955,1.6897266948610304e+18,182.85003045654295,-0.0360575574450194,0.1104477122426032,-0.0102921571815386,1.6897266948585265e+18,182.8475265625,-0.031227533891797,0.1100838914513587,-0.006061408156529,,,,,,,,,,,,,1.6897266948610304e+18,182.85003045654295,-22.090710163116455,41.20665645599365,9.81488800048828,1.6897266948572636e+18,182.84626347656248,8.01055908203125,53.035214233398435,89.21347045898438,1.6897266948610304e+18,182.85003045654295,0.4635869090636542,0.6206357150853354,-0.2277214383155355,-0.1722363884938011,-0.7193635903138169,0.2132365597665326,-1.4295617088283337
2.9,1.6897266949061235e+18,182.89512358398437,0.0600106120048463,-0.1343854402834176,2.335895601656007e-05,1.6897266949136404e+18,182.9026403808594,-0.140704345703125,0.9746368408203124,-0.021966552734375,1.6897266949061235e+18,182.89512358398437,-1.3495275384867191,9.710234517148733,-0.2459376070052012,1.6897266949061235e+18,182.89512358398437,-0.0345442339777946,0.0673099227249622,-0.016694314032793,1.68972669490863e+18,182.8976300292969,-0.0332998998463153,0.072070039063692,-0.0114886101800948,,,,,,,,,,,,,1.6897266949061235e+18,182.89512358398437,-21.905632400512697,41.20724258422852,9.831475830078125,1.6897266949092777e+18,182.89827758789065,8.162063598632812,53.09892272949219,89.27018737792969,1.6897266949061235e+18,182.89512358398437,0.4511711074156382,0.6213798051792767,-0.2257115155595779,-0.1802673784829991,-0.7196255024285859,0.2123212961865848,-1.4304556921688696
2.95,1.689726694956227e+18,182.94522744140625,-0.0277154561126232,0.0170875622099638,0.3702952929698861,1.689726694963744e+18,182.9527439453125,-0.13115234375,0.999383544921875,0.0250701904296875,1.689726694956227e+18,182.94522744140625,-1.3563725528497994,9.708847914322018,-0.2624065404732152,1.689726694956227e+18,182.94522744140625,-0.031439672037959,0.1054940864443778,0.0514692611992358,1.6897266949587338e+18,182.94773369140623,-0.0289987878873943,0.1176816806197166,0.0518260724842547,,,,,,,,,,,,,1.689726694956227e+18,182.94522744140625,-21.78654365539551,41.22585220336914,9.86675567626953,1.6897266949612923e+18,182.95029228515625,8.282699584960938,53.06708679199219,89.2359130859375,1.689726694956227e+18,182.94522744140625,0.4365894587377946,0.6213324052803542,-0.2238628751791295,-0.19109493997131,-0.7204447819720045,0.2116366510276897,-1.4294499557418483
3.0,1.6897266950063304e+18,182.99533056640627,0.2985988572409749,0.1555935311025381,0.44186445271058,1.6897266950138476e+18,183.00284741210936,-0.11259765625,1.0069122314453125,0.0024139404296875,1.6897266950063304e+18,182.99533056640627,-1.365933957338631,9.707590023215412,-0.2593962235152348,1.6897266950063304e+18,182.99533056640627,-0.0127398710697888,0.22530457675457,-0.0344810113310813,1.689726695008837e+18,182.99783696289063,-0.0130989176686852,0.2362728804349899,-0.0394690586254,,,,,,,,,,,,,1.6897266950063304e+18,182.99533056640627,-21.743471145629883,41.36079864501953,9.867964172363282,1.689726695013303e+18,183.0023029296875,8.46328125,53.25260620117187,89.29820556640625,1.6897266950063304e+18,182.99533056640627,0.4317585818738702,0.621881393373916,-0.2210873094325944,-0.1876641964964548,-0.7216387633205732,0.2088513817886924,-1.428541397415915
3.05,1.6897266950564342e+18,183.0454341796875,0.0186436471585929,0.1074216793209314,-0.0610937420262209,1.6897266950639508e+18,183.05295083007815,-0.1393310546875,0.995526123046875,-0.0344757080078125,1.6897266950564342e+18,183.0454341796875,-1.3339880532754955,9.71221721539855,-0.2520377066720649,1.6897266950564342e+18,183.0454341796875,-0.0595076963305472,0.3258207678794861,-0.1012443214654922,1.6897266950589404e+18,183.04794057617187,-0.0607773296535014,0.3338755548000335,-0.1026423275470733,,,,,,,,,,,,,1.6897266950564342e+18,183.0454341796875,-21.377016830444337,41.430337524414064,10.198121643066406,1.6897266950601137e+18,183.04911376953123,8.751426696777344,53.23681640625,89.64466857910156,1.6897266950564342e+18,183.0454341796875,0.4184163866854681,0.6246207950730358,-0.2158722823729921,-0.1867500763340642,-0.7220874657002627,0.2045277728719188,-1.4319149687011177
3.1,1.6897266951065375e+18,183.0955376464844,-0.2862244119319319,-0.1118881279844045,-0.1056950674175098,1.6897266951140544e+18,183.10305434570313,-0.1532379150390625,0.9714813232421876,-0.055914306640625,1.6897266951065375e+18,183.0955376464844,-1.2835637756180762,9.71880173758149,-0.2599593774765916,1.6897266951065375e+18,183.0955376464844,-0.0710757732391356,0.1876912623643875,-0.0825375150889157,1.689726695109044e+18,183.09804409179688,-0.0739681273698806,0.1605661958456039,-0.0759352978318929,,,,,,,,,,,,,1.6897266951065375e+18,183.0955376464844,-21.187502670288087,41.34082183837891,10.377720642089844,1.6897266951069253e+18,183.09592534179689,8.905178833007813,53.24061584472656,89.754931640625,1.6897266951065375e+18,183.0955376464844,0.389484665436329,0.6280017973130568,-0.2093866844418646,-0.199868114069731,-0.722217713238957,0.2004220617305692,-1.436849670534743
3.15,1.6897266951566413e+18,183.14564125976565,-0.0720056733813881,-0.0472658428525924,-0.3794003429531306,1.689726695164158e+18,183.1531578125,-0.14693603515625,0.985430908203125,-0.0466583251953125,1.6897266951566413e+18,183.14564125976565,-1.2556389145384728,9.7213074660182,-0.299535122484304,1.6897266951566413e+18,183.14564125976565,-0.1141483068466186,0.1876991987228393,-0.0805610474199056,1.6897266951591473e+18,183.14814736328125,-0.1128462299704551,0.2421693921089172,-0.0893724896013736,,,,,,,,,,,,,1.6897266951566413e+18,183.14564125976565,-20.99292755126953,41.56627578735352,10.2039306640625,1.689726695158935e+18,183.14793525390624,9.161642456054688,53.45271301269531,89.58375549316406,1.6897266951566413e+18,183.14564125976565,0.3506302305599142,0.629051461711681,-0.2061150220560418,-0.2342266691858002,-0.722172860223448,0.2006834668304857,-1.438774062965006
3.2,1.6897266952067446e+18,183.19574448242187,-0.7476916574231535,-0.2539699679893255,0.6169691600940749,1.6897266952142615e+18,183.20326147460935,-0.1974212646484375,0.983673095703125,0.046429443359375,1.6897266952067446e+18,183.19574448242187,-1.1989437691441178,9.727736388474106,-0.3223324990953877,1.6897266952067446e+18,183.19574448242187,-0.0449933666735887,0.3073168063536285,-0.085778527893126,1.6897266952092508e+18,183.19825092773436,-0.0355759428348392,0.2832180194556712,-0.0682362601161003,,,,,,,,,,,,,1.6897266952067446e+18,183.19574448242187,-20.57920570373535,41.63457107543945,10.320965576171876,1.6897266952109448e+18,183.19994477539063,9.58525390625,53.50565185546875,89.799560546875,1.6897266952067446e+18,183.19574448242187,0.3029957375182412,0.6328024904388065,-0.1978480204627132,-0.2626757364441684,-0.7224831832024364,0.1960343248578044,-1.4438555163834177
3.25,1.6897266952568484e+18,183.2458482421875,0.1880517101497947,0.0566167902350425,0.2256771686464734,1.6897266952643648e+18,183.25336479492188,-0.086541748046875,0.98846435546875,-0.0341064453125,1.6897266952568484e+18,183.2458482421875,-1.2023550973445176,9.727796594228744,-0.30758877467826,1.6897266952568484e+18,183.2458482421875,0.0261808473849668,0.2254176326096058,-0.0219858705997466,1.6897266952593544e+18,183.24835439453128,0.0263021249324083,0.2486415043473243,-0.0335230186581611,,,,,,,,,,,,,1.6897266952568484e+18,183.2458482421875,-20.388822937011717,41.71346282958984,10.535911560058594,1.689726695262956e+18,183.25195620117188,9.760659790039062,53.55836486816406,89.97243957519531,1.6897266952568484e+18,183.2458482421875,0.3068401821035025,0.6336487628780958,-0.1953600112414676,-0.2504374041789886,-0.7232817841489373,0.192832217637084,-1.4438993076527298
3.3,1.6897266953069514e+18,183.2959515625,-0.113628161971718,-0.2002332340091466,-0.2007782531788758,1.6897266953144684e+18,183.30346840820312,-0.144512939453125,0.96917724609375,-0.0458587646484375,1.6897266953069514e+18,183.2959515625,-1.155867311579287,9.734094233068229,-0.2854539061367325,1.6897266953069514e+18,183.2959515625,0.0046063625253737,0.2881735026836395,-0.1191450878977775,1.689726695309458e+18,183.29845795898436,0.0061393851414323,0.2815626502037048,-0.1124380216002463,,,,,,,,,,,,,1.6897266953069514e+18,183.2959515625,-19.926116943359375,41.77250747680664,10.858583068847656,1.68972669531497e+18,183.30397006835935,10.312225341796877,53.63508911132813,90.2842529296875,1.6897266953069514e+18,183.2959515625,0.2996306832731325,0.6370767874304326,-0.190084784340298,-0.2421027126258724,-0.7230480455403017,0.1876098159784326,-1.4490896517266774
3.35,1.689726695357055e+18,183.34605493164065,-0.1576033073288947,0.0078673139220475,-0.1722728339986502,1.6897266953645716e+18,183.35357172851565,-0.1153228759765625,0.9999786376953124,-0.043060302734375,1.689726695357055e+18,183.34605493164065,-1.1288910126222669,9.737849669305085,-0.2649982959190383,1.689726695357055e+18,183.34605493164065,0.0244007823988794,0.1470716297626494,-0.0271752830594777,1.6897266953595612e+18,183.34856132812504,0.0251745948567986,0.1588980898261069,-0.026950710453093,,,,,,,,,,,,,1.689726695357055e+18,183.34605493164065,-19.600751876831055,41.839010620117186,10.98245849609375,1.6897266953617805e+18,183.35078051757813,10.475723266601562,53.689720153808594,90.40356063842772,1.689726695357055e+18,183.34605493164065,0.3018523720135269,0.6391497063529342,-0.1871840830048683,-0.2305531346329973,-0.7228549213235848,0.1841996928243436,-1.4522737421749377
3.4,1.6897266954071588e+18,183.39615859375,0.3363242214883863,0.0409632940292358,0.0231381346064619,1.6897266954146757e+18,183.4036754394531,-0.078631591796875,0.9970611572265624,-0.0193450927734375,1.6897266954071588e+18,183.39615859375,-1.0969320006557552,9.741924020684957,-0.2483127715180627,1.6897266954071588e+18,183.39615859375,0.0033311376348137,0.3156909108161926,-0.1441498950123786,1.689726695409665e+18,183.3986649902344,0.0034670628607272,0.3239074468612671,-0.1497390568256377,,,,,,,,,,,,,1.6897266954071588e+18,183.39615859375,-19.241182327270508,41.85367050170898,11.214491271972657,1.6897266954085916e+18,183.39759179687505,10.900534057617188,53.782553100585936,90.663427734375,1.6897266954071588e+18,183.39615859375,0.2980799772571438,0.6415625196755504,-0.1832502240741583,-0.222606584465378,-0.7227340584349976,0.1801833432622994,-1.4558571827260631
3.45,1.689726695457262e+18,183.44626201171872,-0.1385312933034449,0.0157794022208452,-0.0628563897041417,1.6897266954647785e+18,183.45377856445313,-0.1263458251953125,0.9852874755859377,-0.03834228515625,1.689726695457262e+18,183.44626201171872,-1.024631772081107,9.750348383967877,-0.2255849931977316,1.689726695457262e+18,183.44626201171872,0.0300160081125795,0.2389521896839141,-0.1145323246717452,1.6897266954597683e+18,183.4487684082031,0.0229027586989104,0.2463441550731658,-0.1040191836655139,,,,,,,,,,,,,1.689726695457262e+18,183.44626201171872,-18.779236221313475,41.9711296081543,11.491438293457032,1.6897266954606003e+18,183.449600390625,11.421420288085937,53.7750732421875,90.96470642089844,1.689726695457262e+18,183.44626201171872,0.2893910932841512,0.6457561641313667,-0.1781227664265065,-0.2166258613279979,-0.72146578602688,0.1753710452525635,-1.463603979125554
3.5,1.6897266955073654e+18,183.49636552734376,0.0103936905945092,-0.2844844656229018,-0.1138920882179587,1.6897266955148826e+18,183.50388247070313,-0.0893035888671875,0.9758819580078124,-0.0276947021484375,1.6897266955073654e+18,183.49636552734376,-0.9937223860719054,9.753821963749528,-0.2140834399993903,1.6897266955073654e+18,183.49636552734376,-0.017349900631234,0.2809576392173766,-0.0502725593745708,1.689726695509872e+18,183.49887177734377,-0.0115981199778616,0.2811800599098205,-0.0502013847231864,,,,,,,,,,,,,1.6897266955073654e+18,183.49636552734376,-18.37363204956055,41.927347564697264,11.725885009765625,1.689726695512612e+18,183.501612109375,11.85667724609375,53.81525573730469,91.17117309570312,1.6897266955073654e+18,183.49636552734376,0.2806823226576859,0.6481418445476719,-0.1735234906129991,-0.2121938181341926,-0.7214936373984304,0.1710096208629906,-1.4669540462632398
3.55,1.689726695557469e+18,183.54646899414064,-0.0033339375022053,-0.2131807445788383,-0.6607373554762079,1.6897266955649856e+18,183.55398564453125,-0.1059417724609375,0.9709930419921876,-0.1076446533203125,1.689726695557469e+18,183.54646899414064,-0.9726922529421002,9.756348501165508,-0.194591326438561,1.689726695557469e+18,183.54646899414064,0.0391606196761131,0.0200605196878314,-0.0250072197988628,1.6897266955599754e+18,183.54897534179688,0.0365306326188146,0.01875872095261,-0.0220064989756792,,,,,,,,,,,,,1.689726695557469e+18,183.54646899414064,-18.072998046875,42.06456680297852,11.895182800292968,1.6897266955646246e+18,183.5536245605469,12.021597290039065,53.91142272949219,91.3364013671875,1.689726695557469e+18,183.54646899414064,0.2879998268477631,0.6497283612129603,-0.1713462161267655,-0.1974260491981802,-0.7212724081136473,0.1681055359705688,-1.4694688001586986
3.6,1.6897266956075727e+18,183.59657265625,-0.2745182212732732,0.0335217458516359,-0.2489053780761361,1.6897266956150894e+18,183.60408935546872,-0.13548583984375,1.004278564453125,0.0038970947265625,1.6897266956075727e+18,183.59657265625,-0.9593635756481438,9.757715347152352,-0.1922264093250781,1.6897266956075727e+18,183.59657265625,-0.0165043539833276,-0.0108989862725138,-0.0405318051576614,1.6897266956100787e+18,183.59907880859376,-0.0162761218380182,-0.0024286961648613,-0.0402887269854545,,,,,,,,,,,,,1.6897266956075727e+18,183.59657265625,-18.005879974365236,42.086734008789065,11.999249267578126,1.689726695611436e+18,183.60043603515624,12.116809844970703,53.91071701049805,91.36695098876952,1.6897266956075727e+18,183.59657265625,0.2880660383889691,0.6502064360853417,-0.1714678047075161,-0.1977720039418442,-0.7207722621502318,0.1682782827855155,-1.4708566943852568
3.65,1.689726695657676e+18,183.6466759765625,-0.5006176010404527,0.0943755014562606,1.1201565166377274,1.6897266956651924e+18,183.65419262695312,-0.14681396484375,1.000164794921875,0.0833099365234375,1.689726695657676e+18,183.6466759765625,-0.929588615109399,9.760517311282753,-0.1959048311497084,1.689726695657676e+18,183.6466759765625,0.0034811789169907,0.2372463822364806,-0.0929674834012984,1.6897266956601825e+18,183.649182421875,0.00547940088436,0.2624532982707023,-0.0953888371586798,,,,,,,,,,,,,1.689726695657676e+18,183.6466759765625,-17.872099304199217,42.032273864746095,12.016098022460938,1.6897266956582464e+18,183.64724638671876,12.248080444335937,53.93840026855469,91.45541381835938,1.689726695657676e+18,183.6466759765625,0.2739318889185992,0.6516224101061244,-0.1695751796223998,-0.2076901056059142,-0.720165659046362,0.1673034631438657,-1.4737704575425112
3.7,1.6897266957077796e+18,183.6967795410156,-0.5304494209460169,-0.0444442387866973,0.3254652405099011,1.6897266957152965e+18,183.70429638671877,-0.13682861328125,0.997894287109375,-0.00078125,1.6897266957077796e+18,183.6967795410156,-0.883296688016355,9.765082894858718,-0.1822020196604728,1.6897266957077796e+18,183.6967795410156,-0.0262407068163156,0.4913462400436401,-0.0868207663297652,1.6897266957102858e+18,183.6992857421875,-0.0245875813066958,0.4978859066963196,-0.0825496308505534,,,,,,,,,,,,,1.6897266957077796e+18,183.6967795410156,-17.40430564880371,42.24095001220703,12.200018310546875,1.689726695710258e+18,183.69925791015623,12.791534423828123,54.145144653320315,91.66358337402345,1.6897266957077796e+18,183.6967795410156,0.2582733661238815,0.6550783280253728,-0.1625051615205708,-0.2034102915092336,-0.7201534669656248,0.16071731567092,-1.4786991496935935
3.75,1.689726695757883e+18,183.74688310546873,0.0191854551111906,0.107220954504013,-0.2568711072180978,1.6897266957653996e+18,183.7543995605469,-0.0641021728515625,0.9998382568359376,-0.053466796875,1.689726695757883e+18,183.74688310546873,-0.8737359849537908,9.766107211018204,-0.1734866886873915,1.689726695757883e+18,183.74688310546873,-0.0152762648649513,0.3278120279312134,0.0150721417507156,1.6897266957603896e+18,183.74938950195312,-0.0127969683846458,0.3212189257144927,0.0155019409954547,,,,,,,,,,,,,1.689726695757883e+18,183.74688310546873,-16.991975021362304,42.30845489501953,12.41814422607422,1.6897266957622694e+18,183.75126943359373,13.217471313476562,54.1798095703125,91.86123962402344,1.689726695757883e+18,183.74688310546873,0.2439870442687,0.6572082918053295,-0.1549249468752659,-0.196019384219109,-0.7214870320044916,0.153382837011842,-1.4798347398613496
3.8,1.6897266958079864e+18,183.79698637695313,0.5527102503015101,-0.1184277588862181,-0.5530383132120966,1.689726695815503e+18,183.804503125,-0.0388519287109375,0.990740966796875,-0.07532958984375,1.6897266958079864e+18,183.79698637695313,-0.8676076821057498,9.766760823395252,-0.167227368911039,1.6897266958079864e+18,183.79698637695313,0.0015872516203672,0.127455024421215,-0.0522602386772632,1.689726695810493e+18,183.7994927734375,0.0057681404578034,0.1281181812286376,-0.052590026706457,,,,,,,,,,,,,1.6897266958079864e+18,183.79698637695313,-16.81591377258301,42.49150619506836,12.54432373046875,1.689726695814283e+18,183.80328305664065,13.20712890625,54.28290710449219,91.95718688964844,1.6897266958079864e+18,183.79698637695313,0.2388407185030207,0.6583018636283617,-0.1512190819825278,-0.1904084396791097,-0.7220581823293811,0.1496744889642412,-1.4805740042790962
3.85,1.6897266958580895e+18,183.84708969726563,0.2943883560999482,0.0429587348562479,-0.4159516803720593,1.689726695865606e+18,183.85460620117183,-0.0612335205078125,0.98436279296875,-0.053411865234375,1.6897266958580895e+18,183.84708969726563,-0.8317369912012665,9.77006629468143,-0.1556638088999874,1.6897266958580895e+18,183.84708969726563,0.0351008374243974,0.0293901513330638,-0.0819331154227256,1.6897266958605962e+18,183.84959604492187,0.0365786243230104,0.0252567265182733,-0.079709368944168,,,,,,,,,,,,,1.6897266958580895e+18,183.84708969726563,-16.619303894042968,42.350155639648435,12.696980285644532,1.689726695861097e+18,183.85009686279295,13.561527252197266,54.202880859375,92.083984375,1.6897266958580895e+18,183.84708969726563,0.2399891134703323,0.6600358329021178,-0.1498176976308035,-0.1849714606925699,-0.7210834148694858,0.1481403206234014,-1.484402910487764
3.9,1.689726695908193e+18,183.89719296875,0.031496143695116,-0.1333102707195281,-0.4087038354421778,1.68972669591571e+18,183.90470986328123,-0.0722412109375,0.9970855712890624,-0.0590728759765625,1.689726695908193e+18,183.89719296875,-0.8050925983862578,9.772426009550092,-0.1479479975718538,1.689726695908193e+18,183.89719296875,0.0239866137504577,-0.1445822656154632,-0.0157548748888074,1.6897266959106995e+18,183.89969936523437,0.0242562845349311,-0.1453259825706481,-0.0160093800397589,,,,,,,,,,,,,1.689726695908193e+18,183.89719296875,-16.431306076049804,42.42014846801758,12.689871215820313,1.689726695907911e+18,183.8969107910156,13.635922241210938,54.2682373046875,92.07652893066408,1.689726695908193e+18,183.89719296875,0.2463591018424322,0.660843839084915,-0.1510276743938318,-0.1817456183132616,-0.7198877846828833,0.1491192605859448,-1.4872278960359249
3.95,1.6897266959582966e+18,183.94729658203124,0.1876633684193342,-0.0335112244576215,-0.2761312897996231,1.6897266959658132e+18,183.95481328125,-0.0646575927734375,0.991302490234375,-0.033270263671875,1.6897266959582966e+18,183.94729658203124,-0.7882488987086713,9.773721660770772,-0.1529396446331031,1.6897266959582966e+18,183.94729658203124,0.0115351146087049,-0.2147790491580963,-0.0174152456223964,1.6897266959608028e+18,183.9498029785156,0.0108234595041721,-0.2095069408416747,-0.0120195916853844,,,,,,,,,,,,,1.6897266959582966e+18,183.94729658203124,-16.461368560791016,42.386994171142575,12.624986267089843,1.6897266959599263e+18,183.94892626953128,13.563507080078123,54.206198120117186,92.01192626953124,1.6897266959582966e+18,183.94729658203124,0.2461914507180982,0.6606871399856914,-0.1542296478700704,-0.1916552131900956,-0.7186109553647425,0.1526493820054547,-1.4888257297104353
4.0,1.6897266960084e+18,183.99740009765625,0.1343758248983323,-0.0128632225131988,0.0551118180724046,1.6897266960159168e+18,184.00491679687505,-0.06339111328125,0.9866180419921876,-0.0109039306640625,1.6897266960084e+18,183.99740009765625,-0.7962827283040433,9.773036484211683,-0.1550994457089714,1.6897266960084e+18,183.99740009765625,0.0631700232625007,-0.3340401947498321,0.0518104568123817,1.689726696010906e+18,183.99990629882817,0.0681522101163863,-0.3323839128017425,0.0534627452492713,,,,,,,,,,,,,1.6897266960084e+18,183.99740009765625,-16.6725643157959,42.41614379882813,12.492706298828123,1.6897266960119434e+18,184.000943359375,13.387860107421876,54.2567626953125,91.8191864013672,1.6897266960084e+18,183.99740009765625,0.2591477928125344,0.6593129851903642,-0.1591331574190895,-0.1923945663249248,-0.7178246960634244,0.1571771545900034,-1.487978034631914
4.05,1.6897266960585037e+18,184.04750366210936,0.1795701075608282,-0.0695118107390403,-0.0446094630319718,1.68972669606101e+18,184.05000982666016,-0.0683784484863281,0.999786376953125,-0.0165672302246093,1.6897266960585037e+18,184.04750366210936,-0.8182832262229175,9.77129671325922,-0.1499490845149941,1.6897266960585037e+18,184.04750366210936,0.0115785229951143,-0.2024409979581832,0.0717082165181636,1.68972669606101e+18,184.05001005859376,0.0104600444436073,-0.1833195969462394,0.0728798523545265,,,,,,,,,,,,,1.6897266960585037e+18,184.04750366210936,-16.956619644165038,42.284033203125,12.368263244628906,1.68972669606396e+18,184.05296005859375,12.975344848632812,54.08554382324219,91.72131652832032,1.6897266960585037e+18,184.04750366210936,0.2855693624739487,0.6573340659411484,-0.1649643170984043,-0.1812366573046586,-0.7172911084514071,0.1618328589709284,-1.485864201932875
4.1,1.689726696108607e+18,184.09760693359377,0.4034212700098007,-0.0631608635032177,0.2022034782894514,1.6897266961061033e+18,184.095103125,-0.0459197998046875,0.9899993896484376,0.0020263671875,1.689726696108607e+18,184.09760693359377,-0.8307862663476915,9.770181796206831,-0.1539603093574102,1.689726696108607e+18,184.09760693359377,0.0045450599864125,-0.1154979690909385,-0.0062539769336581,1.689726696111113e+18,184.1001131347656,0.0044284107629209,-0.1124788731336593,-0.0053354832343757,,,,,,,,,,,,,1.689726696108607e+18,184.09760693359377,-17.254739379882814,42.181495666503906,12.150697326660156,1.6897266961107727e+18,184.09977264404296,12.845108032226562,54.00536346435547,91.44339752197266,1.689726696108607e+18,184.09760693359377,0.290001635029929,0.6563165735597509,-0.1672349836087424,-0.1832491045872497,-0.7172101559532397,0.1639813044198503,-1.4845299883258036
4.15,1.6897266961587103e+18,184.1477104492188,0.0060384618335962,0.238241302268505,0.1101729946295916,1.6897266961562063e+18,184.1452063964844,-0.08243408203125,1.0207275390625,-0.003717041015625,1.6897266961587103e+18,184.1477104492188,-0.8306014259131252,9.770180042641162,-0.1550941082934662,1.6897266961587103e+18,184.1477104492188,0.0175368661060928,-0.1296259880065917,0.025634579733014,1.689726696161217e+18,184.15021713867185,0.0187628751620649,-0.1202109903097152,0.0224283974617719,,,,,,,,,,,,,1.6897266961587103e+18,184.1477104492188,-17.336479949951173,42.158765411376955,12.06798858642578,1.689726696157584e+18,184.1465839355469,12.712176513671874,54.00784912109375,91.46091918945312,1.6897266961587103e+18,184.1477104492188,0.2951224399401201,0.6557794199495562,-0.1695133645140534,-0.1845994234590354,-0.7166683055244792,0.1661450823119667,-1.484527259424841
4.2,1.689726696208814e+18,184.19781401367183,-0.0033612639005482,0.0536024108499288,-0.0134640379505604,1.68972669620631e+18,184.1953099609375,-0.08638916015625,1.0006072998046875,-0.0175750732421875,1.689726696208814e+18,184.19781401367183,-0.8149467752765863,9.771693019100423,-0.1421588617236725,1.689726696208814e+18,184.19781401367183,0.0422810398042201,-0.124170397222042,-0.0402186024934052,1.6897266962113203e+18,184.20032021484377,0.0438344594091176,-0.1235616192221641,-0.0379967566579579,,,,,,,,,,,,,1.689726696208814e+18,184.19781401367183,-17.449802780151366,42.13357772827148,12.060739135742187,1.689726696209597e+18,184.19859697265625,12.586309814453124,53.99461364746094,91.41498718261718,1.689726696208814e+18,184.19781401367183,0.3124311429912661,0.6560183435643705,-0.171763841199401,-0.1726697689377323,-0.7155748049225494,0.1675975905765982,-1.4863399572871652
4.25,1.6897266962589174e+18,184.2479173828125,-0.4396245392564683,-0.2370484099960326,-0.2162556183262727,1.6897266962564134e+18,184.24541337890625,-0.12724609375,0.972235107421875,-0.033441162109375,1.6897266962589174e+18,184.2479173828125,-0.8143384779590368,9.77195698918581,-0.1266835990284475,1.6897266962589174e+18,184.2479173828125,0.0394187159836291,-0.2603219389915466,0.0531480077654122,1.689726696261424e+18,184.25042397460936,0.0400546874850988,-0.2570391535758972,0.0562417529523372,,,,,,,,,,,,,1.6897266962589174e+18,184.2479173828125,-17.51433906555176,42.08470458984375,12.015211486816408,1.68972669626161e+18,184.25060981445313,12.543820190429688,53.86011657714844,91.44164428710936,1.6897266962589174e+18,184.2479173828125,0.3410201155769973,0.6553102943232958,-0.1759781049829245,-0.1543634313025099,-0.7145272432836905,0.1704324604533823,-1.4866586610344688
4.3,1.6897266963090212e+18,184.29802104492188,-0.143420263614878,-0.6596575024306773,-0.0735228017727006,1.689726696306517e+18,184.29551704101564,-0.10150146484375,0.9300140380859376,-0.0206878662109375,1.6897266963090212e+18,184.29802104492188,-0.8398185031697899,9.769834239491225,-0.1239688839232362,1.6897266963090212e+18,184.29802104492188,0.0104349611327052,-0.2442778080701827,0.0556586943566798,1.6897266963115272e+18,184.3005271972656,0.0116837668232619,-0.239363533258438,0.0597818933427333,,,,,,,,,,,,,1.6897266963090212e+18,184.29802104492188,-17.786501312255858,42.012657165527344,11.929788208007814,1.6897266963136236e+18,184.30262358398437,12.177621459960935,53.875753784179686,91.2356170654297,1.6897266963090212e+18,184.29802104492188,0.3617978499926367,0.6532883595427139,-0.18091985002642,-0.1465416803494863,-0.7142025889028271,0.1743382225681606,-1.4841221018555164
4.35,1.6897266963591245e+18,184.34812446289064,-0.0561966505137831,0.5171161113160848,0.1954306432465929,1.6897266963566203e+18,184.34562036132817,-0.09049072265625,1.0478851318359377,0.0092010498046875,1.6897266963591245e+18,184.34812446289064,-0.883976340843588,9.76586089349389,-0.1293505057229753,1.6897266963591245e+18,184.34812446289064,0.0279891312122344,-0.183748897910118,0.0955718602985143,1.6897266963616312e+18,184.3506310546875,0.0312866028398275,-0.1707756847143172,0.0908556036651134,,,,,,,,,,,,,1.6897266963591245e+18,184.34812446289064,-18.191132736206058,41.96928329467774,11.72747344970703,1.689726696360435e+18,184.3494349365234,11.835514068603516,53.76746368408203,91.07273864746094,1.6897266963591245e+18,184.34812446289064,0.3742680419481865,0.6506324002373549,-0.1851512187732751,-0.1453582213587566,-0.7146944284045785,0.1777815291677373,-1.4795694480259474
4.4,1.689726696409228e+18,184.3982279785156,0.13341459326379,-0.0439756860399246,0.0904064316018764,1.689726696406724e+18,184.39572412109376,-0.08326416015625,0.9908355712890624,-0.0049224853515625,1.689726696409228e+18,184.3982279785156,-0.8986614450217039,9.764673378822804,-0.1179997482123877,1.689726696409228e+18,184.3982279785156,0.0348316993564366,-0.1264158830046653,-0.0035555455833673,1.6897266964117345e+18,184.4007341796875,0.034496297687292,-0.1203580483794211,-0.0014629280194639,,,,,,,,,,,,,1.689726696409228e+18,184.3982279785156,-18.41113700866699,41.879912567138675,11.72003936767578,1.6897266964072443e+18,184.3962443847656,11.64903564453125,53.72969970703125,91.10530700683594,1.689726696409228e+18,184.3982279785156,0.3964572167655192,0.6495450460817926,-0.1883161776158662,-0.1305525087663799,-0.714391570947129,0.1796440738162946,-1.4782386387633184
4.45,1.689726696459331e+18,184.44833144531248,0.0529891304832697,-0.001165653552413,0.0135800984250195,1.6897266964568274e+18,184.4458274902344,-0.083135986328125,0.9956634521484377,-0.00947265625,1.689726696459331e+18,184.44833144531248,-0.907599281558618,9.763852476280928,-0.1175781544929276,1.689726696459331e+18,184.44833144531248,-0.0186105964705347,-0.0484453664161264,0.0156718999613076,1.6897266964618378e+18,184.45083784179687,-0.0177595025859772,-0.0342159733176231,0.0114837639033794,,,,,,,,,,,,,1.689726696459331e+18,184.44833144531248,-18.530309677124023,41.85424728393555,11.579545593261718,1.6897266964592563e+18,184.44825634765624,11.525326538085938,53.69749755859375,90.95510864257812,1.689726696459331e+18,184.44833144531248,0.4033878133685332,0.6487534985430894,-0.1902695349998645,-0.1288243169036093,-0.7141933734262867,0.1812293402439114,-1.4773374191068938
4.5,1.6897266965094351e+18,184.49843505859377,-0.0067296151290088,0.0047423429954051,0.2331217581645305,1.689726696506931e+18,184.49593100585935,-0.0958404541015625,0.99556884765625,0.0103057861328125,1.6897266965094351e+18,184.49843505859377,-0.8974705693497509,9.764678288806676,-0.1264299092218,1.6897266965094351e+18,184.49843505859377,-0.0054430729709565,0.0020674674771726,-0.0318893428891896,1.689726696511941e+18,184.50094125976565,-0.0011000452097505,0.0051914595067501,-0.0268835987895727,,,,,,,,,,,,,1.6897266965094351e+18,184.49843505859377,-18.604871368408205,41.86025848388672,11.597392272949218,1.6897266965112673e+18,184.50026743164065,11.470962524414062,53.711282348632814,91.00572204589844,1.6897266965094351e+18,184.49843505859377,0.3922395212593,0.649038539279125,-0.1898641655550418,-0.1399593876340567,-0.7139397178269877,0.1816333792840595,-1.478244811923768
4.55,1.6897266965595384e+18,184.54853837890624,-0.2063852538328617,-0.0745913059604167,0.1631949661099072,1.6897266965570345e+18,184.54603442382813,-0.1104888916015625,0.9886383056640624,0.0038665771484375,1.6897266965595384e+18,184.54853837890624,-0.9007834056117384,9.764434776987432,-0.1215655637216008,1.6897266965595384e+18,184.54853837890624,0.01622642762959,0.0117637965828179,0.0348099395632743,1.689726696562045e+18,184.5510447753906,0.0176493544131517,0.0198914694599806,0.034733798727393,,,,,,,,,,,,,1.6897266965595384e+18,184.54853837890624,-18.627314376831055,41.91327743530273,11.65509033203125,1.689726696563279e+18,184.55227895507812,11.403195190429688,53.730532836914065,91.0920166015625,1.6897266965595384e+18,184.54853837890624,0.3983116281085117,0.6489401404130112,-0.1901612167248623,-0.1341600927195526,-0.7139789639673371,0.181519884349046,-1.4779761120771675
4.6,1.689726696609642e+18,184.59864194335935,0.1634234210105984,-0.0518529368340968,-0.0708959147346764,1.689726696607138e+18,184.59613803710937,-0.0770172119140625,0.9904083251953124,-0.019818115234375,1.689726696609642e+18,184.59864194335935,-0.9095463678123056,9.763752873750924,-0.110674103418989,1.689726696609642e+18,184.59864194335935,0.0053054425865411,0.0332302749156951,-0.0034862999222241,1.689726696612148e+18,184.6011480957031,0.0050683150642725,0.0377006135880946,-0.0034936410062073,,,,,,,,,,,,,1.689726696609642e+18,184.59864194335935,-18.766116333007812,41.82742919921875,11.828567504882812,1.6897266966100895e+18,184.5990892944336,11.347164154052734,53.66309356689453,91.20324325561523,1.689726696609642e+18,184.59864194335935,0.4098193273013034,0.6488674144200294,-0.1900617586287155,-0.1210877603819875,-0.7143182508622697,0.1805465632786688,-1.4772284591741536
4.65,1.6897266966597453e+18,184.6487453125,-0.0755928696053474,0.0600032762551307,-0.0614134535803086,1.689726696657241e+18,184.6462412597656,-0.1001129150390625,0.9995941162109376,-0.0163330078125,1.6897266966597453e+18,184.6487453125,-0.9125838796512036,9.763526780683993,-0.1055518084088712,1.6897266966597453e+18,184.6487453125,0.0012302187271416,-0.001879252679646,-0.0037108269520104,1.689726696662252e+18,184.65125195312496,0.0003829093184321,0.0028015918564051,-0.0044215397210791,,,,,,,,,,,,,1.6897266966597453e+18,184.6487453125,-18.707500076293947,41.90192031860352,11.82493896484375,1.6897266966569e+18,184.6459001953125,11.341488647460938,53.73795776367187,91.21148376464843,1.6897266966597453e+18,184.6487453125,0.4149809299163822,0.648875921287219,-0.189990808771554,-0.1151507482077629,-0.7144455594847896,0.1800866536759335,-1.4769820581159765
4.7,1.689726696709849e+18,184.69884907226563,-0.1105669039310514,-0.2904066076004504,-0.2581376273290999,1.689726696707345e+18,184.69634501953124,-0.104248046875,0.9655731201171877,-0.039398193359375,1.689726696709849e+18,184.69884907226563,-0.9020007601252942,9.76432325021088,-0.1210738018025457,1.689726696709849e+18,184.69884907226563,-0.0687425766140222,-0.0014602069742977,-0.0112701384699902,1.6897266967123553e+18,184.70135522460936,-0.070786927640438,0.0073483004234731,-0.0086827574530616,,,,,,,,,,,,,1.689726696709849e+18,184.69884907226563,-18.630179977416994,41.856468200683594,11.70548095703125,1.6897266967089124e+18,184.69791240234375,11.444256591796876,53.71681518554688,91.07805480957032,1.689726696709849e+18,184.69884907226563,0.3972368713648867,0.649064300190355,-0.1895434403871647,-0.1334257838347052,-0.7141865802022656,0.1809036120345614,-1.477853181238634
4.75,1.689726696759952e+18,184.7489521972656,-0.0959464332608878,0.014205635485053,0.1736956771825253,1.6897266967574482e+18,184.7464482910156,-0.1024017333984375,0.9992645263671877,0.003741455078125,1.689726696759952e+18,184.7489521972656,-0.9018670069038868,9.76377356582582,-0.1602582715105637,1.689726696759952e+18,184.7489521972656,-0.0499830013141035,-0.0120172259397804,0.0055907784495502,1.6897266967624586e+18,184.75145859375,-0.0458993671461939,-0.0089167960919439,0.0090949612436816,,,,,,,,,,,,,1.689726696759952e+18,184.7489521972656,-18.51987533569336,41.89902877807617,11.520703125,1.6897266967609257e+18,184.74992578125,11.498944091796876,53.7509521484375,90.8778839111328,1.689726696759952e+18,184.7489521972656,0.354388492717606,0.6487269696650343,-0.1880223368311058,-0.1758464744334184,-0.7145837526104857,0.182128483013543,-1.4772510208142295
4.8,1.6897266968100562e+18,184.79905615234375,-0.2261236520386486,-0.0287549698412418,0.2421815241410024,1.689726696807552e+18,184.7965520019531,-0.1156341552734375,0.9918731689453124,0.006317138671875,1.6897266968100562e+18,184.79905615234375,-0.919292335087806,9.761842773119806,-0.1778972205255925,1.6897266968100562e+18,184.79905615234375,-0.0162331910803913,-0.0311750151216983,0.0420803554356097,1.6897266968125622e+18,184.8015623046875,-0.0163006229326128,-0.0256636049598455,0.0417437717318534,,,,,,,,,,,,,1.6897266968100562e+18,184.79905615234375,-18.7725887298584,41.99469680786133,11.382015991210938,1.68972669681294e+18,184.80193994140623,11.353292846679688,53.8488525390625,90.76710205078123,1.6897266968100562e+18,184.79905615234375,0.340438598129013,0.6477957994887014,-0.188041656252024,-0.1911326805077903,-0.7152000679707304,0.1830015879456203,-1.4751694508051427
4.85,1.6897266968601592e+18,184.84915927734377,0.1039226874501257,0.1257279696708917,0.0659539209813252,1.6897266968576553e+18,184.84665532226563,-0.084490966796875,1.010369873046875,-0.012896728515625,1.6897266968601592e+18,184.84915927734377,-0.9387806017639488,9.759931035827398,-0.1811147358804195,1.6897266968601592e+18,184.84915927734377,-0.0027822054689749,-0.0270584005862474,0.0259072393178939,1.6897266968626657e+18,184.8516656738281,-0.0009710418293252,-0.0162498630583286,0.0261544791981577,,,,,,,,,,,,,1.6897266968601592e+18,184.84915927734377,-18.618572998046876,41.93937683105469,11.425430297851562,1.6897266968649544e+18,184.85395444335936,11.458493041992188,53.74124755859375,90.76339721679688,1.6897266968601592e+18,184.84915927734377,0.3426816010179417,0.6468952476487589,-0.188716513649622,-0.1905975599925168,-0.715716812124861,0.1834720544410274,-1.4731473210528503
4.9,1.689726696910263e+18,184.89926303710936,0.0526495232653617,-0.1190977378761768,-0.062852181146536,1.689726696907759e+18,184.89675903320312,-0.093096923828125,0.980487060546875,-0.025018310546875,1.689726696910263e+18,184.89926303710936,-0.9446990174144506,9.759470549482703,-0.1750715101934224,1.689726696910263e+18,184.89926303710936,-0.0101155870128422,-0.0039307220838964,-0.0237055511213838,1.6897266969127693e+18,184.90176923828125,-0.0117365505546331,0.0007671506144106,-0.0252159270457922,,,,,,,,,,,,,1.689726696910263e+18,184.89926303710936,-18.67369728088379,41.883966064453126,11.40391845703125,1.6897266969117637e+18,184.90076361083985,11.385601043701172,53.73817825317383,90.80747985839844,1.689726696910263e+18,184.89926303710936,0.3502157531588631,0.6467215657786546,-0.1890460739966319,-0.1832449473675685,-0.7158406530117993,0.1832619398527602,-1.4726664492468606
4.95,1.6897266969603663e+18,184.94936640625,-0.1905543113943934,-0.091980247656703,-0.0396639164815098,1.6897266969578624e+18,184.94686220703127,-0.1132110595703125,0.988238525390625,-0.02166748046875,1.6897266969603663e+18,184.94936640625,-0.9433395510164648,9.759348033694623,-0.1886229378197528,1.6897266969603663e+18,184.94936640625,-0.0380404293537139,-0.0369432780891656,0.0359182883054017,1.6897266969628728e+18,184.9518728027344,-0.0358594633638858,-0.0283979785162955,0.0382330864667892,,,,,,,,,,,,,1.6897266969603663e+18,184.94936640625,-18.69741325378418,41.89843673706055,11.271257019042968,1.689726696958572e+18,184.94757192382812,11.353546142578123,53.74649658203125,90.6557159423828,1.6897266969603663e+18,184.94936640625,0.3373939392183596,0.6465224204072394,-0.1890092099765693,-0.1973198825880408,-0.7158020055219227,0.1841510861999494,-1.4725398355399282
5.0,1.68972669701047e+18,184.999469921875,0.0657970864517986,-0.0246186591410636,0.2287773448852076,1.6897266970079657e+18,184.9969657714844,-0.0915191650390625,0.9895477294921876,0.0017120361328125,1.68972669701047e+18,184.999469921875,-0.9491078614456951,9.758545602044464,-0.2009444108325428,1.68972669701047e+18,184.999469921875,-0.0154516631737351,0.0358235610648989,-0.0195482017472386,1.689726697012976e+18,185.00197626953124,-0.0137819648720323,0.0417625203728675,-0.0194178530480712,,,,,,,,,,,,,1.68972669701047e+18,184.999469921875,-18.806958389282222,41.9724983215332,11.203375244140624,1.6897266970105807e+18,184.9995807128906,11.226809692382812,53.806130981445314,90.63660278320312,1.68972669701047e+18,184.999469921875,0.3261796554366837,0.6461796503570871,-0.1886696412003606,-0.2086410029458341,-0.7160969359818736,0.1845557004902609,-1.471707550940859
5.05,1.6897266970605732e+18,185.0495732421875,-0.2934321659667044,-0.2509018125903606,-0.0910816110100224,1.6897266970580692e+18,185.0470693359375,-0.1261199951171875,0.971868896484375,-0.0319244384765625,1.6897266970605732e+18,185.0495732421875,-0.9521212325305493,9.757946934725046,-0.2150470973997749,1.6897266970605732e+18,185.0495732421875,-0.0427665308117865,-0.0123288971371948,0.0454120524227619,1.6897266970630794e+18,185.05207963867187,-0.0424410939216613,-0.0073694462422281,0.0508873080834746,,,,,,,,,,,,,1.6897266970605732e+18,185.0495732421875,-18.93880958557129,41.937487030029295,11.191041564941406,1.68972669706259e+18,185.05158979492188,11.095523071289062,53.81788330078125,90.51688232421874,1.6897266970605732e+18,185.0495732421875,0.3115832317657245,0.646033653511694,-0.1878000751317896,-0.2221073387612662,-0.7164326121349051,0.1846503108153079,-1.471095159392487
5.1,1.689726697110677e+18,185.09967690429687,0.1538240956641733,0.2649097627723217,0.0162476590534112,1.6897266971081728e+18,185.0971728027344,-0.083740234375,1.020794677734375,-0.021453857421875,1.689726697110677e+18,185.09967690429687,-0.9780577839501946,9.755064306573868,-0.2290918870738334,1.689726697110677e+18,185.09967690429687,-0.0259959675371646,-0.0526768714189528,0.0325519503094255,1.6897266971131835e+18,185.1021833496094,-0.02565673366189,-0.0456332638859748,0.0299695095047354,,,,,,,,,,,,,1.689726697110677e+18,185.09967690429687,-18.967332077026366,41.972042846679685,11.071807861328123,1.6897266971146002e+18,185.10360024414064,11.129629516601565,53.76481323242187,90.44420166015624,1.689726697110677e+18,185.09967690429687,0.3054935086846949,0.6447706118166103,-0.1882156794931714,-0.2300694327425629,-0.7172460973382541,0.1854820558025735,-1.4681831723408716
5.15,1.6897266971607803e+18,185.14978027343753,-0.0131896195363998,-0.1699878502535819,0.0252739374054968,1.6897266971582764e+18,185.147276171875,-0.10196533203125,0.97677001953125,-0.0214935302734375,1.6897266971607803e+18,185.14978027343753,-0.9905494843503088,9.753319625637532,-0.2488322178551181,1.6897266971607803e+18,185.14978027343753,-0.0468070253729819,0.0166017174720764,0.0252179915085434,1.6897266971632868e+18,185.15228671875,-0.0435111515223979,0.0343474268913269,0.0262674501165747,,,,,,,,,,,,,1.6897266971607803e+18,185.14978027343753,-19.09249382019043,42.00538330078125,11.021876525878906,1.689726697161408e+18,185.15040808105468,10.977176666259766,53.89051818847656,90.37033462524414,1.6897266971607803e+18,185.14978027343753,0.2913588215147821,0.6439398280766611,-0.1883149754189869,-0.2460867699619315,-0.7176638827386761,0.1866478790560193,-1.466460545726094
5.2,1.6897266972108838e+18,185.1998838378906,0.2992301993340253,-0.0023761983859538,0.0298076681917347,1.68972669720838e+18,185.19737993164065,-0.0723663330078125,0.9961700439453124,-0.0257781982421875,1.6897266972108838e+18,185.1998838378906,-0.9861865983526408,9.753420981733203,-0.2618056885032355,1.6897266972108838e+18,185.1998838378906,-0.0165904778987168,0.0251797106117009,-0.0457233194261788,1.68972669721339e+18,185.2023900390625,-0.0137535227462648,0.0210396114736795,-0.0450994599610566,,,,,,,,,,,,,1.6897266972108838e+18,185.1998838378906,-18.950759506225587,41.955319213867185,11.05932159423828,1.689726697208218e+18,185.19721821289065,11.141732788085935,53.795187377929686,90.45250854492188,1.6897266972108838e+18,185.1998838378906,0.2748030816818937,0.6442613803871978,-0.1866985553228961,-0.2595113285946922,-0.7179311017078187,0.1861334073817244,-1.466560921962842
5.25,1.6897266972609874e+18,185.24998730468752,-0.4841687458993494,0.0138092127394676,-0.0741129405524209,1.6897266972584832e+18,185.24748325195313,-0.14864501953125,0.995111083984375,-0.0335479736328125,1.6897266972609874e+18,185.24998730468752,-0.983656290770471,9.753576230747104,-0.2655642409724183,1.6897266972609874e+18,185.24998730468752,0.0039993739686906,-0.1054291121661662,0.0465324688702821,1.6897266972634936e+18,185.2524937011719,0.0048174986615776,-0.096218517422676,0.0473972357809543,,,,,,,,,,,,,1.6897266972609874e+18,185.24998730468752,-18.998540496826173,42.02860641479492,10.93103485107422,1.6897266972602255e+18,185.2492254394531,11.057675170898438,53.87144165039062,90.3183380126953,1.6897266972609874e+18,185.24998730468752,0.2738421704698099,0.6440150743090192,-0.1877017915149442,-0.2636976102160839,-0.7175794013564932,0.187327713007745,-1.466712719525031
5.3,1.6897266973110907e+18,185.30009067382812,0.1651788571497052,-0.1815292349654435,-0.0022847901221923,1.6897266973085865e+18,185.29758662109376,-0.0827178955078125,0.975592041015625,-0.0282470703125,1.6897266973110907e+18,185.30009067382812,-0.9948896032203736,9.752260822686551,-0.2720008645042218,1.6897266973110907e+18,185.30009067382812,-0.0287287466228007,0.0784841362386941,-0.0039074747823178,1.689726697313597e+18,185.30259711914064,-0.0293868109583854,0.0892805572599172,-0.0049847982125356,,,,,,,,,,,,,1.6897266973110907e+18,185.30009067382812,-18.992535018920897,42.063280487060545,10.76282196044922,1.689726697312235e+18,185.30123486328125,11.08665771484375,53.965756225585935,90.1567138671875,1.6897266973110907e+18,185.30009067382812,0.2715324718819891,0.6434570590028389,-0.1878902260380459,-0.2668742371350263,-0.717929093874886,0.1877169532739658,-1.4654275706761322
5.35,1.6897266973611942e+18,185.3501942382813,0.0090733725500851,0.0218795895659923,-0.0782502668593823,1.6897266973586903e+18,185.34769033203125,-0.1025054931640625,0.9962677001953124,-0.038311767578125,1.6897266973611942e+18,185.3501942382813,-0.9911749227722734,9.752418175979257,-0.2797728794386796,1.6897266973611942e+18,185.3501942382813,0.0034652065485715,-0.0706532040610909,-0.0221847444772719,1.6897266973637005e+18,185.35270063476565,0.005143522657454,-0.0784854348748922,-0.0226241398602723,,,,,,,,,,,,,1.6897266973611942e+18,185.3501942382813,-19.009560775756835,42.14683456420899,10.845361328125,1.689726697364246e+18,185.35324599609373,11.0724853515625,53.9195068359375,90.24992065429689,1.6897266973611942e+18,185.3501942382813,0.2611784756912594,0.6437133158326255,-0.1868244162082008,-0.2751095859697107,-0.7180753581755175,0.1873423228362649,-1.4655807189410186
5.4,1.6897266974112978e+18,185.40029765625,-0.4053927308262884,0.2646690566581487,-0.1486018528908118,1.6897266974087936e+18,185.39779365234375,-0.1401153564453125,1.02384033203125,-0.040618896484375,1.6897266974112978e+18,185.40029765625,-0.9897384456153212,9.752460612268449,-0.2833121448676846,1.6897266974112978e+18,185.40029765625,-0.0086880791001021,-0.0978428566828369,0.0389118722174316,1.689726697413804e+18,185.4028040527344,-0.0106435365276411,-0.0817932927515357,0.0404979448765515,,,,,,,,,,,,,1.6897266974112978e+18,185.40029765625,-18.967430877685548,42.04230270385742,10.832292175292968,1.689726697411056e+18,185.40005615234375,11.156719207763672,53.89713668823242,90.18924713134766,1.6897266974112978e+18,185.40029765625,0.2640957512078625,0.6431081911802324,-0.1890557093150507,-0.2787903934164258,-0.7174400709380991,0.189601861980952,-1.4656233816053683
5.45,1.689726697461401e+18,185.45040131835935,0.2366782615093886,-0.0544644637328386,0.3088619692985899,1.6897266974588974e+18,185.4478972167969,-0.0780059814453125,0.986895751953125,0.000634765625,1.689726697461401e+18,185.45040131835935,-0.9902234380402416,9.751909174317715,-0.3000631576398759,1.689726697461401e+18,185.45040131835935,-0.0297093696892261,-0.0351353108882903,-0.0507345810532569,1.6897266974639078e+18,185.45290776367187,-0.0263687565922736,-0.0306271508336066,-0.0521028827875852,,,,,,,,,,,,,1.689726697461401e+18,185.45040131835935,-19.195240020751953,42.05218124389648,10.700692749023435,1.6897266974578673e+18,185.44686704101565,10.857025146484377,53.90852355957031,90.07108154296876,1.689726697461401e+18,185.45040131835935,0.2509028137272109,0.6427017521490718,-0.1892935655597304,-0.2942656872017964,-0.7173948043018683,0.1909107152500873,-1.4650884895057523
5.5,1.6897266975115046e+18,185.50050463867188,-0.2777089655255526,-0.3134650609135627,-0.0492192200231179,1.6897266975090007e+18,185.4980006347656,-0.1297821044921875,0.9610321044921876,-0.0392730712890625,1.6897266975115046e+18,185.50050463867188,-0.9726328362920136,9.753413499853014,-0.3087137747332453,1.6897266975115046e+18,185.50050463867188,0.0001515860436483,-0.0878140456974506,-0.0046031637117266,1.6897266975140111e+18,185.50301103515625,0.0022586802020668,-0.0862545661628245,0.0020762534113601,,,,,,,,,,,,,1.6897266975115046e+18,185.50050463867188,-18.991431427001952,42.093013763427734,10.761962890625,1.689726697509879e+18,185.49887900390624,11.097357177734375,53.92716674804687,90.17049560546874,1.6897266975115046e+18,185.50050463867188,0.2404473343107126,0.6430053131120055,-0.1897689522449623,-0.3073434906310504,-0.7166436159435884,0.192232925268423,-1.4665512728766577
5.55,1.6897266975616082e+18,185.55060820312505,-0.334376740682423,-0.3842328922891617,-0.1510038213855773,1.6897266975591045e+18,185.548104296875,-0.1340484619140625,0.9556060791015624,-0.04697265625,1.6897266975616082e+18,185.55060820312505,-0.994704397459626,9.750859139195084,-0.3185588038560002,1.6897266975616082e+18,185.55060820312505,-0.0419636944308876,-0.1340075016021728,0.0962986141443252,1.6897266975641144e+18,185.55311450195313,-0.0442098582163452,-0.1225055679678916,0.0990209087729453,,,,,,,,,,,,,1.6897266975616082e+18,185.55060820312505,-19.18053855895996,42.03957672119141,10.59955596923828,1.689726697561892e+18,185.55089204101563,10.815231323242188,53.905337524414065,89.94296875,1.6897266975616082e+18,185.55060820312505,0.2444139462011586,0.6414635093665428,-0.1919715905053837,-0.3099065402792785,-0.7168418693918136,0.1944418096286025,-1.4640880017483138
5.6,1.6897266976117115e+18,185.6007117675781,0.1691902409090101,-0.1591599329602718,0.2885313956196233,1.6897266976092076e+18,185.59820761718748,-0.0852752685546875,0.9755645751953124,-0.005328369140625,1.6897266976117115e+18,185.6007117675781,-1.0392131382368504,9.744944479097724,-0.3553595056195929,1.6897266976117115e+18,185.6007117675781,-0.0646340645849704,-0.0390713158994912,0.0486907586455344,1.689726697614218e+18,185.6032181640625,-0.0621468864381313,-0.0364160109311341,0.0407972831279039,,,,,,,,,,,,,1.6897266976117115e+18,185.6007117675781,-19.43576431274414,42.13809432983398,10.210580444335935,1.6897266976139062e+18,185.60290625,10.589840698242188,54.032797241210936,89.49866333007813,1.6897266976117115e+18,185.6007117675781,0.228493687352056,0.6390946084282934,-0.1923927971087786,-0.3294154929199082,-0.7183105316782464,0.1963989001263896,-1.4585640799841435
5.65,1.6897266976618153e+18,185.65081508789063,0.1564339712885767,0.0542217702442408,-0.0579848271852359,1.689726697659311e+18,185.64831103515627,-0.092828369140625,1.0079345703125,-0.0451873779296875,1.6897266976618153e+18,185.65081508789063,-1.0337591982929408,9.744706812497377,-0.3773109183127804,1.6897266976618153e+18,185.65081508789063,-0.0180639021098613,-0.0331287923268973,-0.0441198173910378,1.6897266976643215e+18,185.65332153320313,-0.0167603909969329,-0.0164205193519592,-0.0390523280017077,,,,,,,,,,,,,1.6897266976618153e+18,185.65081508789063,-19.475300216674803,42.2505615234375,10.032098388671876,1.6897266976607186e+18,185.64971838378904,10.645488739013672,54.092586517333984,89.38545227050781,1.6897266976618153e+18,185.65081508789063,0.2106912928302055,0.6387876889733122,-0.1925694045256838,-0.3499863477048149,-0.718069629256131,0.1980985857238509,-1.458342136146532
5.7,1.6897266977119186e+18,185.7009186035156,0.0811429780131578,1.7457472211676834,1.2308159211578218,1.689726697709415e+18,185.6984146972656,-0.0926361083984375,1.1706787109375,0.09661865234375,1.6897266977119186e+18,185.7009186035156,-1.0359505854704232,9.745043964723347,-0.3618703780444338,1.6897266977119186e+18,185.7009186035156,0.108961478061974,0.171114096045494,0.0078483883291482,1.689726697714425e+18,185.703425,0.1251270281325559,0.1768443882465362,0.0007033392786979,,,,,,,,,,,,,1.6897266977119186e+18,185.7009186035156,-19.46256980895996,42.2683967590332,10.068299865722656,1.6897266977075308e+18,185.6965309082031,10.613583374023438,54.11064147949219,89.49053649902343,1.6897266977119186e+18,185.7009186035156,0.2200289630862812,0.6393259727913387,-0.1914681645361037,-0.3360246003111686,-0.7184417399307607,0.196064746746262,-1.458648955856828
5.75,1.689726697762022e+18,185.75102216796876,0.5708751886454969,-0.5695809256643056,0.1742531284021959,1.6897266977595182e+18,185.74851801757816,-0.0444061279296875,0.9247283935546876,-0.0253265380859375,1.689726697762022e+18,185.75102216796876,-0.9672950700736792,9.755653738447426,-0.241949118237663,1.689726697762022e+18,185.75102216796876,0.2826847434043883,0.0074172902852296,-0.2618968248367309,1.6897266977645286e+18,185.753528515625,0.2744476377964019,0.0070599338039756,-0.2579558044672012,,,,,,,,,,,,,1.689726697762022e+18,185.75102216796876,-19.073336791992187,42.21595306396485,10.675685119628906,1.6897266977595443e+18,185.74854428710935,11.028359985351562,54.062741088867185,90.11180114746094,1.689726697762022e+18,185.75102216796876,0.3076170669274696,0.6435608039334626,-0.1932608444452654,-0.2435627029480505,-0.7155167993638788,0.1910667129025702,-1.4688932659712877
5.8,1.6897266978121257e+18,185.80112568359377,-0.2086428673404454,-0.3954567647105454,-1.809034794403538,1.6897266978096215e+18,185.7986216796875,-0.1092132568359375,0.9624664306640623,-0.19544677734375,1.6897266978121257e+18,185.80112568359377,-0.8883203760103136,9.764536717604994,-0.1868913392139598,1.6897266978121257e+18,185.80112568359377,-0.075362504273653,0.2081634514033794,-0.0732881687581538,1.689726697814632e+18,185.80363203125,-0.0843174368143081,0.2220246493816375,-0.0720613040030002,,,,,,,,,,,,,1.6897266978121257e+18,185.80112568359377,-18.759109497070312,42.2624008178711,10.978436279296876,1.6897266978115584e+18,185.80055839843752,11.330221557617188,54.11123352050781,90.37195129394532,1.6897266978121257e+18,185.80112568359377,0.340630698268705,0.647301420307154,-0.1933326524956806,-0.207438436025357,-0.7126790347403096,0.1889666770287539,-1.4780894175288362
5.85,1.6897266978622292e+18,185.85122919921872,-0.0052400195453316,0.0796456667405367,0.0313302636893466,1.689726697859725e+18,185.84872514648436,-0.0900482177734375,1.0029693603515626,-0.0170166015625,1.6897266978622292e+18,185.85122919921872,-0.8366211392071097,9.76848387702167,-0.2164917395968735,1.6897266978622292e+18,185.85122919921872,-0.0140557948965579,-0.0885783394798636,-0.115461891889572,1.6897266978647352e+18,185.85373540039063,-0.0064077250659466,-0.1033413551747798,-0.1080472663044929,,,,,,,,,,,,,1.6897266978622292e+18,185.85122919921872,-18.385491180419923,42.26927642822265,11.083441162109375,1.689726697863573e+18,185.85257314453128,11.68553466796875,54.17402954101563,90.45403747558592,1.6897266978622292e+18,185.85122919921872,0.288575979765471,0.6494610812594261,-0.1896369575874482,-0.2533624798647849,-0.711823717452895,0.1885303589160888,-1.4825577534391852
5.9,1.6897266979123328e+18,185.90133276367183,-0.4538644423373043,-0.286539527682662,0.1357429850656911,1.6897266979098286e+18,185.89882866210937,-0.1274688720703125,0.965863037109375,-0.00518798828125,1.6897266979123328e+18,185.90133276367183,-0.8159302187429368,9.77012077212155,-0.2221439201396703,1.6897266979123328e+18,185.90133276367183,-0.010009282361716,-0.0826495012268424,0.0114754140377044,1.689726697914839e+18,185.90383916015625,-0.0107666275463998,-0.059280315041542,0.0128887409344315,,,,,,,,,,,,,1.6897266979123328e+18,185.90133276367183,-18.52455253601074,42.397570037841795,10.90813446044922,1.689726697910385e+18,185.89938482666017,11.540046691894531,54.198753356933594,90.24994277954102,1.6897266979123328e+18,185.90133276367183,0.2841972408816352,0.6493886506772089,-0.1921154198109308,-0.2658060428511568,-0.7104169408210911,0.1915546426667521,-1.4844576658376254
5.95,1.689726697962436e+18,185.95143608398436,-0.2943260606795548,-0.2888193968611955,0.5083378273354843,1.6897266979599324e+18,185.94893227539063,-0.11495361328125,0.9681549072265624,0.0280548095703125,1.689726697962436e+18,185.95143608398436,-0.8181996103665977,9.7698582048887,-0.2253729250028914,1.689726697962436e+18,185.95143608398436,0.0049730294849723,0.0450558425858616,0.0197767801582813,1.6897266979649423e+18,185.95394233398432,0.0059288891381583,0.0501903075724839,0.0247003922238945,,,,,,,,,,,,,1.689726697962436e+18,185.95143608398436,-18.475600814819337,42.29072952270508,10.941171264648435,1.6897266979571968e+18,185.94619672851564,11.580084228515624,54.13584594726562,90.33258666992188,1.689726697962436e+18,185.95143608398436,0.2804052278019639,0.6493504979647948,-0.1917387831363844,-0.2687955635534425,-0.7106003251578277,0.1913825927219712,-1.4841477364696565
6.0,1.6897266980125394e+18,186.00153950195312,0.097083255271092,-0.1654746398389339,-0.1050278941326215,1.6897266980100357e+18,185.999035546875,-0.072137451171875,0.9831390380859376,-0.036212158203125,1.6897266980125394e+18,186.00153950195312,-0.8502391402234137,9.767151167113184,-0.2239651807500794,1.6897266980125394e+18,186.00153950195312,-0.0240282060578465,0.073153793811798,0.0511591497808694,1.689726698015046e+18,186.00404614257815,-0.0218672685325145,0.0745685085654258,0.0463589221239089,,,,,,,,,,,,,1.6897266980125394e+18,186.00153950195312,-18.587387466430663,42.28488006591797,11.027999877929688,1.6897266980092106e+18,185.9982107421875,11.492886352539063,54.12321472167969,90.42943725585938,1.6897266980125394e+18,186.00153950195312,0.2885291744090651,0.648497001188443,-0.1909859841387591,-0.2575757653029535,-0.7119510248129284,0.1900034116349427,-1.481018542589338
6.05,1.6897266980626432e+18,186.0516431152344,0.1831385844712704,-0.0371739555227756,-0.3242680227754451,1.689726698060139e+18,186.04913911132812,-0.0714080810546875,0.9881927490234376,-0.0576934814453125,1.6897266980626432e+18,186.0516431152344,-0.8469607323007284,9.767388599904775,-0.2259794395286775,1.6897266980626432e+18,186.0516431152344,-0.0129290061537175,0.1071026720106601,-0.073178607225418,1.6897266980651494e+18,186.0541493652344,-0.0118914933409541,0.1165538821369409,-0.0733222573995589,,,,,,,,,,,,,1.6897266980626432e+18,186.0516431152344,-18.247892761230467,42.27625045776367,11.168362426757811,1.689726698061223e+18,186.05022294921875,11.867724609375,54.12463989257813,90.57340393066406,1.6897266980626432e+18,186.0516431152344,0.2815992734566899,0.6489500095925184,-0.1895538540939758,-0.2607644860541501,-0.7122160926236527,0.1888924858254825,-1.4812891471366174
6.1,1.6897266981127468e+18,186.1017466796875,-0.4621566744470596,0.0545804328757524,-0.4876425594897567,1.6897266981102428e+18,186.09924287109376,-0.13106689453125,1.002886962890625,-0.07266845703125,1.6897266981127468e+18,186.1017466796875,-0.8221529803283512,9.769338097311255,-0.2333710951097309,1.6897266981127468e+18,186.1017466796875,-0.0190660439431667,-0.0953794974833726,0.0017694654874503,1.689726698115253e+18,186.1042530761719,-0.0167608175426721,-0.1030305105261504,0.0084587322548031,,,,,,,,,,,,,1.6897266981127468e+18,186.1017466796875,-18.22049903869629,42.30321731567383,11.12537078857422,1.6897266981132365e+18,186.10223657226564,11.8244384765625,54.13990783691406,90.5063690185547,1.6897266981127468e+18,186.1017466796875,0.2634763912056043,0.6499949010734858,-0.1882438655096777,-0.2765762877719123,-0.7116756845033055,0.1886479450608082,-1.4835362383893032
6.15,1.6897266981628503e+18,186.15185009765625,-0.1123414831620454,-0.4319235656511783,-0.5493108901868016,1.6897266981603464e+18,186.14934624023437,-0.09635009765625,0.9509613037109376,-0.0819610595703125,1.6897266981628503e+18,186.15185009765625,-0.8357025192183256,9.767783736702205,-0.2494545948436855,1.6897266981628503e+18,186.15185009765625,-0.0363049540668726,-0.258358758687973,0.0588976405560969,1.6897266981653563e+18,186.15435625,-0.0451207131147384,-0.2455237969756126,0.0629401370882987,,,,,,,,,,,,,1.6897266981628503e+18,186.15185009765625,-18.388214111328125,42.28161010742187,10.913905334472656,1.6897266981600476e+18,186.14904772949217,11.66147232055664,54.124996185302734,90.21068572998048,1.6897266981628503e+18,186.15185009765625,0.2607008779581619,0.6483252276852466,-0.1915901159788779,-0.2899797596340076,-0.7112670606421376,0.1925163657707312,-1.4817423045522529
6.2,1.6897266982129536e+18,186.2019535644531,0.0654738896859437,-0.0130226800847053,0.7725992018951475,1.6897266982104494e+18,186.1994495117187,-0.0804107666015625,0.997222900390625,0.055712890625,1.6897266982129536e+18,186.2019535644531,-0.8804003236007689,9.762510530926583,-0.2972904013376496,1.6897266982129536e+18,186.2019535644531,-0.0588041929528116,-0.0483036522753536,0.0915964171290397,1.6897266982154604e+18,186.20446020507816,-0.0471987236291169,-0.0377042353153228,0.0885976679623126,,,,,,,,,,,,,1.6897266982129536e+18,186.2019535644531,-18.772123718261717,42.30616455078125,10.685667419433594,1.6897266982068603e+18,186.1958604492187,11.247763061523438,54.15151672363281,90.05693664550782,1.6897266982129536e+18,186.2019535644531,0.2322264849162466,0.6455159887051001,-0.1928767818827648,-0.3255675735282679,-0.7125210049002291,0.1960116114539216,-1.4758959592238194
6.25,1.6897266982630572e+18,186.25205712890624,0.2646799141522497,0.4251286155879497,0.645168688009642,1.6897266982605532e+18,186.24955322265623,-0.06492919921875,1.035467529296875,0.0309417724609375,1.6897266982630572e+18,186.25205712890624,-0.897527355651334,9.760853177560566,-0.3009422602956556,1.6897266982630572e+18,186.25205712890624,0.0170249040238558,0.0804352276027202,-0.0288929814472794,1.6897266982655634e+18,186.25456328125,0.016871285252273,0.0945330575108528,-0.0324843873735516,,,,,,,,,,,,,1.6897266982630572e+18,186.25205712890624,-18.947577667236327,42.26593856811523,10.555538940429688,1.689726698258873e+18,186.24787314453124,11.14927978515625,54.09990234375,89.94595642089844,1.6897266982630572e+18,186.25205712890624,0.2348967912768784,0.6447946077498434,-0.1931320459764114,-0.3235155772148081,-0.7130645199791064,0.1961591828456637,-1.474116192727403
6.3,1.6897266983131604e+18,186.3021604980469,0.0663040861258655,-0.1152116025447844,-0.0283610934191382,1.6897266983106565e+18,186.2996565917969,-0.0839447021484375,0.98345947265625,-0.0364288330078125,1.6897266983131604e+18,186.3021604980469,-0.87255150979653,9.763455235204695,-0.2896786623053439,1.6897266983131604e+18,186.3021604980469,0.0011320041492581,0.1061740465462207,-0.0533487973734736,1.689726698315667e+18,186.30466694335936,-4.894882440565976e-05,0.1060392439365386,-0.0483839371008798,,,,,,,,,,,,,1.6897266983131604e+18,186.3021604980469,-18.779711532592778,42.35310516357422,10.604289245605468,1.6897266983108849e+18,186.29988491210935,11.289300537109376,54.21144104003906,89.99356384277344,1.6897266983131604e+18,186.3021604980469,0.2309572470676643,0.6464943116834816,-0.1908248189468572,-0.3205415379635035,-0.7127926400193528,0.1937959646815771,-1.4769079208604223
6.35,1.6897266983632645e+18,186.3522642089844,-0.0228942757273465,-0.077056234769225,-0.4224995384194702,1.68972669836076e+18,186.34976015625,-0.0890838623046875,0.988458251953125,-0.07239990234375,1.6897266983632645e+18,186.3522642089844,-0.8688260156934708,9.763666715224383,-0.2937857067251578,1.6897266983632645e+18,186.3522642089844,-0.0316200360655784,0.038327794522047,0.0254138078540563,1.6897266983657702e+18,186.35477036132812,-0.0304592125117778,0.0453625813126563,0.0270618177950382,,,,,,,,,,,,,1.6897266983632645e+18,186.3522642089844,-18.66982421875,42.43239898681641,10.674391174316408,1.6897266983628997e+18,186.35189956054688,11.422714233398438,54.27363586425781,90.06725769042968,1.6897266983632645e+18,186.3522642089844,0.2224945683016156,0.6468723614476459,-0.1895965911914265,-0.3260586709289832,-0.7129872306917705,0.1930241519745623,-1.4771355881310817
6.4,1.6897266984133676e+18,186.402367578125,0.2531511551132053,0.1399303318333625,-0.3993956166098639,1.6897266984108634e+18,186.3998634765625,-0.0639373779296875,1.010516357421875,-0.073089599609375,1.6897266984133676e+18,186.402367578125,-0.8803421490596979,9.762188810078502,-0.3082404837059043,1.6897266984133676e+18,186.402367578125,-0.0318231716752051,-0.014274189248681,0.0234879340976476,1.689726698415874e+18,186.4048739746094,-0.0316469814628362,-0.011118537839502,0.0231712587177753,,,,,,,,,,,,,1.6897266984133676e+18,186.402367578125,-18.68074607849121,42.43951416015625,10.646298217773438,1.6897266984149138e+18,186.40391372070312,11.350582885742188,54.272213745117185,89.99243469238282,1.6897266984133676e+18,186.402367578125,0.2108599309594875,0.6463931262225786,-0.18887058922695,-0.3367709653571437,-0.7135915279920715,0.1931084005603133,-1.4755381358328343
6.45,1.689726698463471e+18,186.45247109375,0.3643632396930455,-0.1086822592282295,-0.3847812030477821,1.6897266984609674e+18,186.44996723632812,-0.053668212890625,0.9815582275390624,-0.074151611328125,1.689726698463471e+18,186.45247109375,-0.8825283632184565,9.760846514011025,-0.3423677394363283,1.689726698463471e+18,186.45247109375,-0.0626101717352866,-0.0751021564006804,-0.0206330403685569,1.689726698460967e+18,186.4499669189453,-0.0615845331922173,-0.0650626886636018,-0.0180246070958673,,,,,,,,,,,,,1.689726698463471e+18,186.45247109375,-18.72597007751465,42.36863174438477,10.503248596191408,1.6897266984617247e+18,186.45072448730468,11.398284912109377,54.212303161621094,89.84144592285156,1.689726698463471e+18,186.45247109375,0.1798005484280296,0.6457403606278621,-0.1885022849949021,-0.3700800033078305,-0.7137669796875284,0.1949930185582721,-1.474108388185153
6.5,1.6897266985135744e+18,186.5025744140625,-0.1172325139131396,-0.0049900633722543,-0.1594937607179954,1.6897266985110705e+18,186.50007036132817,-0.1011627197265625,0.9969573974609376,-0.053106689453125,1.6897266985135744e+18,186.5025744140625,-0.8616666454581171,9.76091256498456,-0.3902449191202968,1.6897266985135744e+18,186.5025744140625,-0.068527179956436,-0.0958600521087646,-0.0017903232946991,1.6897266985060603e+18,186.49506015625,-0.0663281053304672,-0.0952850267291068,-0.0077992801088839,,,,,,,,,,,,,1.6897266985135744e+18,186.5025744140625,-18.779724502563475,42.44885406494141,10.342147827148438,1.689726698508537e+18,186.49753696289065,11.259524536132812,54.2995849609375,89.72358703613281,1.6897266985135744e+18,186.5025744140625,0.129446471913031,0.6455247628451686,-0.1883393293864396,-0.4252125228671061,-0.7130645399299761,0.1984038572556272,-1.474178527972252
6.55,1.6897266985636782e+18,186.55267817382813,-0.1481969180452078,-0.1737068123245238,0.3852012258646636,1.689726698561174e+18,186.55017412109376,-0.1031707763671875,0.97640380859375,-0.004766845703125,1.6897266985636782e+18,186.55267817382813,-0.8472522918193042,9.760599962677954,-0.4279973175051063,1.6897266985636782e+18,186.55267817382813,-0.0252842128043994,-0.0601270496845244,-0.0316755667328833,1.6897266985561636e+18,186.54516381835936,-0.0351242712698876,-0.0512207373976706,-0.0266792277805506,,,,,,,,,,,,,1.6897266985636782e+18,186.55267817382813,-18.79466133117676,42.48286514282226,10.064036560058591,1.6897266985605535e+18,186.54955336914065,11.28155517578125,54.32279357910157,89.43334655761718,1.6897266985636782e+18,186.55267817382813,0.0901848708694545,0.6453141006187659,-0.1880676632688068,-0.4677943000247489,-0.712620832349166,0.2009268160876405,-1.4738487616353628
6.6,1.6897266986137812e+18,186.60278129882812,-0.4732384349840134,-0.0412709863519668,0.1657073160836473,1.6897266986112773e+18,186.60027744140623,-0.1333526611328125,0.9913726806640624,-0.02601318359375,1.6897266986137812e+18,186.60278129882812,-0.8525206460632383,9.759785372972487,-0.4359525289063155,1.6897266986137812e+18,186.60278129882812,-0.015677336230874,0.0058730946853756,0.0702146396040915,1.6897266986062671e+18,186.59526708984376,-0.0109389339573681,-0.0167546387761831,0.0595599453896283,,,,,,,,,,,,,1.6897266986137812e+18,186.60278129882812,-18.934797286987305,42.39404067993164,10.049435424804688,1.6897266986125706e+18,186.6015706542969,11.11632080078125,54.225335693359376,89.44356079101563,1.6897266986137812e+18,186.60278129882812,0.0878006168699201,0.6447778899896461,-0.1887578649556263,-0.472754585245548,-0.7126267203673181,0.2019771815580098,-1.4730007450674436
6.65,1.6897266986638853e+18,186.65288515625,0.1202959492978453,-0.1210500409877299,0.1577928970038145,1.689726698661381e+18,186.65038115234375,-0.0776519775390625,0.9823944091796876,-0.03175048828125,1.6897266986638853e+18,186.65288515625,-0.8718058936740457,9.757591428511738,-0.4467731250629573,1.6897266986638853e+18,186.65288515625,-0.0890485942363738,0.0413157865405082,-0.0378077302128076,1.6897266986563704e+18,186.64537050781252,-0.0588351953774689,0.0315711356699466,-0.0162446437403559,,,,,,,,,,,,,1.6897266986638853e+18,186.65288515625,-19.138685989379884,42.41834259033203,10.095292663574218,1.689726698664588e+18,186.65358823242187,10.965353393554688,54.28567199707031,89.44501342773438,1.6897266986638853e+18,186.65288515625,0.0856189350194431,0.6441001598220675,-0.1880721695312877,-0.473557200604726,-0.7134971649865423,0.2017055991679015,-1.4707288970047203
6.7,1.6897266987139884e+18,186.70298837890624,-0.2948867486891894,-0.1880586951863765,0.4202021555038168,1.6897266987114844e+18,186.70048432617187,-0.11822509765625,0.976568603515625,-0.007696533203125,1.6897266987139884e+18,186.70298837890624,-0.8470277477353811,9.756785139017104,-0.507620268263705,1.6897266987139884e+18,186.70298837890624,-0.1570493713021278,0.2251941666007041,-0.0932420432567596,1.6897266987064742e+18,186.69547416992185,-0.1663717716932296,0.2458041757345199,-0.0905777305364608,,,,,,,,,,,,,1.6897266987139884e+18,186.70298837890624,-19.08102149963379,42.592193603515625,9.967697143554688,1.6897266987114025e+18,186.70040258789064,11.008525848388672,54.44762420654297,89.35146713256836,1.6897266987139884e+18,186.70298837890624,0.0101566218543948,0.645259784946842,-0.1824672571423605,-0.539931922950833,-0.7140647755305852,0.2011290116354513,-1.4699093907589234
