seconds_elapsed_rounded,accelerometer_time,accelerometer_seconds_elapsed,accelerometer_z,accelerometer_y,accelerometer_x,accelerometeruncalibrated_time,accelerometeruncalibrated_seconds_elapsed,accelerometeruncalibrated_z,accelerometeruncalibrated_y,accelerometeruncalibrated_x,gravity_time,gravity_seconds_elapsed,gravity_z,gravity_y,gravity_x,gyroscope_time,gyroscope_seconds_elapsed,gyroscope_z,gyroscope_y,gyroscope_x,gyroscopeuncalibrated_time,gyroscopeuncalibrated_seconds_elapsed,gyroscopeuncalibrated_z,gyroscopeuncalibrated_y,gyroscopeuncalibrated_x,location_time,location_seconds_elapsed,location_bearingAccuracy,location_speedAccuracy,location_verticalAccuracy,location_horizontalAccuracy,location_speed,location_bearing,location_altitude,location_longitude,location_latitude,magnetometer_time,magnetometer_seconds_elapsed,magnetometer_z,magnetometer_y,magnetometer_x,magnetometeruncalibrated_time,magnetometeruncalibrated_seconds_elapsed,magnetometeruncalibrated_z,magnetometeruncalibrated_y,magnetometeruncalibrated_x,orientation_time,orientation_seconds_elapsed,orientation_qz,orientation_qy,orientation_qx,orientation_qw,orientation_roll,orientation_pitch,orientation_yaw
0.0,1.688702152350512e+18,209.99851204427085,-0.2912457386652629,5.00870148340861,3.743983745574951,1.688702152350512e+18,209.99851204427085,-1.0325030287106831,-4.3082772095998125,6.8263241449991865,1.688702152350512e+18,209.99851204427085,-0.7471033334732056,-9.299474080403646,3.019652764002482,1.6887021523591667e+18,210.00716674804687,1.8739817937215169,1.451823075612386,0.7094181577364603,1.6887021523591667e+18,210.00716674804687,1.872912883758545,1.456506371498108,0.7116071184476217,,,,,,,,,,,,1.6887021523471844e+18,209.99518432617188,-29.392239379882813,40.26975860595703,-7.383439731597901,1.6887021523471844e+18,209.99518432617188,-283.93303833007815,135.73475646972656,-140.5952362060547,1.688702152350512e+18,209.99851204427085,0.6525556246439616,-0.7326683600743612,0.021392959790925,0.1913521091143289,-1.8072060743967693,1.247808615366618,-1.0902642806371052
0.05,1.6887021524024218e+18,210.050421875,-5.091944773991902,8.069540023803711,1.3992782433827715,1.6887021524024218e+18,210.050421875,-5.316054185231526,-1.4614164630572002,3.836093584696452,1.6887021524024218e+18,210.050421875,-0.2299554447333017,-9.513452212015787,2.3741279443105063,1.688702152402422e+18,210.05042199707032,1.0972667336463928,0.4157701451331377,1.2113457918167114,1.688702152402422e+18,210.05042199707032,1.096121311187744,0.4205043576657772,1.213483810424805,,,,,,,,,,,,1.6887021523971848e+18,210.04518486328124,-31.41011962890625,39.64755859375,-2.3570399045944215,1.6887021523971848e+18,210.04518486328124,-285.95091552734374,135.11255493164063,-135.56883239746094,1.6887021524024218e+18,210.050421875,0.6744744181632996,-0.7147304018338522,-0.015481007285416,0.1841049840052921,-1.659011999766032,1.324521581331889,-1.197196404139201
0.1,1.688702152454326e+18,210.10232584635415,-2.8267497221628823,8.949899991353353,0.6531134446461996,1.688702152454326e+18,210.10232584635415,-2.5908287366231284,-0.6307081878185272,2.8899315198262534,1.688702152454326e+18,210.10232584635415,0.23007499674956,-9.563103675842283,2.17413067817688,1.6887021524456755e+18,210.0936754557292,0.3310889651377995,-0.7568620443344116,1.0792970657348633,1.6887021524456755e+18,210.0936754557292,0.3299181386828422,-0.7521787285804749,1.0814351240793865,,,,,,,,,,,,1.6887021524471846e+18,210.0951847167969,-33.711038970947264,37.64431915283203,-1.3249199390411377,1.6887021524471846e+18,210.0951847167969,-288.2518371582031,133.10931701660155,-134.53671569824218,1.688702152454326e+18,210.10232584635415,0.6959176063537598,-0.6982565124829611,-0.0085391774773597,0.16737961769104,-1.4600813388824463,1.3455472389856975,-1.430476228396098
0.15,1.6887021525062308e+18,210.15423095703125,-1.2926806608835857,9.045713742574057,-0.1029930114746093,1.6887021525062308e+18,210.15423095703125,-1.1230314175287883,-0.5076772073904673,2.2542383670806885,1.6887021525062308e+18,210.15423095703125,0.1638032160699367,-9.535886446634928,2.294543981552124,1.68870215249758e+18,210.1455801595052,-0.1468621914585431,-0.7106908162434896,-0.1089376409848531,1.68870215249758e+18,210.1455801595052,-0.1480330079793929,-0.7060075004895529,-0.1067996025085449,,,,,,,,,,,,1.6887021524971832e+18,210.14518305664063,-34.51379928588867,36.94891891479492,-1.8226799249649048,1.6887021524971832e+18,210.14518305664063,-289.0545959472656,132.413916015625,-135.03447570800782,1.6887021525062308e+18,210.15423095703125,0.6955957214037577,-0.7006440162658691,0.0087659456767141,0.1584641287724176,-1.4933940172195437,1.3334982792536418,-1.4345885515213013
0.2,1.6887021525581312e+18,210.20613102213545,15.096619606018066,-3.948566436767578,0.0242673556009928,1.6887021525581312e+18,210.20613102213545,14.236098368962606,-13.31087334950765,2.888136943181356,1.6887021525581312e+18,210.20613102213545,-0.8663684477408727,-9.344802538553871,2.801182190577189,1.6887021525494815e+18,210.19748168945316,-1.9528343478838603,-7.52173646291097,-0.8744026819864908,1.6887021525494815e+18,210.19748168945316,-1.953903396924337,-7.517155011494954,-0.872213751077652,,,,,,,,,,,,1.688702152547182e+18,210.1951822265625,-32.75455932617187,37.77119903564453,-6.3366797924041744,1.688702152547182e+18,210.1951822265625,-287.295361328125,133.23619689941407,-139.54848022460936,1.6887021525581312e+18,210.20613102213545,0.6666170756022135,-0.7259640097618103,0.1090666875243186,0.0984905672570069,-1.8490688006083171,1.2633877197901409,-1.308225433031718
0.25,1.6887021526013896e+18,210.2493895263672,17.00740671157837,-17.6573429107666,4.381015777587891,1.6887021526013896e+18,210.2493895263672,15.756139039993286,-26.773591995239254,7.887640714645386,1.6887021526013896e+18,210.2493895263672,-1.257113695144653,-9.098745822906494,3.4439377784729004,1.688702152601386e+18,210.24938606770831,-1.486540620525678,-2.13594122727712,1.094975968201955,1.688702152601386e+18,210.24938606770831,-1.4877113997936249,-2.131257931391398,1.0971139470736186,,,,,,,,,,,,1.68870215259718e+18,210.2451800292969,-27.73059959411621,35.694759368896484,-22.804239654541018,1.68870215259718e+18,210.2451800292969,-282.2713989257812,131.15975341796874,-156.0160400390625,1.6887021526013896e+18,210.2493895263672,0.6602364182472229,-0.7102732956409454,0.2430982440710067,0.0218101758509873,-1.917880296707153,1.1871206760406494,-1.5438802242279055
0.3,1.688702152644641e+18,210.29264111328123,-0.6972817182540894,-7.683947563171387,6.039236783981323,1.688702152644641e+18,210.29264111328123,-1.7443676590919497,-16.79901059468587,9.615358511606852,1.688702152644641e+18,210.29264111328123,-1.0529320041338603,-9.097558975219728,3.513433853785197,1.6887021526532966e+18,210.30129654947916,0.3012583727637927,3.469714641571045,-0.296066015958786,1.6887021526532966e+18,210.30129654947916,0.3001384586095809,3.4743470350901284,-0.2939279874165852,,,,,,,,,,,,1.688702152647182e+18,210.29518222656253,-28.255199432373047,34.699240112304686,-22.923799514770508,1.688702152647182e+18,210.29518222656253,-282.79599609375,130.16423645019532,-156.135595703125,1.688702152644641e+18,210.29264111328123,0.6663487553596497,-0.7115605274836222,0.2157493879397709,0.0502902716398238,-1.858570337295532,1.1867838700612383,-1.5220513741175334
0.35,1.688702152696546e+18,210.34454589843753,-2.5133000214894614,3.5354514122009277,0.6861433188120524,1.688702152696546e+18,210.34454589843753,-3.1593234539031982,-5.582654714584351,4.352943181991577,1.688702152696546e+18,210.34454589843753,-0.6518694758415222,-9.1006015141805,3.604112466176351,1.6887021527052e+18,210.3532001953125,0.0820086598396301,1.9776252905527751,-0.6105088988939921,1.6887021527052e+18,210.3532001953125,0.0809396430850028,1.9822576840718584,-0.6083708802858988,,,,,,,,,,,,1.6887021526971858e+18,210.3451859375,-31.53211975097656,35.20675811767578,-17.763199424743654,1.6887021526971858e+18,210.3451859375,-286.0729187011719,130.6717559814453,-150.9749969482422,1.688702152696546e+18,210.34454589843753,0.6743478576342264,-0.7131664355595907,0.1547650843858718,0.1116334175070126,-1.7464886903762815,1.1876901388168335,-1.4572500785191853
0.4,1.688702152748454e+18,210.3964542643229,-0.9123615026474,7.261887550354004,-2.126110871632894,1.688702152748454e+18,210.3964542643229,-1.6002001762390137,-1.8486549059549968,1.551944891611735,1.688702152748454e+18,210.3964542643229,-0.6936846971511841,-9.093037923177082,3.6153682867685952,1.6887021527571044e+18,210.40510424804688,-0.0936659996708234,0.5603670577208201,-0.3177008380492527,1.6887021527571044e+18,210.40510424804688,-0.0948877247671286,0.5650503486394882,-0.3155628045399983,,,,,,,,,,,,1.6887021527471813e+18,210.39518134765623,-31.288119506835937,36.25595932006836,-14.4350399017334,1.6887021527471813e+18,210.39518134765623,-285.82892456054685,131.72095947265626,-147.64684143066407,1.688702152748454e+18,210.3964542643229,0.6687113046646118,-0.7193508346875509,0.1314457406600315,0.1343710174163182,-1.756912112236023,1.1857198476791382,-1.3804655869801838
0.45,1.6887021528003584e+18,210.44835847981767,-0.3107016483942668,-1.4425716400146484,1.9968198935190835,1.6887021528003584e+18,210.44835847981767,-1.1128619114557905,-10.37667465209961,6.063013871510823,1.6887021528003584e+18,210.44835847981767,-0.8080062866210938,-8.916598320007324,4.003506580988566,1.6887021528090058e+18,210.45700561523435,-1.2811880509058635,0.691753993431727,-0.4225660264492035,1.6887021528090058e+18,210.45700561523435,-1.2823079625765483,0.6964372793833414,-0.4204280078411102,,,,,,,,,,,,1.6887021527971845e+18,210.44518427734377,-31.405239486694335,36.30963973999023,-15.208519744873048,1.6887021527971845e+18,210.44518427734377,-285.94603271484374,131.7746368408203,-148.42031555175782,1.6887021528003584e+18,210.44835847981767,0.6589926878611246,-0.7224060694376627,0.1366903682549794,0.1581818362077076,-1.767116626103719,1.1409204006195068,-1.3433379729588826
0.5,1.6887021528522609e+18,210.5002607421875,-0.6524733304977417,1.6018877029418943,-0.7396507263183594,1.6887021528522609e+18,210.5002607421875,-1.5846468210220337,-7.133602460225423,3.7206398646036782,1.6887021528522609e+18,210.5002607421875,-0.9380195339520772,-8.717985471089682,4.397603193918864,1.6887021528522583e+18,210.50025830078124,-0.2658790946006775,0.336052231490612,-0.7993935346603394,1.6887021528522583e+18,210.50025830078124,-0.2670244798064232,0.3407100848853588,-0.7972555160522461,,,,,,,,,,,,1.68870215284718e+18,210.4951799804688,-30.8049991607666,36.270598602294925,-16.133279228210448,1.68870215284718e+18,210.4951799804688,-285.3457946777344,131.735595703125,-149.34507446289064,1.6887021528522609e+18,210.5002607421875,0.6468949317932129,-0.7265626589457194,0.1388572404781977,0.1851938615242639,-1.777782122294108,1.0942332744598389,-1.296356836954753
0.55,1.6887021529041695e+18,210.55216975911455,0.150422195593516,2.7455252011617026,-2.745033582051595,1.6887021529041695e+18,210.55216975911455,-1.4223336974779766,-5.737789312998454,2.008575161298116,1.6887021529041695e+18,210.55216975911455,-1.5786019166310628,-8.46580982208252,4.690921306610107,1.6887021528955113e+18,210.54351106770832,-0.8217155933380127,0.1486438711484272,-1.7357735633850098,1.6887021528955113e+18,210.54351106770832,-0.8228863875071207,0.1532762746016184,-1.7335846424102783,,,,,,,,,,,,1.6887021528971802e+18,210.5451803222656,-27.984359359741212,37.73459930419922,-16.238199615478514,1.6887021528971802e+18,210.5451803222656,-282.52515869140626,133.19959716796876,-149.4499969482422,1.6887021529041695e+18,210.55216975911455,0.6150036056836446,-0.7483728925387064,0.1403979112704594,0.2044367293516794,-1.8915115197499592,1.041378140449524,-1.1561969916025798
0.6,1.688702152956074e+18,210.60407389322916,0.7840014298756918,-1.5372826258341472,-1.9503227074941,1.688702152956074e+18,210.60407389322916,-1.725025733311971,-9.60279623667399,3.1158538659413657,1.688702152956074e+18,210.60407389322916,-2.514873186747233,-8.048008918762207,5.003489176432292,1.6887021529474232e+18,210.59542333984373,-1.0295624732971191,-1.2838860551516216,-1.603317658106486,1.6887021529474232e+18,210.59542333984373,-1.030682384967804,-1.2792027393976848,-1.6011287371317546,,,,,,,,,,,,1.6887021529471852e+18,210.5951853027344,-24.282879257202147,38.83503875732422,-19.214999389648437,1.6887021529471852e+18,210.5951853027344,-278.82367553710935,134.30003967285157,-152.42679748535156,1.688702152956074e+18,210.60407389322916,0.5736081600189209,-0.7748352487881979,0.164415235320727,0.2079878151416778,-2.0327515602111816,0.9624522725741068,-1.0443058411280317
0.65,1.6887021530079793e+18,210.65597908528648,2.3763230244318643,-4.716782093048096,-0.950004498163859,1.6887021530079793e+18,210.65597908528648,-1.4049857060114543,-12.256037712097168,4.125425736109416,1.6887021530079793e+18,210.65597908528648,-3.787154754002889,-7.5217509269714355,5.012742837270101,1.6887021529993247e+18,210.64732470703123,-1.1965323289235432,-2.9085330168406167,-1.5450818141301472,1.6887021529993247e+18,210.64732470703123,-1.197601278622945,-2.903951565424601,-1.5428928931554158,,,,,,,,,,,,1.688702152997178e+18,210.645177734375,-18.74163990020752,39.071719360351565,-23.521599960327148,1.688702152997178e+18,210.645177734375,-273.2824340820313,134.53671875,-156.7333953857422,1.6887021530079793e+18,210.65597908528648,0.5245418349901835,-0.8038422067960104,0.2143089473247527,0.1789187242587407,-2.213931401570638,0.874256948630015,-0.981148342291514
0.7,1.6887021530512215e+18,210.6992215576172,36.95321607589722,-6.654860734939575,0.0721552371978759,1.6887021530512215e+18,210.6992215576172,31.035508513450623,-13.165010929107666,4.430011987686157,1.6887021530512215e+18,210.6992215576172,-5.923555612564087,-6.492645502090454,4.295169353485107,1.688702153051226e+18,210.6992256673177,-0.645633637905121,-1.9489653905232744,-5.291162172953288,1.688702153051226e+18,210.6992256673177,-0.6468044966459274,-1.9443330764770508,-5.288973172505696,1.6887021530285888e+18,210.6765888671875,0.0,0.0,0.9295415878295898,7.515999794006348,1.4826407432556152,131.10801696777344,43.5,-122.7552851,49.1894778,1.688702153047176e+18,210.6951759765625,-6.919839787483215,39.235198974609375,-28.22347946166992,1.688702153047176e+18,210.6951759765625,-261.46063842773435,134.7001983642578,-161.4352783203125,1.6887021530512215e+18,210.6992215576172,0.4274268448352813,-0.8527047336101532,0.2721738219261169,0.1212614439427852,-2.5091075897216797,0.7248416244983673,-0.8674838840961456
0.75,1.6887021530944778e+18,210.74247802734376,-1.4647804896036785,-7.839696407318115,0.2165244420369466,1.6887021530944778e+18,210.74247802734376,-6.678168555100759,-13.60778299967448,6.201598008473714,1.6887021530944778e+18,210.74247802734376,-5.219234148661296,-5.750581741333008,5.922386010487874,1.68870215310313e+18,210.75112980143228,1.7056375741958618,8.42627509435018,-0.052534431219101,1.68870215310313e+18,210.75112980143228,1.7045176426569622,8.430958271026611,-0.0502945681413015,,,,,,,,,,,,1.6887021530971796e+18,210.74517978515624,-4.940999913215637,39.9671989440918,-27.767198944091795,1.6887021530971796e+18,210.74517978515624,-259.48179626464844,135.43219604492188,-160.97899780273437,1.6887021530944778e+18,210.74247802734376,0.401987979809443,-0.8525316516558329,0.1926491359869638,0.2650380879640579,-2.2901857693990073,0.6269002556800842,-0.7367711067199707
0.8,1.6887021531463905e+18,210.79439038085937,-3.8093904654184976,-5.839208602905273,-7.385510444641113,1.6887021531463905e+18,210.79439038085937,-7.521837870279948,-12.08594767252604,-0.7204390168190002,1.6887021531463905e+18,210.79439038085937,-3.718293428421021,-6.229234536488851,6.602383931477864,1.688702153155034e+18,210.8030339355469,-0.3146974214663108,-1.9354248046875,1.118596076965332,1.688702153155034e+18,210.8030339355469,-0.315817334378759,-1.9307922919591267,1.1207340955734253,,,,,,,,,,,,1.68870215314718e+18,210.795180078125,-13.085719680786132,40.88707885742187,-23.380079650878905,1.68870215314718e+18,210.795180078125,-267.626513671875,136.3520751953125,-156.5918762207031,1.6887021531463905e+18,210.79439038085937,0.4426766733328501,-0.8192054629325867,0.1330438951651255,0.3391163845856983,-2.082101345062256,0.68838103612264,-0.7357226610183716
0.85,1.688702153198297e+18,210.8462970377604,13.173429568608602,-8.880221048990885,-4.509322166442871,1.688702153198297e+18,210.8462970377604,9.565508127212524,-15.62273915608724,1.6913268367449443,1.688702153198297e+18,210.8462970377604,-3.6137675444285073,-6.725013732910156,6.137961546579997,1.688702153206949e+18,210.8549490559896,2.506023724873861,1.8184440260132153,2.0099502404530845,1.688702153206949e+18,210.8549490559896,2.5048529505729675,1.8231273368000984,2.0120882590611777,,,,,,,,,,,,1.6887021531971791e+18,210.84517915039063,-14.183719635009766,40.25999908447265,-24.146239471435543,1.6887021531971791e+18,210.84517915039063,-268.72451171875,135.725,-157.35803833007813,1.688702153198297e+18,210.8462970377604,0.4765333632628123,-0.8130003611246744,0.1490390598773955,0.2982082764307658,-2.099355777104696,0.756491502126058,-0.8122018575668335
0.9,1.688702153250201e+18,210.89820133463544,-1.1136030753453572,-5.404105981190999,-0.700432300567627,1.688702153250201e+18,210.89820133463544,-3.404787222544352,-13.540185928344728,4.330809593200684,1.688702153250201e+18,210.89820133463544,-2.2970301707585654,-8.11857525507609,4.968554496765137,1.68870215325885e+18,210.90684985351564,3.2119294802347818,-0.8852455349018177,2.6262624263763428,1.68870215325885e+18,210.90684985351564,3.210758686065674,-0.8806131687015295,2.6284004052480063,,,,,,,,,,,,1.6887021532471844e+18,210.89518427734373,-20.134879684448244,41.67519912719727,-16.66763973236084,1.6887021532471844e+18,210.89518427734373,-274.67567138671876,137.14019775390625,-149.8794372558594,1.688702153250201e+18,210.89820133463544,0.5579345226287842,-0.7809121012687683,0.0803906594713528,0.2672186146179834,-2.000710050264994,0.97774209578832,-0.8634453813234965
0.95,1.6887021533021082e+18,210.95010799153644,2.7045507431030273,-6.521663347880046,5.87405792872111,1.6887021533021082e+18,210.95010799153644,1.087537880986929,-15.398611704508465,9.81655470530192,1.6887021533021082e+18,210.95010799153644,-1.6228588422139485,-8.85944398244222,3.8798089822133384,1.6887021533021071e+18,210.95010693359376,1.34588885307312,-1.6422348618507383,1.581988275051117,1.6887021533021071e+18,210.95010693359376,1.3447434902191162,-1.6375769972801208,1.5841262936592102,,,,,,,,,,,,1.6887021532971802e+18,210.94518032226568,-25.72003936767578,40.945638275146486,-12.3268798828125,1.6887021532971802e+18,210.94518032226568,-280.26083984375,136.41063842773437,-145.5386749267578,1.6887021533021082e+18,210.95010799153644,0.613801638285319,-0.7595230340957642,0.0723723173141479,0.202093760172526,-1.9637986818949384,1.1276180744171145,-0.9893729289372762
1.0,1.6887021533540127e+18,211.0020127766927,3.0030514200528464,2.1910521189371743,4.231013933817546,1.6887021533540127e+18,211.0020127766927,1.9898314277331035,-7.041279474894206,7.486344337463379,1.6887021533540127e+18,211.0020127766927,-1.0190659761428833,-9.214826901753744,3.19264284769694,1.6887021533453612e+18,210.99336132812505,1.695252855618795,1.2632693151632943,0.99082346757253,1.6887021533453612e+18,210.99336132812505,1.694132924079895,1.267952630917231,0.9929614861806234,,,,,,,,,,,,1.6887021533471803e+18,210.9951806152344,-28.016079330444335,39.94280014038086,-9.43791961669922,1.6887021533471803e+18,210.9951806152344,-282.5568786621094,135.40779724121094,-142.64971618652345,1.6887021533540127e+18,211.0020127766927,0.6437986890474955,-0.741235633691152,0.0407220367342233,0.184636428952217,-1.8728894392649331,1.221590797106425,-1.0616890986760457
1.05,1.6887021534059118e+18,211.05391162109376,-4.048689524332683,6.617704550425212,0.7993919054667155,1.6887021534059118e+18,211.05391162109376,-4.51366114616394,-2.863211711247762,3.3966117699941,1.6887021534059118e+18,211.05391162109376,-0.4708176056543986,-9.463411966959637,2.5345324675242105,1.6887021533972662e+18,211.04526619466145,1.39852507909139,0.394720767935117,0.8958847920099894,1.6887021533972662e+18,211.04526619466145,1.397354245185852,0.399404043952624,0.8980737328529358,,,,,,,,,,,,1.6887021533971845e+18,211.045184375,-29.880239486694336,39.37915954589844,-4.194359874725341,1.6887021533971845e+18,211.045184375,-284.42103881835936,134.8441589355469,-137.40615844726562,1.6887021534059118e+18,211.05391162109376,0.6676880717277527,-0.723431666692098,0.0038316285742136,0.1753025352954864,-1.7480787833531697,1.3045902252197266,-1.148226539293925
1.1,1.6887021534578225e+18,211.1058223470052,-2.8273181120554605,8.267428716023764,0.4449365933736165,1.6887021534578225e+18,211.1058223470052,-2.994218667348226,-1.323829134305318,2.6388846238454184,1.6887021534578225e+18,211.1058223470052,-0.1727465937534967,-9.573753356933594,2.131260633468628,1.6887021534491727e+18,211.09717260742184,0.7291185657183329,-1.0045679211616516,0.9362018903096516,1.6887021534491727e+18,211.09717260742184,0.7280495564142863,-0.999884565671285,0.938390831152598,,,,,,,,,,,,1.688702153447181e+18,211.09518115234377,-32.36903953552246,38.0615592956543,-2.576639986038208,1.688702153447181e+18,211.09518115234377,-286.9098327636719,133.52655944824218,-135.78843383789064,1.6887021534578225e+18,211.1058223470052,0.6857146223386129,-0.7128335038820902,0.0061326870539535,0.1467431982358296,-1.645150621732076,1.3506564299265544,-1.2960294087727866
1.15,1.6887021535010708e+18,211.1490708007813,-0.3847484737634659,8.749444484710693,0.959686279296875,1.6887021535010708e+18,211.1490708007813,-0.6074778437614441,-0.8581260144710541,3.0744779109954834,1.6887021535010708e+18,211.1490708007813,-0.2285754084587096,-9.590065956115724,2.0521042346954346,1.6887021535010765e+18,211.14907649739584,0.1716531369214256,-0.8399397134780884,-0.3301217555999756,1.6887021535010765e+18,211.14907649739584,0.1704314006492495,-0.8352564175923666,-0.3279328209658463,,,,,,,,,,,,1.6887021534971855e+18,211.14518549804689,-32.698439025878905,37.59795989990234,-3.45991997718811,1.6887021534971855e+18,211.14518549804689,-287.2392333984375,133.06296081542968,-136.67171936035157,1.6887021535010708e+18,211.1490708007813,0.6871733367443085,-0.7146373689174652,0.0179785452783107,0.1293989643454551,-1.6756473183631897,1.3583224415779114,-1.3073126673698423
1.2,1.6887021535443292e+18,211.19232942708337,-0.5687321523825327,7.732824007670085,0.3912661075592041,1.6887021535443292e+18,211.19232942708337,-1.1822537779808044,-1.8171493609746296,2.6769703229268393,1.6887021535443292e+18,211.19232942708337,-0.619367649157842,-9.532469113667808,2.2230168183644614,1.688702153552981e+18,211.20098103841144,-1.0664689044157665,-1.2398018836975098,-1.0844385226567586,1.688702153552981e+18,211.20098103841144,-1.067537933588028,-1.2351185977458954,-1.0823004841804504,1.6887021535529812e+18,211.20098120117189,0.0,0.0,0.9399598240852356,8.003999710083008,1.5013680458068848,130.8174285888672,43.5,-122.7552693,49.1894663,1.688702153547182e+18,211.19518212890625,-31.30519905090332,38.60567932128906,-4.909279823303223,1.688702153547182e+18,211.19518212890625,-285.84599609375,134.0706756591797,-138.12107849121094,1.6887021535443292e+18,211.19232942708337,0.6731292804082235,-0.7278977433840433,0.0324288395543892,0.1260414992769558,-1.8334434827168784,1.3328276872634888,-1.1747225125630696
1.25,1.6887021535962363e+18,211.244236328125,22.53432559967041,-13.110072453816732,0.4087890783945719,1.6887021535962363e+18,211.244236328125,21.20000998179118,-22.393031120300293,3.3914273579915366,1.6887021535962363e+18,211.244236328125,-1.3401618401209514,-9.26545492808024,2.9199508825937905,1.6887021536048865e+18,211.25288614908857,-2.461786905924479,-7.335728009541829,2.29028649131457,1.6887021536048865e+18,211.25288614908857,-2.462957779566447,-7.331095536549886,2.292475422223409,,,,,,,,,,,,1.6887021535971825e+18,211.24518227539065,-28.186878967285157,37.90295944213867,-15.330519771575927,1.6887021535971825e+18,211.24518227539065,-282.72767944335936,133.36795654296876,-148.5423156738281,1.6887021535962363e+18,211.244236328125,0.6535424788792928,-0.7341023683547974,0.1595347449183463,0.0601575324932733,-1.9986857573191328,1.2362109025319417,-1.2860527833302815
1.3,1.688702153648139e+18,211.29613907877604,5.180225491523742,-5.806130409240723,2.005523761113485,1.688702153648139e+18,211.29613907877604,4.137589057286581,-15.017952919006348,5.32403039932251,1.688702153648139e+18,211.29613907877604,-1.0484823783238728,-9.194318135579428,3.255819241205851,1.688702153656791e+18,211.30479117838544,0.0315613696972529,0.9638435517748196,-0.5256495500604311,1.688702153656791e+18,211.30479117838544,0.0303905457258224,0.9684759577115376,-0.5234606216351191,,,,,,,,,,,,1.6887021536471808e+18,211.2951808105469,-27.859918975830077,34.245398712158206,-22.74567985534668,1.6887021536471808e+18,211.2951808105469,-282.4007141113281,129.71039428710938,-155.9574768066406,1.688702153648139e+18,211.29613907877604,0.6683463255564371,-0.7065202792485555,0.231997142235438,0.0159906322757402,-1.8792891105016072,1.2140312592188518,-1.5739750067392986
1.35,1.6887021537000456e+18,211.34804541015623,-0.0283823410669962,-2.232232411702474,5.125126997629802,1.6887021537000456e+18,211.34804541015623,-1.199003537495931,-11.399407068888346,8.523633003234863,1.6887021537000456e+18,211.34804541015623,-1.1764672597249348,-9.149669965108236,3.33581821123759,1.6887021537086892e+18,211.35668896484376,0.1931352267662684,1.7514524161815643,-1.6066774129867554,1.6887021537086892e+18,211.35668896484376,0.1919644052783648,1.7561866740385692,-1.6045393149058025,,,,,,,,,,,,1.6887021536971845e+18,211.34518442382813,-27.984359741210938,35.240919494628905,-20.781479263305663,1.6887021536971845e+18,211.34518442382813,-282.525146484375,130.70591735839844,-153.99327697753907,1.6887021537000456e+18,211.34804541015623,0.6613678733507792,-0.7209657231966654,0.198899894952774,0.0537320288519064,-1.9066002368927,1.201378663380941,-1.4442423979441326
1.4,1.6887021537519432e+18,211.3999431152344,0.271479070186615,4.515212535858154,0.32314133644104,1.6887021537519432e+18,211.3999431152344,-1.592822293440501,-4.535794734954834,3.7186458110809326,1.6887021537519432e+18,211.3999431152344,-1.8701473871866865,-9.033502578735352,3.3328170776367188,1.6887021537519462e+18,211.39994604492188,0.2968805134296417,1.230358988046646,-1.8398497104644775,1.6887021537519462e+18,211.39994604492188,0.2958114892244338,1.235016793012619,-1.837635338306427,,,,,,,,,,,,1.6887021537471803e+18,211.39518051757813,-25.602919387817384,37.97615966796875,-18.3634391784668,1.6887021537471803e+18,211.39518051757813,-280.1437133789062,133.4411590576172,-151.5752380371094,1.6887021537519432e+18,211.3999431152344,0.6309520204861959,-0.7521112759908041,0.1704960564772287,0.0831189105908075,-2.0784494082132974,1.1701871554056804,-1.1893058617909749
1.45,1.6887021538038587e+18,211.4518584798177,-0.08511749903361,1.990652084350586,1.0251694520314534,1.6887021538038587e+18,211.4518584798177,-2.0787646770477295,-6.909275372823079,4.734797875086467,1.6887021538038587e+18,211.4518584798177,-1.9994932015736897,-8.88242276509603,3.6469410260518393,1.6887021537952005e+18,211.44320052083333,-0.4137593942383925,2.269211689631144,-0.6612107306718826,1.6887021537952005e+18,211.44320052083333,-0.4149302126218874,2.273894945780436,-0.6590218047300974,,,,,,,,,,,,1.6887021537971853e+18,211.4451853515625,-24.16819953918457,39.327919006347656,-16.340679359436034,1.6887021537971853e+18,211.4451853515625,-278.70899658203126,134.792919921875,-149.55247802734374,1.6887021538038587e+18,211.4518584798177,0.6175137559572855,-0.7625753084818522,0.1408323695262272,0.1301470895608265,-2.070547262827555,1.13250199953715,-1.0864851077397664
1.5,1.68870215385576e+18,211.50376009114584,-0.8543398777643839,-0.2877586682637532,0.785951296488444,1.68870215385576e+18,211.50376009114584,-2.143171469370524,-9.060821692148844,5.071188926696777,1.68870215385576e+18,211.50376009114584,-1.2946776151657104,-8.755558331807455,4.222550233205159,1.6887021538471066e+18,211.49510660807292,-0.6680320501327515,2.852333386739095,0.515061209599177,1.6887021538471066e+18,211.49510660807292,-0.6691519618034363,2.8570167223612466,0.5171992282072703,,,,,,,,,,,,1.688702153847184e+18,211.49518388671876,-27.02055931091309,38.93507919311523,-14.28863983154297,1.688702153847184e+18,211.49518388671876,-281.5613586425781,134.40007934570312,-147.50043640136718,1.68870215385576e+18,211.50376009114584,0.628899892171224,-0.7438326279322306,0.1099390536546707,0.1968633731206257,-1.8665201266606648,1.102795163790385,-1.1485743522644043
1.55,1.6887021539076652e+18,211.5556652832031,-1.4369383056958516,4.002387523651123,-2.133652369181315,1.6887021539076652e+18,211.5556652832031,-2.2319052616755166,-4.5718865394592285,2.6558337211608887,1.6887021539076652e+18,211.5556652832031,-0.8008129795392355,-8.556769371032715,4.72679869333903,1.688702153899013e+18,211.54701310221353,-1.0435105363527934,1.3750576376914978,-0.0321722378333409,1.688702153899013e+18,211.54701310221353,-1.0446813503901164,1.3796900709470112,-0.0299324095249176,,,,,,,,,,,,1.688702153897186e+18,211.54518618164064,-29.57523956298828,37.44423980712891,-12.63675994873047,1.688702153897186e+18,211.54518618164064,-284.11603393554685,132.90923767089845,-145.8485565185547,1.6887021539076652e+18,211.5556652832031,0.632469097773234,-0.7281687060991923,0.1001596574982007,0.2440968751907348,-1.7362742026646931,1.0598873297373457,-1.194496234258016
1.6,1.68870215395956e+18,211.60755973307292,-1.0282199382781982,0.133033275604248,-2.7084383964538574,1.68870215395956e+18,211.60755973307292,-2.5902305444081626,-8.042874813079834,2.5577279726664224,1.68870215395956e+18,211.60755973307292,-1.5678566296895344,-8.158403396606445,5.203478972117106,1.6887021539509082e+18,211.59890795898437,-1.1686870257059734,-0.6118833671013514,-2.016415317853292,1.6887021539509082e+18,211.59890795898437,-1.1698578596115112,-0.6071491340796152,-2.0141754150390625,,,,,,,,,,,,1.6887021539471764e+18,211.59517646484375,-28.233239364624023,37.77607879638672,-13.68107967376709,1.6887021539471764e+18,211.59517646484375,-282.77403564453124,133.24107666015624,-146.89287414550782,1.68870215395956e+18,211.60755973307292,0.5921894113222758,-0.7526504794756571,0.1126586074630419,0.264129896958669,-1.859343687693278,0.9824332594871522,-1.057970643043518
1.65,1.6887021540028196e+18,211.6508194580078,0.6563243269920349,-3.3225367069244385,-2.529101848602295,1.6887021540028196e+18,211.6508194580078,-2.0925233960151672,-11.04317569732666,2.9398818016052246,1.6887021540028196e+18,211.6508194580078,-2.7546937465667725,-7.703134298324585,5.406296253204346,1.6887021540028224e+18,211.65082259114584,-1.358258883158366,-2.660979906717936,-1.9870428244272869,1.6887021540028224e+18,211.65082259114584,-1.3593787749608357,-2.656296650568644,-1.9849048852920532,,,,,,,,,,,,1.6887021539971786e+18,211.64517875976563,-22.347959899902342,39.72563858032227,-18.451279830932616,1.6887021539971786e+18,211.64517875976563,-276.8887573242188,135.19064025878907,-151.66307678222657,1.6887021540028196e+18,211.6508194580078,0.545734703540802,-0.7863403558731079,0.1462317481637,0.2494065389037132,-2.03923237323761,0.903358429670334,-0.9478260576725006
1.7,1.6887021540460795e+18,211.6940798339844,2.7709306478500366,-5.766454219818115,-1.7853484948476157,1.6887021540460795e+18,211.6940798339844,-1.3130613962809246,-12.878769874572754,3.656033595403035,1.6887021540460795e+18,211.6940798339844,-4.089838027954102,-7.094810962677002,5.3786946932474775,1.6887021540547256e+18,211.70272574869793,-1.507157286008199,-4.122220436731975,-2.386599620183309,1.6887021540547256e+18,211.70272574869793,-1.508277177810669,-4.117486317952474,-2.3844615618387857,1.6887021540720202e+18,211.72002026367187,0.0,0.0,0.9495462775230408,8.154000282287598,1.5105646848678589,130.22747802734375,43.5,-122.755267,49.1894643,1.688702154047183e+18,211.69518315429687,-14.022679710388184,39.68415908813476,-24.500039291381835,1.688702154047183e+18,211.69518315429687,-268.5634826660156,135.14915771484374,-157.7118377685547,1.6887021540460795e+18,211.6940798339844,0.4952895939350128,-0.8169326782226562,0.2002588758865991,0.2151099940141042,-2.2173005739847818,0.809096097946167,-0.9019717971483866
1.75,1.6887021540979817e+18,211.74598168945317,20.6842041015625,-9.227705160776772,0.7446054617563883,1.6887021540979817e+18,211.74598168945317,14.728421529134115,-14.689338684082031,6.298507293065389,1.6887021540979817e+18,211.74598168945317,-5.961629867553711,-5.4441291491190595,5.491214275360107,1.6887021541066342e+18,211.75463411458335,0.3365867361426353,6.218099196751912,-5.8048996925354,1.6887021541066342e+18,211.75463411458335,0.3354159394900004,6.222782373428345,-5.802710851033528,,,,,,,,,,,,1.6887021540971845e+18,211.7451845214844,-1.5664799451828002,38.87895965576172,-27.96971931457519,1.6887021540971845e+18,211.7451845214844,-256.107275390625,134.34395751953124,-161.1815185546875,1.6887021540979817e+18,211.74598168945317,0.3752382099628448,-0.8688538869222006,0.2183526804049809,0.2271289080381393,-2.3980019887288413,0.5906200210253397,-0.7270806233088175
1.8,1.6887021541498924e+18,211.79789241536457,-5.791412989298503,-5.496164321899414,-6.802186806996663,1.6887021541498924e+18,211.79789241536457,-9.83769162495931,-10.747562726338703,0.4823531607786814,1.6887021541498924e+18,211.79789241536457,-4.052124738693237,-5.2338935534159345,7.221852620442708,1.6887021541585354e+18,211.80653540039063,1.0365365346272786,2.403245687484741,0.6508260170618693,1.6887021541585354e+18,211.80653540039063,1.035365680853526,2.407928943634033,0.6529640456040701,,,,,,,,,,,,1.6887021541471852e+18,211.79518505859377,-7.361479997634888,40.40883865356445,-24.55371971130371,1.6887021541471852e+18,211.79518505859377,-261.9022705078125,135.87383728027345,-157.76551513671876,1.6887021541498924e+18,211.79789241536457,0.3700584669907887,-0.8333429098129272,0.1052742277582485,0.3956372340520223,-2.0800859928131104,0.5634347200393677,-0.5884036223093668
1.85,1.688702154201786e+18,211.84978597005207,10.283037185668944,-11.109896818796791,-6.955293337504069,1.688702154201786e+18,211.84978597005207,6.445865472157796,-16.815561294555664,0.1082752098639806,1.688702154201786e+18,211.84978597005207,-3.84301765759786,-5.688160419464111,7.000881195068359,1.6887021542017946e+18,211.8497946777344,-0.068798691034317,-1.4553101062774656,2.9649871587753296,1.6887021542017946e+18,211.8497946777344,-0.0700204372406005,-1.4505758583545687,2.967201590538025,,,,,,,,,,,,1.6887021541971825e+18,211.84518251953128,-10.11135959625244,40.067239379882814,-24.317039489746097,1.6887021541971825e+18,211.84518251953128,-264.65215454101565,135.53223571777343,-157.52883605957032,1.688702154201786e+18,211.84978597005207,0.408266544342041,-0.824340800444285,0.1252171968420345,0.3708586990833282,-2.071149984995524,0.6191656192143759,-0.676872452100118
1.9,1.6887021542537014e+18,211.90170149739583,0.8979400793711344,-5.7478203773498535,-3.4304351011912027,1.6887021542537014e+18,211.90170149739583,-1.8707884947458904,-12.816157658894856,2.8257240851720176,1.6887021542537014e+18,211.90170149739583,-2.774574597676595,-7.050832589467366,6.193471749623616,1.6887021542450455e+18,211.89304557291663,3.487938721974691,0.8566367129484812,2.4662156899770102,1.6887021542450455e+18,211.89304557291663,3.486869732538859,0.8613199889659882,2.468353788057963,,,,,,,,,,,,1.688702154247182e+18,211.89518212890624,-16.118639755249024,40.70407943725586,-20.02263946533203,1.688702154247182e+18,211.89518212890624,-270.65943603515626,136.16907958984376,-153.23443603515625,1.6887021542537014e+18,211.90170149739583,0.489391287167867,-0.7957435250282288,0.0856626083453495,0.3445668816566467,-1.9889587958653767,0.8046688238779703,-0.7550164858500162
1.95,1.688702154305592e+18,211.95359195963545,0.3605426947275797,-7.2275848388671875,2.6100378036499023,1.688702154305592e+18,211.95359195963545,-1.4594223996003468,-15.598411877950031,7.4618180592854815,1.688702154305592e+18,211.95359195963545,-1.8258111476898191,-8.353322664896647,4.7890926996866865,1.688702154296945e+18,211.94494506835937,2.8762590090433755,-1.5609643459320068,2.87697172164917,1.688702154296945e+18,211.94494506835937,2.875139077504476,-1.556331952412923,2.8791605631510415,,,,,,,,,,,,1.68870215429718e+18,211.945180078125,-21.72575988769531,41.19695892333984,-12.907599639892576,1.68870215429718e+18,211.945180078125,-276.266552734375,136.66195983886718,-146.11939392089843,1.688702154305592e+18,211.95359195963545,0.5752967794736227,-0.7676184177398682,0.0571318604052066,0.2752019862333932,-1.9323997894922893,1.020567735036214,-0.8870208462079366
2.0,1.6887021543575012e+18,212.0055012207031,3.3313217163085938,-3.8461634318033857,7.372549851735433,1.6887021543575012e+18,212.0055012207031,2.158325990041097,-12.78744379679362,11.3222386042277,1.6887021543575012e+18,212.0055012207031,-1.178841769695282,-8.923775990804037,3.887000958124797,1.688702154348848e+18,211.9968477376302,1.747430960337321,-0.0053959836562473,1.4956526358922322,1.688702154348848e+18,211.9968477376302,1.7462600866953533,-0.0007636149724324,1.4978924592336018,,,,,,,,,,,,1.6887021543471764e+18,211.99517646484375,-25.65659980773926,40.12091903686523,-10.143079757690428,1.6887021543471764e+18,211.99517646484375,-280.19739990234376,135.5859161376953,-143.35487670898436,1.6887021543575012e+18,212.0055012207031,0.6224466959635416,-0.7467077573140463,0.0428470789144435,0.2299353331327438,-1.8602545261383057,1.1433639526367188,-1.0097607771555583
2.05,1.6887021544094034e+18,212.0574034830729,-1.1612464090188344,5.574586073557536,2.5793422063191733,1.6887021544094034e+18,212.0574034830729,-1.5152549743652344,-3.7148571809132895,5.814559141794841,1.6887021544094034e+18,212.0574034830729,-0.3598545740048091,-9.271938641866049,3.1725295384724936,1.688702154400753e+18,212.0487530110677,1.6137023369471233,0.7686212062835693,1.4241814215977986,1.688702154400753e+18,212.0487530110677,1.612480600674947,0.7733044624328613,1.426319440205892,,,,,,,,,,,,1.6887021543971768e+18,212.04517690429688,-28.828599166870116,39.04975891113281,-5.702279949188233,1.6887021543971768e+18,212.04517690429688,-283.36939697265626,134.51475830078124,-138.91408081054686,1.6887021544094034e+18,212.0574034830729,0.6589774886767069,-0.7194955150286356,0.0068521812014902,0.2187177737553913,-1.6771374146143596,1.2384847402572632,-1.1594601074854534
2.1,1.6887021544526582e+18,212.10065820312505,-5.044937372207642,7.87239933013916,0.504813551902771,1.6887021544526582e+18,212.10065820312505,-4.8690948486328125,-1.5595221519470217,3.3176486492156982,1.6887021544526582e+18,212.10065820312505,0.1699964515864848,-9.414416790008543,2.7501477003097534,1.6887021544526574e+18,212.10065763346356,0.9443976680437725,0.1116865277290344,1.2956960598627727,1.6887021544526574e+18,212.10065763346356,0.9433286587397256,0.1163698335488637,1.2978341182072957,,,,,,,,,,,,1.6887021544471762e+18,212.09517626953124,-31.722439575195313,37.33687896728516,-2.3936399698257445,1.6887021544471762e+18,212.09517626953124,-286.263232421875,132.8018798828125,-135.60543823242188,1.6887021544526582e+18,212.10065820312505,0.6822026968002319,-0.7004996240139008,-0.0091959673445671,0.2092380449175834,-1.5045690536499023,1.28557288646698,-1.323661208152771
2.15,1.6887021544959117e+18,212.1439115397135,-3.353329579035441,8.917060852050781,-0.1112354596455891,1.6887021544959117e+18,212.1439115397135,-2.7952157060305276,-0.5529414216677347,2.5152554512023926,1.6887021544959117e+18,212.1439115397135,0.5522678196430206,-9.452497482299805,2.563803513844808,1.688702154504562e+18,212.15256209309896,0.2696460932493209,-0.6501642465591431,0.7933103293180466,1.688702154504562e+18,212.15256209309896,0.2685261766115824,-0.6455318331718445,0.7954483479261398,,,,,,,,,,,,1.6887021544971768e+18,212.14517666015627,-33.969678497314455,35.35803985595703,-1.190719985961914,1.6887021544971768e+18,212.14517666015627,-288.5104736328125,130.8230407714844,-134.40251770019532,1.6887021544959117e+18,212.1439115397135,0.700615922609965,-0.6864774624506632,-0.0038554831019913,0.1944399873415628,-1.3547594944636028,1.2994763056437175,-1.502842664718628
2.2,1.688702154547824e+18,212.19582413736975,-1.28374711672465,8.993936538696289,-0.4844732284545898,1.688702154547824e+18,212.19582413736975,-0.8109674751758575,-0.4570291340351105,2.2261226971944175,1.688702154547824e+18,212.19582413736975,0.4669335981210072,-9.43346118927002,2.6479085286458335,1.6887021545564713e+18,212.20447143554688,-0.2493348320325215,-0.6570364634195963,-0.7061602373917898,1.6887021545564713e+18,212.20447143554688,-0.25045474867026,-0.6523022850354513,-0.7039713064829508,,,,,,,,,,,,1.6887021545471788e+18,212.1951786621094,-34.70655822753906,34.772440338134764,-2.308239960670471,1.6887021545471788e+18,212.1951786621094,-289.2473571777344,130.23744201660156,-135.52003479003906,1.688702154547824e+18,212.19582413736975,0.6999028325080872,-0.6895608504613241,0.0100911706686019,0.1857181042432784,-1.3917821248372395,1.2923425436019895,-1.4983474413553874
2.25,1.688702154599732e+18,212.24773185221355,3.951141675313314,1.8585500717163088,-1.505872130393982,1.688702154599732e+18,212.24773185221355,3.4388849735260005,-7.441080451011658,1.6364912589391072,1.688702154599732e+18,212.24773185221355,-0.5181025030712286,-9.282126426696776,3.0796759923299155,1.6887021546083827e+18,212.2563826497396,-2.047773003578186,-5.629581332206726,-0.9770789543787638,1.6887021546083827e+18,212.2563826497396,-2.048943877220154,-5.624898115793864,-0.9749408960342408,1.6887021545910784e+18,212.23907836914063,0.0,0.0,0.9495462775230408,8.204999923706055,1.5088458061218262,129.89366149902344,43.5,-122.7552636,49.1894561,1.688702154597184e+18,212.24518388671876,-32.06891975402832,36.41699905395508,-6.0438799381256105,1.688702154597184e+18,212.24518388671876,-286.6097106933594,131.88199768066406,-139.25567932128905,1.688702154599732e+18,212.24773185221355,0.6682373682657877,-0.721687893072764,0.0590176184972126,0.1642949233452478,-1.7195390462875366,1.2425435781478882,-1.271086812019348
2.3,1.6887021546516357e+18,212.29963525390625,21.114975611368816,-17.858020146687824,1.5389433701833088,1.6887021546516357e+18,212.29963525390625,19.877975781758625,-26.87040138244629,5.312863906224568,1.6887021546516357e+18,212.29963525390625,-1.2428463300069172,-8.994877815246582,3.711233139038086,1.6887021546516367e+18,212.2996368408203,-1.0890963822603226,-1.5722144842147827,0.709443636238575,1.6887021546516367e+18,212.2996368408203,-1.090241715312004,-1.567556530237198,0.7115816548466681,,,,,,,,,,,,1.6887021546471808e+18,212.29518090820312,-28.17467880249023,35.29459915161133,-17.57775936126709,1.6887021546471808e+18,212.29518090820312,-282.715478515625,130.7595977783203,-150.78955993652343,1.6887021546516357e+18,212.29963525390625,0.6530083616574606,-0.7295941313107809,0.1745151182015736,0.1034995838999747,-1.8913083871205647,1.1599939266840618,-1.3529359102249146
2.35,1.6887021547035433e+18,212.35154329427084,-0.497338851292928,-5.010986963907878,3.901945749918619,1.6887021547035433e+18,212.35154329427084,-2.0163519009947777,-13.956736246744793,7.7320075035095215,1.6887021547035433e+18,212.35154329427084,-1.524859070777893,-8.928244590759277,3.767373959223429,1.6887021546948923e+18,212.3428924967448,0.2307034432888031,1.2051862279574077,-1.2788973053296406,1.6887021546948923e+18,212.3428924967448,0.2295835216840107,1.2098695039749143,-1.2767592668533323,,,,,,,,,,,,1.6887021546971825e+18,212.34518237304687,-27.02055969238281,36.209599304199216,-18.13163948059082,1.6887021546971825e+18,212.34518237304687,-281.5613525390625,131.67459716796876,-151.34343872070312,1.6887021547035433e+18,212.35154329427084,0.6390156149864197,-0.742266853650411,0.1618356555700301,0.1197080835700034,-1.9525984525680544,1.1433398326237996,-1.2499640782674153
2.4,1.6887021547554437e+18,212.4034431966146,-1.0645917256673176,2.8038342793782554,0.6434688568115234,1.6887021547554437e+18,212.4034431966146,-2.3559332688649497,-6.117649952570598,4.613361994425456,1.6887021547554437e+18,212.4034431966146,-1.297187606493632,-8.903979619344076,3.9072057406107583,1.688702154746796e+18,212.39479614257812,-0.0254018122213892,1.820683836936951,-0.0143553341428438,1.688702154746796e+18,212.39479614257812,-0.0265726384047108,1.825316270192464,-0.0122173031171162,,,,,,,,,,,,1.6887021547471785e+18,212.3951784667969,-27.6842399597168,36.87327880859375,-15.310999870300291,1.6887021547471785e+18,212.3951784667969,-282.22503662109375,132.33827514648436,-148.52279357910157,1.6887021547554437e+18,212.4034431966146,0.6401885549227396,-0.7406471371650696,0.1304530873894691,0.1564986109733581,-1.8887227376302085,1.1374332110087078,-1.2151471376419067
2.45,1.688702154807352e+18,212.4553518066406,-0.6170721848805746,5.32421080271403,-1.3820277849833171,1.688702154807352e+18,212.4553518066406,-1.688136339187622,-3.572883129119873,2.7084758281707764,1.688702154807352e+18,212.4553518066406,-1.076910177866618,-8.879589398701986,4.02781621615092,1.6887021547986975e+18,212.4466975097656,-0.1142827036480109,0.8988372882207235,0.1047633911172548,1.6887021547986975e+18,212.4466975097656,-0.1154026227692763,0.9035206238428752,0.1069523220260937,,,,,,,,,,,,1.6887021547971845e+18,212.4451841308594,-28.94083938598633,37.06115875244141,-13.517599868774417,1.6887021547971845e+18,212.4451841308594,-283.48162841796875,132.52615356445312,-146.72939453125,1.688702154807352e+18,212.4553518066406,0.6433328986167908,-0.7354857524236044,0.115834725399812,0.178140769402186,-1.8295061588287351,1.1315641005833943,-1.2217670679092407
2.5,1.688702154859253e+18,212.50725301106772,-0.0156581203142802,-1.9132140477498372,1.7752809524536133,1.688702154859253e+18,212.50725301106772,-0.886341392993927,-10.580463727315268,6.377669811248779,1.688702154859253e+18,212.50725301106772,-0.8765292962392172,-8.649744987487793,4.539701461791992,1.6887021548506022e+18,212.4986022135417,-1.274163047472636,0.901382565498352,0.0512617761269211,1.6887021548506022e+18,212.4986022135417,-1.2753339211146038,0.9060149987538656,0.0534507085879643,,,,,,,,,,,,1.6887021548471803e+18,212.4951803222656,-29.406879425048828,36.39748001098633,-13.890919876098632,1.6887021548471803e+18,212.4951803222656,-283.9476745605469,131.86247863769532,-147.10271606445312,1.688702154859253e+18,212.50725301106772,0.6414174834887186,-0.7274289727210999,0.1223849157492319,0.2105109194914499,-1.7598726749420166,1.079551060994466,-1.2531074285507202
2.55,1.6887021549025108e+18,212.55051086425783,-0.2803936600685119,1.1811134815216064,-1.419602632522583,1.6887021549025108e+18,212.55051086425783,-1.0477572083473206,-7.320242643356323,3.507279634475708,1.6887021549025108e+18,212.55051086425783,-0.7732095718383789,-8.483851432800293,4.864194869995117,1.6887021549025108e+18,212.55051082356772,-0.6032294233640035,0.4066326270500819,-0.3011056606968244,1.6887021549025108e+18,212.55051082356772,-0.6043493350346884,0.4113159378369649,-0.2989676371216774,,,,,,,,,,,,1.688702154897186e+18,212.54518603515623,-29.98271942138672,35.44344024658203,-14.49115982055664,1.688702154897186e+18,212.54518603515623,-284.5235168457031,130.90843811035157,-147.7029571533203,1.6887021549025108e+18,212.55051086425783,0.6377743780612946,-0.7234331369400024,0.1245662234723567,0.2331582531332969,-1.7261900901794434,1.0445404648780825,-1.2561854720115662
2.6,1.6887021549457654e+18,212.59376513671876,-0.4608513116836548,3.148583094278971,-3.268339474995931,1.6887021549457654e+18,212.59376513671876,-1.556331713994344,-5.162315368652344,1.912264068921407,1.6887021549457654e+18,212.59376513671876,-1.1013264258702595,-8.293393770853678,5.117916107177734,1.688702154954416e+18,212.6024158528646,-0.8794932166735331,-0.6314310530821482,-1.2441798249880474,1.688702154954416e+18,212.6024158528646,-0.8806131680806478,-0.6266968448956808,-1.242041786511739,,,,,,,,,,,,1.688702154947185e+18,212.5951849609375,-28.777359390258788,35.78503952026367,-15.8526798248291,1.688702154947185e+18,212.5951849609375,-283.3181579589844,131.25003967285156,-149.0644744873047,1.6887021549457654e+18,212.59376513671876,0.620840847492218,-0.733207126458486,0.133936325709025,0.2426843593517939,-1.779833436012268,1.0072940786679585,-1.201486547787984
2.65,1.68870215499767e+18,212.6456698404948,0.7422688007354736,-1.5345567067464192,-3.1980822881062827,1.68870215499767e+18,212.6456698404948,-1.302094300587972,-9.50090185801188,2.224726835886637,1.68870215499767e+18,212.6456698404948,-2.050209124883016,-7.948840459187825,5.360121726989746,1.6887021550063206e+18,212.65432080078128,-0.8208501736323038,-1.5436564683914185,-1.935017426808675,1.6887021550063206e+18,212.65432080078128,-0.8220209876696268,-1.539074977238973,-1.9328794479370115,,,,,,,,,,,,1.6887021549971845e+18,212.64518447265627,-25.01731948852539,36.73175888061523,-18.6903995513916,1.6887021549971845e+18,212.64518447265627,-279.5581115722656,132.19675903320314,-151.9022003173828,1.68870215499767e+18,212.6456698404948,0.5814438660939535,-0.7612959345181783,0.1557132999102274,0.2404022365808486,-1.9327715237935383,0.9447970390319824,-1.0828886429468791
2.7,1.688702155049573e+18,212.6975731608073,2.132552742958069,-4.1512454350789385,-2.623241583506266,1.688702155049573e+18,212.6975731608073,-1.2823535203933716,-11.585848172505695,2.854039192199707,1.688702155049573e+18,212.6975731608073,-3.4207523663838706,-7.417098045349121,5.4145933787028,1.688702155058226e+18,212.70622583007813,-1.1334604422251384,-2.609158198038737,-2.196162382761637,1.688702155058226e+18,212.70622583007813,-1.1346312761306765,-2.6044748624165854,-2.1940243244171143,,,,,,,,,,,,1.6887021550471826e+18,212.6951826171875,-19.01979923248291,38.0810791015625,-22.03075942993164,1.6887021550471826e+18,212.6951826171875,-273.560595703125,133.54607849121095,-155.24255981445313,1.688702155049573e+18,212.6975731608073,0.5258611838022867,-0.7987482945124308,0.1886538515488306,0.2220228910446166,-2.130605459213257,0.8578249216079712,-0.9607674280802408
2.75,1.68870215510148e+18,212.7494799804688,22.94300142923991,-6.571228663126628,0.181747039159139,1.68870215510148e+18,212.7494799804688,17.388044506311417,-12.830315272013346,5.2975099086761475,1.68870215510148e+18,212.7494799804688,-5.560803572336833,-6.241581916809082,5.053075472513835,1.688702155101479e+18,212.7494787597656,-0.4553236886858939,-3.337309554219246,-6.52824068069458,1.688702155101479e+18,212.7494787597656,-0.4564690589904785,-3.33265171945095,-6.526026248931885,1.688702155110131e+18,212.758130859375,0.0,0.0,0.9598792791366576,8.177000045776367,1.5162403583526611,130.7020721435547,43.5,-122.7552629,49.1894522,1.6887021550971845e+18,212.7451842285156,-8.405799734592438,38.58127899169922,-26.334919738769532,1.6887021550971845e+18,212.7451842285156,-262.94659423828125,134.04627990722656,-159.54671630859374,1.68870215510148e+18,212.7494799804688,0.4232677121957143,-0.8548923134803772,0.2272552202145258,0.1891335099935531,-2.3987088203430176,0.6919824481010437,-0.8023238778114319
2.8,1.6887021551533883e+18,212.80138867187495,-5.591907660166423,-6.259088357289632,-2.7820960680643716,1.6887021551533883e+18,212.80138867187495,-9.93121099472046,-11.945967197418211,3.965704758961995,1.6887021551533883e+18,212.80138867187495,-4.345149437586467,-5.669374465942383,6.685113430023193,1.6887021551447345e+18,212.792734375,1.3290900588035583,9.124646663665771,-1.0554223954677582,1.6887021551447345e+18,212.792734375,1.3279701471328735,9.129330158233644,-1.0532335042953491,,,,,,,,,,,,1.6887021551471823e+18,212.7951822753906,-5.414360010623932,39.28887939453125,-26.007959365844727,1.6887021551471823e+18,212.7951822753906,-259.9551544189453,134.75387573242188,-159.21975708007812,1.6887021551533883e+18,212.80138867187495,0.397783617178599,-0.8383199175198873,0.1307812904318173,0.3456244866053263,-2.1445610523223877,0.6167510549227396,-0.6534583369890848
2.85,1.688702155205286e+18,212.85328637695315,1.134881814320882,-6.989356517791748,-7.234981218973796,1.688702155205286e+18,212.85328637695315,-2.496112664540609,-13.076177597045898,-0.3798605799674988,1.688702155205286e+18,212.85328637695315,-3.636840502421061,-6.069316387176514,6.792433261871338,1.6887021551966392e+18,212.84463907877603,0.1342376346389452,-0.9059131940205892,1.270854244629542,1.6887021551966392e+18,212.84463907877603,0.1330668143928051,-0.9012298583984376,1.272992302974065,,,,,,,,,,,,1.6887021551971855e+18,212.8451855957031,-12.231719589233398,40.19411849975586,-22.528519439697263,1.6887021551971855e+18,212.8451855957031,-266.77251586914065,135.65911865234375,-155.74031982421874,1.688702155205286e+18,212.85328637695315,0.4255828559398651,-0.8202612400054932,0.1088496049245198,0.3655656973520915,-2.0611703395843506,0.6675591667493185,-0.673799991607666
2.9,1.6887021552571963e+18,212.9051960449219,6.361783663431804,-8.911611239115397,-4.275973717371623,1.6887021552571963e+18,212.9051960449219,3.2847474614779153,-15.876776695251465,1.9585253099600477,1.6887021552571963e+18,212.9051960449219,-3.0828824043273926,-6.947661558787028,6.171811580657959,1.6887021552485368e+18,212.8965368652344,1.840333327651024,-0.1801034609476725,2.660725355148315,1.6887021552485368e+18,212.8965368652344,1.839213415980339,-0.175471027692159,2.6629143555959067,,,,,,,,,,,,1.6887021552471854e+18,212.895185546875,-15.088959312438964,39.628038787841795,-22.03319969177246,1.6887021552471854e+18,212.895185546875,-269.62974853515624,135.09303588867186,-155.2449951171875,1.6887021552571963e+18,212.9051960449219,0.4889747897783915,-0.8017377257347107,0.1164265051484107,0.3218561013539632,-2.030795494715373,0.7889493107795715,-0.7951493461926779
2.95,1.6887021553090908e+18,212.9570907389323,0.1055936018625894,-6.780596574147542,0.6587114334106446,1.6887021553090908e+18,212.9570907389323,-1.7792630195617676,-15.100306193033854,5.567300796508789,1.6887021553090908e+18,212.9570907389323,-1.8907026449839277,-8.302205244700113,4.845901966094971,1.6887021553004495e+18,212.94844954427083,3.164892832438151,-0.6921612173318863,3.096221446990967,1.6887021553004495e+18,212.94844954427083,3.163721958796183,-0.6874270439147949,3.0984103679656982,,,,,,,,,,,,1.6887021552971863e+18,212.94518647460936,-21.386599731445312,40.0916389465332,-15.65015983581543,1.6887021552971863e+18,212.94518647460936,-275.9273986816406,135.55663452148437,-148.86195678710936,1.6887021553090908e+18,212.9570907389323,0.5779329737027487,-0.7679538130760193,0.0774090910951296,0.2635209361712137,-1.9388261636098223,1.0110384424527483,-0.9277974764506022
3.0,1.6887021553523543e+18,213.00035424804685,2.153110921382904,-7.516570091247559,6.869027614593506,1.6887021553523543e+18,213.00035424804685,0.8353942334651947,-16.36690664291382,10.986346244812012,1.6887021553523543e+18,213.00035424804685,-1.323562741279602,-8.832832336425781,4.054630875587463,1.6887021553523505e+18,213.0003503417969,1.7197892665863037,-0.5515095169345537,1.314174731572469,1.6887021553523505e+18,213.0003503417969,1.7186184724171956,-0.5468771085143089,1.316312809785207,,,,,,,,,,,,1.6887021553471836e+18,212.99518369140625,-25.45407943725586,39.42552032470703,-12.25368003845215,1.6887021553471836e+18,212.99518369140625,-279.994873046875,134.89052124023436,-145.465478515625,1.6887021553523543e+18,213.00035424804685,0.6199198663234711,-0.7499896287918091,0.0667087696492671,0.2206605374813079,-1.8836541175842283,1.1208927035331726,-1.034106433391571
3.05,1.6887021553956086e+18,213.04360872395833,3.3618094325065613,1.5094625155131025,5.366130510965983,1.6887021553956086e+18,213.04360872395833,2.5577279378970466,-7.658029397328694,8.85783084233602,1.6887021553956086e+18,213.04360872395833,-0.8099275628725687,-9.14998722076416,3.4290126164754233,1.6887021554042511e+18,213.0522512207031,1.6865989367167156,1.349452257156372,1.1799880266189575,1.6887021554042511e+18,213.0522512207031,1.6854281028111775,1.354084610939026,1.1821260452270508,,,,,,,,,,,,1.688702155397184e+18,213.04518403320313,-27.513439178466797,39.06195831298828,-8.112999820709229,1.688702155397184e+18,213.04518403320313,-282.0542297363281,134.52695922851564,-141.32479858398438,1.6887021553956086e+18,213.04360872395833,0.6451732516288757,-0.734343151251475,0.035620393231511,0.2071145077546437,-1.7961770296096802,1.2026412884394329,-1.0981045961380005
3.1,1.688702155447511e+18,213.09551106770832,-2.4548646608988443,6.734318733215332,1.0601478417714436,1.688702155447511e+18,213.09551106770832,-2.6091736555099487,-2.683351159095764,3.9184463818868,1.688702155447511e+18,213.09551106770832,-0.1601550268630186,-9.400165557861328,2.7956111431121826,1.6887021554561656e+18,213.10416560872395,1.1536698937416077,0.503047525882721,0.7144069075584412,1.6887021554561656e+18,213.10416560872395,1.152600924173991,0.5077817340691885,0.7165449261665344,,,,,,,,,,,,1.6887021554471862e+18,213.09518618164063,-29.877799224853515,38.39095916748047,-3.106119894981384,1.6887021554471862e+18,213.09518618164063,-284.418603515625,133.85595703125,-136.3179138183594,1.688702155447511e+18,213.09551106770832,0.6719995935757955,-0.7124449412027994,-0.0017228511472543,0.2018614262342452,-1.6226422786712646,1.2808934052785237,-1.2269479831059773
3.15,1.6887021554994153e+18,213.1474151204427,-4.484426975250244,8.467341740926107,0.3090364138285319,1.6887021554994153e+18,213.1474151204427,-4.307080666224162,-1.055035412311554,2.7904300689697266,1.6887021554994153e+18,213.1474151204427,0.1715001811583836,-9.50487263997396,2.418706258138021,1.688702155508069e+18,213.1560691731771,0.5173519551753998,-0.6806056958933672,0.9959140022595724,1.688702155508069e+18,213.1560691731771,0.5161811411380768,-0.6759733259677887,0.9981029232343038,,,,,,,,,,,,1.6887021554971822e+18,213.1451821777344,-31.81759910583496,37.375919342041016,-0.9881999969482422,1.6887021554971822e+18,213.1451821777344,-286.3583923339844,132.84091491699218,-134.1999938964844,1.6887021554994153e+18,213.1474151204427,0.6879918177922567,-0.7003655433654785,-0.0135269286110996,0.1894651055335998,-1.4947731494903564,1.3204206625620525,-1.3564540942509968
3.2,1.6887021555513208e+18,213.19932096354168,-0.501274382074674,8.683904012044271,0.1781384944915771,1.6887021555513208e+18,213.19932096354168,-0.2000001023213068,-0.8380861481030782,2.650649309158325,1.6887021555513208e+18,213.19932096354168,0.2954282214244206,-9.504485448201498,2.409823417663574,1.6887021555513236e+18,213.1993236083985,-0.1369865243323147,-0.9490555226802826,-0.0179441645741463,1.6887021555513236e+18,213.1993236083985,-0.1381319090723991,-0.9444740414619446,-0.0158061385154723,,,,,,,,,,,,1.688702155547183e+18,213.195183203125,-32.913159942626955,36.39260025024414,-1.485959959030151,1.688702155547183e+18,213.195183203125,-287.453955078125,131.85759887695312,-134.6977569580078,1.6887021555513208e+18,213.19932096354168,0.6973236600557963,-0.6959333618481954,0.0054488225529591,0.1712833692630131,-1.444073001543681,1.3201479117075603,-1.460585594177246
3.25,1.6887021556032284e+18,213.2512283528646,-1.2649660507837932,7.46054744720459,-0.2165977954864501,1.6887021556032284e+18,213.2512283528646,-1.421735480427742,-1.9489540457725525,2.6588247617085776,1.6887021556032284e+18,213.2512283528646,-0.1626154234011968,-9.39199701944987,2.812735160191854,1.6887021555945697e+18,213.24256982421875,-0.8814276456832886,-0.7288131316502889,-0.9350310564041138,1.6887021555945697e+18,213.24256982421875,-0.8825475573539734,-0.724129835764567,-0.9328421354293824,,,,,,,,,,,,1.6887021555971804e+18,213.24518037109377,-31.985959243774413,36.648799133300784,-3.167119932174683,1.6887021555971804e+18,213.24518037109377,-286.52675170898436,132.11379699707032,-136.37891540527343,1.6887021556032284e+18,213.2512283528646,0.6800930897394816,-0.7117551962534586,0.0309845302253961,0.1721996665000914,-1.61943252881368,1.2782202164332073,-1.3199584484100342
3.3,1.6887021556551345e+18,213.30313444010417,24.198204040527344,-15.630402247111002,0.3407750129699707,1.6887021556551345e+18,213.30313444010417,23.28196430206299,-24.730419794718426,3.985844294230143,1.6887021556551345e+18,213.30313444010417,-0.9220861792564392,-9.082513491312662,3.5823818842569985,1.6887021556464827e+18,213.29448274739585,-2.4213171005249023,-6.9498138427734375,1.6215418179829917,1.6887021556464827e+18,213.29448274739585,-2.42248797416687,-6.945181528727214,1.623679796854655,1.6887021556291812e+18,213.27718115234376,0.0,0.0,0.9598792791366576,8.081999778747559,1.50982403755188,131.9902801513672,43.5,-122.7552573,49.1894433,1.6887021556471844e+18,213.29518442382815,-28.38451919555664,36.934278106689455,-11.873039722442629,1.6887021556471844e+18,213.29518442382815,-282.9253173828125,132.39927673339844,-145.0848388671875,1.6887021556551345e+18,213.30313444010417,0.665110170841217,-0.71901802221934,0.1648007929325103,0.1007135535279909,-1.8219180504481,1.183168888092041,-1.4123720328013103
3.35,1.688702155707035e+18,213.3550349121094,5.718071500460307,-8.136340141296387,2.7664694786071777,1.688702155707035e+18,213.3550349121094,4.79242499669393,-17.14118417104085,6.648856480916341,1.688702155707035e+18,213.3550349121094,-0.9314927260080972,-8.987339655558268,3.81969944636027,1.6887021556983846e+18,213.34638444010417,-0.0389935572942098,0.1037962039311726,-0.6698137323061625,1.6887021556983846e+18,213.34638444010417,-0.0402152836322784,0.1084795494874317,-0.6676757136980692,,,,,,,,,,,,1.6887021556971855e+18,213.34518569335935,-27.981919479370116,33.46215896606445,-21.47443962097168,1.6887021556971855e+18,213.34518569335935,-282.52271728515626,128.92715759277343,-154.6862365722656,1.688702155707035e+18,213.3550349121094,0.6690830190976461,-0.7072909871737162,0.2158264865477879,0.0714227457841237,-1.8076703945795696,1.1577726205190022,-1.5429929097493489
3.4,1.688702155758941e+18,213.40694075520832,-2.239651838938395,0.2237766583760579,3.083326975504557,1.688702155758941e+18,213.40694075520832,-3.0929226875305176,-8.796016136805216,6.946762800216675,1.688702155758941e+18,213.40694075520832,-0.8591168324152628,-9.002288182576498,3.800748268763224,1.6887021557502884e+18,213.39828833007812,0.4293873608112335,3.91096289952596,-1.101440926392873,1.6887021557502884e+18,213.39828833007812,0.4283183415730793,3.915646155675253,-1.0993029077847798,,,,,,,,,,,,1.6887021557471864e+18,213.39518647460935,-28.152719497680664,35.23847885131836,-17.89495983123779,1.6887021557471864e+18,213.39518647460935,-282.6935119628906,130.70347595214844,-151.10675659179688,1.688702155758941e+18,213.40694075520832,0.6618617177009583,-0.7222264011700948,0.1458157201608021,0.13498372087876,-1.7903928359349568,1.1617658535639446,-1.3668638865152996
3.45,1.688702155802198e+18,213.4501981201172,-1.404110074043274,7.064643859863281,-1.767738699913025,1.688702155802198e+18,213.4501981201172,-1.9887347221374512,-1.9779669642448423,2.0940189361572266,1.688702155802198e+18,213.4501981201172,-0.59047070145607,-9.025106430053713,3.7990702390670776,1.6887021558021957e+18,213.45019555664064,0.288837452729543,2.7401378949483237,-0.4708243906497955,1.6887021558021957e+18,213.45019555664064,0.2877684384584426,2.7447702089945474,-0.4686863720417022,,,,,,,,,,,,1.6887021557971827e+18,213.4451826171875,-29.90951919555664,36.76104049682617,-11.4631196975708,1.6887021557971827e+18,213.4451826171875,-284.4503173828125,132.22604064941407,-144.67491760253907,1.688702155802198e+18,213.4501981201172,0.6605316996574402,-0.7218604385852814,0.091771226376295,0.1845811009407043,-1.7221466302871704,1.1677444577217102,-1.2853772640228271
3.5,1.6887021558454523e+18,213.49345239257812,-1.624115566412608,2.833479086558024,0.775978167851766,1.6887021558454523e+18,213.49345239257812,-2.136790633201599,-6.145167430241902,4.793421904246013,1.6887021558454523e+18,213.49345239257812,-0.518521120150884,-8.96114190419515,3.9547563393910727,1.6887021558541028e+18,213.50210294596351,-1.0423906445503237,1.1311697165171306,-0.703971286614736,1.6887021558541028e+18,213.50210294596351,-1.0435614585876465,1.1358530124028523,-0.7018332481384277,,,,,,,,,,,,1.6887021558471782e+18,213.4951783203125,-30.26819953918457,37.69311981201171,-8.688839721679688,1.6887021558471782e+18,213.4951783203125,-284.8089904785156,133.15811767578126,-141.9006378173828,1.6887021558454523e+18,213.49345239257812,0.6532382369041443,-0.7219172914822897,0.06854942937692,0.2174198975165684,-1.6981837352116902,1.1517714262008667,-1.227705955505371
3.55,1.6887021558973532e+18,213.54535319010415,-1.084944208463033,-1.781766414642334,1.8516858418782551,1.6887021558973532e+18,213.54535319010415,-1.7896319230397542,-10.49232784907023,6.403193473815918,1.6887021558973532e+18,213.54535319010415,-0.7105337381362915,-8.69305674235026,4.4888200759887695,1.6887021559060078e+18,213.5540078125,-0.6906849642594656,0.0217875236024458,-0.5362887779871622,1.6887021559060078e+18,213.5540078125,-0.6918048957983652,0.0264708350102106,-0.534150759379069,,,,,,,,,,,,1.6887021558971822e+18,213.5451822753906,-29.065279388427733,38.0347183227539,-9.947879791259766,1.6887021558971822e+18,213.5451822753906,-283.6060729980469,133.49971618652344,-143.15967712402343,1.6887021558973532e+18,213.54535319010415,0.6337103645006815,-0.7281744480133057,0.0734879970550537,0.2504662026961644,-1.7250310182571411,1.0888792673746746,-1.1581037839253745
3.6,1.6887021559492588e+18,213.59725887044272,0.0403467814127603,4.01948881149292,-2.6241539319356284,1.6887021559492588e+18,213.59725887044272,-0.979661464691162,-4.478566328684489,2.2582263946533203,1.6887021559492588e+18,213.59725887044272,-1.025854269663493,-8.480550448099772,4.819692929585774,1.6887021559579095e+18,213.60590958658852,-1.1765264471371968,-0.9621636668841044,-0.3936517437299092,1.6887021559579095e+18,213.60590958658852,-1.177646378676097,-0.9574294487635294,-0.3915137151877085,,,,,,,,,,,,1.6887021559471828e+18,213.5951828125,-28.128319549560548,38.21527938842773,-11.902319717407227,1.6887021559471828e+18,213.5951828125,-282.6691101074219,133.6802764892578,-145.11411743164064,1.6887021559492588e+18,213.59725887044272,0.6191222866376241,-0.7367586096127828,0.0938696240385373,0.2548468013604482,-1.777666449546814,1.0442231098810832,-1.1276110410690308
3.65,1.688702156001167e+18,213.64916699218747,-0.1801677147547403,0.1635694503784179,-2.5381649335225425,1.688702156001167e+18,213.64916699218747,-1.8061823050181072,-7.983852068583171,2.7593232790629068,1.688702156001167e+18,213.64916699218747,-1.631860613822937,-8.129916826883951,5.234800815582275,1.688702156001167e+18,213.6491671142578,-1.1624765396118164,-1.906281352043152,-0.700738787651062,1.688702156001167e+18,213.6491671142578,-1.163621962070465,-1.901547133922577,-0.6986007690429688,,,,,,,,,,,,1.6887021559971845e+18,213.645184375,-26.003079223632813,37.8931999206543,-15.647719573974609,1.6887021559971845e+18,213.645184375,-280.54387817382815,133.3582000732422,-148.85951538085936,1.688702156001167e+18,213.64916699218747,0.596410870552063,-0.7510328888893127,0.1354884877800941,0.2481504480044046,-1.8698419729868572,0.9769526124000548,-1.1049902439117432
3.7,1.6887021560530644e+18,213.7010645345052,1.8173436721165976,-3.53414519627889,-2.2181801001230874,1.6887021560530644e+18,213.7010645345052,-1.0971091787020366,-11.29272715250651,3.095116058985392,1.6887021560530644e+18,213.7010645345052,-2.9202988147735596,-7.741077264149983,5.250608762105306,1.6887021560444178e+18,213.69241788736977,-0.9322821696599324,-3.3961562315622964,-1.351793885231018,1.6887021560444178e+18,213.69241788736977,-0.9333511789639792,-3.391523838043213,-1.3496558666229248,,,,,,,,,,,,1.6887021560471793e+18,213.69517929687495,-21.191399765014648,38.06399993896484,-20.56187973022461,1.6887021560471793e+18,213.69517929687495,-275.73219604492186,133.52899780273438,-153.77367553710937,1.6887021560530644e+18,213.7010645345052,0.5553107062975565,-0.7817662755648295,0.1917420923709868,0.2070385764042536,-2.0745061238606772,0.909587303797404,-1.0443859100341797
3.75,1.6887021561049777e+18,213.75297786458336,14.897752126057943,-5.5426333745320635,-0.5826390584309896,1.6887021561049777e+18,213.75297786458336,9.89133071899414,-12.450055758158364,4.237290064493815,1.6887021561049777e+18,213.75297786458336,-5.012267589569092,-6.889917691548665,4.757241725921631,1.688702156096329e+18,213.74432902018228,-0.88361656665802,-4.622824589411418,-3.656384865442912,1.688702156096329e+18,213.74432902018228,-0.8848382929960886,-4.618141333262126,-3.654195864995321,,,,,,,,,,,,1.6887021560971845e+18,213.74518452148436,-12.043839740753176,38.39339981079102,-25.920119094848634,1.6887021560971845e+18,213.74518452148436,-266.5846374511719,133.8584014892578,-159.1319152832031,1.6887021561049777e+18,213.75297786458336,0.4697112838427226,-0.8302665948867798,0.2549945811430613,0.1493171205123265,-2.373663584391276,0.7807531555493673,-0.9307639400164286
3.8,1.6887021561568865e+18,213.80488623046872,7.431476434071858,-7.574557940165202,2.0743559201558432,1.6887021561568865e+18,213.80488623046872,2.002792994181315,-12.848859151204428,8.278568267822266,1.6887021561568865e+18,213.80488623046872,-5.434529781341553,-5.256796360015869,6.14152463277181,1.6887021561482314e+18,213.79623144531251,0.738383375108242,8.533023993174234,-5.087896664937337,1.6887021561482314e+18,213.79623144531251,0.7372634410858154,8.537656307220459,-5.085758725802104,1.6887021561482314e+18,213.7962314453125,0.0,0.0,0.9148011803627014,8.031000137329102,1.5172135829925537,132.2313690185547,43.5,-122.7552576,49.1894416,1.688702156147181e+18,213.7951810546875,-0.7197999954223633,38.49100036621094,-27.718399810791016,1.688702156147181e+18,213.7951810546875,-255.2605926513672,133.95599975585938,-160.9301971435547,1.6887021561568865e+18,213.80488623046872,0.3701738317807515,-0.8600386381149292,0.1864549169937769,0.2854736049969991,-2.29465913772583,0.5659419298171997,-0.685978909333547
3.85,1.6887021562087862e+18,213.8567860514323,-4.934502919514974,-4.330792586008708,-8.79832410812378,1.6887021562087862e+18,213.8567860514323,-8.566903114318848,-9.912865797678627,-1.5234303971131642,1.6887021562087862e+18,213.8567860514323,-3.638246218363444,-5.564568519592285,7.212206522623698,1.6887021562001357e+18,213.8481357421875,0.7489717205365499,2.507092833518982,0.2408336301644643,1.6887021562001357e+18,213.8481357421875,0.7478517889976501,2.511776089668274,0.2429716487725575,,,,,,,,,,,,1.6887021561971858e+18,213.84518569335935,-8.610760021209718,40.31611938476563,-23.702159118652343,1.6887021561971858e+18,213.84518569335935,-263.15155029296875,135.78111877441407,-156.91395568847656,1.6887021562087862e+18,213.8567860514323,0.3949809571107228,-0.8212445378303528,0.1020328650871912,0.3986952702204386,-2.0367790857950845,0.603541890780131,-0.6262947122255961
3.9,1.6887021562520417e+18,213.90004162597657,14.819061756134031,-11.948338508605955,-7.023133754730225,1.6887021562520417e+18,213.90004162597657,11.201101779937744,-17.92313861846924,-0.0637089014053345,1.6887021562520417e+18,213.90004162597657,-3.6238062381744385,-5.957296133041382,6.896737575531006,1.688702156252035e+18,213.9000352376302,0.7295766969521841,-0.9060658812522888,2.8061113357543945,1.688702156252035e+18,213.9000352376302,0.7284568001826605,-0.901382565498352,2.808249314626058,,,,,,,,,,,,1.688702156247182e+18,213.89518227539065,-10.147959899902345,39.67927932739258,-23.567959594726563,1.688702156247182e+18,213.89518227539065,-264.6887512207031,135.14427795410157,-156.77975463867188,1.6887021562520417e+18,213.90004162597657,0.4330830127000808,-0.815545380115509,0.1380097344517707,0.3579217195510864,-2.05300772190094,0.6530162394046783,-0.7398871779441833
3.95,1.6887021562952978e+18,213.9432978515625,0.7292129993438722,-7.191401640574138,-3.447913726170858,1.6887021562952978e+18,213.9432978515625,-1.93519526720047,-14.334802309672035,2.7682963212331138,1.6887021562952978e+18,213.9432978515625,-2.670254309972127,-7.125896135965983,6.153522650400798,1.6887021563039465e+18,213.9519465332031,3.648596207300822,0.1983784834543863,2.990236202875773,1.6887021563039465e+18,213.9519465332031,3.647425413131714,0.2030617892742157,2.992374340693156,,,,,,,,,,,,1.6887021562971884e+18,213.9451883300781,-15.757519912719726,39.918399047851565,-18.751399803161625,1.6887021562971884e+18,213.9451883300781,-270.2983093261719,135.3833984375,-151.96319580078125,1.6887021562952978e+18,213.9432978515625,0.5013350248336792,-0.79096919298172,0.0979930932323137,0.3349774082501729,-1.976813594500224,0.8156360189119974,-0.802044133345286
4.0,1.6887021563471995e+18,213.99519978841147,0.1364694833755493,-8.483643213907877,2.7124381065368652,1.6887021563471995e+18,213.99519978841147,-1.58484614888827,-16.888142903645832,7.542775313059489,1.6887021563471995e+18,213.99519978841147,-1.7271616856257122,-8.386995951334635,4.7676496505737305,1.6887021563558502e+18,214.00385017903645,2.278629183769226,-1.904066999753316,2.253787318865458,1.6887021563558502e+18,214.00385017903645,2.2775092124938965,-1.8993837038675945,2.2559253374735513,,,,,,,,,,,,1.6887021563471844e+18,213.995184375,-22.35283966064453,40.05503921508789,-13.144279861450196,1.6887021563471844e+18,213.995184375,-276.8936340332031,135.52003784179686,-146.3560791015625,1.6887021563471995e+18,213.99519978841147,0.5847191214561462,-0.7632073163986206,0.070820113023122,0.2642185240983962,-1.9161133368810015,1.027026931444804,-0.940252423286438
4.05,1.688702156399106e+18,214.04710579427083,3.0787500540415444,-2.937031904856364,6.678940931955974,1.688702156399106e+18,214.04710579427083,2.002194325129191,-11.892129103342691,10.62393315633138,1.688702156399106e+18,214.04710579427083,-1.082401692867279,-8.937592506408691,3.8823043505350743,1.68870215640776e+18,214.0557598470052,1.5706872940063477,0.6546439193189144,1.6961691776911418,1.68870215640776e+18,214.0557598470052,1.5696182648340862,0.6593272077540556,1.6984090010325117,,,,,,,,,,,,1.688702156397184e+18,214.045183984375,-26.22267951965332,39.28155899047851,-11.07027988433838,1.688702156397184e+18,214.045183984375,-280.7634704589844,134.7465576171875,-144.282080078125,1.688702156399106e+18,214.04710579427083,0.6315404176712036,-0.7421873410542806,0.0607903773585954,0.2152360677719116,-1.8371195395787556,1.146555225054423,-1.0805753072102864
4.1,1.6887021564510085e+18,214.0990080566406,-1.1252892613410952,5.904356479644775,2.3167704741160073,1.6887021564510085e+18,214.0990080566406,-1.2973087032636006,-3.363311529159546,5.63090976079305,1.6887021564510085e+18,214.0990080566406,-0.1778654754161834,-9.250163396199545,3.2514518896738687,1.6887021564596616e+18,214.10766178385416,1.2953397432963054,0.2674571673075358,1.4613932768503826,1.6887021564596616e+18,214.10766178385416,1.2941180070241292,0.2721913804610569,1.4635822375615437,,,,,,,,,,,,1.6887021564471864e+18,214.09518627929688,-30.465839385986328,37.64919891357422,-7.122359848022461,1.6887021564471864e+18,214.09518627929688,-285.0066284179687,133.11419677734375,-140.33415832519532,1.6887021564510085e+18,214.0990080566406,0.6713051597277323,-0.7123217980066935,0.0331537077824274,0.2016669064760207,-1.6194645166397097,1.2314666906992595,-1.2797393004099529
4.15,1.688702156502916e+18,214.1509161783854,-4.811079343159993,8.06060791015625,0.7131964365641276,1.688702156502916e+18,214.1509161783854,-4.338187615076701,-1.3457633256912231,3.5742788314819336,1.688702156502916e+18,214.1509161783854,0.4670457442601521,-9.388866742451986,2.7983949979146323,1.6887021565029105e+18,214.15091052246095,0.8445211946964264,0.1123992041684687,1.4014012217521667,1.6887021565029105e+18,214.15091052246095,0.8432994782924652,0.1170570501126349,1.40353924036026,,,,,,,,,,,,1.688702156497175e+18,214.14517524414063,-33.43287963867188,36.02415924072265,-4.645759916305542,1.688702156497175e+18,214.14517524414063,-287.9736694335937,131.4891571044922,-137.85755615234376,1.688702156502916e+18,214.1509161783854,0.6994205911954244,-0.6893901626269022,0.0195799401650826,0.1872565944989521,-1.400781512260437,1.276265263557434,-1.5005051294962566
4.2,1.688702156554809e+18,214.2028094889323,-2.537059783935547,8.378092130025228,0.737537701924642,1.688702156554809e+18,214.2028094889323,-1.699701686700185,-1.0498509407043457,3.4436705907185874,1.688702156554809e+18,214.2028094889323,0.8315120935440063,-9.410438537597656,2.6434454917907715,1.6887021565461594e+18,214.1941592610677,0.3482440908749898,-0.5523239771525065,0.7235698762039343,1.6887021565461594e+18,214.1941592610677,0.3470732718706131,-0.5476406912008921,0.7257079171637694,,,,,,,,,,,,1.6887021565471764e+18,214.1951763671875,-35.38731994628906,34.19659957885742,-3.891799926757813,1.6887021565471764e+18,214.1951763671875,-289.92811279296876,129.6615997314453,-137.10359802246094,1.688702156554809e+18,214.2028094889323,0.7163263161977133,-0.675589362780253,0.0255818162113427,0.1725648740927378,-1.26283065478007,1.2837170759836831,-1.6683469613393147
4.25,1.6887021566067146e+18,214.2547145182292,-1.1803687413533528,8.422723134358725,-0.3410090605417887,1.6887021566067146e+18,214.2547145182292,-0.6360920071601868,-1.0000004768371582,2.4536402225494385,1.6887021566067146e+18,214.2547145182292,0.5384306708971659,-9.405219395955404,2.7319618860880532,1.6887021565980662e+18,214.2460662434896,-0.0774780710538228,-0.2898555596669514,-0.7057020664215088,1.6887021565980662e+18,214.2460662434896,-0.0786998073259989,-0.2852231661478678,-0.7035640478134155,,,,,,,,,,,,1.6887021565971763e+18,214.24517622070312,-35.29459915161133,34.6479995727539,-4.36515998840332,1.6887021565971763e+18,214.24517622070312,-289.83539428710935,130.11299743652344,-137.57695617675782,1.6887021566067146e+18,214.2547145182292,0.706855316956838,-0.6861703395843506,0.0339307623604933,0.1682588756084442,-1.3721284468968709,1.2819438378016157,-1.577201286951701
4.3,1.6887021566586317e+18,214.30663159179687,13.07907780011495,-6.383159478505452,-0.6532538731892904,1.6887021566586317e+18,214.30663159179687,12.375081141789757,-15.591831922531128,2.7146573066711426,1.6887021566586317e+18,214.30663159179687,-0.7098435927182436,-9.191167831420898,3.3052237828572593,1.688702156649981e+18,214.29798063151043,-1.9735528628031416,-5.91908061504364,-1.3453289071718852,1.688702156649981e+18,214.29798063151043,-1.974672814210256,-5.914397398630778,-1.3431399812301,1.688702156667284e+18,214.3152839355469,0.0,0.0,0.9193602204322816,7.824999809265137,1.508315086364746,133.3124542236328,43.5,-122.7552484,49.1894333,1.6887021566471836e+18,214.2951836425781,-32.07135925292969,36.377959442138675,-8.115439987182617,1.6887021566471836e+18,214.2951836425781,-286.612158203125,131.84295654296875,-141.32723693847657,1.6887021566586317e+18,214.30663159179687,0.667831559975942,-0.7208242416381836,0.1136497867604096,0.1300787205497423,-1.7658802270889282,1.2149168252944946,-1.3524680932362874
4.35,1.688702156701877e+18,214.349876953125,17.850544452667236,-15.009527206420898,2.3685981035232544,1.688702156701877e+18,214.349876953125,16.77787446975708,-24.03380966186523,6.166303873062134,1.688702156701877e+18,214.349876953125,-1.078516125679016,-9.006778717041016,3.7350183725357056,1.6887021567018816e+18,214.34988159179684,-0.8871290584405264,-2.9446250796318054,1.3163637121518452,1.6887021567018816e+18,214.34988159179684,-0.888248952726523,-2.939992709706227,1.3185016910235088,,,,,,,,,,,,1.6887021566971776e+18,214.34517778320316,-27.342639541625974,34.452799224853514,-21.101119232177737,1.6887021566971776e+18,214.34517778320316,-281.88343505859376,129.9178009033203,-154.31291809082032,1.688702156701877e+18,214.349876953125,0.6654152572154999,-0.707550585269928,0.2321457788348197,0.0512797888368368,-1.8493868112564087,1.1627352237701416,-1.554168462753296
4.4,1.688702156745136e+18,214.39313598632808,0.0486849149068196,-4.477648417154948,3.408498446146647,1.688702156745136e+18,214.39313598632808,-1.089133103688558,-13.492927233378092,7.208378314971924,1.688702156745136e+18,214.39313598632808,-1.143664042154948,-8.997774442036947,3.7371923128763833,1.6887021567537902e+18,214.40179028320313,0.2935207486152649,2.452674865722656,-0.6329072912534078,1.6887021567537902e+18,214.40179028320313,0.2924008319775263,2.4572563966115317,-0.630769262711207,,,,,,,,,,,,1.6887021567471834e+18,214.3951833496094,-26.805839920043944,34.37959976196289,-21.945359420776366,1.6887021567471834e+18,214.3951833496094,-281.3466369628906,129.84459838867187,-155.15715942382812,1.688702156745136e+18,214.39313598632808,0.6616756319999695,-0.7140637636184692,0.2187096923589706,0.0645727589726447,-1.8652558326721191,1.160482883453369,-1.499489386876424
4.45,1.688702156797044e+18,214.4450441894531,-1.8770522276560464,0.2011950810750325,2.9441914558410645,1.688702156797044e+18,214.4450441894531,-2.625325242678324,-8.83928632736206,6.780062993367513,1.688702156797044e+18,214.4450441894531,-0.7541190187136332,-9.022976875305176,3.773183981577555,1.6887021568056914e+18,214.45369165039065,0.2686279912789662,3.239672899246216,-0.3525201479593913,1.6887021568056914e+18,214.45369165039065,0.2674062649408976,3.2444071769714355,-0.3503312170505523,,,,,,,,,,,,1.688702156797181e+18,214.4451806640625,-29.187279510498048,35.19211959838867,-17.787599563598633,1.688702156797181e+18,214.4451806640625,-283.72808227539065,130.65711669921876,-150.99939880371093,1.688702156797044e+18,214.4450441894531,0.6689448555310568,-0.7155394752820333,0.1602742920319239,0.1194215267896652,-1.7653366327285769,1.1670428117116292,-1.4352632761001587
4.5,1.688702156848947e+18,214.49694677734377,-1.36721674601237,7.097415765126546,-1.8083288669586184,1.688702156848947e+18,214.49694677734377,-1.7856438954671223,-1.9661026398340864,2.0257237752278647,1.688702156848947e+18,214.49694677734377,-0.4242731730143229,-9.046013832092283,3.771365245183309,1.6887021568576005e+18,214.50560042317707,-0.0349720269441604,2.0169243017832437,-0.4484769105911255,1.6887021568576005e+18,214.50560042317707,-0.0360410610834757,2.0215567350387573,-0.4462879796822865,,,,,,,,,,,,1.6887021568471867e+18,214.49518681640623,-30.81475982666016,35.782598876953124,-12.775839805603027,1.6887021568471867e+18,214.49518681640623,-285.3555541992188,131.24759521484376,-145.98763732910157,1.688702156848947e+18,214.49694677734377,0.6711149017016093,-0.713727335135142,0.1076037560900052,0.1684714108705519,-1.6800105969111123,1.1731254657109578,-1.3737353086471558
4.55,1.6887021569008538e+18,214.54885367838543,-0.6743910511334738,-0.7243494987487793,2.160628318786621,1.6887021569008538e+18,214.54885367838543,-1.1573285460472107,-9.58903741836548,6.425127824147542,1.6887021569008538e+18,214.54885367838543,-0.4887835284074147,-8.847183227539062,4.201811949412028,1.6887021569095053e+18,214.55750537109375,-1.5439618825912476,0.5657630264759064,-0.9054040908813475,1.6887021569095053e+18,214.55750537109375,-1.5451836188634236,0.5703954299290975,-0.9032151699066162,,,,,,,,,,,,1.6887021568971845e+18,214.545184375,-30.83915977478027,36.436519622802734,-11.377719688415528,1.6887021568971845e+18,214.545184375,-285.3799560546875,131.90151672363282,-144.58951416015626,1.6887021569008538e+18,214.54885367838543,0.6568859020868937,-0.7175350387891134,0.0973709474007288,0.2096288452545801,-1.683353583017985,1.1244452397028606,-1.295214096705119
4.6,1.6887021569527606e+18,214.6007605794271,-0.4922627607981364,0.5177421569824219,-0.217358668645223,1.6887021569527606e+18,214.6007605794271,-1.4155539671579995,-8.066603978474935,4.530610164006551,1.6887021569527606e+18,214.6007605794271,-0.9291372299194336,-8.56684144337972,4.685281435648601,1.6887021569527598e+18,214.60075988769532,-0.42722387611866,-0.2396118938922882,-1.1181125044822693,1.6887021569527598e+18,214.60075988769532,-0.4282928854227066,-0.2349540404975414,-1.115974485874176,,,,,,,,,,,,1.6887021569471803e+18,214.59518037109373,-29.031119537353515,37.012359619140625,-13.271159744262697,1.6887021569471803e+18,214.59518037109373,-283.57191162109376,132.47735595703125,-146.482958984375,1.6887021569527606e+18,214.6007605794271,0.6316394805908203,-0.7313808004061381,0.108887272576491,0.2327578415473301,-1.7636745770772295,1.0617493391036987,-1.1966583728790283
4.65,1.6887021570046577e+18,214.65265771484377,0.1119622389475504,2.4208765029907227,-2.844850540161133,1.6887021570046577e+18,214.65265771484377,-1.5174483458201091,-5.887141227722168,2.194018999735514,1.6887021570046577e+18,214.65265771484377,-1.6352566083272295,-8.290513038635254,4.976182142893474,1.6887021569960133e+18,214.6440134277344,-0.9393580158551534,-0.7461210091908773,-1.2827661037445068,1.6887021569960133e+18,214.6440134277344,-0.9404779473940532,-0.7413867910703024,-1.2806280851364136,,,,,,,,,,,,1.6887021569971845e+18,214.64518447265627,-26.603319549560545,38.08107986450195,-15.049919509887696,1.6887021569971845e+18,214.64518447265627,-281.14411010742185,133.54608154296875,-148.2617156982422,1.6887021570046577e+18,214.65265771484377,0.6009587645530701,-0.7528562148412069,0.1261575669050215,0.2365645716587702,-1.8850378195444744,1.0069590210914612,-1.093834400177002
4.7,1.6887021570565655e+18,214.70456559244792,0.6769725481669108,-2.6931165059407554,-2.538778781890869,1.6887021570565655e+18,214.70456559244792,-1.8522441387176511,-10.601002057393393,2.7639094988505044,1.6887021570565655e+18,214.70456559244792,-2.5350627104441323,-7.890380859375,5.2400008837382,1.6887021570479112e+18,214.69591113281248,-1.0940087238947551,-1.781232198079427,-1.1448632876078289,1.6887021570479112e+18,214.69591113281248,-1.0951286951700847,-1.7764979600906372,-1.1426743666330974,,,,,,,,,,,,1.6887021570471816e+18,214.69518159179688,-22.09419975280762,38.73743896484375,-18.66111946105957,1.6887021570471816e+18,214.69518159179688,-276.63499755859374,134.2024383544922,-151.87291564941407,1.6887021570565655e+18,214.70456559244792,0.5654478867848715,-0.7760810454686483,0.1617735723654429,0.2268322855234146,-2.0182769695917764,0.934760332107544,-1.0264896154403689
4.75,1.688702157108475e+18,214.75647477213545,4.813835064570109,-4.93348487218221,-1.723975419998169,1.688702157108475e+18,214.75647477213545,0.9924231568972268,-12.311271985371908,3.548555930455526,1.688702157108475e+18,214.75647477213545,-3.827257951100667,-7.3602824211120605,5.2098439534505205,1.6887021570998203e+18,214.7478206380208,-1.2774719794591267,-3.122488578160604,-1.3628403743108113,1.6887021570998203e+18,214.7478206380208,-1.278642733891805,-3.11785618464152,-1.3606514533360798,,,,,,,,,,,,1.6887021570971827e+18,214.74518261718748,-16.94823932647705,38.5056396484375,-23.287359619140624,1.6887021570971827e+18,214.74518261718748,-271.4890441894531,133.97063903808595,-156.49916076660156,1.688702157108475e+18,214.75647477213545,0.5181554655234019,-0.8041395346323649,0.2179652949174244,0.1907809029022852,-2.200325091679891,0.8490375479062399,-0.9826595187187196
4.8,1.6887021571517235e+18,214.7997236328125,31.19579029083252,-5.732149600982666,-0.0237208604812623,1.6887021571517235e+18,214.7997236328125,25.106092929840088,-11.723634719848633,4.843372225761414,1.6887021571517235e+18,214.7997236328125,-6.095543384552002,-5.97398042678833,4.804405689239502,1.6887021571517317e+18,214.7997314453125,-0.3819434841473897,1.2464706500371296,-6.676553567250569,1.6887021571517317e+18,214.7997314453125,-0.3830634007851283,1.2511030038197837,-6.674415588378906,,,,,,,,,,,,1.6887021571471864e+18,214.7951865234375,-3.3696398973464965,38.38363952636719,-27.364599609375,1.6887021571471864e+18,214.7951865234375,-257.9104400634766,133.84863891601563,-160.5763946533203,1.6887021571517235e+18,214.7997236328125,0.4011819809675216,-0.8640040159225464,0.2521574571728706,0.1662563756108283,-2.472472071647644,0.6562219858169556,-0.8040969371795654
4.85,1.6887021571949837e+18,214.84298372395835,-4.616088072458903,-6.943838755289714,-1.1388851801554365,1.6887021571949837e+18,214.84298372395835,-9.066803614298502,-12.38883908589681,5.700899829467137,1.6887021571949837e+18,214.84298372395835,-4.45656156539917,-5.42749563852946,6.777097384134929,1.6887021572036303e+18,214.85163053385415,1.998598376909892,7.9370230833689375,-0.5545638302961985,1.6887021572036303e+18,214.85163053385415,1.99752942721049,7.941655397415161,-0.5523239970207215,1.688702157186322e+18,214.8343220214844,0.0,0.0,0.925140917301178,7.724999904632568,1.5117329359054563,133.64468383789062,43.5,-122.7552481,49.1894325,1.6887021571971835e+18,214.84518383789063,-5.9901998281478885,39.76956024169922,-25.454079818725585,1.6887021571971835e+18,214.84518383789063,-260.53098754882814,135.23455810546875,-158.66587524414064,1.6887021571949837e+18,214.84298372395835,0.385404884815216,-0.8397993842760721,0.1390288869539896,0.3495607872804006,-2.1491326491038003,0.586922844250997,-0.6531864603360494
4.9,1.6887021572468895e+18,214.8948896484375,-2.854357957839966,-5.706578095753987,-8.269643147786459,1.6887021572468895e+18,214.8948896484375,-6.24805873632431,-11.60798168182373,-1.1345967253049214,1.6887021572468895e+18,214.8948896484375,-3.3995468616485596,-5.883898893992106,7.072359085083008,1.6887021572555397e+18,214.9035395507813,-0.2184352241456508,-2.7165177265803018,1.9273307919502256,1.6887021572555397e+18,214.9035395507813,-0.2196060630182424,-2.71183447043101,1.9295196731885271,,,,,,,,,,,,1.688702157247176e+18,214.89517587890623,-10.943399810791016,40.95539855957031,-22.235719680786133,1.688702157247176e+18,214.89517587890623,-265.48419189453125,136.42039794921874,-155.44752197265626,1.6887021572468895e+18,214.8948896484375,0.4147649308045705,-0.8143278360366821,0.0966743876536686,0.3933969736099243,-2.0177369912465415,0.6436668038368225,-0.6499276359875997
4.95,1.6887021572987935e+18,214.94679345703125,10.52256186803182,-8.781463623046875,-4.009966293970744,1.6887021572987935e+18,214.94679345703125,7.5072817007700605,-15.44447390238444,2.577468832333883,1.6887021572987935e+18,214.94679345703125,-3.0211262702941895,-6.645505905151367,6.5247476895650225,1.688702157307444e+18,214.95544376627603,3.3161837259928384,2.2931881745656333,1.8727600971857707,1.688702157307444e+18,214.95544376627603,3.3150638739267984,2.2978714307149253,1.8749999205271404,,,,,,,,,,,,1.6887021572971832e+18,214.9451830566406,-13.537119674682618,40.65527877807617,-21.07183952331543,1.6887021572971832e+18,214.9451830566406,-268.0779113769531,136.12027587890626,-154.28363952636718,1.6887021572987935e+18,214.94679345703125,0.467745969692866,-0.8016308347384135,0.1008983080585797,0.3568001290162404,-2.000832200050354,0.7458732525507609,-0.7433384458223978
5.0,1.688702157350696e+18,214.99869596354168,-0.7948722044626871,-6.437587261199951,-0.5912201404571533,1.688702157350696e+18,214.99869596354168,-2.558525562286377,-14.548760414123535,4.697110891342163,1.688702157350696e+18,214.99869596354168,-1.76949938138326,-8.093668460845947,5.225643634796143,1.6887021573593508e+18,215.00735083007817,3.121012290318807,-0.8470664719740549,1.878563364346822,1.6887021573593508e+18,215.00735083007817,3.1198414166768393,-0.8423322637875875,1.8807013432184856,,,,,,,,,,,,1.6887021573471785e+18,214.995178515625,-20.212960052490235,42.25591812133789,-11.90719985961914,1.6887021573471785e+18,214.995178515625,-274.753759765625,137.72091979980468,-145.1189971923828,1.688702157350696e+18,214.99869596354168,0.5493281682332357,-0.7673428257306417,0.0263440692797302,0.3284946978092193,-1.8949143489201865,0.9726772308349608,-0.7954073150952657
5.05,1.6887021574025994e+18,215.0505995279948,4.758548895517985,-6.613543192545573,5.8271206219991045,1.6887021574025994e+18,215.0505995279948,3.430310686429342,-15.373287200927734,10.129216829935707,1.6887021574025994e+18,215.0505995279948,-1.3340840737024944,-8.742239952087402,4.2394083340962725,1.688702157402598e+18,215.05059802246092,1.247539520263672,-0.1051451563835144,1.093372404575348,1.688702157402598e+18,215.05059802246092,1.2464705109596252,-0.1004109978675842,1.0955104231834412,,,,,,,,,,,,1.688702157397185e+18,215.04518515625,-23.619199752807617,41.989959716796875,-7.881199741363526,1.688702157397185e+18,215.04518515625,-278.1599914550781,137.4549591064453,-141.09299926757814,1.6887021574025994e+18,215.0505995279948,0.594925045967102,-0.7532150745391846,0.0087188298930413,0.2801742951075236,-1.8722466627756755,1.100429932276408,-0.8719550371170044
5.1,1.688702157454502e+18,215.1025020345052,-0.7354744076728821,2.882305304209391,2.7063639163970947,1.688702157454502e+18,215.1025020345052,-1.323430339495341,-6.230910142262776,6.385047594706218,1.688702157454502e+18,215.1025020345052,-0.5938019653161367,-9.095710754394531,3.6159961223602295,1.6887021574458596e+18,215.0938598632812,1.6365079879760742,0.7028513451417288,1.282511552174886,1.6887021574458596e+18,215.0938598632812,1.6354389588038127,0.7075346757968267,1.2846495707829793,,,,,,,,,,,,1.6887021574471803e+18,215.09518022460935,-26.93271942138672,41.07251892089844,-4.187039947509765,1.6887021574471803e+18,215.09518022460935,-281.4735168457031,136.5375183105469,-137.39883422851562,1.688702157454502e+18,215.1025020345052,0.6293019851048788,-0.7274652520815531,-0.021639964232842,0.2722136378288269,-1.7286686897277832,1.1876195669174194,-0.986340363820394
5.15,1.6887021575064136e+18,215.15441357421875,-2.814809282620748,6.641486803690593,0.3447173436482747,1.6887021575064136e+18,215.15441357421875,-3.0145577589670816,-2.718844731648763,3.387040456136068,1.6887021575064136e+18,215.15441357421875,-0.2055945595105489,-9.342827161153158,2.979635715484619,1.688702157497762e+18,215.1457620442708,1.2874493996302288,-0.1446223435923457,0.7901032964388529,1.688702157497762e+18,215.1457620442708,1.2862276633580525,-0.1399899517806867,0.7923431197802225,,,,,,,,,,,,1.6887021574971848e+18,215.1451845703125,-29.284879302978517,39.66707916259766,-1.0857999563217164,1.6887021574971848e+18,215.1451845703125,-283.82567138671874,135.1320770263672,-134.29759826660157,1.6887021575064136e+18,215.15441357421875,0.6547057827313741,-0.7130951484044393,-0.0376990151902039,0.2477121253808339,-1.6352594296137493,1.2612229188283284,-1.0949061314264934
5.2,1.6887021575583232e+18,215.2063232421875,-2.86713174978892,8.119636376698812,-0.0720624923706055,1.6887021575583232e+18,215.2063232421875,-2.9062825441360474,-1.3605190912882488,2.576870520909627,1.6887021575583232e+18,215.2063232421875,-0.04499678624173,-9.462650934855144,2.586245616277059,1.688702157549665e+18,215.19766479492185,0.7399614254633585,-0.7898487548033396,0.6430884003639221,1.688702157549665e+18,215.19766479492185,0.7388415336608887,-0.7852163712183634,0.6452264189720154,,,,,,,,,,,,1.6887021575471803e+18,215.19518022460937,-30.763519287109375,38.73499984741211,0.6978399664163589,1.6887021575471803e+18,215.19518022460937,-285.3043151855469,134.2,-132.5139587402344,1.6887021575583232e+18,215.2063232421875,0.6693784793217977,-0.7072260578473409,-0.0394948547085125,0.2238791535298029,-1.5838508605957031,1.3037678798039751,-1.179661989212036
5.25,1.688702157601573e+18,215.2495731201172,-0.602391242980957,8.351402759552002,0.6742016077041626,1.688702157601573e+18,215.2495731201172,-0.6900302171707153,-1.134796142578125,3.3000015020370483,1.688702157601573e+18,215.2495731201172,-0.093484979122877,-9.46869421005249,2.563112497329712,1.68870215760157e+18,215.24956998697917,0.016086119847993,-1.0262026985486348,-0.0471384351452191,1.68870215760157e+18,215.24956998697917,0.0149152937034765,-1.021570324897766,-0.0450004115700721,,,,,,,,,,,,1.6887021575971845e+18,215.24518447265623,-31.5150390625,38.24699935913086,0.0439199954271316,1.6887021575971845e+18,215.24518447265623,-286.05584106445315,133.71199645996094,-133.16787719726562,1.688702157601573e+18,215.2495731201172,0.6731451749801636,-0.7096821069717407,-0.023481928743422,0.2065305635333061,-1.6029231548309326,1.3060338497161863,-1.209019660949707
5.3,1.6887021576448274e+18,215.2928272298177,-0.9099721362193426,7.381399790445964,0.0655546188354492,1.6887021576448274e+18,215.2928272298177,-1.3676975270112357,-2.0476580063501992,2.8470601240793862,1.6887021576448274e+18,215.2928272298177,-0.4635714143514633,-9.411553382873535,2.718818108240763,1.688702157653478e+18,215.30147802734373,-0.8989391128222147,-2.7992899417877197,-1.0246246457099917,1.688702157653478e+18,215.30147802734373,-0.9001099169254303,-2.794606645901998,-1.0224866072336831,,,,,,,,,,,,1.6887021576471803e+18,215.29518027343752,-30.60003967285156,38.6739990234375,-2.525399994850159,1.6887021576471803e+18,215.29518027343752,-285.1408325195313,134.1389953613281,-135.73719482421876,1.6887021576448274e+18,215.2928272298177,0.6628746390342712,-0.7231138944625854,-0.0016421065665781,0.1935030867656071,-1.732645312945048,1.2849884033203125,-1.1292136112848918
5.35,1.6887021576967332e+18,215.34473307291668,21.62585163116455,-11.319583574930826,-0.7373070319493612,1.6887021576967332e+18,215.34473307291668,20.64986006418864,-20.50529416402181,2.6614169677098594,1.6887021576967332e+18,215.34473307291668,-0.981837511062622,-9.168206532796225,3.3360366026560464,1.688702157705383e+18,215.35338232421873,-2.5668558279673257,-6.504594802856445,2.5219062169392905,1.688702157705383e+18,215.35338232421873,-2.568026542663574,-6.499860763549805,2.5240951776504517,1.688702157705383e+18,215.3533828125,0.0,0.0,0.925140917301178,7.550000190734863,1.509971261024475,134.7270050048828,43.5,-122.7552365,49.189425,1.6887021576971845e+18,215.34518447265629,-28.874959182739257,37.00991973876953,-13.751839637756348,1.6887021576971845e+18,215.34518447265629,-283.4157470703125,132.47491760253905,-146.96363830566406,1.6887021576967332e+18,215.34473307291668,0.6602668960889181,-0.7283475399017334,0.1279483338197072,0.11672555655241,-1.857248346010844,1.2074973583221436,-1.3007363080978394
5.4,1.6887021577486367e+18,215.3966365559896,8.663002808888754,-9.084177335103352,1.7812987963358562,1.6887021577486367e+18,215.3966365559896,7.574081420898437,-18.05962912241618,5.68893575668335,1.6887021577486367e+18,215.3966365559896,-1.0947675903638203,-8.957947731018066,3.84494956334432,1.6887021577572936e+18,215.40529353841143,0.241342673699061,1.3239994843800862,-1.3773993452390034,1.6887021577572936e+18,215.40529353841143,0.240222747127215,1.328682800134023,-1.3752612868944805,,,,,,,,,,,,1.6887021577471816e+18,215.39518149414064,-27.886759567260743,34.39911880493164,-21.22799949645996,1.6887021577471816e+18,215.39518149414064,-282.42755737304685,129.86411743164064,-154.43980102539064,1.6887021577486367e+18,215.3966365559896,0.6617687344551086,-0.7153115272521973,0.2088717768589655,0.0810954024394352,-1.8459282318751016,1.150447964668274,-1.4807110230127971
5.45,1.688702157800537e+18,215.448537516276,-1.2923928101857505,-2.579338550567627,4.5083714326222735,1.688702157800537e+18,215.448537516276,-2.541377067565918,-11.535797595977783,8.412167231241861,1.688702157800537e+18,215.448537516276,-1.254830280939738,-8.938954671223959,3.841108083724976,1.688702157809191e+18,215.4571906738281,0.5532402892907461,3.647985458374023,-1.1752538084983826,1.688702157809191e+18,215.4571906738281,0.5521203776200613,3.652668714523315,-1.1731157898902893,,,,,,,,,,,,1.688702157797187e+18,215.44518745117188,-27.645199584960935,36.69027862548828,-17.663159561157226,1.688702157797187e+18,215.44518745117188,-282.185986328125,132.1552764892578,-150.8749542236328,1.688702157800537e+18,215.448537516276,0.6464786330858866,-0.7352952361106873,0.1497520878911017,0.1348394279678662,-1.8841321468353271,1.145917256673177,-1.2790522575378418
5.5,1.6887021578524475e+18,215.50044783528645,-1.6528280178705852,7.517215251922607,-1.8324055671691897,1.6887021578524475e+18,215.50044783528645,-2.6628127892812095,-1.4979069828987122,2.004188338915507,1.6887021578524475e+18,215.50044783528645,-1.0158308148384094,-8.997617721557617,3.7739065488179526,1.6887021578524475e+18,215.50044738769532,0.605749249458313,2.36611008644104,-0.3594941943883896,1.6887021578524475e+18,215.50044738769532,0.6046038866043091,2.370691657066345,-0.3573561683297157,,,,,,,,,,,,1.6887021578471808e+18,215.49518076171876,-28.831039810180663,38.29823989868164,-12.041399955749512,1.6887021578471808e+18,215.49518076171876,-283.3718322753906,133.76323852539062,-145.2531951904297,1.6887021578524475e+18,215.50044783528645,0.6429797609647115,-0.7375834981600443,0.0842460393905639,0.1876311202843983,-1.830975651741028,1.1608219146728516,-1.161142388979594
5.55,1.688702157904346e+18,215.5523459472656,-1.0750741561253865,2.2897685368855796,0.5626957416534424,1.688702157904346e+18,215.5523459472656,-1.961915135383606,-6.656633297602336,4.583651145299275,1.688702157904346e+18,215.5523459472656,-0.8926870226860046,-8.928897221883139,3.95826800664266,1.6887021578956984e+18,215.54369816080728,-0.6778059204419454,0.9611455400784812,-0.1319977963964144,1.6887021578956984e+18,215.54369816080728,-0.6789258122444153,0.965879758199056,-0.1298597703377405,,,,,,,,,,,,1.6887021578971825e+18,215.54518237304688,-29.11407928466797,38.81307830810547,-9.315919876098633,1.6887021578971825e+18,215.54518237304688,-283.6548706054688,134.278076171875,-142.52771911621093,1.688702157904346e+18,215.5523459472656,0.6385611891746521,-0.7352297107378641,0.0662311650812625,0.2171616951624552,-1.790623704592387,1.1440637509028118,-1.1321017344792683
5.6,1.6887021579562578e+18,215.60425764973957,-0.603532632191976,-2.9236749013264975,2.1218371391296387,1.6887021579562578e+18,215.60425764973957,-1.5050854484240217,-11.553544680277506,6.792625268300374,1.6887021579562578e+18,215.60425764973957,-0.9073988199234008,-8.612365086873373,4.608100573221843,1.688702157947607e+18,215.59560693359376,-1.1800389637549715,-0.4215988367795944,0.0894408511618772,1.688702157947607e+18,215.59560693359376,-1.181209743022919,-0.4169155359268188,0.0915788821876048,,,,,,,,,,,,1.6887021579471846e+18,215.59518457031257,-28.992079544067384,37.94687957763672,-11.938920021057127,1.6887021579471846e+18,215.59518457031257,-283.5328735351562,133.41187438964843,-145.15071716308594,1.6887021579562578e+18,215.60425764973957,0.6301053166389465,-0.7325863639513651,0.0949237172802289,0.2392205248276392,-1.762892524401347,1.0713400443394978,-1.1677130858103435
5.65,1.6887021580081626e+18,215.65616251627603,0.6367184917132059,4.252747376759847,-2.4027439753214517,1.6887021580081626e+18,215.65616251627603,-0.6255237062772115,-4.225126663843791,2.4568306605021157,1.6887021580081626e+18,215.65616251627603,-1.2680882215499878,-8.460369427998861,4.796887238820394,1.6887021579995095e+18,215.6475095214844,-0.7200574080149332,-1.2723813851674397,-0.3344996323188146,1.6887021579995095e+18,215.6475095214844,-0.721177339553833,-1.267799933751424,-0.3323615913589795,,,,,,,,,,,,1.6887021579971845e+18,215.64518427734373,-28.3064395904541,37.64431991577148,-14.029999732971191,1.6887021579971845e+18,215.64518427734373,-282.8472412109375,133.10931701660155,-147.241796875,1.6887021580081626e+18,215.65616251627603,0.6198911269505819,-0.7407854398091634,0.123494637509187,0.2270812888940175,-1.8264253934224448,1.0400598843892417,-1.163241267204285
5.7,1.688702158051417e+18,215.6994168701172,1.0421867966651917,0.94756817817688,-2.465814471244812,1.688702158051417e+18,215.6994168701172,-0.8470592200756073,-7.241578817367554,2.679961323738098,1.688702158051417e+18,215.6994168701172,-1.8950920104980469,-8.171642303466797,5.083088397979736,1.6887021580514163e+18,215.69941625976563,-1.0808751583099363,-1.6964746316274006,-1.117374320824941,1.6887021580514163e+18,215.69941625976563,-1.0819441676139832,-1.6918931007385254,-1.1152363022168477,,,,,,,,,,,,1.6887021580471813e+18,215.69518129882812,-25.754199600219728,37.62235946655274,-17.504559326171876,1.6887021580471813e+18,215.69518129882812,-280.29498901367185,133.0873565673828,-150.716357421875,1.688702158051417e+18,215.6994168701172,0.5965430736541748,-0.7558574080467224,0.1572315245866775,0.2190636396408081,-1.925270438194275,0.984439730644226,-1.1249704360961914
5.75,1.688702158094667e+18,215.74266723632812,1.922679781913757,-3.1518988609313965,-2.50504724184672,1.688702158094667e+18,215.74266723632812,-0.9214361111323038,-10.97488021850586,2.757927497227987,1.688702158094667e+18,215.74266723632812,-2.8499619166056314,-7.805476665496826,5.200287342071533,1.6887021581033185e+18,215.7513186035156,-0.9683741132418314,-1.9651025533676147,-2.0118846893310547,1.6887021581033185e+18,215.7513186035156,-0.9694940447807312,-1.9603683948516848,-2.0097466309865317,,,,,,,,,,,,1.6887021580971822e+18,215.74518237304687,-21.132839965820313,38.100598907470705,-21.48175926208496,1.6887021580971822e+18,215.74518237304687,-275.6736328125,133.5655975341797,-154.6935546875,1.688702158094667e+18,215.74266723632812,0.5590981046358744,-0.7807000279426575,0.1874304513136545,0.2058668384949365,-2.068763097127279,0.9204057653745016,-1.0453940232594807
5.8,1.6887021581465764e+18,215.7945762532552,6.41415278116862,-5.948742230733235,-1.829073190689087,1.6887021581465764e+18,215.7945762532552,2.0249261061350503,-13.04207992553711,3.376272757848104,1.6887021581465764e+18,215.7945762532552,-4.39507253964742,-7.075833002726237,5.142658551534017,1.6887021581552305e+18,215.8032306315104,-1.0152071118354795,-3.170645078023275,-4.333070834477742,1.6887021581552305e+18,215.8032306315104,-1.0163270632425945,-3.166012763977051,-4.330932696660359,,,,,,,,,,,,1.6887021581471872e+18,215.7951872070313,-13.810399436950684,38.83260040283203,-25.593159866333007,1.6887021581471872e+18,215.7951872070313,-268.3511962890625,134.29760131835937,-158.8049560546875,1.6887021581465764e+18,215.7945762532552,0.4917779862880707,-0.8192430138587952,0.2282309979200363,0.1838744829098383,-2.273333708445231,0.806654671827952,-0.9361791610717772
5.85,1.6887021581984817e+18,215.8464816080729,15.393939654032392,-7.96504275004069,0.8614722887674967,1.6887021581984817e+18,215.8464816080729,9.683553695678713,-13.376875877380373,6.713462670644124,1.6887021581984817e+18,215.8464816080729,-5.716232458750407,-5.394328594207764,5.789302666982015,1.6887021582071268e+18,215.85512670898436,0.9543242156505586,8.750135580698648,-4.040822744369507,1.6887021582071268e+18,215.85512670898436,0.9531534115473428,8.7548189163208,-4.038684646288554,1.688702158224434e+18,215.8724338378906,0.0,0.0,0.9355418682098388,7.317999839782715,1.5173677206039429,135.684326171875,43.5,-122.7552336,49.1894232,1.6887021581971817e+18,215.8451816894531,-2.0422799348831178,38.705718994140625,-27.99655952453613,1.6887021581971817e+18,215.8451816894531,-256.5830780029297,134.17071533203125,-161.2083526611328,1.6887021581984817e+18,215.8464816080729,0.3741336663564046,-0.8654176394144694,0.2014205406109491,0.2540923058986663,-2.3513437112172446,0.5831374724706014,-0.7035688161849976
5.9,1.688702158250384e+18,215.89838411458337,-4.814222017923991,-4.126294771830241,-7.786737442016602,1.688702158250384e+18,215.89838411458337,-8.585646947224935,-9.587641716003418,-0.4931207944949468,1.688702158250384e+18,215.89838411458337,-3.7772708733876543,-5.44384225209554,7.230929215749104,1.6887021582590374e+18,215.9070375162761,0.345902423063914,0.946739395459493,0.4665483410159747,1.6887021582590374e+18,215.9070375162761,0.3447316288948058,0.951422651608785,0.4687372744083404,,,,,,,,,,,,1.6887021582471834e+18,215.8951833984375,-8.005639839172364,40.37955932617187,-24.238959884643556,1.6887021582471834e+18,215.8951833984375,-262.5464294433594,135.8445556640625,-157.45075378417968,1.688702158250384e+18,215.89838411458337,0.3815540770689646,-0.826512336730957,0.0938898846507072,0.4027989407380422,-2.05094575881958,0.58868936697642,-0.5900344053904215
5.95,1.6887021583022927e+18,215.95029280598956,9.220938205718994,-10.644583702087402,-6.5484077135721845,1.6887021583022927e+18,215.95029280598956,5.475775082906087,-16.46281909942627,0.4733800900479157,1.6887021583022927e+18,215.95029280598956,-3.751009543736776,-5.800731341044108,6.959100405375163,1.6887021583022917e+18,215.95029162597655,0.1176679134368896,-1.130406141281128,2.7367526292800903,1.6887021583022917e+18,215.95029162597655,0.116598904132843,-1.125748246908188,2.7389670610427856,,,,,,,,,,,,1.6887021582971812e+18,215.94518125,-10.282159805297852,40.067240142822264,-24.277999114990234,1.6887021582971812e+18,215.94518125,-264.82294921875,135.53223571777343,-157.48979797363282,1.6887021583022927e+18,215.95029280598956,0.415194571018219,-0.8219009240468343,0.1229012211163838,0.3695246577262878,-2.0636371771494546,0.6332459648450216,-0.6842840909957886
6.0,1.6887021583541965e+18,216.00219669596353,0.8937621116638184,-5.771861712137858,-3.4875181516011557,1.6887021583541965e+18,216.00219669596353,-1.855833371480306,-12.884353001912435,2.732802947362264,1.6887021583541965e+18,216.00219669596353,-2.755441506703695,-7.09498659769694,6.157633622487386,1.688702158345548e+18,215.99354825846353,3.251890261967977,0.6804020715256532,2.4088452657063804,1.688702158345548e+18,215.99354825846353,3.2507193883260093,0.6851362660527229,2.4109832843144736,,,,,,,,,,,,1.6887021583471803e+18,215.99518071289063,-16.12107982635498,41.08471908569336,-20.061679458618165,1.6887021583471803e+18,215.99518071289063,-270.66187744140626,136.54971618652343,-153.27347412109376,1.6887021583541965e+18,216.00219669596353,0.4919187426567077,-0.7952764630317688,0.0850829457243282,0.3424630165100097,-1.9889201720555625,0.8107406894365946,-0.7579250733057658
6.05,1.688702158406102e+18,216.0541018880208,1.844455401102702,-7.579689343770345,2.8982273737589517,1.688702158406102e+18,216.0541018880208,-0.05583256483078,-15.906089146931969,7.795816262563069,1.688702158406102e+18,216.0541018880208,-1.906134049097697,-8.308895746866861,4.834901332855225,1.688702158397451e+18,216.0454509277344,2.8523334662119546,-1.037554601828257,2.376469453175863,1.688702158397451e+18,216.0454509277344,2.851162592569987,-1.032871345678965,2.378658334414164,,,,,,,,,,,,1.6887021583971845e+18,216.04518447265627,-21.740399169921876,41.523919677734376,-13.766479682922364,1.6887021583971845e+18,216.04518447265627,-276.28119506835935,136.98891906738282,-146.9782745361328,1.688702158406102e+18,216.0541018880208,0.5688681602478027,-0.7706451813379923,0.0522551424801349,0.2813640932242075,-1.9439730644226072,1.0119470357894895,-0.8586944341659546
6.1,1.6887021584580068e+18,216.1060069173177,3.1725025177001953,-2.799067179361979,7.115499973297119,1.6887021584580068e+18,216.1060069173177,2.0149561166763306,-11.71984577178955,11.115060170491535,1.6887021584580068e+18,216.1060069173177,-1.163392424583435,-8.903273900349935,3.9368722438812256,1.688702158449356e+18,216.09735603841145,1.805615822474162,0.4445571800072987,1.5514450073242188,1.688702158449356e+18,216.09735603841145,1.8044959704081216,0.4492913782596588,1.553583025932312,,,,,,,,,,,,1.688702158447184e+18,216.0951837890625,-25.351599502563477,40.87975921630859,-10.226039695739749,1.688702158447184e+18,216.0951837890625,-279.89238891601565,136.34476013183593,-143.43783569335938,1.6887021584580068e+18,216.1060069173177,0.6160498460133871,-0.7470077474912008,0.0253480070581038,0.2480159004529316,-1.8528751929601033,1.1383267641067505,-0.9648903608322144
6.15,1.6887021585012593e+18,216.1492593994141,-0.7482451498508453,4.6321868896484375,2.6964852809906006,1.6887021585012593e+18,216.1492593994141,-1.1093724071979525,-4.575076937675476,6.168098449707031,1.6887021585012593e+18,216.1492593994141,-0.3669732734560966,-9.189759254455566,3.408925771713257,1.6887021585012613e+18,216.1492612304687,1.3819807767868042,0.5703954249620438,1.5717053810755413,1.6887021585012613e+18,216.1492612304687,1.380809982617696,0.5750787158807119,1.5739452044169109,,,,,,,,,,,,1.688702158497185e+18,216.14518510742187,-29.19703941345215,39.54263916015625,-5.780359935760498,1.688702158497185e+18,216.14518510742187,-283.7378356933594,135.00763854980468,-138.99216003417968,1.6887021585012593e+18,216.1492593994141,0.650908887386322,-0.719862163066864,0.0006900927983224,0.2409150823950767,-1.67414790391922,1.2133428454399109,-1.120473861694336
6.2,1.688702158544508e+18,216.19250797526044,-3.746309359868368,6.5486758550008135,0.2415455977121988,1.688702158544508e+18,216.19250797526044,-3.7473596731821694,-2.8323043982187905,3.2239297231038413,1.688702158544508e+18,216.19250797526044,-0.0068963781620065,-9.363475799560549,2.9196967283884683,1.6887021585531697e+18,216.20116959635416,1.425403118133545,-0.1405499130487442,0.4729624092578888,1.6887021585531697e+18,216.20116959635416,1.4242323239644368,-0.1358666072289148,0.4751513501008351,,,,,,,,,,,,1.6887021585471823e+18,216.19518247070312,-31.473559188842778,38.1859992980957,-2.2618799448013305,1.6887021585471823e+18,216.19518247070312,-286.01434936523435,133.6509979248047,-135.4736755371094,1.688702158544508e+18,216.19250797526044,0.6702016194661459,-0.7068193952242533,-0.0156957233945528,0.2255919426679611,-1.5691654682159424,1.2682770888010662,-1.2254976431528728
6.25,1.6887021585964209e+18,216.24442106119793,-2.540435165166855,8.598565737406412,-0.529394785563151,1.6887021585964209e+18,216.24442106119793,-2.4670001367727914,-0.9423733154932658,1.8841484387715657,1.6887021585964209e+18,216.24442106119793,0.0675889675815899,-9.52343463897705,2.350855827331543,1.688702158605071e+18,216.2530712076823,0.6577491412560145,-0.810516357421875,0.4867577850818634,1.688702158605071e+18,216.2530712076823,0.6565783272186915,-0.805833081404368,0.4889467060565948,,,,,,,,,,,,1.6887021585971822e+18,216.24518232421875,-31.929840087890625,37.66383895874024,-0.5123999863862991,1.6887021585971822e+18,216.24518232421875,-286.47064208984375,133.12883605957032,-133.7241973876953,1.6887021585964209e+18,216.24442106119793,0.6825140714645386,-0.7038540641466776,-0.0254396684467792,0.195051148533821,-1.537521481513977,1.3283956448237102,-1.288622220357259
6.3,1.688702158648323e+18,216.2963229980469,-0.2244969954093296,8.763768196105957,0.3338456948598226,1.688702158648323e+18,216.2963229980469,-0.1451645797739426,-0.77208411693573,2.767897526423136,1.688702158648323e+18,216.2963229980469,0.0734863591690857,-9.51834774017334,2.37136443456014,1.688702158656977e+18,216.3049768066406,-0.4433354586362839,-0.3468696475028991,-0.3118976019322872,1.688702158656977e+18,216.3049768066406,-0.4444553752740224,-0.3421863615512848,-0.3097595795989036,,,,,,,,,,,,1.6887021586471818e+18,216.29518178710936,-32.517880249023435,37.20267944335937,-0.9149999856948852,1.6887021586471818e+18,216.29518178710936,-287.0586730957031,132.6676788330078,-134.12679748535157,1.688702158648323e+18,216.2963229980469,0.6858607729276022,-0.703977127869924,-0.0123689517689247,0.1839364767074584,-1.535106102625529,1.326162854830424,-1.3258586327234905
6.35,1.68870215870023e+18,216.34822998046872,-0.3548450072606404,5.127514839172363,-0.977483828862508,1.68870215870023e+18,216.34822998046872,-0.8927222490310669,-4.237290104230245,1.979263146718343,1.68870215870023e+18,216.34822998046872,-0.5437232653299967,-9.34730052947998,2.8940595785776773,1.6887021587088783e+18,216.35687833658855,-2.03733742237091,-4.055534402529399,-0.7532986203829447,1.6887021587088783e+18,216.35687833658855,-2.0385591189066568,-4.050800204277039,-0.7511096994082133,,,,,,,,,,,,1.6887021586971855e+18,216.34518549804687,-31.122199630737303,38.100599670410155,-3.4769999027252196,1.6887021586971855e+18,216.34518549804687,-285.6629943847656,133.5655975341797,-136.6887939453125,1.68870215870023e+18,216.34822998046872,0.6627559661865234,-0.7252431710561117,0.0235585928943085,0.1825879414876301,-1.742634375890096,1.263826568921407,-1.170914093653361
6.4,1.6887021587521334e+18,216.40013354492189,23.073111534118652,-17.43148422241211,-0.6436877250671387,1.6887021587521334e+18,216.40013354492189,22.080170313517257,-26.447270075480144,3.1886355678240457,1.6887021587521334e+18,216.40013354492189,-0.9987880190213522,-8.998281478881836,3.7696358362833657,1.688702158752135e+18,216.40013488769532,-2.427731156349182,-4.725653529167175,2.385886907577514,1.688702158752135e+18,216.40013488769532,-2.4288002252578735,-4.72107195854187,2.388101279735565,1.6887021587280911e+18,216.3760910644531,0.0,0.0,0.9355418682098388,7.039999961853027,1.5161893367767334,137.8754425048828,43.5,-122.7552222,49.1894142,1.6887021587471826e+18,216.3951825195313,-29.065279388427733,36.97575988769531,-14.19103946685791,1.6887021587471826e+18,216.3951825195313,-283.6060729980469,132.44075622558594,-147.40283813476563,1.6887021587521334e+18,216.40013354492189,0.6595232089360555,-0.7237343390782675,0.1599679614106813,0.1197347715497016,-1.8286911249160769,1.1613219181696577,-1.3712018728256226
6.45,1.6887021588040376e+18,216.45203751627605,2.837390462557474,-7.10974915822347,2.857492208480835,1.6887021588040376e+18,216.45203751627605,1.717249075571696,-16.01316769917806,6.921239535013835,1.6887021588040376e+18,216.45203751627605,-1.125987450281779,-8.88591448465983,4.0010597705841064,1.6887021587953876e+18,216.44338736979168,-0.0225511093934377,0.2414954304695129,-0.5674938224256039,1.6887021587953876e+18,216.44338736979168,-0.0236201186974843,0.2461278239885967,-0.5653557802240053,,,,,,,,,,,,1.688702158797181e+18,216.4451810546875,-28.34303970336914,34.5650390625,-20.715599822998048,1.688702158797181e+18,216.4451810546875,-282.8838317871094,130.03003540039063,-153.92739562988282,1.6887021588040376e+18,216.45203751627605,0.656689981619517,-0.7210186719894409,0.1924254347880681,0.1079205324252445,-1.8430183331171672,1.132861336072286,-1.4210923512776692
6.5,1.6887021588559465e+18,216.50394661458333,-2.169412136077881,0.4028731981913249,2.4062403043111167,1.6887021588559465e+18,216.50394661458333,-3.191826025644938,-8.515058914820353,6.46381155649821,1.6887021588559465e+18,216.50394661458333,-1.0282599925994873,-8.9004275004069,3.9948836962382,1.6887021588472955e+18,216.49529532877605,0.4792746802171071,3.0715831915537515,-1.0650944312413533,1.6887021588472955e+18,216.49529532877605,0.4781547586123149,3.076164642969767,-1.06295641263326,,,,,,,,,,,,1.688702158847184e+18,216.4951842285156,-28.82127990722656,36.33647918701172,-17.533839607238768,1.688702158847184e+18,216.4951842285156,-283.36207275390626,131.80147705078124,-150.74563598632812,1.6887021588559465e+18,216.50394661458333,0.6500551104545593,-0.7304166754086813,0.1348925257722536,0.1589544713497161,-1.8204634189605713,1.1364976565043132,-1.2862897316614788
6.55,1.6887021589078515e+18,216.55585131835937,-0.881705641746521,8.089175542195639,-2.57880433400472,1.6887021589078515e+18,216.55585131835937,-1.9495522578557332,-0.8811569611231486,1.3475579420725503,1.6887021589078515e+18,216.55585131835937,-1.0736926396687825,-8.952828089396158,3.863674799601237,1.6887021588991972e+18,216.5471971028646,0.5424992442131042,1.2508992950121562,-0.5605197648207346,1.6887021588991972e+18,216.5471971028646,0.5413793325424194,1.2556335131327312,-0.5583308339118958,,,,,,,,,,,,1.6887021588971802e+18,216.545180078125,-29.165319442749023,38.13476028442383,-12.783159828186037,1.6887021588971802e+18,216.545180078125,-283.70611572265625,133.59975891113282,-145.99495544433594,1.6887021589078515e+18,216.55585131835937,0.6415799856185913,-0.7384007175763448,0.0947001352906226,0.1846742630004882,-1.8394293387730916,1.149496873219808,-1.1719551881154378
6.6,1.6887021589511055e+18,216.59910571289063,-0.8926330208778381,2.3360342979431152,0.5592786073684692,1.6887021589511055e+18,216.59910571289063,-2.064407765865326,-6.57547664642334,4.588237404823303,1.6887021589511055e+18,216.59910571289063,-1.177620768547058,-8.894006252288818,3.96627140045166,1.6887021589511055e+18,216.5991055501302,-1.0394381439934175,0.1880955869176735,-0.3066543539365132,1.6887021589511055e+18,216.5991055501302,-1.0405580373480916,0.1927279781860609,-0.3044654230276742,,,,,,,,,,,,1.6887021589471862e+18,216.59518618164063,-28.91887969970703,38.60323944091797,-12.275639724731445,1.6887021589471862e+18,216.59518618164063,-283.4596740722656,134.0682373046875,-145.48743896484376,1.6887021589511055e+18,216.59910571289063,0.6343914568424225,-0.7424666285514832,0.0908691361546515,0.1949242055416106,-1.856934368610382,1.1352466940879822,-1.133796751499176
