seconds_elapsed_rounded,accelerometer_time,accelerometer_seconds_elapsed,accelerometer_z,accelerometer_y,accelerometer_x,accelerometeruncalibrated_time,accelerometeruncalibrated_seconds_elapsed,accelerometeruncalibrated_z,accelerometeruncalibrated_y,accelerometeruncalibrated_x,gravity_time,gravity_seconds_elapsed,gravity_z,gravity_y,gravity_x,gyroscope_time,gyroscope_seconds_elapsed,gyroscope_z,gyroscope_y,gyroscope_x,gyroscopeuncalibrated_time,gyroscopeuncalibrated_seconds_elapsed,gyroscopeuncalibrated_z,gyroscopeuncalibrated_y,gyroscopeuncalibrated_x,location_time,location_seconds_elapsed,location_bearingAccuracy,location_speedAccuracy,location_verticalAccuracy,location_horizontalAccuracy,location_speed,location_bearing,location_altitude,location_longitude,location_latitude,magnetometer_time,magnetometer_seconds_elapsed,magnetometer_z,magnetometer_y,magnetometer_x,magnetometeruncalibrated_time,magnetometeruncalibrated_seconds_elapsed,magnetometeruncalibrated_z,magnetometeruncalibrated_y,magnetometeruncalibrated_x,orientation_time,orientation_seconds_elapsed,orientation_qz,orientation_qy,orientation_qx,orientation_qw,orientation_roll,orientation_pitch,orientation_yaw
0.0,1.6888757976749294e+18,120.00492928059896,1.6774873733520508,-5.0436045328776045,-5.959739685058594,1.6888757976749294e+18,120.00492928059896,-1.4115659793217976,-14.201003710428871,-4.171686887741089,1.6888757976749294e+18,120.00492928059896,-3.1118547916412354,-9.141654014587402,1.7233394384384155,1.6888757976749294e+18,120.00492928059896,0.2186388472716013,0.5228497336308161,0.7291694829861323,1.6888757976749294e+18,120.00492928059896,0.2179261843363444,0.5274312595526377,0.731612945596377,,,,,,,,,,,,1.6888757976659968e+18,119.99599682617188,17.41183967590332,38.56175918579102,-28.30399932861328,1.6888757976659968e+18,119.99599682617188,-238.21475524902343,133.41675720214843,-161.4303955078125,1.6888757976749294e+18,120.00492928059896,-0.4362373054027557,0.4950098097324371,-0.6430099010467529,0.3887947897116343,-2.634554386138916,1.1996490955352783,-2.180200735727946
0.05,1.688875797726832e+18,120.0568319498698,2.4688995679219565,-6.718944867451985,-1.4869190255800884,1.688875797726832e+18,120.0568319498698,0.2656032641728719,-16.18006706237793,-0.0979063312212626,1.688875797726832e+18,120.0568319498698,-2.226097822189331,-9.445377031962076,1.3242991765340169,1.688875797726832e+18,120.0568319498698,1.1708759466807048,0.7060075402259827,3.1017700831095376,1.688875797726832e+18,120.0568319498698,1.1702142159144084,0.7106907864411672,3.10421351591746,,,,,,,,,,,,1.688875797715995e+18,120.04599477539064,14.84983959197998,40.296600341796875,-27.310919570922852,1.688875797715995e+18,120.04599477539064,-240.7767578125,135.15159912109374,-160.43731994628905,1.688875797726832e+18,120.0568319498698,-0.452895720799764,0.4902077615261078,-0.6104861299196879,0.4254909654458363,-2.5902397632598877,1.3025774161020915,-2.215978463490804
0.1,1.6888757977700687e+18,120.10006884765625,-7.076675653457642,-10.984044075012209,1.0472189784049988,1.6888757977700687e+18,120.10006884765625,-7.761718511581421,-20.760726928710938,1.697707623243332,1.6888757977700687e+18,120.10006884765625,-0.7078443765640259,-9.760937690734863,0.5857751071453094,1.6888757977700687e+18,120.10006884765625,2.415895700454712,0.1352302730083466,3.303712010383606,1.6888757977700687e+18,120.10006884765625,2.4152848720550537,0.1398881673812867,3.306079149246216,,,,,,,,,,,,1.6888757977659894e+18,120.09598935546872,5.472919940948486,44.349439239501955,-24.03155937194824,1.6888757977659894e+18,120.09598935546872,-250.15367736816407,139.20444030761718,-157.1579559326172,1.6888757977700687e+18,120.10006884765625,-0.4839393496513366,0.4881563633680343,-0.5454938411712646,0.4792051762342453,-2.4404746294021606,1.47680401802063,-2.324589252471924
0.15,1.6888757978133225e+18,120.143322265625,-2.413180728753408,-11.63052749633789,7.931870142618815,1.6888757978133225e+18,120.143322265625,-1.612762485941251,-21.40659014383952,8.261220296223959,1.6888757978133225e+18,120.143322265625,0.7776167790095011,-9.76031748453776,0.264636514087518,1.6888757978133225e+18,120.143322265625,-0.411366860071818,-2.2264510790506997,3.691153287887573,1.6888757978133225e+18,120.143322265625,-0.4120795130729675,-2.2217678229014077,3.6934948762257895,,,,,,,,,,,,1.688875797815989e+18,120.14598901367188,-1.307839959859848,46.06719970703125,-22.108839797973634,1.688875797815989e+18,120.14598901367188,-256.93442993164064,140.9221954345703,-155.23523559570313,1.6888757978133225e+18,120.143322265625,-0.4906822542349497,0.4393163820107778,-0.5163469314575195,0.5464425683021545,-0.3719806323448817,1.4862327575683594,1.8096667130788169
0.2,1.6888757978652204e+18,120.19522037760416,-2.9782811800638833,-4.666659355163574,3.07720692952474,1.6888757978652204e+18,120.19522037760416,-0.7030909856160482,-14.20040512084961,3.814159194628397,1.6888757978652204e+18,120.19522037760416,2.252388834953308,-9.518000602722168,0.672238826751709,1.6888757978652204e+18,120.19522037760416,0.935438300172488,-3.983452320098877,2.921513875325521,1.6888757978652204e+18,120.19522037760416,0.934725652138392,-3.9788199265797934,2.923957427342733,,,,,,,,,,,,1.6888757978659924e+18,120.19599228515628,-5.02883996963501,45.225398254394534,-22.630999755859374,1.6888757978659924e+18,120.19599228515628,-260.6554382324219,140.0803985595703,-155.7573974609375,1.6888757978652204e+18,120.19522037760416,-0.4825491607189178,0.346961498260498,-0.5139626860618591,0.6173216104507446,-0.2985036075115203,1.3281407753626506,1.5637547969818115
0.25,1.688875797917123e+18,120.2471231282552,-7.572973251342773,9.26218605041504,-0.9033007025718688,1.688875797917123e+18,120.2471231282552,-3.866601904233297,0.1732802192370096,-0.3950151602427165,1.688875797917123e+18,120.2471231282552,3.683570146560669,-9.073160489400228,0.4435720443725586,1.688875797917123e+18,120.2471231282552,0.9740246534347534,-1.9451985359191897,3.1158199310302734,1.688875797917123e+18,120.2471231282552,0.9733628233273824,-1.9405661821365356,3.118263483047486,,,,,,,,,,,,1.6888757979159908e+18,120.24599091796874,-9.376919651031494,45.60847854614258,-20.46671943664551,1.6888757979159908e+18,120.24599091796874,-265.003515625,140.4634796142578,-153.5931182861328,1.688875797917123e+18,120.2471231282552,-0.4509899119536082,0.2806457976500193,-0.482846478621165,0.6957483291625977,-0.1225409110387165,1.1824775139490764,1.2335278590520222
0.3,1.6888757979690268e+18,120.29902669270832,-10.983078638712565,13.475397745768229,-0.2408506671587626,1.6888757979690268e+18,120.29902669270832,-6.412565390268962,4.85304315884908,0.9734800113365054,1.6888757979690268e+18,120.29902669270832,4.5477118492126465,-8.606609662373861,1.1496172149976094,1.6888757979690268e+18,120.29902669270832,-0.3694207668304443,-4.277991056442261,1.7927876710891724,1.6888757979690268e+18,120.29902669270832,-0.3701334247986476,-4.273409605026245,1.7951802412668865,,,,,,,,,,,,1.6888757979659988e+18,120.29599887695312,-11.677839851379394,44.895999145507815,-21.318279266357425,1.6888757979659988e+18,120.29599887695312,-267.30443115234374,139.7509979248047,-154.444677734375,1.6888757979690268e+18,120.29902669270832,-0.4226688245932261,0.1937286754449207,-0.4792485038439433,0.7435730695724487,-0.2453035314877827,1.0707234541575117,1.1789101362228394
0.35,1.6888757980209272e+18,120.35092724609376,-4.254076798756917,8.638563632965088,-1.531636079152425,1.6888757980209272e+18,120.35092724609376,0.4889334241549174,0.2675973375638326,0.5661019484202067,1.6888757980209272e+18,120.35092724609376,4.720208803812663,-8.355221112569174,2.0330245097478232,1.6888757980209272e+18,120.35092724609376,0.1607593726366758,-2.2228877544403076,0.3696243812640508,1.6888757980209272e+18,120.35092724609376,0.1600975965460141,-2.218255360921224,0.3720169266064961,,,,,,,,,,,,1.6888757980159918e+18,120.34599184570314,-9.76487979888916,44.05663909912109,-23.484999465942384,1.6888757980159918e+18,120.34599184570314,-265.3914733886719,138.91163635253906,-156.6114013671875,1.6888757980209272e+18,120.35092724609376,-0.3864525655905406,0.1144280458490053,-0.4962201217810313,0.7688521941502889,-0.4072661598523457,1.019156853357951,1.1612436771392822
0.4,1.6888757980728271e+18,120.40282731119792,2.800924301147461,4.620361328125,2.122082471847534,1.6888757980728271e+18,120.40282731119792,7.041478792826335,-4.034498453140259,4.102693955103557,1.6888757980728271e+18,120.40282731119792,4.217753012975057,-8.639114697774252,1.915898044904073,1.6888757980728271e+18,120.40282731119792,1.5355116128921509,-0.6867143412431082,-1.9546160499254863,1.6888757980728271e+18,120.40282731119792,1.5347989201545715,-0.6821328600247701,-1.952223519484202,,,,,,,,,,,,1.6888757980659963e+18,120.39599663085936,-6.836879920959473,44.89843902587891,-23.209279251098632,1.6888757980659963e+18,120.39599663085936,-262.4634704589844,139.75343627929686,-156.33567810058594,1.6888757980728271e+18,120.40282731119792,-0.3521611988544464,0.1116825615366299,-0.5219070315361023,0.7685779134432474,-0.4265578786532083,1.0785165230433147,1.11672310034434
0.45,1.6888757981247273e+18,120.45472729492188,6.756162166595459,-11.104030768076578,5.880473772684733,1.6888757981247273e+18,120.45472729492188,10.295318603515623,-20.043279488881428,7.965905825297038,1.6888757981247273e+18,120.45472729492188,3.516355117162069,-8.923503557840982,2.020718574523926,1.6888757981247273e+18,120.45472729492188,-1.075682818889618,-2.35676900545756,0.60012420018514,1.6888757981247273e+18,120.45472729492188,-1.0763445595900218,-2.3520857294400535,0.602567712465922,,,,,,,,,,,,1.6888757981159972e+18,120.44599711914064,-0.4489599674940108,46.67475891113281,-21.55251998901367,1.6888757981159972e+18,120.44599711914064,-256.0755554199219,141.52975769042968,-154.67891845703124,1.6888757981247273e+18,120.45472729492188,-0.3239125609397887,0.1019347632924715,-0.5565800269444784,0.7577650547027588,-0.5186731616655985,1.1434770027796428,1.1451886892318726
0.5,1.6888757981766244e+18,120.50662426757812,6.187625567118327,0.2415580749511718,7.646973768870036,1.6888757981766244e+18,120.50662426757812,10.18285632133484,-8.224929253260294,10.717652002970375,1.6888757981766244e+18,120.50662426757812,3.972429196039835,-8.45074208577474,3.005964914957682,1.6888757981766244e+18,120.50662426757812,0.0717257559299468,-1.745292901992798,0.7857254346211752,1.6888757981766244e+18,120.50662426757812,0.0710130880276362,-1.740660548210144,0.7881179849306742,,,,,,,,,,,,1.6888757981659963e+18,120.49599643554689,-0.1561599910259246,45.10095901489258,-24.051079559326173,1.6888757981659963e+18,120.49599643554689,-255.7827575683594,139.95595703125,-157.17747497558594,1.6888757981766244e+18,120.50662426757812,-0.2994058430194855,0.0126896387276549,-0.5453436374664307,0.7827283143997192,-0.6484771569569906,1.0380897521972656,1.1100882689158122
0.55,1.6888757982198769e+18,120.54987683105468,-17.972650051116943,-11.439847946166992,5.322362184524536,1.6888757982198769e+18,120.54987683105468,-13.955838680267334,-19.92862367630005,8.29860806465149,1.6888757982198769e+18,120.54987683105468,3.994009852409363,-8.47303056716919,2.9115322828292847,1.6888757982198769e+18,120.54987683105468,-0.8595637828111649,3.198261260986328,-0.1366047263145446,1.6888757982198769e+18,120.54987683105468,-0.8602509796619415,3.2029192447662354,-0.1341612786054611,,,,,,,,,,,,1.6888757982159926e+18,120.54599252929688,-1.1370399743318558,44.91063995361328,-24.458559799194337,1.6888757982159926e+18,120.54599252929688,-256.7636413574219,139.76563720703126,-157.5849578857422,1.6888757982198769e+18,120.54987683105468,-0.3267780542373657,0.0374005297198891,-0.5431149899959564,0.7724144756793976,-0.6307017207145691,1.042511761188507,1.1708534955978394
0.6,1.6888757982631268e+18,120.59312679036458,-5.305024067560832,-2.182585080464681,-6.377497434616089,1.6888757982631268e+18,120.59312679036458,-1.8590237547953925,-11.121440887451172,-4.1940198342005415,1.6888757982631268e+18,120.59312679036458,3.423198938369751,-8.923110644022623,2.118764042854309,1.6888757982631268e+18,120.59312679036458,1.7369952996571858,2.815019726753235,-3.4752632776896157,1.6888757982631268e+18,120.59312679036458,1.7363336086273191,2.8197540044784546,-3.4728198051452637,,,,,,,,,,,,1.6888757982659948e+18,120.59599497070312,-0.9418399825692176,45.12779922485352,-22.501679611206058,1.6888757982659948e+18,120.59599497070312,-256.5684417724609,139.98279418945313,-155.62807922363282,1.6888757982631268e+18,120.59312679036458,-0.3345143596331278,0.1059434140721956,-0.5594680905342102,0.7499067187309265,-0.5499476790428162,1.146639307339986,1.1986368497212727
0.65,1.68887579831502e+18,120.64501985677084,-7.802698294321696,1.1284248034159343,-2.6660192807515464,1.68887579831502e+18,120.64501985677084,-6.390032768249512,-8.533204555511475,-1.6634105642636616,1.68887579831502e+18,120.64501985677084,1.3898641069730129,-9.64588419596354,0.9378952781359354,1.68887579831502e+18,120.64501985677084,0.061951911697785,5.539682388305664,-4.8078657786051435,1.68887579831502e+18,120.64501985677084,0.0612392624219257,5.544314861297607,-4.805473248163859,,,,,,,,,,,,1.6888757983159967e+18,120.64599677734375,4.936119794845581,46.3843994140625,-19.912839889526367,1.6888757983159967e+18,120.64599677734375,-250.6904724121094,141.23939819335936,-153.03923645019532,1.68887579831502e+18,120.64501985677084,-0.3569425145785014,0.2535212188959121,-0.6028000315030416,0.6649335622787476,-0.6499744653701782,1.3956342935562134,1.547315001487732
0.7,1.6888757983669266e+18,120.69692651367188,-4.154639999071757,-3.279733339945475,-1.5196651617685957,1.6888757983669266e+18,120.69692651367188,-4.283950249354045,-13.017752647399902,-0.1988036880890528,1.6888757983669266e+18,120.69692651367188,-0.1521116097768148,-9.72227414449056,1.2561480204264324,1.6888757983669266e+18,120.69692651367188,-0.620842715104421,2.3583470384279885,-2.691115935643514,1.6888757983669266e+18,120.69692651367188,-0.6215044657389323,2.363030473391215,-2.6886724630991616,,,,,,,,,,,,1.6888757983659935e+18,120.695993359375,8.654679679870606,43.89071884155273,-23.167799758911137,1.6888757983659935e+18,120.695993359375,-246.97191467285157,138.74571533203124,-156.29419860839843,1.6888757983669266e+18,120.69692651367188,-0.4157425959904988,0.345312754313151,-0.6231005191802979,0.5649650692939758,-1.6778220335642495,1.4369152386983235,0.7228858470916748
0.75,1.688875798418823e+18,120.74882291666668,4.353275497754415,3.5222816467285156,0.7200890382130941,1.688875798418823e+18,120.74882291666668,2.895714203516642,-6.13140869140625,1.8101703176895776,1.688875798418823e+18,120.74882291666668,-1.4803626537322998,-9.637945175170898,1.0253677765528362,1.688875798418823e+18,120.74882291666668,0.7044294476509094,-0.058744877576828,-2.459750771522522,1.688875798418823e+18,120.74882291666668,0.7038185596466064,-0.0540615816911061,-2.45730721950531,,,,,,,,,,,,1.6888757984160005e+18,120.74600034179689,14.908399772644042,42.55359878540039,-23.49475975036621,1.6888757984160005e+18,120.74600034179689,-240.71819458007812,137.40859680175782,-156.62115478515625,1.688875798418823e+18,120.74882291666668,-0.3840023279190063,0.3796064654986064,-0.6566270987192789,0.5263024965922037,-2.518847386042277,1.384249925613403,-2.617891311645508
0.8,1.6888757984707192e+18,120.80071907552085,5.745106061299642,5.308405717213948,0.5902942220369974,1.6888757984707192e+18,120.80071907552085,3.703291734059652,-4.245864391326904,1.639482299486796,1.6888757984707192e+18,120.80071907552085,-2.064615845680237,-9.538524945576986,0.9844745993614196,1.6888757984707192e+18,120.80071907552085,0.2632320125897725,3.7623190879821777,-1.1888964573542278,1.6888757984707192e+18,120.80071907552085,0.2625702520211537,3.766951402028402,-1.1864530245463054,,,,,,,,,,,,1.6888757984659948e+18,120.79599467773436,16.311399841308592,42.246159362792966,-23.57771987915039,1.6888757984659948e+18,120.79599467773436,-239.31519470214843,137.10115661621094,-156.70411682128906,1.6888757984707192e+18,120.80071907552085,-0.4021061758200328,0.4340505103270213,-0.6452824870745341,0.4823024868965149,-2.696962277094523,1.335367242495219,-2.310039520263672
0.85,1.688875798522626e+18,120.8526258951823,-1.2390684286753335,0.8788191477457682,-4.778063456217448,1.688875798522626e+18,120.8526258951823,-3.6364920934041343,-8.52542781829834,-3.2279178301493325,1.688875798522626e+18,120.8526258951823,-2.4202250639597573,-9.38850180308024,1.4854321877161665,1.688875798522626e+18,120.8526258951823,-0.6761260231335958,1.528130306551854,-1.0139344930648804,1.688875798522626e+18,120.8526258951823,-0.6767368714014689,1.5328136545916398,-1.0114910403887432,1.6888757984966764e+18,120.82667626953123,0.0,0.0,1.59466290473938,6.632999897003174,1.7809596061706543,75.4825668334961,39.10000228881836,-122.7502471,49.1905873,1.6888757985159946e+18,120.84599462890624,14.366719627380371,41.18963851928711,-26.483759307861327,1.6888757985159946e+18,120.84599462890624,-241.25987243652344,136.0446350097656,-159.61015625,1.688875798522626e+18,120.8526258951823,-0.4418369829654693,0.4756629367669423,-0.6300763289133707,0.4259073535601298,-2.590813716252645,1.277049899101257,-2.26167360941569
0.9,1.688875798574519e+18,120.90451912434897,7.095028082529704,-2.5347067515055337,-2.9971859455108643,1.688875798574519e+18,120.90451912434897,4.047459443410237,-11.693923632303871,-1.156331519285838,1.688875798574519e+18,120.90451912434897,-3.0703700383504233,-9.143471717834473,1.776140809059143,1.688875798574519e+18,120.90451912434897,-0.6375397046407064,-0.0012217362721761,-1.492903749148051,1.688875798574519e+18,120.90451912434897,-0.6382014652093252,0.0034615794817606,-1.490511178970337,,,,,,,,,,,,1.6888757985659932e+18,120.895993359375,16.75791988372803,39.252278900146486,-28.4455192565918,1.6888757985659932e+18,120.895993359375,-238.8686767578125,134.107275390625,-161.57191467285156,1.688875798574519e+18,120.90451912434897,-0.4321267207463582,0.4818232754866282,-0.6513179937998453,0.3959311048189799,-2.615498701731364,1.2006767988204958,-2.2326162656148276
0.95,1.688875798626418e+18,120.95641796875,1.9189575513203936,-5.704697608947754,-6.62999693552653,1.688875798626418e+18,120.95641796875,-1.181456168492635,-14.799209276835125,-4.552145719528198,1.688875798626418e+18,120.95641796875,-3.123215119043986,-9.078766504923502,2.013137857119242,1.688875798626418e+18,120.95641796875,0.0246891286224126,0.1882483114798864,0.2275982052087783,1.688875798626418e+18,120.95641796875,0.024027365570267,0.1928806950648626,0.2300416777531306,,,,,,,,,,,,1.6888757986159898e+18,120.94598959960938,17.499679565429688,37.600399780273435,-29.46787910461426,1.6888757986159898e+18,120.94598959960938,-238.12691345214844,132.4553985595703,-162.59427490234376,1.688875798626418e+18,120.95641796875,-0.4402955571810404,0.4820550580819447,-0.6532404820124308,0.3834404349327087,-2.568139632542928,1.1822235186894734,-2.2608376344045005
1.0,1.6888757986696648e+18,120.9996649169922,2.767714500427246,-6.616682529449463,-4.227757692337036,1.6888757986696648e+18,120.9996649169922,0.137587308883667,-15.91197156906128,-2.4269204139709473,1.6888757986696648e+18,120.9996649169922,-2.6529287099838257,-9.27954387664795,1.7361237406730652,1.6888757986696648e+18,120.9996649169922,1.003804296255112,1.026711791753769,2.3296873569488525,1.6888757986696648e+18,120.9996649169922,1.003193438053131,1.0313696265220642,2.3320544958114624,,,,,,,,,,,,1.688875798665991e+18,120.99599086914064,16.050319290161134,38.95947952270508,-29.026239776611327,1.688875798665991e+18,120.99599086914064,-239.57627563476564,133.8144744873047,-162.15263977050782,1.6888757986696648e+18,120.9996649169922,-0.4502559900283813,0.485969677567482,-0.6315615177154541,0.4025211036205292,-2.55867338180542,1.2413658499717712,-2.252987265586853
1.05,1.6888757987129193e+18,121.04291959635415,-3.4890356063842773,-8.193909327189127,2.8292489647865295,1.6888757987129193e+18,121.04291959635415,-4.795017162958781,-17.84606997172038,4.067997793356578,1.6888757987129193e+18,121.04291959635415,-1.328782955805461,-9.636415481567385,1.1740353902180989,1.6888757987129193e+18,121.04291959635415,1.6698001623153689,-0.7017314036687216,3.1496721108754477,1.6888757987129193e+18,121.04291959635415,1.6690874497095745,-0.6970481276512146,3.1521155834198,,,,,,,,,,,,1.688875798715988e+18,121.04598793945313,8.981639671325684,42.45355911254883,-26.622838973999023,1.688875798715988e+18,121.04598793945313,-246.64495544433595,137.30855712890624,-159.74924011230468,1.6888757987129193e+18,121.04291959635415,-0.4732934137185414,0.4753279288609822,-0.5843927065531412,0.455907533566157,-2.403580109278361,1.3885148763656616,-2.4008981386820474
1.1,1.6888757987648156e+18,121.0948155110677,-0.4958362678686778,-9.527352650960289,6.148109118143718,1.6888757987648156e+18,121.0948155110677,-0.2011965059985717,-19.322441736857098,6.709275404612224,1.6888757987648156e+18,121.0948155110677,0.2718382477760315,-9.779343922932943,0.4964525997638702,1.6888757987648156e+18,121.0948155110677,0.5051346421241761,-1.0205013155937197,3.650836149851481,1.6888757987648156e+18,121.0948155110677,0.5044219891230265,-1.0159197747707367,3.653228759765625,,,,,,,,,,,,1.6888757987659912e+18,121.09599111328126,3.4989598989486694,45.301039123535155,-23.192199325561525,1.6888757987659912e+18,121.09599111328126,-252.1276397705078,140.15603637695312,-156.31859741210937,1.6888757987648156e+18,121.0948155110677,-0.4736417134602864,0.4334933261076609,-0.5456939140955607,0.5377645095189413,-1.218411405881246,1.4951743284861247,0.5181156794230144
1.15,1.688875798816718e+18,121.14671834309895,-5.292508085568746,-5.347744941711426,4.974100351333618,1.688875798816718e+18,121.14671834309895,-3.5373895168304443,-14.991033871968588,5.751946846644084,1.688875798816718e+18,121.14671834309895,1.7323172092437744,-9.627543767293297,0.7131329774856567,1.688875798816718e+18,121.14671834309895,0.2837469180425008,-3.5286630988121033,2.2615758180618286,1.688875798816718e+18,121.14671834309895,0.2830851276715596,-3.5240307450294495,2.2640193700790405,,,,,,,,,,,,1.6888757988159898e+18,121.14598969726562,-2.6205599308013916,45.40595932006836,-23.341039657592773,1.6888757988159898e+18,121.14598969726562,-258.2471557617188,140.26095886230468,-156.46743774414062,1.688875798816718e+18,121.14671834309895,-0.4852439959843953,0.368202010790507,-0.5248483220736185,0.5934880177179972,-0.3935030698776245,1.3783607880274455,1.69715150197347
1.2,1.688875798868616e+18,121.19861572265624,-5.6707121928532915,5.27546485265096,-1.448948601881663,1.688875798868616e+18,121.19861572265624,-2.8169504006703696,-4.105285982290904,-0.7786643852790197,1.688875798868616e+18,121.19861572265624,2.830960194269816,-9.365005493164062,0.6055707335472107,1.688875798868616e+18,121.19861572265624,1.0086912115414937,-2.1870503425598145,3.0079004764556885,1.688875798868616e+18,121.19861572265624,1.0079785585403442,-2.182468891143799,3.0102930068969727,,,,,,,,,,,,1.68887579886599e+18,121.19599028320312,-4.128479814529419,45.82563858032226,-21.908759307861327,1.68887579886599e+18,121.19599028320312,-259.755078125,140.68063659667968,-155.0351593017578,1.688875798868616e+18,121.19861572265624,-0.4445586601893107,0.2977014183998108,-0.5164925654729208,0.6680721044540405,-0.2179492910703023,1.2704933484395344,1.3373778661092122
1.25,1.68887579892052e+18,121.25052018229168,-10.107897758483888,10.601479848225912,-0.3169274330139159,1.68887579892052e+18,121.25052018229168,-6.1822560628255205,1.6311074495315552,0.6025925079981486,1.68887579892052e+18,121.25052018229168,3.9028402964274087,-8.95462703704834,0.8548064629236857,1.68887579892052e+18,121.25052018229168,0.1705841248234112,-3.372434218724569,2.213724692662557,1.68887579892052e+18,121.25052018229168,0.1698714445034662,-3.3678019046783447,2.216168244679769,,,,,,,,,,,,1.6888757989159962e+18,121.24599604492188,-7.51763973236084,45.9403190612793,-20.847359466552735,1.6888757989159962e+18,121.24599604492188,-263.14423828125,140.79531860351562,-153.9737579345703,1.68887579892052e+18,121.25052018229168,-0.4170929292837779,0.2272810240586598,-0.4988361299037933,0.7243619759877523,-0.2141915808121363,1.150784611701965,1.1837504307428997
1.3,1.6888757989724257e+18,121.3024255371094,-6.294118404388428,10.302217483520508,-0.9083890318870544,1.6888757989724257e+18,121.3024255371094,-1.8360925515492756,1.6737794478734334,0.689731111129125,1.6888757989724257e+18,121.3024255371094,4.435224374135335,-8.612692515055338,1.533406654993693,1.6888757989724257e+18,121.3024255371094,0.31938070555528,-2.926706314086914,1.3796900709470112,1.6888757989724257e+18,121.3024255371094,0.3186680376529693,-2.9221247831980386,1.382133523623149,,,,,,,,,,,,1.688875798965995e+18,121.29599506835936,-8.225239849090576,45.3034782409668,-21.786759185791016,1.688875798965995e+18,121.29599506835936,-263.8518310546875,140.15847473144532,-154.9131591796875,1.6888757989724257e+18,121.3024255371094,-0.3775407075881958,0.1459854046503702,-0.5023186206817627,0.7637667854626974,-0.3327522973219554,1.0717079242070515,1.1168469587961831
1.35,1.6888757990243246e+18,121.35432454427082,2.681576410929362,7.355815569559733,1.427422245343526,1.6888757990243246e+18,121.35432454427082,7.099504788716634,-1.272383414208889,3.132803122202555,1.6888757990243246e+18,121.35432454427082,4.395126978556315,-8.612453778584799,1.6406673987706502,1.6888757990243246e+18,121.35432454427082,1.2007574439048767,-1.0066549976666768,-1.0560332586367924,1.6888757990243246e+18,121.35432454427082,1.2000447710355122,-1.0020735462506611,-1.053640698393186,1.6888757990156746e+18,121.34567456054688,0.0,0.0,1.6040582656860352,6.673999786376953,1.7765929698944092,74.3989028930664,39.10000228881836,-122.7502316,49.190592,1.6888757990159954e+18,121.34599541015623,-6.9539999008178714,45.92567901611328,-21.247519302368165,1.6888757990159954e+18,121.34599541015623,-262.5805969238281,140.78067626953126,-154.37391967773436,1.6888757990243246e+18,121.35432454427082,-0.3424441814422607,0.1174646367629368,-0.5119940837224325,0.7788434227307638,-0.3575138549009959,1.0719436407089231,1.04208505153656
1.4,1.6888757990762248e+18,121.406224609375,6.149294853210449,-7.220579465230306,5.856240431467692,1.6888757990762248e+18,121.406224609375,9.712666352589926,-16.257834434509277,7.419744253158569,1.6888757990762248e+18,121.406224609375,3.540570020675659,-9.021509806315104,1.498790184656779,1.6888757990762248e+18,121.406224609375,-0.263384719689687,-1.7238108317057292,-0.6698646148045858,1.6888757990762248e+18,121.406224609375,-0.2640974074602127,-1.7191784580548604,-0.6674211819966634,,,,,,,,,,,,1.6888757990659948e+18,121.39599467773436,-1.2102399468421936,47.34087982177734,-19.502919387817386,1.6888757990659948e+18,121.39599467773436,-256.8368316650391,142.1958770751953,-152.6293182373047,1.6888757990762248e+18,121.406224609375,-0.3078841070334116,0.1219753399491309,-0.5517488519350687,0.7652407685915629,-0.4005456368128459,1.1674352089564006,1.0315091609954834
1.45,1.688875799119469e+18,121.44946887207033,9.600513458251951,-9.207909107208252,5.9144861698150635,1.688875799119469e+18,121.44946887207033,13.698012828826904,-17.776877880096436,8.509475469589233,1.688875799119469e+18,121.44946887207033,4.074697256088257,-8.553223609924316,2.530275940895081,1.688875799119469e+18,121.44946887207033,-0.9731083512306212,-3.9229001998901367,3.111976623535156,1.688875799119469e+18,121.44946887207033,-0.973795548081398,-3.918318748474121,3.114343762397766,,,,,,,,,,,,1.6888757991159956e+18,121.44599555664064,-0.4147999942302703,46.377078247070315,-21.864839935302733,1.6888757991159956e+18,121.44599555664064,-256.04140014648436,141.232080078125,-154.9912353515625,1.688875799119469e+18,121.44946887207033,-0.2911098152399063,0.0355245890095829,-0.5391968190670013,0.7891688942909241,-0.555531769990921,1.0596160292625425,1.037625789642334
1.5,1.688875799162724e+18,121.49272412109376,-7.361665884653728,-4.425685087839763,6.572026252746582,1.688875799162724e+18,121.49272412109376,-2.812563419342041,-12.625728448232016,9.593823115030924,1.688875799162724e+18,121.49272412109376,4.52630074818929,-8.184298197428385,2.957083304723104,1.688875799162724e+18,121.49272412109376,-1.1172725359598796,1.3553063869476318,0.5703445126612982,1.688875799162724e+18,121.49272412109376,-1.1179343163967133,1.3599387804667156,0.5727879653374355,,,,,,,,,,,,1.688875799165997e+18,121.49599711914064,-4.030879831314087,45.213198852539065,-23.970559310913085,1.688875799165997e+18,121.49599711914064,-259.6574768066406,140.06819763183594,-157.09695739746093,1.688875799162724e+18,121.49272412109376,-0.2998922665913899,0.0058446951055278,-0.5188856323560079,0.800247331460317,-0.5793629686037699,0.9869316617647806,1.0349414745966594
1.55,1.688875799214628e+18,121.54462817382812,-3.5971274375915527,-2.202853202819824,-7.044042905171712,1.688875799214628e+18,121.54462817382812,0.7772685686747233,-10.637891133626304,-4.493122736612956,1.688875799214628e+18,121.54462817382812,4.351594607035319,-8.419292767842611,2.4862067699432373,1.688875799214628e+18,121.54462817382812,1.2871439295510452,2.2409083048502603,-2.232916076978048,1.688875799214628e+18,121.54462817382812,1.2864312808960676,2.2456424236297607,-2.2304726441701255,,,,,,,,,,,,1.688875799215995e+18,121.54599482421877,-4.238279962539673,44.73983917236328,-23.06044006347656,1.688875799215995e+18,121.54599482421877,-259.8648681640625,139.59483642578124,-156.1868408203125,1.688875799214628e+18,121.54462817382812,-0.3260043760140736,0.056146760781606,-0.5237714052200317,0.7844989697138468,-0.5162746608257294,1.0333542823791504,1.0844711462656658
1.6,1.688875799266524e+18,121.5965236002604,-9.025732199350992,0.7635642687479655,0.9990912278493246,1.688875799266524e+18,121.5965236002604,-6.57966407140096,-8.656035900115967,2.0971096754074097,1.688875799266524e+18,121.5965236002604,2.423266887664795,-9.403855005900065,1.033305009206136,1.688875799266524e+18,121.5965236002604,0.7087564071019491,4.851491769154866,-6.345413684844971,1.688875799266524e+18,121.5965236002604,0.7080437342325846,4.856124083201091,-6.342970212300618,,,,,,,,,,,,1.6888757992659968e+18,121.59599682617188,2.105720007419586,46.847998809814456,-19.458999633789062,1.6888757992659968e+18,121.59599682617188,-253.5208740234375,141.7029998779297,-152.58539733886718,1.688875799266524e+18,121.5965236002604,-0.3363947769006093,0.2007042169570922,-0.5778105854988098,0.7135151823361715,-0.4287255605061849,1.2967983484268188,1.216590404510498
1.65,1.6888757993184187e+18,121.64841886393228,-8.253086725870768,-4.48968505859375,-0.4557604591051737,1.6888757993184187e+18,121.64841886393228,-8.151150385538736,-14.242877960205078,0.7493523160616555,1.6888757993184187e+18,121.64841886393228,0.0791348627147575,-9.73744773864746,1.1403992772102356,1.6888757993184187e+18,121.64841886393228,-1.1305588483810425,4.615952332814534,-3.138676484425863,1.6888757993184187e+18,121.64841886393228,-1.1311697363853457,4.620584646860759,-3.136284033457438,,,,,,,,,,,,1.688875799315998e+18,121.64599794921874,9.759999847412107,44.466558837890624,-22.172279357910156,1.688875799315998e+18,121.64599794921874,-245.86659545898436,139.3215576171875,-155.29867553710938,1.6888757993184187e+18,121.64841886393228,-0.3921199639638265,0.3188055157661437,-0.6275651852289835,0.5909968415896097,-1.4709689617156982,1.4496417045593262,2.5272607803344727
1.7,1.6888757993703206e+18,121.7003204752604,2.792119880517324,1.1974401473999023,-2.32709272702535,1.6888757993703206e+18,121.7003204752604,1.794616977373759,-8.489535649617514,-1.0420742829640706,1.6888757993703206e+18,121.7003204752604,-1.020304302374522,-9.671230634053549,1.2203049659729004,1.6888757993703206e+18,121.7003204752604,0.3165809065103531,-0.6538803478082021,-2.699617067972819,1.6888757993703206e+18,121.7003204752604,0.3158682386080423,-0.6491461296876272,-2.6972245375315347,,,,,,,,,,,,1.688875799365999e+18,121.69599887695313,12.4635196685791,42.67315902709961,-24.42439956665039,1.688875799365999e+18,121.69599887695313,-243.1630737304687,137.5281555175781,-157.55079345703126,1.6888757993703206e+18,121.7003204752604,-0.3962058325608571,0.3611412743727366,-0.649097760518392,0.5392539898554484,-2.2378077507019043,1.4036474227905271,-0.816191037495931
1.75,1.688875799422223e+18,121.75222322591146,7.643994013468425,5.044753392537435,1.3553889592488606,1.688875799422223e+18,121.75222322591146,5.551548004150391,-4.475774844487508,2.602593421936035,1.688875799422223e+18,121.75222322591146,-2.1152473290761313,-9.504782994588217,1.1824910243352251,1.688875799422223e+18,121.75222322591146,0.2238312027669356,2.928742468357086,-1.7129679520924883,1.688875799422223e+18,121.75222322591146,0.2231694299165004,2.9333749612172446,-1.7105753819147749,,,,,,,,,,,,1.688875799415995e+18,121.74599477539064,17.912039756774902,40.97735977172851,-24.141359329223633,1.688875799415995e+18,121.74599477539064,-237.7145568847656,135.83235778808594,-157.26775207519532,1.688875799422223e+18,121.75222322591146,-0.3856691420078277,0.4008027513821919,-0.6684200167655945,0.4929986596107483,-2.631559689839681,1.3211026986440022,-2.4611052672068277
1.8,1.6888757994741194e+18,121.80411946614583,0.7902539968490601,4.050124327341716,-3.98105263710022,1.6888757994741194e+18,121.80411946614583,-1.5054842854539554,-5.362514972686768,-2.3208385705947876,1.6888757994741194e+18,121.80411946614583,-2.31853977839152,-9.396894137064615,1.5955007473627727,1.6888757994741194e+18,121.80411946614583,-0.3400483230749766,2.423251549402873,-0.7364998658498129,1.6888757994741194e+18,121.80411946614583,-0.3407100786765416,2.427934805552165,-0.7340563933054606,,,,,,,,,,,,1.6888757994659958e+18,121.79599584960938,16.45535945892334,40.01843795776367,-26.4129997253418,1.6888757994659958e+18,121.79599584960938,-239.1712371826172,134.8734344482422,-159.53939819335938,1.6888757994741194e+18,121.80411946614583,-0.4324970344702403,0.4484802782535553,-0.6456753015518188,0.4412081440289815,-2.538644472757975,1.2797189553578694,-2.3822328249613443
1.85,1.688875799526022e+18,121.85602180989584,2.9089186986287436,-0.4609076182047526,-3.043614308039347,1.688875799526022e+18,121.85602180989584,0.196410854657491,-9.701101303100588,-1.0763714114824932,1.688875799526022e+18,121.85602180989584,-2.735309282938639,-9.224448521931969,1.9025293986002605,1.688875799526022e+18,121.85602180989584,-0.4237368603547414,0.2284635941808422,-1.4075353542963664,1.688875799526022e+18,121.85602180989584,-0.4243986407915751,0.2330959954609474,-1.4050918420155842,1.6888757995346732e+18,121.86467309570313,0.0,0.0,1.6040582656860352,6.742000102996826,1.7755632400512695,74.07369995117188,39.10000228881836,-122.7502242,49.1905937,1.6888757995159946e+18,121.84599472656252,15.46471996307373,38.754519653320315,-28.765159606933594,1.6888757995159946e+18,121.84599472656252,-240.16187438964843,133.609521484375,-161.8915557861328,1.688875799526022e+18,121.85602180989584,-0.4412129720052083,0.4656707445780436,-0.6499637166659037,0.4073231816291809,-2.531674305597941,1.2240527868270874,-2.3335620562235513
1.9,1.6888757995692682e+18,121.89926818847655,2.2646631598472595,-4.684045791625977,-6.125793933868408,1.6888757995692682e+18,121.89926818847655,-0.7764709442853929,-13.781162738800049,-3.969692707061768,1.6888757995692682e+18,121.89926818847655,-3.06393563747406,-9.081371784210203,2.0913877487182617,1.6888757995692682e+18,121.89926818847655,-0.4783838540315628,0.8229882121086121,-0.3187189474701881,1.6888757995692682e+18,121.89926818847655,-0.4790710806846618,0.8275696933269501,-0.3162754718214273,,,,,,,,,,,,1.6888757995659988e+18,121.89599892578126,17.580199813842775,37.09287948608399,-29.643559646606445,1.6888757995659988e+18,121.89599892578126,-238.04639587402343,131.9478790283203,-162.76995544433595,1.6888757995692682e+18,121.89926818847655,-0.4398397505283355,0.471608817577362,-0.6585399806499481,0.3878550082445144,-2.5419013500213623,1.1829153299331665,-2.3081204891204834
1.95,1.6888757996125233e+18,121.94252319335938,5.983471234639485,-4.384143829345703,-4.987390120824178,1.6888757996125233e+18,121.94252319335938,3.032902797063192,-13.53400421142578,-2.939781978726387,1.6888757996125233e+18,121.94252319335938,-2.973369916280111,-9.134115219116213,1.9828946987787883,1.6888757996125233e+18,121.94252319335938,0.6543384790420532,0.6075054655472437,0.5729406597092748,1.6888757996125233e+18,121.94252319335938,0.6536258260409037,0.6121887962023417,0.5753841515009602,,,,,,,,,,,,1.6888757996160005e+18,121.94600063476562,16.723759841918945,37.236839294433594,-29.86315994262695,1.6888757996160005e+18,121.94600063476562,-238.90283813476563,132.09183654785156,-162.98955688476562,1.6888757996125233e+18,121.94252319335938,-0.4451900919278462,0.482122262318929,-0.6472817262013754,0.3876749177773793,-2.5522162914276123,1.1977367798487346,-2.2697904904683432
2.0,1.688875799664422e+18,121.99442244466144,-5.818349123001099,-9.965867360432943,-0.5704399943351746,1.688875799664422e+18,121.99442244466144,-7.502296606699626,-19.493927001953125,1.1130613088607788,1.688875799664422e+18,121.99442244466144,-1.7067489226659138,-9.512314478556316,1.6187878052393596,1.688875799664422e+18,121.99442244466144,1.4159347613652546,0.0010181268056233,3.037323792775472,1.688875799664422e+18,121.99442244466144,1.4152729312578838,0.0056504905223845,3.0397163232167563,,,,,,,,,,,,1.688875799665997e+18,121.9959970703125,10.055239868164062,40.230718994140624,-28.93595962524414,1.688875799665997e+18,121.9959970703125,-245.57135620117188,135.0857177734375,-162.0623565673828,1.688875799664422e+18,121.99442244466144,-0.4776156445344289,0.4753632247447967,-0.6006208459536234,0.4296181897322337,-2.3730918566385903,1.3279835383097331,-2.4171553452809653
2.05,1.6888757997163223e+18,122.0463221842448,-1.3355633119742076,-9.141557057698568,4.395756562550862,1.6888757997163223e+18,122.0463221842448,-1.6370895703633626,-18.929620107014973,5.051647265752156,1.6888757997163223e+18,122.0463221842448,-0.3243277172247569,-9.77231788635254,0.5911772052447001,1.6888757997163223e+18,122.0463221842448,1.5886569023132324,-2.5750515460968018,3.4022138913472495,1.6888757997163223e+18,122.0463221842448,1.5880460540453594,-2.570317347844442,3.404657522837321,,,,,,,,,,,,1.6888757997159951e+18,122.0459951171875,6.40743989944458,43.76139907836914,-24.443919372558593,1.6888757997159951e+18,122.0459951171875,-249.21915588378903,138.61639404296875,-157.57031860351563,1.6888757997163223e+18,122.0463221842448,-0.45915221174558,0.441700667142868,-0.5666033426920573,0.5214543044567108,-1.8095904390017192,1.489964524904887,-0.9960700670878092
2.1,1.6888757997682184e+18,122.09821842447916,-5.272405445575714,-9.471765518188477,9.784801959991457,1.6888757997682184e+18,122.09821842447916,-3.699702719847361,-19.14637025197347,10.46122121810913,1.6888757997682184e+18,122.09821842447916,1.5499014457066853,-9.658859570821129,0.6117058992385864,1.6888757997682184e+18,122.09821842447916,-0.264708270629247,-1.9630154967308044,3.2852332989374795,1.6888757997682184e+18,122.09821842447916,-0.2653191486994425,-1.958332230647405,3.2876257499059043,,,,,,,,,,,,1.6888757997659927e+18,122.09599252929688,-0.4733599781990051,44.79595947265625,-24.02911949157715,1.6888757997659927e+18,122.09599252929688,-256.09995727539064,139.6509552001953,-157.1555145263672,1.6888757997682184e+18,122.09821842447916,-0.4772270421187083,0.3742104669411976,-0.5296009381612142,0.5924572149912516,-0.3870039979616801,1.3996549447377522,1.6851931810379028
2.15,1.688875799820122e+18,122.15012174479166,-1.652162790298462,1.273435910542806,-1.4738234480222066,1.688875799820122e+18,122.15012174479166,1.0253245035807292,-8.155736525853476,-0.7509474754333496,1.688875799820122e+18,122.15012174479166,2.6546859741210938,-9.413427352905272,0.658162514368693,1.688875799820122e+18,122.15012174479166,1.1772391200065613,-3.0129400889078775,2.6873489220937095,1.688875799820122e+18,122.15012174479166,1.176577389240265,-3.0082059303919473,2.6897923151652017,,,,,,,,,,,,1.688875799815998e+18,122.1459978027344,-1.9446799755096436,45.26687927246094,-22.638319778442384,1.688875799815998e+18,122.1459978027344,-257.5712829589844,140.12187805175782,-155.76471557617188,1.688875799820122e+18,122.15012174479166,-0.4374264180660248,0.2956260442733764,-0.5262864033381144,0.6659728487332662,-0.2515170176823934,1.2873735030492146,1.3539539178212483
2.2,1.6888757998720218e+18,122.20202172851565,-10.53957462310791,11.597780227661133,-0.2924211025238036,1.6888757998720218e+18,122.20202172851565,-6.7026950518290205,2.5752753814061484,0.4470590353012085,1.6888757998720218e+18,122.20202172851565,3.814078251520793,-9.006759643554688,0.6747666796048483,1.6888757998720218e+18,122.20202172851565,0.1979203472534815,-3.024902860323588,2.412357727686564,1.6888757998720218e+18,122.20202172851565,0.1972585693001747,-3.0203213691711426,2.4148012002309165,,,,,,,,,,,,1.6888757998659948e+18,122.1959947265625,-4.962959957122803,46.06231918334961,-21.05475959777832,1.6888757998659948e+18,122.1959947265625,-260.5895629882813,140.91731872558594,-154.1811553955078,1.6888757998720218e+18,122.20202172851565,-0.4107245604197183,0.2357817391554514,-0.4994227190812428,0.7248880465825399,-0.1731882989406585,1.1643314361572266,1.1447144746780396
2.25,1.6888757999239168e+18,122.25391674804688,-8.52132479349772,12.276418685913086,-0.6240063707033793,1.6888757999239168e+18,122.25391674804688,-4.111467520395915,3.6293136278788247,0.9978070457776388,1.6888757999239168e+18,122.25391674804688,4.387056032816569,-8.631359736124674,1.5570999383926392,1.6888757999239168e+18,122.25391674804688,-0.0180205218493938,-3.5775832335154214,1.4186836282412212,1.6888757999239168e+18,122.25391674804688,-0.0187841020524501,-3.5728490352630615,1.4211270610491435,,,,,,,,,,,,1.6888757999159926e+18,122.24599262695313,-5.680319881439209,45.16195831298828,-22.340639495849608,1.6888757999159926e+18,122.24599262695313,-261.3069152832031,140.01695861816407,-155.46703491210937,1.6888757999239168e+18,122.25391674804688,-0.3729601403077443,0.142835887769858,-0.5054569840431213,0.764396607875824,-0.3402657012144724,1.0757745901743572,1.111806869506836
2.3,1.6888757999758213e+18,122.30582137044269,-1.1829252243041992,7.529462655385335,0.4814321200052897,1.6888757999758213e+18,122.30582137044269,3.215355525414149,-1.0568299690882366,2.449452797571818,1.6888757999758213e+18,122.30582137044269,4.375479380289714,-8.570547421773275,1.9033071994781496,1.6888757999758213e+18,122.30582137044269,1.042848805586497,-1.510924259821574,-0.390546515583992,1.6888757999758213e+18,122.30582137044269,1.042187015215556,-1.506240963935852,-0.3881539702415467,,,,,,,,,,,,1.6888757999659942e+18,122.29599404296876,-4.243159914016724,45.20343933105469,-22.340639877319337,1.6888757999659942e+18,122.29599404296876,-259.8697570800781,140.05844116210938,-155.4670379638672,1.6888757999758213e+18,122.30582137044269,-0.3355242013931274,0.0977098941802978,-0.517134408156077,0.7812080581982931,-0.4107620418071747,1.062730034192403,1.0549248854319255
2.35,1.688875800019065e+18,122.34906518554686,7.274078130722046,3.1592135429382324,0.5762141346931458,1.688875800019065e+18,122.34906518554686,11.069496631622314,-5.7750773429870605,2.1960129737854004,1.688875800019065e+18,122.34906518554686,3.772616982460022,-8.918545722961426,1.5550853610038755,1.688875800019065e+18,122.34906518554686,1.4571426510810852,-0.7562511414289474,-2.1471149921417236,1.688875800019065e+18,122.34906518554686,1.4564554691314695,-0.7515933215618134,-2.1446715593338013,,,,,,,,,,,,1.688875800015997e+18,122.34599692382812,-0.1708000242710113,46.511279296875,-19.788399124145503,1.688875800015997e+18,122.34599692382812,-255.79739379882812,141.36627502441405,-152.9147979736328,1.688875800019065e+18,122.34906518554686,-0.2958134561777115,0.1050547361373901,-0.5446512401103973,0.7776176631450653,-0.391484647989273,1.1416581869125366,0.9802163243293762
2.4,1.6888758000623183e+18,122.3923182779948,7.105526129404704,-14.03236961364746,8.094673156738281,1.6888758000623183e+18,122.3923182779948,10.950553258260092,-22.82054837544759,10.249655723571776,1.6888758000623183e+18,122.3923182779948,3.822226047515869,-8.772433598836264,2.0902693271636963,1.6888758000623183e+18,122.3923182779948,-1.4033101399739585,-3.192585428555806,2.0881919264793396,1.6888758000623183e+18,122.3923182779948,-1.4039719700813291,-3.187851091225942,2.090635438760122,1.6888758000536735e+18,122.383673828125,0.0,0.0,1.6144412755966189,6.76200008392334,1.7728471755981443,73.27498626708984,39.10000228881836,-122.7502133,49.1905973,1.688875800065993e+18,122.39599291992188,2.9816799402236938,46.37220001220703,-20.283719635009767,1.688875800065993e+18,122.39599291992188,-252.64491577148436,141.227197265625,-153.41011657714844,1.6888758000623183e+18,122.3923182779948,-0.284371276696523,0.0630704170713821,-0.5476759076118469,0.7834537823994955,-0.4945479333400726,1.1088992357254028,1.0048629641532898
2.45,1.6888758001142203e+18,122.44422013346356,0.6793402036031088,0.3402096430460612,6.326611836751302,1.6888758001142203e+18,122.44422013346356,4.9316074053446455,-7.9924265543619795,9.41914701461792,1.6888758001142203e+18,122.44422013346356,4.22946564356486,-8.316891034444174,3.0278216203053794,1.6888758001142203e+18,122.44422013346356,-0.5993097176154455,-0.366977314154307,0.5685628453890482,1.6888758001142203e+18,122.44422013346356,-0.5999714757005373,-0.3623449007670086,0.5709553932150205,,,,,,,,,,,,1.6888758001159946e+18,122.44599467773438,2.127679944038391,45.75487823486328,-21.947799301147462,1.6888758001159946e+18,122.44599467773438,-253.49891357421876,140.60987548828126,-155.0741943359375,1.6888758001142203e+18,122.44422013346356,-0.264010339975357,-0.0170584529017408,-0.5330977439880371,0.8035688201586405,-0.6217189033826193,1.0118544896443684,0.98711629708608
2.5,1.688875800166116e+18,122.49611596679686,-11.716692368189491,-7.244581699371338,-3.137240409851074,1.688875800166116e+18,122.49611596679686,-7.352146863937378,-15.568302313486734,-0.1976071993509928,1.688875800166116e+18,122.49611596679686,4.341744422912598,-8.307975769042969,2.874919891357422,1.688875800166116e+18,122.49611596679686,0.3128648300965627,1.987755556901296,-1.2545645038286846,1.688875800166116e+18,122.49611596679686,0.3121521472930909,1.9923879305521648,-1.2521210312843325,,,,,,,,,,,,1.688875800165997e+18,122.49599682617188,0.0390399947762489,44.56171875,-23.438639450073243,1.688875800165997e+18,122.49599682617188,-255.58755493164065,139.41671447753907,-156.56503601074218,1.688875800166116e+18,122.49611596679686,-0.3029359579086303,0.0166546227992512,-0.5274281104405721,0.7933711608250936,-0.5848588347434998,1.0108369986216228,1.0595842599868774
2.55,1.6888758002180145e+18,122.5480145670573,-6.661366065343221,1.3219224611918132,-2.503073195616404,1.6888758002180145e+18,122.5480145670573,-3.384248733520508,-7.7802627881368,-0.8263214329878489,1.6888758002180145e+18,122.5480145670573,3.2543157736460366,-9.086440086364746,1.612038294474284,1.6888758002180145e+18,122.5480145670573,1.1740321318308513,4.335463285446167,-4.318053722381592,1.6888758002180145e+18,122.5480145670573,1.1733703513940177,4.34009575843811,-4.315661112467448,,,,,,,,,,,,1.688875800215995e+18,122.5459947265625,3.2329999446868896,45.52796020507813,-20.98643913269043,1.688875800215995e+18,122.5459947265625,-252.39359130859376,140.3829559326172,-154.11283264160156,1.6888758002180145e+18,122.5480145670573,-0.3093520104885101,0.1231555889050165,-0.5631358424822489,0.7547022898991903,-0.45759250720342,1.1903587977091472,1.0913612842559814
2.6,1.6888758002699195e+18,122.59991959635416,-7.214812437693278,-3.717153231302897,0.6223228176434835,1.6888758002699195e+18,122.59991959635416,-6.293322881062825,-13.41256841023763,1.9056838154792783,1.6888758002699195e+18,122.59991959635416,0.8986881275971731,-9.679670015970864,1.2186475197474165,1.6888758002699195e+18,122.59991959635416,-0.9587021072705588,5.539326032002767,-4.577315171559651,1.6888758002699195e+18,122.59991959635416,-0.9593129356702168,5.544009367624919,-4.574922482172648,,,,,,,,,,,,1.6888758002660012e+18,122.59600131835936,10.567639923095705,43.51739883422851,-22.79691963195801,1.6888758002660012e+18,122.59600131835936,-245.0589569091797,138.37239685058594,-155.9233154296875,1.6888758002699195e+18,122.59991959635416,-0.3635103801886241,0.2571824838717778,-0.622042715549469,0.6419228712717692,-0.9739395578702292,1.409302790959676,1.8868128458658855
2.65,1.6888758003218227e+18,122.65182275390625,-0.6691907942295074,-0.2508087158203125,-3.801159063975016,1.6888758003218227e+18,122.65182275390625,-0.9126623570919036,-9.98903751373291,-2.5158536036809287,1.6888758003218227e+18,122.65182275390625,-0.2662730515003204,-9.72248363494873,1.2205919822057087,1.6888758003218227e+18,122.65182275390625,0.528856597840786,1.3533719380696614,-2.553314963976542,1.6888758003218227e+18,122.65182275390625,0.5281439088284969,1.3580552637577057,-2.550922393798828,,,,,,,,,,,,1.6888758003159946e+18,122.64599462890624,11.482639694213868,41.50927963256836,-26.14216003417969,1.6888758003159946e+18,122.64599462890624,-244.14395751953128,136.36427612304686,-159.2685546875,1.6888758003218227e+18,122.65182275390625,-0.4047322670618693,0.3399289548397064,-0.6306517720222473,0.5678704182306925,-1.7906617323557537,1.4370548327763877,0.808156410853068
2.7,1.68887580037372e+18,122.70371997070312,5.700368563334147,4.026106039683024,0.8934622605641683,1.68887580037372e+18,122.70371997070312,4.146362860997518,-5.624329725901286,1.8877376740177472,1.68887580037372e+18,122.70371997070312,-1.5768072207768755,-9.634690602620443,0.9295619328816732,1.68887580037372e+18,122.70371997070312,0.5398521622021993,1.5064446181058884,-2.2743021647135415,1.68887580037372e+18,122.70371997070312,0.53913946946462,1.5110770240426064,-2.271858811378479,,,,,,,,,,,,1.6888758003659953e+18,122.6959953125,17.255679893493653,40.235599517822266,-25.356479263305665,1.6888758003659953e+18,122.6959953125,-238.37091674804688,135.09059448242186,-158.48287658691407,1.68887580037372e+18,122.70371997070312,-0.3807775874932607,0.386631965637207,-0.6562221050262451,0.5239297350247701,-2.5993404388427734,1.382447361946106,-2.5306974252065024
2.75,1.6888758004256202e+18,122.75562003580728,2.6371886332829795,4.779385884602864,-1.4527544180552163,1.6888758004256202e+18,122.75562003580728,0.5844469169775646,-4.747958501180013,-0.1950150281190872,1.6888758004256202e+18,122.75562003580728,-2.0755430857340493,-9.51159922281901,1.1930258671442668,1.6888758004256202e+18,122.75562003580728,-0.4105523576339085,2.7369308869043985,-1.1701632738113403,1.6888758004256202e+18,122.75562003580728,-0.4112141306201617,2.7415632406870523,-1.1678216060002644,,,,,,,,,,,,1.688875800415993e+18,122.74599331054688,17.29471950531006,39.313279724121095,-27.188919448852538,1.688875800415993e+18,122.74599331054688,-238.3318817138672,134.16827697753905,-160.31531677246093,1.6888758004256202e+18,122.75562003580728,-0.4150706032911936,0.4379775524139404,-0.6432791153589884,0.4708299934864043,-2.6209312280019126,1.3241257667541504,-2.3552977244059243
2.8,1.6888758004775196e+18,122.8075196126302,2.6772586504618325,-0.4561436971028645,-4.816898345947266,1.6888758004775196e+18,122.8075196126302,0.1403788886964321,-9.788638750712076,-3.0671998659769693,1.6888758004775196e+18,122.8075196126302,-2.5596813360850015,-9.316749890645346,1.6849850018819172,1.6888758004775196e+18,122.8075196126302,-0.9230682651201884,0.2531527287016312,-1.2696834405263264,1.6888758004775196e+18,122.8075196126302,-0.9237300554911296,0.257785132775704,-1.2672399282455444,,,,,,,,,,,,1.6888758004659988e+18,122.79599887695312,16.640799713134765,36.88303985595703,-29.907079696655273,1.6888758004659988e+18,122.79599887695312,-238.9857971191406,131.738037109375,-163.03347778320312,1.6888758004775196e+18,122.8075196126302,-0.4284610648949941,0.4503016869227091,-0.6539085308710734,0.431208074092865,-2.5587318738301597,1.2529829740524292,-2.3630354404449463
2.85,1.6888758005207695e+18,122.85076953125,4.2651894092559814,-1.7719721794128418,-5.830597877502441,1.6888758005207695e+18,122.85076953125,1.2646068185567856,-10.916954517364502,-3.829712510108948,1.6888758005207695e+18,122.85076953125,-3.0233839750289917,-9.129237174987791,1.9361718893051147,1.6888758005207695e+18,122.85076953125,-0.4980842471122741,0.2783254832029342,-0.900491699576378,1.6888758005207695e+18,122.85076953125,-0.4988478422164917,0.2829833254218101,-0.8980482518672943,,,,,,,,,,,,1.688875800515995e+18,122.84599482421876,18.448839569091795,34.34055938720703,-31.69315986633301,1.688875800515995e+18,122.84599482421876,-237.1777557373047,129.1955596923828,-164.8195556640625,1.6888758005207695e+18,122.85076953125,-0.4242840409278869,0.4543028026819229,-0.669064849615097,0.4073485732078552,-2.5712677240371704,1.1960557699203491,-2.3428128957748413
2.9,1.6888758005640197e+18,122.8940194498698,4.0249810218811035,-5.477502504984538,-5.721789677937825,1.6888758005640197e+18,122.8940194498698,0.9880363742510476,-14.616756439208984,-3.7523446877797446,1.6888758005640197e+18,122.8940194498698,-3.0597461064656577,-9.12350877126058,1.904731472333272,1.6888758005640197e+18,122.8940194498698,0.5008076981951793,0.4444553752740224,-0.0538070444017649,1.6888758005640197e+18,122.8940194498698,0.500196817641457,0.4490877687931061,-0.0513635822571814,1.6888758005726697e+18,122.90266967773438,0.0,0.0,1.6144412755966189,6.703999996185303,1.7722796201705933,72.71900939941406,39.10000228881836,-122.7502046,49.1906007,1.6888758005659986e+18,122.89599853515624,18.992959594726564,33.61587905883789,-32.28363952636719,1.6888758005659986e+18,122.89599853515624,-236.63363647460935,128.47087707519532,-165.4100372314453,1.6888758005640197e+18,122.8940194498698,-0.4260141352812449,0.4617486695448557,-0.6653140385945638,0.4032573203245799,-2.5841607252756753,1.1944353580474854,-2.312552611033122
2.95,1.6888758006159155e+18,122.94591569010416,-2.00932784875234,-6.807613372802734,0.1319481531778971,1.6888758006159155e+18,122.94591569010416,-4.2325044473012285,-16.2378937403361,1.7320047778387864,1.6888758006159155e+18,122.94591569010416,-2.245977997779846,-9.414535204569498,1.5353431304295857,1.6888758006159155e+18,122.94591569010416,1.151175578435262,0.6674720744291941,2.725120782852173,1.6888758006159155e+18,122.94591569010416,1.150564670562744,0.6720535556475321,2.7274624506632485,,,,,,,,,,,,1.6888758006159985e+18,122.94599848632814,14.598519706726076,35.741119384765625,-31.788318634033203,1.6888758006159985e+18,122.94599848632814,-241.028076171875,130.5961181640625,-164.9147186279297,1.6888758006159155e+18,122.94591569010416,-0.4463309943675995,0.4682633578777313,-0.6284279227256775,0.4313567479451497,-2.533876578013102,1.289137641588847,-2.3253426551818848
3.0,1.688875800667814e+18,122.9978142903646,-2.4766722520192466,-8.553123156229654,5.442421277364095,1.688875800667814e+18,122.9978142903646,-3.1537402470906577,-18.308483123779297,6.318846384684245,1.688875800667814e+18,122.9978142903646,-0.6998694539070129,-9.739614804585775,0.8117114106814066,1.688875800667814e+18,122.9978142903646,1.5472198724746704,-1.9738074938456216,3.294905344645182,1.688875800667814e+18,122.9978142903646,1.546558101971944,-1.969073216120402,3.2972470124562583,,,,,,,,,,,,1.6888758006659994e+18,122.99599921875,9.037759780883787,39.24251937866211,-29.63867950439453,1.6888758006659994e+18,122.99599921875,-246.58883666992188,134.09751892089844,-162.76507568359375,1.688875800667814e+18,122.9978142903646,-0.4543004433314005,0.4414498209953308,-0.5835288166999817,0.5072755515575409,-2.1961361169815063,1.45919672648112,-2.711957772572835
3.05,1.6888758007197156e+18,123.0497157389323,-1.8411001563072205,-11.70802370707194,7.675108909606934,1.6888758007197156e+18,123.0497157389323,-0.7252246340115865,-21.451256434122723,8.151349703470865,1.6888758007197156e+18,123.0497157389323,1.0930740435918171,-9.727487564086914,0.4115272363026936,1.6888758007197156e+18,123.0497157389323,0.0089084605375925,-0.5645412902037302,3.640604098637899,1.6888758007197156e+18,123.0497157389323,0.0082466801007588,-0.559857984383901,3.643047571182251,,,,,,,,,,,,1.6888758007159967e+18,123.04599682617189,3.8966798782348633,41.61419830322266,-27.767199325561524,1.6888758007159967e+18,123.04599682617189,-251.72991333007812,136.4691955566406,-160.8936004638672,1.6888758007197156e+18,123.0497157389323,-0.4639885028203327,0.3922513326009114,-0.5385319391886393,0.5832558870315552,-0.4148446917533874,1.450372854868571,1.7187344233194988
3.1,1.688875800771615e+18,123.1016151529948,-3.0482096672058105,-1.572028636932373,1.0271377960840862,1.688875800771615e+18,123.1016151529948,-0.7022933959960938,-11.093923409779867,1.706082542737325,1.688875800771615e+18,123.1016151529948,2.3231149117151895,-9.506149609883629,0.6142313281695048,1.688875800771615e+18,123.1016151529948,0.7139487663904825,-4.06327207883199,2.456594626108805,1.688875800771615e+18,123.1016151529948,0.7133378783861796,-4.058639685312907,2.459038019180298,,,,,,,,,,,,1.6888758007659924e+18,123.095992578125,-0.1098000049591064,41.62151947021484,-28.257639694213868,1.6888758007659924e+18,123.095992578125,-255.7364013671875,136.4765167236328,-161.38403930664063,1.688875800771615e+18,123.1016151529948,-0.4464423457781473,0.3174897332986195,-0.5292901794115702,0.6468524734179179,-0.2618961185216903,1.3230328957239788,1.4138585726420083
3.15,1.6888758008235151e+18,123.15351521809896,-7.227850278218587,9.392953236897789,-0.468486229578654,1.6888758008235151e+18,123.15351521809896,-3.614358603954315,0.2697907884915669,0.1405783096949259,1.6888758008235151e+18,123.15351521809896,3.5906901359558105,-9.107417106628418,0.5443510413169861,1.6888758008235151e+18,123.15351521809896,0.540819376707077,-1.283936937650045,2.6600635846455893,1.6888758008235151e+18,123.15351521809896,0.5401575962702433,-1.2793045043945312,2.662456194559733,,,,,,,,,,,,1.6888758008159972e+18,123.14599711914062,-1.5689199805259704,42.39499969482422,-27.32799911499023,1.6888758008159972e+18,123.14599711914062,-257.1955078125,137.24999389648437,-160.45439758300782,1.6888758008235151e+18,123.15351521809896,-0.4252249201138814,0.260334054629008,-0.4989835520585378,0.7085552414258321,-0.1522019753853479,1.1912493705749512,1.1848519245783489
3.2,1.6888758008754168e+18,123.20541715494792,-10.853700002034506,11.0746488571167,-0.2381029526392618,1.6888758008754168e+18,123.20541715494792,-6.57966407140096,2.286142667134603,0.896510899066925,1.6888758008754168e+18,123.20541715494792,4.251234690348308,-8.772761027018229,1.069900373617808,1.6888758008754168e+18,123.20541715494792,0.0398589556959146,-3.45759908358256,1.3457870086034138,1.6888758008754168e+18,123.20541715494792,0.0391971878028319,-3.4529157479604087,1.348230481147766,,,,,,,,,,,,1.688875800865994e+18,123.19599384765624,-4.255359840393067,42.12659912109375,-28.135639572143553,1.688875800865994e+18,123.19599384765624,-259.8819580078125,136.98159790039062,-161.2620391845703,1.6888758008754168e+18,123.20541715494792,-0.4007659653822581,0.1932121763626734,-0.4954409996668498,0.7455462416013082,-0.2458021839459736,1.1069365342458088,1.1385282675425212
3.25,1.6888758009273188e+18,123.25731868489584,-5.165689786275228,9.61785856882731,-0.6507450938224792,1.6888758009273188e+18,123.25731868489584,-0.6991030176480612,1.0035896971821785,1.0105688062806923,1.6888758009273188e+18,123.25731868489584,4.443785349527995,-8.59852377573649,1.5966004133224487,1.6888758009273188e+18,123.25731868489584,0.5917248129844666,-2.147242228190104,0.6421211610237757,1.6888758009273188e+18,123.25731868489584,0.5909612278143564,-2.1425589323043823,0.6445137560367584,,,,,,,,,,,,1.6888758009159972e+18,123.24599731445312,-1.598199987411499,41.89235916137695,-28.194199752807616,1.6888758009159972e+18,123.24599731445312,-257.22479858398435,136.7473571777344,-161.32059631347656,1.6888758009273188e+18,123.25731868489584,-0.3582608600457509,0.129392663637797,-0.5066262284914652,0.7733213106791178,-0.3452596167723338,1.0685197512308755,1.07327135403951
3.3,1.6888758009705677e+18,123.30056787109376,1.8250389099121092,6.34432053565979,-0.5427232980728149,1.6888758009705677e+18,123.30056787109376,6.023033618927002,-2.4062823057174683,1.0935199558734894,1.6888758009705677e+18,123.30056787109376,4.1751933097839355,-8.734857559204102,1.571529746055603,1.6888758009705677e+18,123.30056787109376,1.3097714185714722,-1.6946929097175598,-1.6294066309928894,1.6888758009705677e+18,123.30056787109376,1.3090078830718994,-1.6899586915969849,-1.6269632577896118,,,,,,,,,,,,1.688875800965996e+18,123.29599609375,1.0199199825525285,42.40963973999023,-27.10595932006836,1.688875800965996e+18,123.29599609375,-254.60667724609377,137.26463623046874,-160.23235778808595,1.6888758009705677e+18,123.30056787109376,-0.323487251996994,0.1142310909926891,-0.5235467851161957,0.7797744870185852,-0.3606553524732589,1.0985476970672607,1.008718341588974
3.35,1.688875801013818e+18,123.34381795247396,11.500505765279136,-10.467393080393473,5.26114022731781,1.688875801013818e+18,123.34381795247396,15.22812271118164,-19.386449654897053,7.097311337788899,1.688875801013818e+18,123.34381795247396,3.70481546719869,-8.903311411539713,1.7714575131734211,1.688875801013818e+18,123.34381795247396,-0.9246972799301147,-1.9098702470461528,0.1323031584421793,1.688875801013818e+18,123.34381795247396,-0.9254099527994792,-1.905237724383672,0.1346449454625446,,,,,,,,,,,,1.6888758010159964e+18,123.34599643554688,6.334239864349366,42.32179946899414,-26.58135986328125,1.6888758010159964e+18,123.34599643554688,-249.29235229492187,137.17679748535156,-159.70775451660157,1.688875801013818e+18,123.34381795247396,-0.3031688233216603,0.0983805755774179,-0.5487768252690634,0.7725762923558553,-0.4438887933890025,1.1379952033360798,1.0338698625564575
3.4,1.6888758010657178e+18,123.39571769205727,4.968323548634847,-5.800535519917805,12.321425755818684,1.6888758010657178e+18,123.39571769205727,8.934999148050943,-14.29352601369222,15.347763697306316,1.6888758010657178e+18,123.39571769205727,3.943874279657999,-8.477245330810547,2.961625258127848,1.6888758010657178e+18,123.39571769205727,-0.6394740889469782,-2.317877189566692,1.468367377916972,1.6888758010657178e+18,123.39571769205727,-0.6401867841680845,-2.3132448196411133,1.4707598686218262,1.688875801091668e+18,123.42166796875,0.0,0.0,1.6240332126617432,6.646999835968018,1.765615940093994,71.77889251708984,39.10000228881836,-122.7501943,49.1906037,1.6888758010659958e+18,123.39599580078124,7.534719944000244,40.4332389831543,-28.70659942626953,1.6888758010659958e+18,123.39599580078124,-248.0918731689453,135.28823852539062,-161.83299560546874,1.6888758010657178e+18,123.39571769205727,-0.2863200505574544,0.0070513317089838,-0.546527087688446,0.7867046991984049,-0.6441551844278971,1.0437639951705933,1.077250838279724
3.45,1.688875801117611e+18,123.44761100260416,-12.492416063944498,-3.308156172434489,-1.839464584986369,1.688875801117611e+18,123.44761100260416,-8.113263845443726,-11.534202734629313,1.359920899073283,1.688875801117611e+18,123.44761100260416,4.356350580851237,-8.210301399230957,3.134671926498413,1.688875801117611e+18,123.44761100260416,-0.7118616054455439,1.4273375471433003,-0.466650148232778,1.688875801117611e+18,123.44761100260416,-0.7125743329524994,1.4319190382957458,-0.4642576078573863,,,,,,,,,,,,1.688875801115993e+18,123.44599306640626,3.974759912490845,39.222999572753906,-30.54391937255859,1.688875801115993e+18,123.44599306640626,-251.6518371582031,134.07799682617187,-163.67031555175782,1.688875801117611e+18,123.44761100260416,-0.3104731142520904,0.0048709966940804,-0.5271583994229635,0.7909114360809326,-0.624324897925059,0.9917014837265016,1.0939693848292034
3.5,1.6888758011695183e+18,123.49951831054688,-5.139188528060913,2.8416694005330405,-5.044633865356445,1.6888758011695183e+18,123.49951831054688,-1.7465611298878987,-6.106882095336914,-2.8426733215649924,1.6888758011695183e+18,123.49951831054688,3.369825998942057,-8.932806332906088,2.137247085571289,1.6888758011695183e+18,123.49951831054688,2.093078851699829,3.4765868186950684,-4.025296529134114,1.6888758011695183e+18,123.49951831054688,2.092315276463826,3.481168270111084,-4.022903919219971,,,,,,,,,,,,1.6888758011659968e+18,123.495996875,4.562799882888794,39.49627914428711,-29.23607940673828,1.6888758011659968e+18,123.495996875,-251.0637969970703,134.35127868652344,-162.3624755859375,1.6888758011695183e+18,123.49951831054688,-0.3224628468354543,0.0970343376199404,-0.5627792080243429,0.753371000289917,-0.558724840482076,1.1499019463857014,1.175333857536316
3.55,1.6888758012214136e+18,123.55141357421876,-10.59986686706543,-4.181658426920573,-0.561137318611145,1.6888758012214136e+18,123.55141357421876,-9.511868953704834,-13.857832908630373,0.701894630988439,1.6888758012214136e+18,123.55141357421876,1.0651961763699849,-9.660429318745932,1.1983184814453125,1.6888758012214136e+18,123.55141357421876,-0.6056219736735026,6.102136452992757,-5.0168834527333575,1.6888758012214136e+18,123.55141357421876,-0.6063346664110819,6.106819788614909,-5.014491001764934,,,,,,,,,,,,1.688875801215994e+18,123.54599379882814,7.934880065917969,39.82811965942383,-28.157599639892577,1.688875801215994e+18,123.54599379882814,-247.69171447753905,134.68311767578126,-161.28399658203125,1.6888758012214136e+18,123.55141357421876,-0.3676974773406982,0.2574049830436706,-0.614420473575592,0.6460405389467875,-0.8959362506866455,1.3994278113047285,1.816549817721049
3.6,1.688875801273312e+18,123.60331176757812,-2.655263523260752,-1.650800387064616,-2.1649444500605264,1.688875801273312e+18,123.60331176757812,-2.8269204696019483,-11.368300437927246,-0.7134598890940347,1.688875801273312e+18,123.60331176757812,-0.1944585293531417,-9.701754887898764,1.3867710431416829,1.688875801273312e+18,123.60331176757812,0.0099265774091084,0.96867964665095,-2.526284138361613,1.688875801273312e+18,123.60331176757812,0.0092138846715291,0.9734137852986654,-2.523840626080831,,,,,,,,,,,,1.6888758012659953e+18,123.59599506835936,6.900319766998291,37.480839538574216,-31.600439453125,1.6888758012659953e+18,123.59599506835936,-248.7262725830078,132.3358367919922,-164.72684020996093,1.688875801273312e+18,123.60331176757812,-0.4199470976988474,0.3428149819374084,-0.6258969306945801,0.5603090524673462,-1.7052102486292522,1.4219764073689778,0.7537287076314291
3.65,1.6888758013252083e+18,123.6552080891927,7.809842427571614,3.890625476837158,0.6841888030370077,1.6888758013252083e+18,123.6552080891927,6.140580972035726,-5.715855121612549,1.902493432164192,1.6888758013252083e+18,123.6552080891927,-1.6920628547668457,-9.59073543548584,1.1535911560058594,1.6888758013252083e+18,123.6552080891927,0.4626286228497823,0.4532111088434855,-2.431243658065796,1.6888758013252083e+18,123.6552080891927,0.4619668424129486,0.457792580127716,-2.4288002252578735,,,,,,,,,,,,1.6888758013159898e+18,123.64598974609376,12.73191967010498,36.2388801574707,-30.853799438476564,1.6888758013159898e+18,123.64598974609376,-242.894677734375,131.0938720703125,-163.98019714355468,1.6888758013252083e+18,123.6552080891927,-0.3847378989060719,0.380504846572876,-0.6639560461044312,0.5157707532246908,-2.5294852256774902,1.359893798828125,-2.6028146743774414
3.7,1.688875801377108e+18,123.70710782877605,2.697600483894348,4.348129431406657,-1.421812852223714,1.688875801377108e+18,123.70710782877605,0.6697909533977509,-5.167699337005615,-0.0309072894354661,1.688875801377108e+18,123.70710782877605,-2.050611058870951,-9.500083605448404,1.3261921405792236,1.688875801377108e+18,123.70710782877605,-0.0898480961720148,3.038036505381266,-1.0148507952690125,1.688875801377108e+18,123.70710782877605,-0.0905098666747411,3.042719841003418,-1.0124073227246602,,,,,,,,,,,,1.6888758013659896e+18,123.69598955078123,13.207719802856444,35.619120025634764,-31.502839660644533,1.6888758013659896e+18,123.69598955078123,-242.41887512207032,130.47411499023437,-164.62923583984374,1.688875801377108e+18,123.70710782877605,-0.419332891702652,0.4323744277159373,-0.6456667383511862,0.4688684344291687,-2.562424341837565,1.319416602452596,-2.415693521499634
3.75,1.688875801420368e+18,123.75036779785157,0.3713636398315429,1.3699610233306885,-4.840817928314209,1.688875801420368e+18,123.75036779785157,-1.9145572781562803,-8.045567274093628,-3.1800612211227417,1.688875801420368e+18,123.75036779785157,-2.3087223768234253,-9.39978313446045,1.5960431694984436,1.688875801420368e+18,123.75036779785157,-0.3249039500951766,1.1707996129989624,-0.6908122599124908,1.688875801420368e+18,123.75036779785157,-0.3255148082971573,1.1753810942173004,-0.6883687674999237,,,,,,,,,,,,1.688875801415997e+18,123.74599692382812,10.50419979095459,35.045719146728516,-32.49103927612305,1.688875801415997e+18,123.74599692382812,-245.12239685058591,129.9007141113281,-165.6174346923828,1.688875801420368e+18,123.75036779785157,-0.4392796009778976,0.4563511610031127,-0.6394572854042053,0.435712918639183,-2.530612587928772,1.2806302905082705,-2.363470673561096
3.8,1.6888758014636132e+18,123.79361303710937,4.698201656341553,-0.9984588623046876,-2.333195209503174,1.6888758014636132e+18,123.79361303710937,2.003988981246948,-10.28195889790853,-0.5629115204016367,1.6888758014636132e+18,123.79361303710937,-2.7170140743255615,-9.267754872639976,1.7055702209472656,1.6888758014636132e+18,123.79361303710937,-0.0774780722955862,0.4715370585521062,-1.600568771362305,1.6888758014636132e+18,123.79361303710937,-0.0781907526155313,0.4761694570382436,-1.5981253385543823,,,,,,,,,,,,1.6888758014659927e+18,123.79599267578126,10.738439750671386,34.38447952270508,-32.69844055175781,1.6888758014659927e+18,123.79599267578126,-244.88815307617188,129.23947448730468,-165.82483825683593,1.6888758014636132e+18,123.79361303710937,-0.4389410118261973,0.4731848239898681,-0.6434480547904968,0.4113879203796386,-2.572760899861654,1.2372530301411948,-2.28446896870931
3.85,1.6888758015155108e+18,123.8455109049479,1.2163275877634685,-3.925084114074707,-5.508341153462728,1.6888758015155108e+18,123.8455109049479,-1.766700714826584,-13.088540395100912,-3.569692611694336,1.6888758015155108e+18,123.8455109049479,-3.0058297316233316,-9.147711118062338,1.873935063680013,1.6888758015155108e+18,123.8455109049479,-0.3307835261027018,0.3298672263820966,0.1907426714897155,1.6888758015155108e+18,123.8455109049479,-0.331394409139951,0.3344487299521764,0.1931861241658528,,,,,,,,,,,,1.6888758015159951e+18,123.84599516601564,11.20447998046875,33.27916030883789,-32.83019866943359,1.6888758015159951e+18,123.84599516601564,-244.4221160888672,128.1341583251953,-165.95659790039062,1.6888758015155108e+18,123.8455109049479,-0.4396121601263682,0.4809893270333608,-0.6491289138793945,0.3924253483613332,-2.577341397603353,1.200886368751526,-2.2581785519917807
3.9,1.688875801567416e+18,123.89741601562498,4.427088816960652,-6.953691164652507,-5.1450544993082685,1.688875801567416e+18,123.89741601562498,1.8023937344551089,-16.279967308044434,-3.52103853225708,1.688875801567416e+18,123.89741601562498,-2.6474966208140054,-9.31053098042806,1.559302488962809,1.688875801567416e+18,123.89741601562498,1.086016575495402,0.1513418604930241,1.4752395550409954,1.688875801567416e+18,123.89741601562498,1.0853039224942524,0.1559233640631039,1.477683037519455,,,,,,,,,,,,1.6888758015659963e+18,123.89599643554688,10.428559684753418,34.56015853881836,-31.200279235839844,1.6888758015659963e+18,123.89599643554688,-245.19803771972656,129.41515502929687,-164.32667846679686,1.688875801567416e+18,123.89741601562498,-0.4417739510536193,0.482512354850769,-0.6336952050526937,0.4125025272369385,-2.599641958872477,1.251293659210205,-2.2363404432932534
3.95,1.6888758016193124e+18,123.94931233723958,-5.139657656351726,-8.349591573079428,3.5002450942993164,1.6888758016193124e+18,123.94931233723958,-6.2967127958933515,-18.047466278076172,4.498705983161926,1.6888758016193124e+18,123.94931233723958,-1.1798564791679382,-9.682129542032875,0.9337473710378013,1.6888758016193124e+18,123.94931233723958,1.5525649388631184,0.6404413382212321,3.1379637718200684,1.6888758016193124e+18,123.94931233723958,1.5519031683603923,0.645124594370524,3.1404073238372803,1.6888758016106555e+18,123.94065551757812,0.0,0.0,1.6240332126617432,6.63700008392334,1.7626192569732666,71.30428314208984,39.10000228881836,-122.7501867,49.1906058,1.6888758016159972e+18,123.94599716796874,3.5087199449539184,37.917599487304685,-28.240559387207032,1.6888758016159972e+18,123.94599716796874,-252.1178771972656,132.77259521484376,-161.36695556640626,1.6888758016193124e+18,123.94931233723958,-0.4755046864350636,0.4818883339564005,-0.5719667077064514,0.4625031153361003,-2.4264034430185952,1.414999524752299,-2.363353729248047
4.0,1.688875801671216e+18,124.00121590169272,-2.056026498476664,-9.679091453552246,6.492762565612793,1.688875801671216e+18,124.00121590169272,-1.5527425309022267,-19.47199312845866,6.939584414164226,1.688875801671216e+18,124.00121590169272,0.4804825087388356,-9.777156511942543,0.3821082611878713,1.688875801671216e+18,124.00121590169272,0.4915938178698222,-2.2104158798853555,3.660559097925822,1.688875801671216e+18,124.00121590169272,0.4909320076306661,-2.205732583999634,3.6630025704701743,,,,,,,,,,,,1.6888758016659948e+18,123.99599482421874,-2.213079941272736,39.80127944946289,-25.48091926574707,1.6888758016659948e+18,123.99599482421874,-257.8396728515625,134.65627746582032,-158.60731811523436,1.688875801671216e+18,124.00121590169272,-0.4811315834522247,0.4363963603973388,-0.5331343015034994,0.5411909818649292,-0.9297550519307456,1.4937316179275513,0.2490235964457193
4.05,1.6888758017231155e+18,124.0531153971354,-4.835312048594157,-6.590681393941243,4.913314898808798,1.6888758017231155e+18,124.0531153971354,-2.772683302561442,-16.17009703318278,5.705087423324585,1.6888758017231155e+18,124.0531153971354,2.039827307065328,-9.56367047627767,0.7270591060320536,1.6888758017231155e+18,124.0531153971354,0.0963639914989471,-3.947258631388346,2.7466537952423096,1.6888758017231155e+18,124.0531153971354,0.0957022011280059,-3.942625999450683,2.7490971883138022,,,,,,,,,,,,1.6888758017159974e+18,124.04599760742188,-6.912519931793213,39.27179870605469,-25.58339958190918,1.6888758017159974e+18,124.04599760742188,-262.53911743164065,134.12679748535157,-158.7097961425781,1.6888758017231155e+18,124.0531153971354,-0.4843554000059764,0.3527774413426717,-0.5201836625734965,0.6075118184089661,-0.3504542509714762,1.346853494644165,1.627506693204244
4.1,1.688875801775009e+18,124.10500935872396,-5.115580717722575,4.450963020324707,-1.622603992621104,1.688875801775009e+18,124.10500935872396,-1.852244218190511,-4.785844698548317,-0.8087740341822306,1.688875801775009e+18,124.10500935872396,3.240535259246826,-9.221062660217283,0.7491164604822794,1.688875801775009e+18,124.10500935872396,0.9269880255063376,-2.008168617884318,3.0112602710723877,1.688875801775009e+18,124.10500935872396,0.9262753327687582,-2.003485321998596,3.0137036641438804,,,,,,,,,,,,1.688875801765997e+18,124.09599692382812,-6.953999805450439,39.36939926147461,-25.93231964111328,1.688875801765997e+18,124.09599692382812,-262.5805908203125,134.22439880371093,-159.0587188720703,1.688875801775009e+18,124.10500935872396,-0.454132338364919,0.2812457382678985,-0.505278746287028,0.6773481766382853,-0.2370111048221587,1.2235677242279053,1.3495486577351887
4.15,1.6888758018269153e+18,124.15691536458333,-9.65229606628418,12.700490951538086,0.524407962958018,1.6888758018269153e+18,124.15691536458333,-5.393821080525716,3.8907296657562256,1.532602866490682,1.6888758018269153e+18,124.15691536458333,4.235673586527507,-8.794015884399414,0.943481425444285,1.6888758018269153e+18,124.15691536458333,0.2523891621579726,-2.7369817097981772,1.9867374102274575,1.6888758018269153e+18,124.15691536458333,0.2517273842046658,-2.7324002583821616,1.9891808827718096,,,,,,,,,,,,1.688875801815993e+18,124.14599301757812,-10.577399635314942,39.293759155273435,-24.944119262695313,1.688875801815993e+18,124.14599301757812,-266.20399169921876,134.1487579345703,-158.07051696777344,1.6888758018269153e+18,124.15691536458333,-0.4370214641094208,0.2241522123416264,-0.4829649130503337,0.724579373995463,-0.2209567974011103,1.1113265752792358,1.2227474848429365
4.2,1.6888758018701652e+18,124.20016528320312,-6.856321811676025,12.040455341339111,-0.9981598258018494,1.6888758018701652e+18,124.20016528320312,-2.181057870388031,3.5234313011169434,0.5838487148284912,1.6888758018701652e+18,124.20016528320312,4.652462720870972,-8.5012788772583,1.5172950625419617,1.6888758018701652e+18,124.20016528320312,0.1772272735834121,-3.0166053771972656,1.367192804813385,1.6888758018701652e+18,124.20016528320312,0.1765400543808937,-3.011947512626648,1.3696362376213074,,,,,,,,,,,,1.6888758018659973e+18,124.195997265625,-9.82588005065918,38.67155838012695,-26.007959365844727,1.6888758018659973e+18,124.195997265625,-265.4524719238281,133.52655639648438,-159.1343566894531,1.6888758018701652e+18,124.20016528320312,-0.4158791005611419,0.1647883504629134,-0.4850189089775085,0.7513234913349152,-0.3168417811393738,1.0472047328948977,1.1949830651283264
4.25,1.6888758019134065e+18,124.24340649414064,-1.8597618738810224,7.373892466227214,0.2716242472330729,1.6888758019134065e+18,124.24340649414064,2.8867411812146506,-1.0368897517522175,2.1904297272364297,1.6888758019134065e+18,124.24340649414064,4.723701635996501,-8.395037015279135,1.854092001914978,1.6888758019134065e+18,124.24340649414064,0.5955936014652252,-1.7227417627970378,-0.0529416551192601,1.6888758019134065e+18,124.24340649414064,0.5949318508307139,-1.718109409014384,-0.0505490948756536,,,,,,,,,,,,1.6888758019159926e+18,124.245992578125,-8.622959899902344,38.44463958740234,-26.08603973388672,1.6888758019159926e+18,124.245992578125,-264.2495544433594,133.2996398925781,-159.21243896484376,1.6888758019134065e+18,124.24340649414064,-0.3927571475505829,0.1282279193401336,-0.492314726114273,0.7660336295763651,-0.3757906854152679,1.0257430871327715,1.1608759959538777
4.3,1.6888758019653148e+18,124.2953146158854,6.768439928690593,-1.8016169865926104,2.0552478233973184,1.6888758019653148e+18,124.2953146158854,11.05823040008545,-10.463414510091146,3.92542560895284,1.6888758019653148e+18,124.2953146158854,4.266988913218181,-8.646052360534668,1.8054643074671428,1.6888758019653148e+18,124.2953146158854,0.3793982267379761,-1.0813842018445332,-0.8381580263376236,1.6888758019653148e+18,124.2953146158854,0.3787364562352499,-1.0767008860905964,-0.835765485962232,,,,,,,,,,,,1.6888758019659968e+18,124.29599677734376,-5.21671986579895,39.65243988037109,-24.78795967102051,1.6888758019659968e+18,124.29599677734376,-260.84331665039065,134.50744018554687,-157.9143524169922,1.6888758019653148e+18,124.2953146158854,-0.3669459422429402,0.1263530453046162,-0.5160847902297974,0.7635241548220316,-0.4034899870554606,1.077701250712077,1.1394052902857463
4.35,1.6888758020172145e+18,124.34721451822917,7.419752756754558,-7.521395365397136,6.16703184445699,1.6888758020172145e+18,124.34721451822917,11.450254758199057,-16.121244112650555,8.770891348520914,1.6888758020172145e+18,124.34721451822917,4.007700681686401,-8.58410358428955,2.5391459465026855,1.6888758020172145e+18,124.34721451822917,-0.2710205415884653,-3.0513737201690674,0.4507167388995488,1.6888758020172145e+18,124.34721451822917,-0.271631399790446,-3.046792268753052,0.4531092892090479,,,,,,,,,,,,1.688875802015994e+18,124.34599375,-1.688479971885681,39.51091842651367,-25.934759902954102,1.688875802015994e+18,124.34599375,-257.3150695800781,134.36591796875,-159.0611572265625,1.6888758020172145e+18,124.34721451822917,-0.3408058881759643,0.0696436502039432,-0.5390159289042155,0.7668001651763916,-0.5673412680625916,1.0644875764846802,1.17639156182607
4.4,1.6888758020691085e+18,124.3991083170573,-2.0828307469685874,1.6052435239156086,4.7517933050791425,1.6888758020691085e+18,124.3991083170573,1.847059726715088,-6.978268464406331,7.56391175587972,1.6888758020691085e+18,124.3991083170573,3.9070889949798584,-8.567766825358072,2.7474049727121987,1.6888758020691085e+18,124.3991083170573,-0.0574722240368525,-0.433561623096466,-0.3684535622596741,1.6888758020691085e+18,124.3991083170573,-0.0581340094407401,-0.4289291898409526,-0.3660101095835368,,,,,,,,,,,,1.6888758020659912e+18,124.39599106445311,0.3586799949407577,39.51091995239258,-25.458959579467773,1.6888758020659912e+18,124.39599106445311,-255.2679168701172,134.36591796875,-158.58536071777343,1.6888758020691085e+18,124.3991083170573,-0.3145726124445597,0.04023111363252,-0.5471615195274353,0.7745913664499918,-0.61656387646993,1.061187982559204,1.1410682201385498
4.45,1.688875802121008e+18,124.45100789388022,-12.450165112813314,-10.483590443929035,0.9345184961954752,1.688875802121008e+18,124.45100789388022,-8.551350116729736,-19.069799105326336,3.779463529586792,1.688875802121008e+18,124.45100789388022,3.87601367632548,-8.57046381632487,2.780231475830078,1.688875802121008e+18,124.45100789388022,-0.2279545366764068,2.026545504728953,-0.6535749137401581,1.688875802121008e+18,124.45100789388022,-0.2287181119124094,2.0312796036402383,-0.651182326177756,1.6888758021296548e+18,124.45965478515625,0.0,0.0,1.634773850440979,6.629000186920166,1.7512449026107788,70.13003540039062,39.10000228881836,-122.7501784,49.1906086,1.6888758021159892e+18,124.44598930664064,-1.071159952878952,38.764279174804685,-26.774119567871093,1.6888758021159892e+18,124.44598930664064,-256.69775390625,133.61927795410156,-159.90051879882813,1.688875802121008e+18,124.45100789388022,-0.3488446672757466,0.0633701098461945,-0.5457179745038351,0.7590763966242472,-0.6230205496152242,1.0612550179163616,1.2349917888641355
4.5,1.6888758021729034e+18,124.50290356445312,-3.1453128655751548,2.540332476298014,-5.1956736246744795,1.6888758021729034e+18,124.50290356445312,-0.2965105374654134,-6.681558291117351,-3.389832019805908,1.6888758021729034e+18,124.50290356445312,2.8260008494059243,-9.206145604451498,1.7411280473073325,1.6888758021729034e+18,124.50290356445312,1.906001369158427,2.749504486719767,-4.040975411732991,1.6888758021729034e+18,124.50290356445312,1.9053396383921304,2.7542386452356973,-4.038582881291707,,,,,,,,,,,,1.688875802165991e+18,124.4959904785156,-0.1829999804496765,40.00867919921875,-24.25603904724121,1.688875802165991e+18,124.4959904785156,-255.80960083007812,134.86367492675782,-157.38243408203124,1.6888758021729034e+18,124.50290356445312,-0.3425178428490956,0.1495593711733817,-0.5757113099098206,0.7259105245272318,-0.5497409900029501,1.2229900360107422,1.272296706835429
4.55,1.6888758022248072e+18,124.55480721028646,-6.278764247894287,0.0431933403015138,-2.0024040937423706,1.6888758022248072e+18,124.55480721028646,-5.411767323811849,-9.651250998179115,-0.6456632812817891,1.6888758022248072e+18,124.55480721028646,0.8441954851150513,-9.678699175516764,1.2920273542404177,1.6888758022248072e+18,124.55480721028646,-1.3396275043487549,5.166800022125244,-3.728619654973348,1.6888758022248072e+18,124.55480721028646,-1.3403401523828506,5.1715342203776045,-3.726227045059204,,,,,,,,,,,,1.6888758022159898e+18,124.54598959960938,4.987359857559204,40.20875930786133,-22.94087944030762,1.6888758022159898e+18,124.54598959960938,-250.6392364501953,135.06376037597656,-156.06727905273436,1.6888758022248072e+18,124.55480721028646,-0.3839731514453888,0.273186981678009,-0.6170275807380676,0.6284327507019043,-0.9933138291041056,1.4060917695363362,1.9643323024113972
4.6,1.6888758022767076e+18,124.60670776367188,-1.7406526406606038,-1.4052783648173015,-1.1633971134821577,1.6888758022767076e+18,124.60670776367188,-1.8424734274546304,-11.09910790125529,0.4548356930414836,1.6888758022767076e+18,124.60670776367188,-0.1246222977836926,-9.67808437347412,1.5535192886988325,1.6888758022767076e+18,124.60670776367188,0.4419610102971394,1.7244725426038106,-2.5317309697469077,1.6888758022767076e+18,124.60670776367188,0.4412992199261983,1.7290540138880413,-2.5292875369389853,,,,,,,,,,,,1.6888758022659912e+18,124.59599116210936,3.9088799476623537,38.254319763183595,-26.613079452514647,1.6888758022659912e+18,124.59599116210936,-251.71771850585935,133.10931701660155,-159.73947448730468,1.6888758022767076e+18,124.60670776367188,-0.4387702246507008,0.3500203986962636,-0.618452807267507,0.5495149691899618,-1.6512409845987956,1.407013734181722,0.7448209921518961
4.65,1.6888758023199503e+18,124.6499501953125,5.839802026748657,2.4261221885681152,0.4170013070106507,1.6888758023199503e+18,124.6499501953125,4.398905277252197,-7.221239566802979,1.6034902781248093,1.6888758023199503e+18,124.6499501953125,-1.4636982083320618,-9.631616592407228,1.121775507926941,1.6888758023199503e+18,124.6499501953125,1.0292315483093262,0.337044894695282,-3.3495267629623413,1.6888758023199503e+18,124.6499501953125,1.0284680128097534,0.3417027294635771,-3.3470834493637085,,,,,,,,,,,,1.6888758023159908e+18,124.64599086914065,8.949919891357421,38.12255859375,-25.253999328613283,1.6888758023159908e+18,124.64599086914065,-246.67667541503903,132.9775604248047,-158.38039855957032,1.6888758023199503e+18,124.6499501953125,-0.4067589342594147,0.3998609930276871,-0.643152117729187,0.5106682777404785,-2.469441771507263,1.3815468549728394,-2.5935094356536865
4.7,1.6888758023632028e+18,124.6932029622396,4.669639587402344,4.20197057723999,0.9288861155509948,1.6888758023632028e+18,124.6932029622396,2.6534408728281655,-5.345964590708415,2.091127614180247,1.6888758023632028e+18,124.6932029622396,-2.039000153541565,-9.532190004984535,1.0975279808044434,1.6888758023632028e+18,124.6932029622396,0.2869030336538951,3.123659451802572,-1.164767285188039,1.6888758023632028e+18,124.6932029622396,0.2861394683519999,3.1282409032185874,-1.162323832511902,,,,,,,,,,,,1.6888758023659894e+18,124.695989453125,10.445639610290527,38.0347183227539,-24.885559844970704,1.6888758023659894e+18,124.695989453125,-245.1809539794922,132.88971862792968,-158.01195678710937,1.6888758023632028e+18,124.6932029622396,-0.4228361447652181,0.4518143037954966,-0.6313333908716837,0.4668083786964416,-2.6431239446004233,1.3339773019154866,-2.2948497931162515
4.75,1.688875802415114e+18,124.74511385091148,1.466412345568339,1.1389293670654297,-3.7211197217305503,1.688875802415114e+18,124.74511385091148,-0.8602197406192621,-8.279166221618652,-2.144567330678304,1.688875802415114e+18,124.74511385091148,-2.3494335810343423,-9.402350425720217,1.5118389924367268,1.688875802415114e+18,124.74511385091148,-0.6993898153305054,1.2855149904886882,-0.958752989768982,1.688875802415114e+18,124.74511385091148,-0.7000515659650167,1.29019828637441,-0.9563095569610596,,,,,,,,,,,,1.6888758024159954e+18,124.7459953125,9.306159782409669,37.0660400390625,-26.303199768066406,1.6888758024159954e+18,124.7459953125,-246.3204376220703,131.92103881835936,-159.42959289550782,1.688875802415114e+18,124.74511385091148,-0.4494160711765289,0.4793575008710225,-0.6237463355064392,0.4231456518173218,-2.564705769220988,1.2829405864079793,-2.2670962810516357
4.8,1.6888758024670134e+18,124.79701318359376,3.926813761393229,-1.528943379720052,-4.548969586690267,1.6888758024670134e+18,124.79701318359376,1.0799606343110402,-10.74158000946045,-2.6458636124928794,1.6888758024670134e+18,124.79701318359376,-2.8696544965108237,-9.19689146677653,1.8383924563725789,1.6888758024670134e+18,124.79701318359376,-0.5873469312985738,0.1096503138542175,-1.3043500185012815,1.6888758024670134e+18,124.79701318359376,-0.5881105164686838,0.1142318074901898,-1.3019574483235676,,,,,,,,,,,,1.6888758024659932e+18,124.7959931640625,10.340719985961917,35.88751983642578,-27.547599029541015,1.6888758024659932e+18,124.7959931640625,-245.28587646484377,130.74252014160157,-160.6739959716797,1.6888758024670134e+18,124.79701318359376,-0.4500360091527303,0.4911118745803833,-0.6357898116111755,0.3898017406463623,-2.56388258934021,1.216197649637858,-2.2343254884084067
4.85,1.6888758025189092e+18,124.8489092610677,2.1161723136901855,-6.1912415822347,-7.133576552073161,1.6888758025189092e+18,124.8489092610677,-0.9162516593933104,-15.329019864400228,-5.1495537757873535,1.6888758025189092e+18,124.8489092610677,-3.055225451787313,-9.122033119201658,1.9193092584609983,1.6888758025189092e+18,124.8489092610677,0.3579670389493306,0.3227404703696568,-0.1049670148640871,1.6888758025189092e+18,124.8489092610677,0.3573561708132426,0.3273728688557942,-0.1026253625750541,,,,,,,,,,,,1.6888758025159908e+18,124.84599077148437,11.411879539489746,34.63336029052734,-28.18687973022461,1.6888758025159908e+18,124.84599077148437,-244.21471557617187,129.4883605957031,-161.3132751464844,1.6888758025189092e+18,124.8489092610677,-0.4491518040498097,0.4959929784138997,-0.6395028432210287,0.3784956137339274,-2.571082353591919,1.1934572060902913,-2.215496857961019
4.9,1.6888758025708055e+18,124.9008056640625,1.1737175782521565,-6.341086069742839,-1.3291831811269124,1.6888758025708055e+18,124.9008056640625,-1.3499507506688435,-15.71326732635498,0.1603191581865151,1.6888758025708055e+18,124.9008056640625,-2.546469767888387,-9.356436093648275,1.4247888724009197,1.6888758025708055e+18,124.9008056640625,1.2679017384847004,0.3422372465332349,2.252667407194773,1.6888758025708055e+18,124.9008056640625,1.267138163248698,0.3469205473860104,2.25511085987091,,,,,,,,,,,,1.688875802565993e+18,124.89599272460936,10.179679775238036,35.836279296875,-26.46179962158203,1.688875802565993e+18,124.89599272460936,-245.44691467285156,130.69127807617187,-159.58819580078125,1.6888758025708055e+18,124.9008056640625,-0.4551001985867818,0.5040521423021952,-0.6122628450393677,0.4043279687563578,-2.614152510960897,1.2674195766448977,-2.156379302342733
4.95,1.6888758026227126e+18,124.95271264648436,-4.6235105991363525,-8.37352720896403,5.527736981709798,1.6888758026227126e+18,124.95271264648436,-5.51625378926595,-18.11865234375,6.296114603678386,1.6888758026227126e+18,124.95271264648436,-0.91554456949234,-9.729379971822103,0.7036642034848531,1.6888758026227126e+18,124.95271264648436,1.6132442553838091,-0.6935866077740988,3.3763540585835776,1.6888758026227126e+18,124.95271264648436,1.6125315030415852,-0.6890051166216532,3.378746668497721,,,,,,,,,,,,1.6888758026159903e+18,124.945990234375,3.7966399669647215,38.62763977050781,-24.26823959350586,1.6888758026159903e+18,124.945990234375,-251.8299560546875,133.48263549804688,-157.39463500976564,1.6888758026227126e+18,124.95271264648436,-0.4826545814673106,0.4889246622721354,-0.5538074970245361,0.4696608483791351,-2.405268589655558,1.4506148099899292,-2.359104633331299
5.0,1.688875802674613e+18,125.00461271158856,-2.978283017873764,-9.039881070454916,9.459381421407064,1.688875802674613e+18,125.00461271158856,-2.091526359319687,-18.808183670043945,9.85184892018636,1.688875802674613e+18,125.00461271158856,0.8639551997184753,-9.752557436625162,0.3277540902296702,1.688875802674613e+18,125.00461271158856,-0.0390444695949554,-1.5018630623817444,3.698789040247599,1.688875802674613e+18,125.00461271158856,-0.0397571523984272,-1.4972306887308755,3.701181650161743,1.6888758026486625e+18,124.97866259765624,0.0,0.0,1.634773850440979,6.638000011444092,1.7439674139022827,69.3003158569336,39.10000228881836,-122.7501715,49.1906116,1.6888758026659927e+18,124.99599267578124,-2.1423199769109487,40.0086784362793,-22.286959838867187,1.6888758026659927e+18,124.99599267578124,-257.76891174316404,134.86367492675782,-155.4133544921875,1.688875802674613e+18,125.00461271158856,-0.4933758775393168,0.4325668712457021,-0.517506460348765,0.5485296249389648,-0.5079288979371389,1.4723480145136516,1.938280502955119
5.05,1.6888758027265124e+18,125.05651228841144,-2.2761947313944506,-2.7514769236246743,0.4490821361541748,1.6888758027265124e+18,125.05651228841144,-0.0600198904673258,-12.297114372253418,1.199402431646983,1.6888758027265124e+18,125.05651228841144,2.1933734814325967,-9.529892285664875,0.6856068174044291,1.6888758027265124e+18,125.05651228841144,0.5649485376973947,-4.636110782623291,2.831564029057821,1.6888758027265124e+18,125.05651228841144,0.5642358536521593,-4.631427526473999,2.834007501602173,,,,,,,,,,,,1.688875802715995e+18,125.045994921875,-5.4143599510192875,39.16687850952148,-23.52403907775879,1.688875802715995e+18,125.045994921875,-261.04095458984375,134.021875,-156.650439453125,1.6888758027265124e+18,125.05651228841144,-0.475346028804779,0.3411030868689219,-0.5201685428619385,0.6208049654960632,-0.3162650962670644,1.332419753074646,1.5583172639211018
5.1,1.6888758027697638e+18,125.099763671875,-6.007953882217407,7.4565672874450675,-2.0913442373275757,1.6888758027697638e+18,125.099763671875,-2.503490686416626,-1.7096718102693556,-1.4641083180904388,1.6888758027697638e+18,125.099763671875,3.4816616773605347,-9.150493621826172,0.5625224709510803,1.6888758027697638e+18,125.099763671875,0.8355109393596648,-1.3274102210998535,3.4419965744018555,1.6888758027697638e+18,125.099763671875,0.834823727607727,-1.3227522969245913,3.444440007209778,,,,,,,,,,,,1.6888758027659973e+18,125.09599731445311,-6.839319896697998,39.36696014404297,-22.818879699707033,1.6888758027659973e+18,125.09599731445311,-262.4659118652344,134.22195739746093,-155.94527587890624,1.6888758027697638e+18,125.099763671875,-0.4558559358119964,0.2833647280931473,-0.4918624013662338,0.6853779554367065,-0.1690078452229499,1.201959788799286,1.2903773188591003
5.15,1.6888758028130112e+18,125.14301123046874,-9.87213102976481,11.78218142191569,-0.4389795462290446,1.6888758028130112e+18,125.14301123046874,-5.534000555674235,3.01336137453715,0.5750750303268433,1.6888758028130112e+18,125.14301123046874,4.315329074859619,-8.753074963887533,0.949341118335724,1.6888758028130112e+18,125.14301123046874,-0.2215404659509658,-2.9432504971822104,1.99391504128774,1.6888758028130112e+18,125.14301123046874,-0.2223040362199147,-2.938669045766195,1.9963585535685224,,,,,,,,,,,,1.6888758028159946e+18,125.14599477539062,-9.07923984527588,38.95459899902344,-23.27759971618652,1.6888758028159946e+18,125.14599477539062,-264.7058410644531,133.80959777832032,-156.40399475097655,1.6888758028130112e+18,125.14301123046874,-0.4429646233717599,0.2246496925751367,-0.4783397316932678,0.7237915198008219,-0.2189765026172001,1.1018097003300984,1.2327440579732258
5.2,1.6888758028649116e+18,125.19491186523436,-7.518971443176269,9.390329043070476,-1.5974729855855303,1.6888758028649116e+18,125.19491186523436,-2.8520451386769614,0.9381858706474304,0.3264208820958932,1.6888758028649116e+18,125.19491186523436,4.644124666849772,-8.436398188273111,1.8591803709665935,1.6888758028649116e+18,125.19491186523436,-0.120391363898913,-2.8175650437672934,1.021010339260101,1.6888758028649116e+18,125.19491186523436,-0.1211040318012237,-2.8128817478815713,1.0234538118044536,,,,,,,,,,,,1.688875802865997e+18,125.19599697265626,-6.644119834899902,38.525160217285155,-25.019759368896484,1.688875802865997e+18,125.19599697265626,-262.2707214355469,133.38015747070312,-158.14615173339843,1.6888758028649116e+18,125.19491186523436,-0.4148830970128377,0.1444265743096669,-0.4915951490402221,0.7516461213429769,-0.3820137083530426,1.033703327178955,1.2274609009424846
5.25,1.6888758029168105e+18,125.24681038411455,-1.3554801146189372,5.311877886454265,0.3659275372823078,1.6888758029168105e+18,125.24681038411455,3.1100712617238364,-3.194019397099813,2.520639260609945,1.6888758029168105e+18,125.24681038411455,4.442749977111816,-8.49015204111735,2.089998245239258,1.6888758029168105e+18,125.24681038411455,1.0548624793688457,-1.1992811957995098,-0.9509644483526548,1.6888758029168105e+18,125.24681038411455,1.054200679063797,-1.194699724515279,-0.9485210056106248,,,,,,,,,,,,1.6888758029159951e+18,125.24599536132811,-4.065039825439453,39.32547912597656,-24.665959930419923,1.6888758029159951e+18,125.24599536132811,-259.69163208007814,134.18047790527345,-157.7923583984375,1.6888758029168105e+18,125.24681038411455,-0.3841286301612854,0.1162613506118456,-0.5091493626435598,0.7612489461898804,-0.4401645461718241,1.0444917678833008,1.1906604369481404
5.3,1.688875802968711e+18,125.29871077473956,10.688323656717936,-6.782754421234131,3.3788850704828897,1.688875802968711e+18,125.29871077473956,14.57607905069987,-15.641682147979736,5.194818099339803,1.688875802968711e+18,125.29871077473956,3.8649534384409585,-8.843182245890299,1.7512195507685344,1.688875802968711e+18,125.29871077473956,0.323707640171051,-1.148477594057719,-0.1544471383094787,1.688875802968711e+18,125.29871077473956,0.3229440848032632,-1.1438451657692592,-0.1520545085271199,,,,,,,,,,,,1.688875802966003e+18,125.29600288085938,1.180959987640381,41.58979873657226,-22.09419937133789,1.688875802966003e+18,125.29600288085938,-254.44563903808591,136.44479675292968,-155.22059631347656,1.688875802968711e+18,125.29871077473956,-0.3466844956080118,0.12590887149175,-0.5353107253710429,0.7597944339116415,-0.4268624087174733,1.1217211484909058,1.1266305446624756
5.35,1.6888758030206124e+18,125.3506124674479,5.05651060740153,-4.922609647115071,7.845503489176433,1.6888758030206124e+18,125.3506124674479,9.109874804814655,-13.41994607448578,10.740384101867676,1.6888758030206124e+18,125.3506124674479,4.030562877655029,-8.48159122467041,2.830167293548584,1.6888758030206124e+18,125.3506124674479,-0.4246531228224436,-3.6033922831217446,1.159982184569041,1.6888758030206124e+18,125.3506124674479,-0.4253149032592773,-3.5987090269724527,1.1624256372451782,,,,,,,,,,,,1.688875803015997e+18,125.34599692382812,3.4281999111175536,41.31408004760742,-23.62163963317871,1.688875803015997e+18,125.34599692382812,-252.19839782714843,136.16907653808593,-156.74803466796874,1.6888758030206124e+18,125.3506124674479,-0.3254971504211425,0.0400960172216097,-0.5405618151028951,0.7743707299232483,-0.6130565404891968,1.0428655942281086,1.1553369760513306
5.4,1.6888758030725036e+18,125.40250358072916,-9.910701354344686,-2.1694741249084473,5.844178517659505,1.6888758030725036e+18,125.40250358072916,-5.827919006347656,-10.538389444351196,9.06580670674642,1.6888758030725036e+18,125.40250358072916,4.059980948766072,-8.353170077006022,3.156914393107096,1.6888758030725036e+18,125.40250358072916,-0.878576934337616,1.607135554154714,-0.0944804946581522,1.6888758030725036e+18,125.40250358072916,-0.879187802473704,1.611818830172221,-0.0921388367811838,,,,,,,,,,,,1.688875803065996e+18,125.39599604492189,4.069919919967651,41.87527847290039,-23.570399856567384,1.688875803065996e+18,125.39599604492189,-251.55667724609376,136.73027648925782,-156.6967987060547,1.6888758030725036e+18,125.40250358072916,-0.3249941269556681,0.0182103907379011,-0.5403020977973938,0.7756829659144083,-0.6611072421073914,1.0168484846750896,1.1713809569676716
5.45,1.6888758031244106e+18,125.45441064453124,-2.4921849568684897,-3.2499450047810874,-6.786047061284383,1.6888758031244106e+18,125.45441064453124,1.2580264409383135,-11.960922876993816,-4.19142775113384,1.6888758031244106e+18,125.45441064453124,3.727409998575846,-8.695232709248861,2.529905637105306,1.6888758031244106e+18,125.45441064453124,1.3907365401585896,2.6284004847208657,-3.066950798034668,1.6888758031244106e+18,125.45441064453124,1.389972945054372,2.633083780606588,-3.064558188120524,,,,,,,,,,,,1.6888758031159972e+18,125.44599721679688,3.0011999130249025,41.628839111328126,-23.83391990661621,1.6888758031159972e+18,125.44599721679688,-252.62539367675785,136.483837890625,-156.96031799316407,1.6888758031244106e+18,125.45441064453124,-0.3473398685455322,0.0817488903800646,-0.5488140185674032,0.75509246190389,-0.5920408566792806,1.0904026826222737,1.227562149365743
5.5,1.6888758031763044e+18,125.50630428059895,-8.291225751241049,-0.2212568918863932,-1.9227480093638103,1.6888758031763044e+18,125.50630428059895,-6.471787611643474,-9.769097010294596,-0.5389833052953085,1.6888758031763044e+18,125.50630428059895,1.796636422475179,-9.532094955444336,1.3190512259801228,1.6888758031763044e+18,125.50630428059895,0.5632686813672384,4.644204934438069,-4.905553340911865,1.6888758031763044e+18,125.50630428059895,0.5625559687614441,4.648837248484294,-4.903109868367513,1.68887580316766e+18,125.49765991210936,0.0,0.0,1.6440171003341677,6.63700008392334,1.733284831047058,68.1745376586914,39.10000228881836,-122.750162,49.1906157,1.688875803165997e+18,125.49599697265626,8.1227596282959,42.63167953491211,-21.591559600830077,1.688875803165997e+18,125.49599697265626,-247.50383605957032,137.48667907714844,-154.71795349121095,1.6888758031763044e+18,125.50630428059895,-0.3597529431184132,0.2192587653795878,-0.5978841185569763,0.6801596085230509,-0.6514847874641418,1.3377517461776731,1.5019994179407756
5.55,1.6888758032195548e+18,125.54955480957032,-4.758723497390747,-3.9937853813171382,-2.1630702018737793,1.6888758032195548e+18,125.54955480957032,-4.2637107372283936,-13.707284927368164,-0.7085746228694915,1.6888758032195548e+18,125.54955480957032,0.4722112119197845,-9.697754383087158,1.3897820711135864,1.6888758032195548e+18,125.54955480957032,-1.2043208181858065,4.796513915061951,-2.837621808052063,1.6888758032195548e+18,125.54955480957032,-1.2050844430923462,4.801171779632568,-2.835178256034851,,,,,,,,,,,,1.6888758032159946e+18,125.54599467773436,12.07555980682373,40.42835922241211,-24.35119972229004,1.6888758032159946e+18,125.54599467773436,-243.55103759765623,135.28335571289062,-157.47759704589845,1.6888758032195548e+18,125.54955480957032,-0.4158976078033447,0.3121504783630371,-0.6139183640480042,0.5934540629386902,-1.2221067547798157,1.4194780588150024,2.3073558807373047
5.6,1.68887580326281e+18,125.59281013997396,-0.388481100400289,2.533560117085775,-1.835612177848816,1.68887580326281e+18,125.59281013997396,-1.0376873811086018,-7.178667386372884,-0.5162514845530192,1.68887580326281e+18,125.59281013997396,-0.6720078388849894,-9.696482340494793,1.254647135734558,1.68887580326281e+18,125.59281013997396,0.601905882358551,-0.7509569923082987,-2.828458865483602,1.68887580326281e+18,125.59281013997396,0.6012441317240397,-0.74632461865743,-2.82601531346639,,,,,,,,,,,,1.6888758032660017e+18,125.59600180664064,14.73759994506836,38.73255996704101,-26.110439682006835,1.6888758032660017e+18,125.59600180664064,-240.8889953613281,133.58755798339843,-159.2368408203125,1.68887580326281e+18,125.59281013997396,-0.4027506311734517,0.3515739440917969,-0.6395976146062216,0.5518811146418253,-2.031521439552307,1.420990983645121,-1.0284703572591145
5.65,1.6888758033147098e+18,125.6447098795573,6.062022844950358,3.4869117736816406,2.1765478452046714,1.6888758033147098e+18,125.6447098795573,4.42732032140096,-6.152146339416504,3.1686954498291016,1.6888758033147098e+18,125.6447098795573,-1.657503883043925,-9.623312950134276,0.9274341464042664,1.6888758033147098e+18,125.6447098795573,0.7596618334452311,1.448616032799085,-1.4227051734924316,1.6888758033147098e+18,125.6447098795573,0.759050985177358,1.453197496632735,-1.4202617009480794,,,,,,,,,,,,1.688875803315997e+18,125.645996875,20.33984031677246,37.98591995239258,-24.13891944885254,1.688875803315997e+18,125.645996875,-235.28675537109376,132.84091491699218,-157.26531372070312,1.6888758033147098e+18,125.6447098795573,-0.3747718135515849,0.3823799987634023,-0.6609297593434652,0.5255689223607382,-2.626375913619995,1.3782250086466472,-2.5208125909169516
5.7,1.688875803366608e+18,125.69660799153644,1.8618565797805784,3.42990509668986,-1.43535582224528,1.688875803366608e+18,125.69660799153644,-0.2231307079394658,-6.092724641164144,-0.1982054511706034,1.688875803366608e+18,125.69660799153644,-2.1077888011932373,-9.506884574890138,1.1724368731180828,1.688875803366608e+18,125.69660799153644,-0.4024074772993724,2.942843278249105,-1.257669727007548,1.688875803366608e+18,125.69660799153644,-0.4031201551357905,2.9475266138712564,-1.255277156829834,,,,,,,,,,,,1.6888758033659983e+18,125.69599833984375,19.476079559326173,37.03431854248047,-26.686279296875,1.6888758033659983e+18,125.69599833984375,-236.1505126953125,131.88931884765626,-159.81267700195312,1.688875803366608e+18,125.69660799153644,-0.408727357784907,0.4322679042816162,-0.6475944916407267,0.4756384789943695,-2.6357507705688477,1.324697494506836,-2.3620173136393228
5.75,1.688875803418511e+18,125.74851098632811,2.333310604095459,-0.9861946105957032,-3.3472095330556235,1.688875803418511e+18,125.74851098632811,-0.1359920402367909,-10.355538050333658,-1.7004992961883545,1.688875803418511e+18,125.74851098632811,-2.4921040534973145,-9.353598276774088,1.5819966395696003,1.688875803418511e+18,125.74851098632811,-0.584598034620285,0.1583668192227681,-1.1308643023173015,1.688875803418511e+18,125.74851098632811,-0.5853616297245026,0.1629992028077443,-1.1284208297729492,,,,,,,,,,,,1.6888758034159962e+18,125.74599619140623,19.061279296875,35.4580795288086,-29.08235969543457,1.6888758034159962e+18,125.74599619140623,-236.56531677246093,130.31307678222657,-162.2087615966797,1.688875803418511e+18,125.74851098632811,-0.4239248236020406,0.4462558329105376,-0.6533981362978617,0.4405987362066905,-2.5735525290171304,1.2669940789540608,-2.3657569090525308
5.8,1.6888758034704115e+18,125.80041153971356,2.2370964686075845,-4.072292963663737,-5.695405642191569,1.6888758034704115e+18,125.80041153971356,-0.7425726652145386,-13.250454902648926,-3.823331832885742,1.6888758034704115e+18,125.80041153971356,-3.0024705727895102,-9.162416776021322,1.8073603709538777,1.6888758034704115e+18,125.80041153971356,-0.2193006177743276,0.7438302536805471,-0.5910630226135254,1.6888758034704115e+18,125.80041153971356,-0.2200133005777994,0.7484626372655233,-0.5887213746706644,,,,,,,,,,,,1.688875803465997e+18,125.79599721679688,20.99375915527344,33.593920135498045,-30.158399200439455,1.688875803465997e+18,125.79599721679688,-234.6328338623047,128.44891967773438,-163.28479614257813,1.6888758034704115e+18,125.80041153971356,-0.4211723705132801,0.4563775261243184,-0.6663152774175009,0.4126888314882914,-2.5967957178751626,1.2066550254821775,-2.320793708165487
5.85,1.688875803522309e+18,125.85230900065103,7.290394465128581,-4.243741989135742,-4.152873675028483,1.688875803522309e+18,125.85230900065103,4.406980991363525,-13.497115135192873,-2.5288147727648416,1.688875803522309e+18,125.85230900065103,-2.906215031941732,-9.237627983093262,1.5593453645706177,1.688875803522309e+18,125.85230900065103,0.9785043001174928,0.5771149595578512,0.3953316236535708,1.688875803522309e+18,125.85230900065103,0.9777916272481284,0.5817473332087199,0.3977750738461812,,,,,,,,,,,,1.6888758035159926e+18,125.84599267578126,20.586279678344727,34.62847900390625,-30.11447944641113,1.6888758035159926e+18,125.84599267578126,-235.04031372070312,129.4834777832031,-163.24087829589843,1.688875803522309e+18,125.85230900065103,-0.4245908955732981,0.4728959302107493,-0.6509754061698914,0.4150085945924123,-2.64437206586202,1.2283689578374226,-2.239240566889445
5.9,1.6888758035742088e+18,125.9042088216146,-5.233379125595093,-6.627009391784668,-0.5821826656659445,1.6888758035742088e+18,125.9042088216146,-6.967500925064087,-16.20240052541097,0.736590564250946,1.6888758035742088e+18,125.9042088216146,-1.7569232781728108,-9.559645970662435,1.2540597915649414,1.6888758035742088e+18,125.9042088216146,1.099964678287506,1.0759882256388664,2.9151507218678794,1.6888758035742088e+18,125.9042088216146,1.0993029276529949,1.0805696894725163,2.9175942738850913,,,,,,,,,,,,1.6888758035659963e+18,125.89599624023438,16.948239707946776,37.8931999206543,-28.738319396972656,1.6888758035659963e+18,125.89599624023438,-238.67835693359376,132.74819641113282,-161.86471557617188,1.6888758035742088e+18,125.9042088216146,-0.456402579943339,0.4705983499685923,-0.606001615524292,0.4499907692273457,-2.501458485921224,1.3484107653299968,-2.340860684712728
5.95,1.688875803626106e+18,125.95610620117186,-3.1752586166063943,-7.813806533813477,4.455682118733724,1.688875803626106e+18,125.95610620117186,-3.3479576955238977,-17.611773173014324,4.993422031402588,1.688875803626106e+18,125.95610620117186,-0.195500502983729,-9.78222147623698,0.4730264991521835,1.688875803626106e+18,125.95610620117186,1.5434019168217976,-2.0849848985671997,3.5332955519358316,1.688875803626106e+18,125.95610620117186,1.5427910884221394,-2.080352505048116,3.5356880823771157,,,,,,,,,,,,1.688875803615995e+18,125.94599492187498,9.982039833068848,41.958238983154295,-25.75663948059082,1.688875803615995e+18,125.94599492187498,-245.6445556640625,136.8132354736328,-158.88303833007814,1.688875803626106e+18,125.95610620117186,-0.4588344395160675,0.440904955069224,-0.5609282851219177,0.5285374422868093,-1.6250672539075215,1.5003604491551716,-1.183091402053833
6.0,1.6888758036693532e+18,125.99935327148438,-1.6623911261558533,-11.064950942993164,10.76209831237793,1.6888758036693532e+18,125.99935327148438,-0.2895315289497375,-20.784356117248535,11.219347476959229,1.6888758036693532e+18,125.99935327148438,1.350058138370514,-9.703660011291504,0.3925357460975647,1.6888758036693532e+18,125.99935327148438,-0.7611381113529205,-1.097877562046051,3.6306012868881226,1.6888758036693532e+18,125.99935327148438,-0.7618253231048584,-1.0932197272777555,3.632968306541443,1.6888758036866614e+18,126.01666137695312,0.0,0.0,1.6440171003341677,6.633999824523926,1.730668306350708,67.7347640991211,39.10000228881836,-122.7501538,49.1906189,1.688875803665997e+18,125.99599692382812,4.067479968070984,44.70323867797852,-23.460599899291992,1.688875803665997e+18,125.99599692382812,-251.55911560058593,139.55823669433593,-156.58699645996094,1.6888758036693532e+18,125.99935327148438,-0.4677430242300033,0.3852118700742721,-0.5310394763946533,0.5920764207839966,-0.2817690074443817,1.4254721999168396,1.5808086395263672
6.05,1.6888758037126085e+18,126.0426082356771,-2.635498642921448,-3.412357648213705,1.746379812558492,1.6888758037126085e+18,126.0426082356771,-0.2137587865193679,-12.907084465026855,2.52981170018514,1.6888758037126085e+18,126.0426082356771,2.3989383379618325,-9.478981653849283,0.7187183499336243,1.6888758037126085e+18,126.0426082356771,0.6023640235265096,-4.472907940546672,2.770935614903768,1.6888758037126085e+18,126.0426082356771,0.6017022629578909,-4.468275626500447,2.77337916692098,,,,,,,,,,,,1.688875803715991e+18,126.04599106445312,0.6978399902582169,44.939918518066406,-22.95795936584473,1.688875803715991e+18,126.04599106445312,-254.9287567138672,139.79491577148437,-156.08435668945313,1.6888758037126085e+18,126.0426082356771,-0.4468502302964528,0.308801919221878,-0.5299077033996582,0.6499252120653788,-0.2918574213981628,1.311027963956197,1.430994709332784
6.1,1.6888758037645076e+18,126.0945077311198,-7.497883081436157,7.585573196411133,-2.106043517589569,1.6888758037645076e+18,126.0945077311198,-3.751347720623016,-1.4783655802408855,-1.4055838771164415,1.6888758037645076e+18,126.0945077311198,3.723733981450399,-9.04819361368815,0.635746161142985,1.6888758037645076e+18,126.0945077311198,0.8775079548358917,-1.806023041407267,2.7103072007497153,1.6888758037645076e+18,126.0945077311198,0.8768461247285207,-1.801339824994405,2.7126998901367188,,,,,,,,,,,,1.688875803765995e+18,126.09599501953126,-3.3525599360466005,45.7914794921875,-20.51063995361328,1.688875803765995e+18,126.09599501953126,-258.979150390625,140.64647521972657,-153.6370361328125,1.6888758037645076e+18,126.0945077311198,-0.4144428074359894,0.2429456462462742,-0.5003415644168854,0.7199828426043192,-0.1713734716176986,1.173837701479594,1.1595338980356853
6.15,1.6888758038164047e+18,126.14640462239583,-10.566524187723797,12.631159464518229,-1.0567623575528462,1.6888758038164047e+18,126.14640462239583,-6.136393706003825,3.9519460201263423,0.2879363243894962,1.6888758038164047e+18,126.14640462239583,4.407329082489014,-8.663468360900879,1.2799851894378662,1.6888758038164047e+18,126.14640462239583,-0.4000658392906189,-3.7923022905985513,1.5938492218653362,1.6888758038164047e+18,126.14640462239583,-0.400676687558492,-3.7875681718190513,1.5962926944096882,,,,,,,,,,,,1.688875803815997e+18,126.14599697265626,-5.389959812164307,45.78415908813477,-20.36423950195313,1.688875803815997e+18,126.14599697265626,-261.016552734375,140.6391571044922,-153.49064025878906,1.6888758038164047e+18,126.14640462239583,-0.3830979466438293,0.1646045744419097,-0.4966861704985301,0.7606222033500671,-0.2794030159711837,1.0810984373092651,1.1009076436360676
6.2,1.688875803868304e+18,126.19830419921875,-3.5196690559387207,8.281009197235107,-0.4674872159957886,1.688875803868304e+18,126.19830419921875,1.0801600615183513,-0.1700897862513859,1.6291134059429169,1.688875803868304e+18,126.19830419921875,4.577027638753255,-8.435353914896647,2.0318871339162192,1.688875803868304e+18,126.19830419921875,0.6245587908973297,-2.2306253910064697,0.5706499367952347,1.688875803868304e+18,126.19830419921875,0.6237952200074991,-2.2259929180145264,0.5730934192736944,,,,,,,,,,,,1.6888758038659963e+18,126.19599628906248,-4.42859992980957,45.32055892944336,-21.501279449462892,1.6888758038659963e+18,126.19599628906248,-260.0552001953125,140.17555541992186,-154.62767944335937,1.688875803868304e+18,126.19830419921875,-0.3452856441338857,0.0913903514544168,-0.5071075956026713,0.7842380007108053,-0.4156146248181661,1.032772660255432,1.0677719116210938
6.25,1.6888758039202076e+18,126.25020751953126,3.692542870839437,4.940716902414958,0.8727946678797406,1.6888758039202076e+18,126.25020751953126,7.734799226125081,-3.841676870981852,2.68674099445343,1.6888758039202076e+18,126.25020751953126,4.019454876581828,-8.766648610432943,1.7492328484853108,1.6888758039202076e+18,126.25020751953126,1.5704327424367268,-1.1508700847625732,-2.2414681911468506,1.6888758039202076e+18,126.25020751953126,1.5697200298309326,-1.1462377309799194,-2.2390247186024985,,,,,,,,,,,,1.6888758039159936e+18,126.24599375,-1.727519941329956,46.4673583984375,-18.82459945678711,1.6888758039159936e+18,126.24599375,-257.35411682128904,141.32236022949218,-151.95099792480468,1.6888758039202076e+18,126.25020751953126,-0.2967168688774109,0.0880713736017544,-0.5350109537442526,0.7857757012049357,-0.4100750585397084,1.105151096979777,0.977141261100769
6.3,1.6888758039721044e+18,126.30210441080727,6.36866553624471,-11.633137067159018,6.838609218597412,1.6888758039721044e+18,126.30210441080727,9.642277399698893,-20.628324190775555,9.105089028676352,1.6888758039721044e+18,126.30210441080727,3.2508106231689453,-8.979442278544107,2.20176613330841,1.6888758039721044e+18,126.30210441080727,-1.6147713263829548,-2.5270986557006836,0.3894266088803609,1.6888758039721044e+18,126.30210441080727,-1.6154840191205342,-2.522364377975464,0.3918700218200686,,,,,,,,,,,,1.6888758039659955e+18,126.29599536132812,4.60915994644165,46.618638610839845,-18.08039970397949,1.6888758039659955e+18,126.29599536132812,-251.0174346923828,141.47364196777343,-151.20679321289063,1.6888758039721044e+18,126.30210441080727,-0.274655669927597,0.0586715017755826,-0.5739893118540446,0.7686835130055746,-0.5898161629835764,1.1558080116907756,1.0763566493988037
6.35,1.6888758040240074e+18,126.35400724283856,5.373310327529907,-1.7449930508931475,10.315661430358888,1.6888758040240074e+18,126.35400724283856,9.094919522603352,-10.32702366511027,13.40678564707438,1.6888758040240074e+18,126.35400724283856,3.698807636896769,-8.566285451253256,3.0264106591542563,1.6888758040240074e+18,126.35400724283856,-0.1142827073733011,-1.2025391260782878,1.3039936423301697,1.6888758040240074e+18,126.35400724283856,-0.1149444580078125,-1.1978558699289958,1.3064371248086293,,,,,,,,,,,,1.688875804015999e+18,126.34599897460936,3.486759948730469,46.223358917236325,-19.707879638671876,1.688875804015999e+18,126.34599897460936,-252.13983154296875,141.07835388183594,-152.83427734375,1.6888758040240074e+18,126.35400724283856,-0.2498382776975631,-0.0194941000081598,-0.5572001536687216,0.791556715965271,-0.6858396927515665,1.060316562652588,1.024112105369568
6.4,1.688875804075904e+18,126.40590413411458,-14.493288040161133,-5.622193972269694,-2.2043511072794595,1.688875804075904e+18,126.40590413411458,-10.451251029968262,-14.018351236979166,0.9954142570495612,1.688875804075904e+18,126.40590413411458,4.019235531489055,-8.380412101745605,3.13505212465922,1.688875804075904e+18,126.40590413411458,-0.6677266359329224,1.8675678074359896,-0.5572618171572685,1.688875804075904e+18,126.40590413411458,-0.6683374842007955,1.8722001314163208,-0.5548692668477694,,,,,,,,,,,,1.6888758040659963e+18,126.39599624023438,0.1146799772977829,45.43279876708984,-21.086479949951173,1.6888758040659963e+18,126.39599624023438,-255.5119171142578,140.2877960205078,-154.21288146972657,1.688875804075904e+18,126.40590413411458,-0.2936048607031504,-0.0009065108994642,-0.542319099108378,0.7871070504188538,-0.6607898871103922,1.0223292112350464,1.0942037502924602
6.45,1.688875804119149e+18,126.44914916992188,-0.1904501914978027,3.3788774013519287,-8.25497817993164,1.688875804119149e+18,126.44914916992188,3.327818125486374,-5.522634744644165,-5.981757640838623,1.688875804119149e+18,126.44914916992188,3.4954668283462524,-8.885766983032227,2.208507239818573,1.688875804119149e+18,126.44914916992188,3.0091222524642944,2.806696653366089,-2.604042172431946,1.688875804119149e+18,126.44914916992188,3.0085113048553467,2.8114309310913086,-2.601598799228668,,,,,,,,,,,,1.6888758041159985e+18,126.44599853515624,2.0056799411773683,46.10867919921875,-18.66843948364258,1.6888758041159985e+18,126.44599853515624,-253.62091674804688,140.96367492675782,-151.79483947753906,1.688875804119149e+18,126.44914916992188,-0.2819862365722656,0.0594492629170417,-0.5628849565982819,0.7742809355258942,-0.5575812458992004,1.132752537727356,1.0574712753295898
6.5,1.688875804162407e+18,126.49240665690104,-8.733333905537924,-1.8953673044840496,-3.310338536898295,1.688875804162407e+18,126.49240665690104,-6.860421975453694,-11.461620648701986,-2.1806590457757316,1.688875804162407e+18,126.49240665690104,1.8501104911168416,-9.550508181254068,1.064965903759003,1.688875804162407e+18,126.49240665690104,-0.0410806834697722,5.900245666503906,-5.167970975240071,1.688875804162407e+18,126.49240665690104,-0.0417933662732442,5.90487798055013,-5.165578365325928,,,,,,,,,,,,1.688875804165995e+18,126.495994921875,8.48631992340088,46.61131973266602,-16.565159606933594,1.688875804165995e+18,126.495994921875,-247.14027099609376,141.46631774902343,-149.69155883789062,1.688875804162407e+18,126.49240665690104,-0.3067337175210317,0.1886201401551564,-0.6059732039769491,0.7069024443626404,-0.5520287752151489,1.347204089164734,1.2732831239700315
6.55,1.6888758042143078e+18,126.54430777994791,-4.998091538747151,-5.201076507568359,-0.2856186230977376,1.6888758042143078e+18,126.54430777994791,-4.589234471321106,-14.929219563802084,1.0733803808689115,1.6888758042143078e+18,126.54430777994791,0.3860558060308297,-9.712397893269856,1.294285535812378,1.6888758042143078e+18,126.54430777994791,-0.5347107052803038,2.301943858464559,-2.3213388522466025,1.6888758042143078e+18,126.54430777994791,-0.5354234079519907,2.3065762519836426,-2.31889537970225,1.6888758042056566e+18,126.53565649414062,0.0,0.0,1.6544139385223389,6.645999908447266,1.7211885452270508,66.8464126586914,39.10000228881836,-122.750145,49.1906232,1.6888758042159885e+18,126.5459884765625,11.648559761047364,43.8419189453125,-21.215799713134764,1.6888758042159885e+18,126.5459884765625,-243.97803649902343,138.69691772460936,-154.34219970703126,1.6888758042143078e+18,126.54430777994791,-0.3803274134794871,0.284796267747879,-0.6307433048884074,0.6132106184959412,-1.273760239283244,1.4302829106648762,2.2557748556137085
6.6,1.6888758042662062e+18,126.59620621744791,4.423424243927002,2.912989775339762,0.8504287203152976,1.6888758042662062e+18,126.59620621744791,3.4791640440622964,-6.806982199350993,1.9166509707768755,1.6888758042662062e+18,126.59620621744791,-0.9670616984367372,-9.704226811726889,1.0015087922414143,1.6888758042662062e+18,126.59620621744791,0.6903795202573141,-0.6612107356389364,-2.6327273845672607,1.6888758042662062e+18,126.59620621744791,0.6897686918576559,-0.656629244486491,-2.630385716756185,,,,,,,,,,,,1.688875804265997e+18,126.59599697265624,17.99743938446045,42.38523941040039,-19.834759521484376,1.688875804265997e+18,126.59599697265624,-237.6291534423828,137.2402374267578,-152.96115417480468,1.6888758042662062e+18,126.59620621744791,-0.3402147889137268,0.307830512523651,-0.6732360323270162,0.5795724789301554,-2.3044083515803018,1.426924228668213,-0.9296417236328124
