seconds_elapsed_rounded,accelerometer_time,accelerometer_seconds_elapsed,accelerometer_z,accelerometer_y,accelerometer_x,accelerometeruncalibrated_time,accelerometeruncalibrated_seconds_elapsed,accelerometeruncalibrated_z,accelerometeruncalibrated_y,accelerometeruncalibrated_x,gravity_time,gravity_seconds_elapsed,gravity_z,gravity_y,gravity_x,gyroscope_time,gyroscope_seconds_elapsed,gyroscope_z,gyroscope_y,gyroscope_x,gyroscopeuncalibrated_time,gyroscopeuncalibrated_seconds_elapsed,gyroscopeuncalibrated_z,gyroscopeuncalibrated_y,gyroscopeuncalibrated_x,location_time,location_seconds_elapsed,location_bearingAccuracy,location_speedAccuracy,location_verticalAccuracy,location_horizontalAccuracy,location_speed,location_bearing,location_altitude,location_longitude,location_latitude,magnetometer_time,magnetometer_seconds_elapsed,magnetometer_z,magnetometer_y,magnetometer_x,magnetometeruncalibrated_time,magnetometeruncalibrated_seconds_elapsed,magnetometeruncalibrated_z,magnetometeruncalibrated_y,magnetometeruncalibrated_x,orientation_time,orientation_seconds_elapsed,orientation_qz,orientation_qy,orientation_qx,orientation_qw,orientation_roll,orientation_pitch,orientation_yaw
0.0,1.688701957348224e+18,14.996224121093752,3.6609222888946538,-1.1628435452779131,8.286067008972168,1.6887019573568806e+18,15.004880533854168,2.478764832019806,-8.245866139729818,10.333005746205648,1.688701957348224e+18,14.996224121093752,-0.4244936443865299,-9.252358436584474,3.211768706639608,1.688701957348224e+18,14.996224121093752,1.646536350250244,0.7886779507001241,1.7507397731145222,1.688701957348224e+18,14.996224121093752,1.6455182631810503,0.7931575973828634,1.7531323432922363,,,,,,,,,,,,1.6887019573471944e+18,14.995194482421876,4.938559865951538,49.75403900146485,2.6742399454116823,1.6887019573471944e+18,14.995194482421876,-249.60223388671875,145.2190399169922,-130.53755798339844,1.688701957348224e+18,14.996224121093752,0.3472286363442738,-0.5438794096310934,-0.4786088168621063,0.595130443572998,-1.722523848215739,1.2451162338256836,0.337062324086825
0.05,1.688701957400135e+18,15.048135009765623,-3.042230725288391,6.851926803588867,2.122884194056193,1.6887019574087864e+18,15.056786295572918,-3.211766242980957,-2.1866410970687866,4.221736749013265,1.688701957400135e+18,15.048135009765623,0.5566227932771047,-9.464932123819986,2.5041614373524985,1.688701957400135e+18,15.048135009765623,1.532253623008728,1.1314751704533894,1.305266300837199,1.688701957400135e+18,15.048135009765623,1.5312864383061726,1.136005739370982,1.307658851146698,,,,,,,,,,,,1.6887019573971963e+18,15.045196533203123,0.4684799939393996,49.48807907104492,6.495279788970947,1.6887019573971963e+18,15.045196533203123,-254.0723114013672,144.953076171875,-126.71651763916016,1.688701957400135e+18,15.048135009765623,0.3754350841045379,-0.4893045326073964,-0.4859656194845835,0.6190833648045858,-1.3661479155222576,1.3216170867284138,0.0381346767147381
0.1,1.688701957452041e+18,15.100041015625,-7.287370045979817,9.186910311381022,1.4331915378570557,1.6887019574520443e+18,15.100044433593748,-6.774678945541382,-0.3717848137021065,3.47019100189209,1.688701957452041e+18,15.100041015625,1.1257882316907246,-9.554450988769531,1.9077119032541912,1.688701957452041e+18,15.100041015625,1.007011353969574,-0.109446690728267,1.429831902186076,1.688701957452041e+18,15.100041015625,1.0059932470321655,-0.1049670353531837,1.4322244723637898,,,,,,,,,,,,1.688701957447191e+18,15.095191064453124,-2.618120002746582,49.03667984008789,10.511519813537598,1.688701957447191e+18,15.095191064453124,-257.1589080810547,144.50167846679688,-122.70027770996094,1.688701957452041e+18,15.100041015625,0.4007213711738586,-0.4557325144608815,-0.4890527625878651,0.6264320413271586,-1.0355358123779297,1.3599862655003865,-0.2740399539470672
0.15,1.6887019575039506e+18,15.151950520833331,-2.9124595324198403,9.580568631490072,0.3032995462417602,1.6887019574953014e+18,15.14330126953125,-2.1078772842884064,0.0017946194857358,2.1958136558532715,1.6887019575039506e+18,15.151950520833331,1.615286946296692,-9.513612747192385,1.7648216088612874,1.6887019575039506e+18,15.151950520833331,0.3630066712697347,-1.2027936577796936,0.880816767613093,1.6887019575039506e+18,15.151950520833331,0.3619376569986343,-1.1982630888621013,0.8832093278566996,,,,,,,,,,,,1.6887019574971976e+18,15.14519755859375,-6.407439804077148,48.238799285888675,12.102399826049805,1.6887019574971976e+18,15.14519755859375,-260.94822998046874,143.70379943847655,-121.1093978881836,1.6887019575039506e+18,15.151950520833331,0.4356672366460164,-0.4544723729292552,-0.4636285702387492,0.6233779589335123,-0.8038534720738729,1.3427306413650513,-0.5684591929117838
0.2,1.6887019575558577e+18,15.203857666015624,-2.3122856616973877,9.197845776875814,-0.1154687801996866,1.6887019575471972e+18,15.195197102864585,-0.4227319881319999,-0.2181456685066223,1.9776679277420044,1.6887019575558577e+18,15.203857666015624,1.499460260073344,-9.506762186686196,1.8936596314112344,1.6887019575558577e+18,15.203857666015624,-0.2272418762246767,-0.7326310575008392,-0.6099489380915959,1.6887019575558577e+18,15.203857666015624,-0.2281581759452819,-0.7281004786491394,-0.6076072802146276,,,,,,,,,,,,1.6887019575471982e+18,15.195198242187502,-8.18131980895996,48.02895965576172,12.219519805908202,1.6887019575471982e+18,15.195198242187502,-262.722119140625,143.49395751953125,-120.99227905273438,1.6887019575558577e+18,15.203857666015624,0.443991482257843,-0.4700317084789276,-0.4544618129730224,0.6126377185185751,-0.8721930782000223,1.3431848287582395,-0.5443733235200247
0.25,1.6887019576077642e+18,15.255764404296874,24.880561510721844,-10.007216612497968,-1.5254984299341838,1.6887019575991078e+18,15.247107584635415,12.991232951482138,-12.733206629753113,1.0111669898033142,1.6887019576077642e+18,15.255764404296874,0.6087170044581095,-9.404400825500488,2.692921241124471,1.6887019576077642e+18,15.255764404296874,-1.9310977856318157,-7.634492079416911,1.1921544075012207,1.6887019576077642e+18,15.255764404296874,-1.9321158329645791,-7.630012194315593,1.194597880045573,,,,,,,,,,,,1.6887019575971978e+18,15.245197802734376,-6.55871992111206,48.67555923461914,9.767319774627683,1.6887019575971978e+18,15.245197802734376,-261.0995178222656,144.14055480957032,-123.44447784423828,1.6887019576077642e+18,15.255764404296874,0.475164383649826,-0.5630655288696289,-0.3870912591616313,0.5501393874486288,-1.3353862762451172,1.3071047862370808,-0.3378516932328542
0.3,1.6887019576596716e+18,15.307671468098958,6.870316664377849,-10.68065611521403,3.343079884847006,1.68870195765102e+18,15.299020182291663,12.157134215037027,-23.091535886128742,6.732804775238037,1.6887019576596716e+18,15.307671468098958,0.4941296974817912,-9.122387250264486,3.570108334223429,1.6887019576596716e+18,15.307671468098958,-0.6148867706457773,-0.1364774803320566,-1.0244719485441844,1.6887019576596716e+18,15.307671468098958,-0.6158539851506551,-0.1319978237152099,-1.022028426329295,,,,,,,,,,,,1.688701957647197e+18,15.295197021484377,-12.578199768066408,48.4144790649414,2.2008799493312834,1.688701957647197e+18,15.295197021484377,-267.118994140625,143.87947692871094,-131.01091918945312,1.6887019576596716e+18,15.307671468098958,0.505130797624588,-0.6197132070859274,-0.2993589838345845,0.5205810070037842,-1.4190131823221843,1.2160491943359375,-0.4628172218799591
0.35,1.688701957702922e+18,15.350921997070312,-2.9796983003616333,-4.529768943786621,7.329095840454102,1.6887019577029276e+18,15.350927490234374,-2.789831797281901,-12.914263407389322,10.26181936264038,1.688701957702922e+18,15.350921997070312,0.2212089449167251,-9.203381061553957,3.3884809017181396,1.688701957702922e+18,15.350921997070312,0.6259078085422516,3.957185029983521,-1.4205670952796936,1.688701957702922e+18,15.350921997070312,0.6249151527881622,3.961613893508911,-1.4181236624717712,,,,,,,,,,,,1.6887019576971914e+18,15.345191357421877,-9.501359939575195,49.28311920166016,1.7226399421691894,1.6887019576971914e+18,15.345191357421877,-264.0421508789062,144.74811706542968,-131.4891571044922,1.688701957702922e+18,15.350921997070312,0.4712183028459548,-0.6063764691352844,-0.348085805773735,0.5373477339744568,-1.5033580660820007,1.240362524986267,-0.2626142278313636
0.4,1.6887019577461857e+18,15.394185384114584,-3.2635326385498047,3.5418853759765625,3.1186372439066568,1.6887019577548308e+18,15.402830810546874,-2.503091832002004,-4.007977883021037,4.51366114616394,1.6887019577461857e+18,15.394185384114584,0.0513044483959674,-9.275928815205893,3.184580405553182,1.6887019577461857e+18,15.394185384114584,0.5218316415945689,1.9753854274749756,-1.6696474154790242,1.6887019577461857e+18,15.394185384114584,0.5207626124223074,1.9798650940259297,-1.6673057874043782,1.6887019577634867e+18,15.41148681640625,0.0,0.0,1.0767492055892944,14.984999656677246,0.6130163669586182,280.3294372558594,41.70000076293945,-122.7543809,49.1906353,1.688701957747197e+18,15.395196972656253,-4.779959869384766,49.60519943237305,4.638439893722534,1.688701957747197e+18,15.395196972656253,-259.320751953125,145.07020263671876,-128.57335815429687,1.6887019577461857e+18,15.394185384114584,0.4334333439668019,-0.5812396208445231,-0.4018631378809611,0.5590783556302389,-1.5690143903096516,1.263407786687215,-0.0561726503074168
0.45,1.68870195779809e+18,15.446090332031249,-0.5449786881605784,6.28275728225708,-0.2219945589701334,1.6887019578067415e+18,15.454741455078128,-1.415952742099762,-3.9130626916885376,3.476372400919596,1.68870195779809e+18,15.446090332031249,-0.5464112261931101,-9.288584073384603,3.1048718293507895,1.68870195779809e+18,15.446090332031249,-0.1154026146978139,1.7170403798421223,-1.4837408065795898,1.68870195779809e+18,15.446090332031249,-0.1163698211312294,1.721469163894653,-1.4813482364018755,,,,,,,,,,,,1.6887019577971948e+18,15.4451947265625,0.2171599805355072,49.673519897460935,5.755959987640381,1.6887019577971948e+18,15.4451947265625,-254.32363586425785,145.13851928710938,-127.4558364868164,1.68870195779809e+18,15.446090332031249,0.3981552422046661,-0.5787000854810079,-0.4429101943969726,0.5569022297859192,-1.779985785484314,1.267244021097819,0.2324347794055938
0.5,1.6887019578499973e+18,15.49799747721354,-2.8080610434214273,-1.4961570103963215,2.751077969868978,1.6887019578586483e+18,15.506648518880208,-3.5278181234995523,-10.666804313659668,6.294718901316325,1.6887019578499973e+18,15.49799747721354,-0.6396608750025431,-9.05264409383138,3.718241691589355,1.6887019578499973e+18,15.49799747721354,-1.3486886223157246,2.065539042154948,-0.3021746774514516,1.6887019578499973e+18,15.49799747721354,-1.349706768989563,2.0700186491012573,-0.2997821370760599,,,,,,,,,,,,1.6887019578471992e+18,15.495199365234376,3.2793599128723145,49.72963943481445,2.988999915122986,1.6887019578471992e+18,15.495199365234376,-251.26143493652344,145.19463806152345,-130.2227996826172,1.6887019578499973e+18,15.49799747721354,0.3426373700300851,-0.5708785454432169,-0.4599648316701253,0.5872237881024679,-1.780457854270935,1.199002027511597,0.3458532392978668
0.55,1.688701957901901e+18,15.549901041666669,-1.3279325564702351,2.452367146809896,-1.0454177061716716,1.6887019579018993e+18,15.549899169921876,-1.584048628807068,-6.187241077423096,3.061616539955139,1.688701957901901e+18,15.549901041666669,-0.3018424411614736,-8.859192530314127,4.200079758961995,1.688701957901901e+18,15.549901041666669,-0.8751662770907084,-0.0754418571790059,0.638863225777944,1.688701957901901e+18,15.549901041666669,-0.8760825792948405,-0.0710130830605824,0.6413066983222961,,,,,,,,,,,,1.6887019578971948e+18,15.5451947265625,2.654719924926758,49.83943939208984,-0.0341600120067596,1.6887019578971948e+18,15.5451947265625,-251.88607482910157,145.30443725585937,-133.24595642089844,1.688701957901901e+18,15.549901041666669,0.3237052857875824,-0.5670531392097473,-0.4460658331712087,0.6120651960372925,-1.672485868136088,1.1510255336761477,0.2730226914087931
0.6,1.6887019579538104e+18,15.601810628255208,-0.4014503161112467,2.735607941945394,-2.3024800618489585,1.6887019579451607e+18,15.593160563151043,-0.6634100675582886,-5.309274673461914,2.3914268016815186,1.6887019579538104e+18,15.601810628255208,-0.396220604578654,-8.614616394042969,4.671698093414307,1.6887019579538104e+18,15.601810628255208,-1.1612039009730022,-0.8588256239891052,-0.4210388759771983,1.6887019579538104e+18,15.601810628255208,-1.1621711651484172,-0.8543968598047892,-0.418595423301061,,,,,,,,,,,,1.688701957947196e+18,15.59519599609375,1.6518799781799316,49.97607879638672,-2.300920009613037,1.688701957947196e+18,15.59519599609375,-252.888916015625,145.44107971191406,-135.5127197265625,1.6887019579538104e+18,15.601810628255208,0.3162405391534169,-0.5887593030929565,-0.4220666289329529,0.6124387780825297,-1.6790893077850342,1.096120278040568,0.2416138599316278
0.65,1.6887019580057198e+18,15.653719482421875,-0.1640087763468424,-1.4374513626098633,-2.279047648111979,1.6887019579970673e+18,15.645067301432292,-1.5192429622014365,-9.192426999409994,2.8309086163838706,1.6887019580057198e+18,15.653719482421875,-1.4167133569717407,-8.245347658793131,5.102901935577393,1.6887019580057198e+18,15.653719482421875,-1.2328787644704182,-2.121993144353231,-2.057903210322062,1.6887019580057198e+18,15.653719482421875,-1.2337950865427654,-2.11756432056427,-2.0555615425109863,,,,,,,,,,,,1.6887019579971924e+18,15.64519248046875,5.009319829940796,49.32215805053711,-5.233799934387207,1.6887019579971924e+18,15.64519248046875,-249.53147583007816,144.7871551513672,-138.4455993652344,1.6887019580057198e+18,15.653719482421875,0.2913687427838643,-0.6363973021507263,-0.4135468105475108,0.5818090637524923,-1.8646947542826335,1.0199742714564006,0.3640675842761993
0.7,1.6887019580576256e+18,15.705625651041666,1.772150635719299,-4.210712591807048,-1.968459129333496,1.6887019580489736e+18,15.6969736328125,-1.5142579476038616,-11.51645596822103,3.1826535065968833,1.6887019580576256e+18,15.705625651041666,-3.276302417119344,-7.599105993906657,5.233589808146159,1.6887019580576256e+18,15.705625651041666,-1.417716423670451,-3.697770992914835,-2.6309966246287027,1.6887019580576256e+18,15.705625651041666,-1.4187345504760742,-3.693240404129028,-2.6285531520843506,,,,,,,,,,,,1.6887019580471967e+18,15.695196679687502,12.04383964538574,48.00699996948242,-7.568879795074463,1.6887019580471967e+18,15.695196679687502,-242.49695434570313,143.4720001220703,-140.78067932128906,1.6887019580576256e+18,15.705625651041666,0.2632985015710194,-0.7122207085291544,-0.4027464191118876,0.5099441806475321,-2.152287165323893,0.904738187789917,0.5146624644597372
0.75,1.6887019581095258e+18,15.757525553385417,19.763529141743977,-8.560833295186361,0.4919203122456868,1.6887019581008814e+18,15.748881591796874,19.62433585524559,-14.749957084655762,5.232704401016235,1.6887019581095258e+18,15.757525553385417,-5.085421880086263,-6.373015403747559,5.408904393513997,1.6887019581095258e+18,15.757525553385417,-0.266642689704895,3.464522202809651,-4.743470509847005,1.6887019581095258e+18,15.757525553385417,-0.2676098744074504,3.4689510663350425,-4.741026878356934,,,,,,,,,,,,1.6887019580971924e+18,15.745192578125,21.92095947265625,44.32503890991211,-8.04711971282959,1.6887019580971924e+18,15.745192578125,-232.61983337402344,139.7900390625,-141.25891723632813,1.6887019581095258e+18,15.757525553385417,0.1848037888606389,-0.7658426364262899,-0.418701688448588,0.4476982851823171,-2.3514538606007895,0.7223061720530192,0.6891996065775553
0.8,1.6887019581527834e+18,15.800783203125,-5.320005655288696,-4.9520862102508545,-4.426602840423584,1.6887019581527887e+18,15.800788736979166,-9.084550539652506,-11.571889877319336,2.6335007747014365,1.6887019581527834e+18,15.800783203125,-3.5368913412094116,-6.247363328933716,6.6735875606536865,1.6887019581527834e+18,15.800783203125,1.692096769809723,6.6803460121154785,0.1119410544633865,1.6887019581527834e+18,15.800783203125,1.691180408000946,6.684927463531494,0.1143081784248352,,,,,,,,,,,,1.6887019581471928e+18,15.7951927734375,26.212919998168942,40.399079132080075,-14.903519821166991,1.6887019581471928e+18,15.7951927734375,-228.32787475585937,135.86408081054688,-148.11531677246094,1.6887019581527834e+18,15.800783203125,0.0887564048171043,-0.6789262592792511,-0.4749092161655425,0.5521878600120544,-2.082168698310852,0.7017201483249664,0.7982649207115173
0.85,1.688701958196041e+18,15.844040934244791,-3.6439958413441977,-6.377347946166992,-7.075383027394612,1.6887019582046922e+18,15.852692057291668,-4.341976046562195,-14.004393259684244,-0.1377867013216019,1.688701958196041e+18,15.844040934244791,-2.9554723103841147,-6.522401491800944,6.703622817993164,1.688701958196041e+18,15.844040934244791,0.0592539298037688,-1.2723814050356548,1.5529213051001232,1.688701958196041e+18,15.844040934244791,0.058184918637077,-1.267952601114909,1.5552629431088765,,,,,,,,,,,,1.6887019581971955e+18,15.845195654296871,21.79651985168457,41.79963989257813,-17.50211944580078,1.6887019581971955e+18,15.845195654296871,-232.74427490234376,137.26463317871094,-150.71391906738282,1.688701958196041e+18,15.844040934244791,0.0953000759085019,-0.6578726967175802,-0.4730995098749797,0.5778253674507141,-2.008317311604818,0.737541397412618,0.7647753953933716
0.9,1.6887019582479514e+18,15.895951416015626,10.129594405492147,-8.384061336517334,-4.053017695744832,1.688701958256603e+18,15.904602864583332,5.337589820226033,-15.36511198679606,2.856033285458883,1.6887019582479514e+18,15.895951416015626,-2.7697338263193765,-7.210804462432861,6.024827798207601,1.6887019582479514e+18,15.895951416015626,2.1928535103797913,0.0671952168146769,2.0945550998051963,1.6887019582479514e+18,15.895951416015626,2.191886305809021,0.0716748237609863,2.096845865249634,,,,,,,,,,,,1.6887019582471926e+18,15.895192431640623,19.4955997467041,44.32991943359375,-13.68595962524414,1.6887019582471926e+18,15.895192431640623,-235.0451904296875,139.7949188232422,-146.89776000976562,1.6887019582479514e+18,15.895951416015626,0.1678144484758377,-0.6613856554031372,-0.4562885065873464,0.5705196062723795,-2.021167993545532,0.8375847935676575,0.6623666485150655
0.95,1.6887019582998587e+18,15.94785847981771,-1.6836510101954143,-6.647295633951823,1.1903975804646811,1.688701958308506e+18,15.956506022135416,-2.7186452945073447,-15.744174639383951,6.88375186920166,1.6887019582998587e+18,15.94785847981771,-1.4966730674107869,-8.478377342224121,4.668552875518799,1.6887019582998587e+18,15.94785847981771,3.4723108609517417,-0.637692411740621,2.647082726160685,1.6887019582998587e+18,15.94785847981771,3.471292734146118,-0.6332636475563049,2.6494752566019693,1.6887019582825564e+18,15.930556396484375,0.0,0.0,1.0863745212554932,14.965999603271484,0.6379297971725464,279.6156311035156,41.70000076293945,-122.7543884,49.1906333,1.688701958297194e+18,15.9451939453125,12.729479789733888,47.75079879760742,-6.580679869651794,1.688701958297194e+18,15.9451939453125,-241.81131591796876,143.2157958984375,-139.7924774169922,1.6887019582998587e+18,15.94785847981771,0.2572598507006962,-0.5956439773241679,-0.4750828643639881,0.5935983260472616,-1.904313286145528,1.057724912961324,0.5573112964630127
1.0,1.68870195835176e+18,15.999759847005208,3.2711766163508096,-7.41845703125,9.398843765258787,1.688701958351767e+18,15.999767211914062,2.857628345489502,-17.42991828918457,13.735998153686523,1.68870195835176e+18,15.999759847005208,-0.8251768549283346,-9.081295331319174,3.6068690617879233,1.68870195835176e+18,15.999759847005208,1.591711203257243,-0.4718424876530966,1.5737924973169963,1.68870195835176e+18,15.999759847005208,1.5907440185546875,-0.467311938603719,1.5761850674947102,,,,,,,,,,,,1.6887019583471962e+18,15.9951962890625,6.63923978805542,49.3685188293457,0.7246799826622009,1.6887019583471962e+18,15.9951962890625,-247.90155334472655,144.8335205078125,-132.48711547851562,1.68870195835176e+18,15.999759847005208,0.3344684541225433,-0.5702589154243469,-0.4696110685666402,0.5849563280741373,-1.8223225275675456,1.1971011559168498,0.4041970570882161
1.05,1.688701958403672e+18,16.051671956380208,-0.3847167491912842,4.156233787536621,4.506075461705525,1.6887019583950213e+18,16.043021484375,0.7836494445800781,-6.660421848297119,8.90588665008545,1.688701958403672e+18,16.051671956380208,0.0959194749593734,-9.360665639241535,2.9165844122568765,1.688701958403672e+18,16.051671956380208,1.5558737516403198,1.426421284675598,1.4908675750096638,1.688701958403672e+18,16.051671956380208,1.5549575090408323,1.4308500289916992,1.4933110078175862,,,,,,,,,,,,1.6887019583971976e+18,16.045197460937498,2.483919930458069,49.74427871704101,5.126439809799194,1.6887019583971976e+18,16.045197460937498,-252.05687561035157,145.20927734375,-128.08535919189453,1.688701958403672e+18,16.051671956380208,0.3668922185897827,-0.521466592947642,-0.476656268040339,0.6049517393112183,-1.5600434144337971,1.2848233779271443,0.1847927272319793
1.1,1.6887019584555807e+18,16.103580485026043,-5.207950909932454,7.960273265838623,1.0971654256184895,1.68870195844692e+18,16.094920003255208,-3.5890345176060996,-1.970090627670288,3.695315758387248,1.6887019584555807e+18,16.103580485026043,0.6687029997507731,-9.507076581319174,2.31831431388855,1.6887019584555807e+18,16.103580485026043,1.123279372851054,0.8048149446646372,0.7637342611948649,1.6887019584555807e+18,16.103580485026043,1.1222103834152222,0.8092437386512756,0.7661777337392172,,,,,,,,,,,,1.6887019584471946e+18,16.095194482421874,-0.3708799928426742,49.3294792175293,8.681519794464112,1.6887019584471946e+18,16.095194482421874,-254.91167602539065,144.7944793701172,-124.53027954101564,1.6887019584555807e+18,16.103580485026043,0.3843711018562316,-0.4813183049360911,-0.4888085424900055,0.617707888285319,-1.3060538371404011,1.341861128807068,-0.0217311841746171
1.15,1.6887019585074831e+18,16.15548299153646,-5.0985918045043945,9.364300727844238,-0.084810177485148,1.6887019584988316e+18,16.146831787109374,-5.045067151387532,-0.3838486274083455,2.2875384092330933,1.6887019585074831e+18,16.15548299153646,1.0716073711713154,-9.550784428914389,1.9640977382659912,1.6887019585074831e+18,16.15548299153646,0.693026622136434,-1.355611781279246,1.2307916680971782,1.6887019585074831e+18,16.15548299153646,0.6920085151990255,-1.351183036963145,1.2331842184066772,,,,,,,,,,,,1.6887019584971968e+18,16.145196728515625,-2.8303999662399293,48.83659973144531,11.253279876708984,1.6887019584971968e+18,16.145196728515625,-257.37119140625,144.30159606933594,-121.9585174560547,1.6887019585074831e+18,16.15548299153646,0.4152628481388092,-0.47066996494929,-0.4776620666186014,0.6145467162132263,-1.066248933474223,1.361061414082845,-0.2967435369888941
1.2,1.6887019585593938e+18,16.207393880208333,-1.5297115246454875,9.84162457784017,-0.8631868362426758,1.6887019585507425e+18,16.19874226888021,-0.4801597495873769,0.2743769983450572,1.1086744864781697,1.6887019585593938e+18,16.207393880208333,1.190066695213318,-9.55153783162435,1.894019365310669,1.6887019585593938e+18,16.207393880208333,0.2696460982163747,-0.8240572015444437,0.1291979998350143,1.6887019585593938e+18,16.207393880208333,0.2686788911620776,-0.8195775449275969,0.131590557595094,,,,,,,,,,,,1.6887019585471985e+18,16.195198291015625,-5.807199859619141,48.26319961547851,12.47815990447998,1.6887019585471985e+18,16.195198291015625,-260.347998046875,143.7281982421875,-120.73363800048828,1.6887019585593938e+18,16.207393880208333,0.4419603248437245,-0.481303721666336,-0.460012932618459,0.6011465589205424,-0.9879037737846376,1.3632161617279053,-0.4441375037034352
1.25,1.6887019586026496e+18,16.2506494140625,-3.233167290687561,8.89253282546997,-1.5562684535980225,1.68870195860265e+18,16.25064982096354,-2.45623246828715,-1.1026924308389423,0.6251249089837073,1.6887019586026496e+18,16.2506494140625,0.9795636236667634,-9.54352331161499,2.045126676559448,1.6887019586026496e+18,16.2506494140625,-0.5573381781578064,-1.094441443681717,-0.6656140387058258,1.6887019586026496e+18,16.2506494140625,-0.5582544803619385,-1.0900126844644549,-0.6632469445466994,,,,,,,,,,,,1.688701958597193e+18,16.245192822265626,-6.10487995147705,48.32419891357422,12.400079536437987,1.688701958597193e+18,16.245192822265626,-260.6456787109375,143.78919677734376,-120.8117172241211,1.6887019586026496e+18,16.2506494140625,0.4415009319782257,-0.4961350113153457,-0.4557898044586181,0.5925499796867371,-1.109319508075714,1.3618561625480652,-0.3501079380512237
1.3,1.688701958645902e+18,16.29390185546875,22.069353739420578,-13.407565116882324,-0.0056440432866415,1.688701958654553e+18,16.302552978515624,32.29792022705078,-29.03809928894043,4.094318767388661,1.688701958645902e+18,16.29390185546875,0.2580093791087468,-9.3522097269694,2.9240147272745767,1.688701958645902e+18,16.29390185546875,-2.5213971932729087,-8.098800341288248,1.4335989157358806,1.688701958645902e+18,16.29390185546875,-2.5223644574483237,-8.09432061513265,1.436042388280233,,,,,,,,,,,,1.688701958647195e+18,16.295194921875,-8.308199691772462,48.841478729248045,6.731960010528565,1.688701958647195e+18,16.295194921875,-262.8489929199219,144.30647888183594,-126.4798370361328,1.688701958645902e+18,16.29390185546875,0.4856005112330119,-0.5940401752789816,-0.3612211048603058,0.5251621206601461,-1.4825334548950195,1.2903607686360676,-0.2845554004112879
1.35,1.688701958697809e+18,16.34580900065104,3.246868451436361,-5.572558403015137,2.0589711666107178,1.6887019587064532e+18,16.354453125000003,0.8037889450788498,-11.909477074941,5.286144097646077,1.688701958697809e+18,16.34580900065104,0.2258516401052474,-9.112436612447103,3.6239073276519775,1.688701958697809e+18,16.34580900065104,-0.0801251431306203,0.2763147155443827,-0.8696175701916218,1.688701958697809e+18,16.34580900065104,-0.0811941723028818,0.2808452844619751,-0.867174127449592,,,,,,,,,,,,1.6887019586971924e+18,16.345192431640623,-12.53671989440918,48.60479888916016,0.3952799886465072,1.6887019586971924e+18,16.345192431640623,-267.0775146484375,144.06979370117188,-132.81651611328124,1.688701958697809e+18,16.34580900065104,0.5099948644638062,-0.6360257069269816,-0.2866717676321665,0.503067672252655,-1.4955530166625977,1.2144883076349895,-0.4392840961615245
1.4,1.6887019587497093e+18,16.397709228515623,-2.8776771227518716,-4.227185249328613,7.533822695414226,1.688701958758361e+18,16.406361328124998,-2.094118674596151,-12.960524241129557,11.235299110412598,1.6887019587497093e+18,16.397709228515623,0.2247710724671681,-9.218327204386393,3.3448703289031982,1.6887019587497093e+18,16.397709228515623,0.4297436984876792,3.803806940714518,-0.5565491517384847,1.6887019587497093e+18,16.397709228515623,0.4287765050927797,3.8082358042399087,-0.55410568912824,,,,,,,,,,,,1.6887019587471892e+18,16.39518916015625,-10.140639877319336,49.1171989440918,2.339959955215454,1.6887019587471892e+18,16.39518916015625,-264.6814331054687,144.5821960449219,-130.87183837890626,1.6887019587497093e+18,16.397709228515623,0.485466718673706,-0.6128261884053549,-0.3350712458292643,0.5249796311060587,-1.497119386990865,1.2459821303685503,-0.3158123095830281
1.45,1.6887019588016177e+18,16.449617513020836,-2.282294273376465,5.2794820467631025,1.9754353364308672,1.6887019588016174e+18,16.449617553710937,-1.4979069828987122,-3.741477370262146,4.9501519203186035,1.6887019588016177e+18,16.449617513020836,0.7769460876782736,-9.257791837056478,3.1475226084391275,1.6887019588016177e+18,16.449617513020836,0.2461277892192205,5.322265148162842,-0.811738113562266,1.6887019588016177e+18,16.449617513020836,0.2451605846484502,5.326694011688232,-0.8093964457511902,1.688701958801616e+18,16.4496162109375,0.0,0.0,1.0863745212554932,14.631999969482422,0.6827723383903503,278.0167236328125,41.70000076293945,-122.7544102,49.1906281,1.6887019587971894e+18,16.44518935546875,-7.227279949188232,49.16111831665039,5.367999839782715,1.6887019587971894e+18,16.44518935546875,-261.76807861328126,144.62611694335936,-127.843798828125,1.6887019588016177e+18,16.449617513020836,0.4291059672832489,-0.5449016491572062,-0.4072121679782867,0.593138853708903,-1.329116940498352,1.259773890177409,-0.215032031138738
1.5,1.6887019588535245e+18,16.50152449544271,-3.550628423690796,4.1240776379903155,0.9420870939890544,1.6887019588448748e+18,16.492874755859376,-2.65284272034963,-4.023132562637329,3.70488707224528,1.6887019588535245e+18,16.50152449544271,0.71746293703715,-9.244760831197103,3.193632284800211,1.6887019588535245e+18,16.50152449544271,-1.0497210323810575,1.6641496866941452,-1.4062626759211223,1.6887019588535245e+18,16.50152449544271,-1.0507391393184662,1.668578401207924,-1.403870145479838,,,,,,,,,,,,1.6887019588471895e+18,16.495189599609375,-3.8063999891281126,49.55639877319336,6.824679756164551,1.6887019588471895e+18,16.495189599609375,-258.3471923828125,145.02139892578126,-126.38711700439453,1.6887019588535245e+18,16.50152449544271,0.370771050453186,-0.5105618238449097,-0.4563389321168263,0.6271767417589823,-1.3653890291849773,1.256511926651001,-0.0003133167047053
1.55,1.6887019589054287e+18,16.553428629557292,-1.9068867365519209,-1.20006529490153,1.9478984673817952,1.6887019588967793e+18,16.54477913411458,-2.297508637110392,-10.326226234436035,6.198606967926025,1.6887019589054287e+18,16.553428629557292,-0.2562883496284485,-8.979642868041992,3.924411853154501,1.6887019589054287e+18,16.553428629557292,-1.28128985563914,-2.2705352306365967,-1.5237524509429932,1.6887019589054287e+18,16.553428629557292,-1.2823079625765483,-2.2660555839538574,-1.5214107831319172,,,,,,,,,,,,1.6887019588971876e+18,16.5451876953125,0.5148399829864502,50.05415954589843,3.437959885597229,1.6887019588971876e+18,16.5451876953125,-254.0259552001953,145.51915893554687,-129.77383575439453,1.6887019589054287e+18,16.553428629557292,0.3370944162209828,-0.5612604220708212,-0.4505700965722402,0.6064791878064474,-1.664453387260437,1.181259274482727,0.2555582374334335
1.6,1.688701958957339e+18,16.6053388671875,0.8372752666473389,4.387387275695801,-1.801798184712728,1.688701958948687e+18,16.596686930338542,-0.7850452164808909,-4.984448989232381,2.8125635782877603,1.688701958957339e+18,16.6053388671875,-1.3699410756429036,-8.751140912373861,4.2073073387146,1.688701958957339e+18,16.6053388671875,-0.868243137995402,-2.6086490948994956,-0.9245954553286234,1.688701958957339e+18,16.6053388671875,-0.8692612250645956,-2.6041693687438965,-0.9222029050191244,,,,,,,,,,,,1.688701958947189e+18,16.59518896484375,4.16019983291626,49.766238403320315,0.8613199681043625,1.688701958947189e+18,16.59518896484375,-250.3805938720703,145.23124084472656,-132.35047607421876,1.688701958957339e+18,16.6053388671875,0.3390607635180155,-0.6237477660179138,-0.4293825427691142,0.5578610499699911,-1.9185628096262617,1.1251458326975503,0.3727634946505229
1.65,1.6887019590092454e+18,16.65724560546875,1.00717031955719,0.9021104176839192,-1.9224158922831216,1.6887019590005947e+18,16.64859488932292,-0.8279166171948115,-6.442276159922282,2.4825535217920938,1.6887019590092454e+18,16.65724560546875,-2.153395732243856,-8.387500762939453,4.602302074432373,1.6887019590092454e+18,16.65724560546875,-1.4693854252497356,-1.1618657112121582,-0.9283624490102133,1.6887019590092454e+18,16.65724560546875,-1.4703526496887207,-1.157386004924774,-0.9259190162022908,,,,,,,,,,,,1.688701958997189e+18,16.6451892578125,6.971080017089844,49.400238800048825,-1.7421599268913268,1.688701958997189e+18,16.6451892578125,-247.56971435546876,144.8652374267578,-134.953955078125,1.6887019590092454e+18,16.65724560546875,0.3250681261221568,-0.6687705119450887,-0.4066725770632426,0.530550996462504,-2.039109468460083,1.0481223662694297,0.4096461633841197
1.7,1.6887019590524918e+18,16.70049157714844,0.6927468180656433,-3.2884321212768555,-1.6027389764785769,1.6887019590524948e+18,16.700494791666667,-1.952144463857015,-11.16411272684733,3.403989632924398,1.6887019590524918e+18,16.70049157714844,-2.6963006258010864,-8.005534172058105,4.985417127609253,1.6887019590524918e+18,16.70049157714844,-1.364214837551117,-1.411862313747406,-0.8381834924221039,1.6887019590524918e+18,16.70049157714844,-1.3652074337005615,-1.4073572158813477,-0.835816353559494,,,,,,,,,,,,1.688701959047187e+18,16.695187060546875,9.174399757385254,48.54867858886719,-4.936119842529297,1.688701959047187e+18,16.695187060546875,-245.36639709472655,144.0136749267578,-138.14791564941407,1.6887019590524918e+18,16.70049157714844,0.3063306808471679,-0.7002138197422028,-0.3868493735790252,0.5158713161945343,-2.093823194503784,0.9758746922016144,0.4143498688936233
1.75,1.6887019590957545e+18,16.74375447591146,3.5612733364105225,-4.808101654052734,-1.764125903447469,1.6887019591044068e+18,16.752406901041667,2.0580269197622933,-12.878171602884928,3.3028928438822427,1.6887019590957545e+18,16.74375447591146,-3.681576013565063,-7.530331611633301,5.058369318644206,1.6887019590957545e+18,16.74375447591146,-1.4078407287597656,-3.821267604827881,-2.427731176217397,1.6887019590957545e+18,16.74375447591146,-1.4088588953018188,-3.8168387413024902,-2.4253386855125427,,,,,,,,,,,,1.6887019590971868e+18,16.745186572265624,13.727439498901369,47.44823989868164,-6.812479877471924,1.6887019590971868e+18,16.745186572265624,-240.8133544921875,142.91323852539062,-140.02427673339844,1.6887019590957545e+18,16.74375447591146,0.2914481759071349,-0.745836079120636,-0.3640200893084208,0.4743197162946065,-2.22106925646464,0.8957232038180033,0.4385648568471272
1.8,1.6887019591476677e+18,16.79566788736979,20.00345532099406,-9.405720392862955,0.9012721379597982,1.6887019591563192e+18,16.804319254557292,7.749753634134929,-14.830914497375488,6.628118515014648,1.6887019591476677e+18,16.79566788736979,-5.35186767578125,-6.0846584637959795,5.459173679351807,1.6887019591476677e+18,16.79566788736979,0.1521563604474067,5.617058674494426,-4.401793201764424,1.6887019591476677e+18,16.79566788736979,0.1511891571183999,5.621589263280234,-4.399400512377421,,,,,,,,,,,,1.6887019591471918e+18,16.79519189453125,26.071399307250974,41.975318908691406,-9.642879867553711,1.6887019591471918e+18,16.79519189453125,-228.46939392089843,137.44031677246093,-142.85467834472655,1.6887019591476677e+18,16.79566788736979,0.1855402042468388,-0.7896824677785238,-0.3884986738363902,0.4311991731325785,-2.372354427973429,0.6850666403770447,0.6297852993011475
1.85,1.6887019591995804e+18,16.847580322265625,-4.230299949645996,-4.280928770701091,-6.677371501922607,1.688701959208225e+18,16.85622509765625,-7.369893709818522,-11.198808670043944,-0.2059821585814159,1.6887019591995804e+18,16.847580322265625,-3.228989362716675,-6.294592380523682,6.783976395924886,1.6887019591995804e+18,16.847580322265625,0.852564255396525,4.219857215881348,0.4626795202493667,1.6887019591995804e+18,16.847580322265625,0.8516479730606079,4.224285890658696,0.4650720804929733,,,,,,,,,,,,1.6887019591971914e+18,16.845191455078126,22.206439590454103,41.70935974121094,-16.318720054626464,1.6887019591971914e+18,16.845191455078126,-232.33435668945313,137.17435607910156,-149.530517578125,1.6887019591995804e+18,16.847580322265625,0.108945903678735,-0.6872430443763733,-0.4452355901400248,0.5629555185635885,-2.038130521774292,0.7094904581705729,0.7010997335116068
1.9,1.6887019592514836e+18,16.899483642578122,7.419973055521647,-8.301324367523193,-6.546896775563558,1.6887019592514872e+18,16.8994873046875,6.791727542877197,-14.848361492156982,-0.4755734801292418,1.6887019592514836e+18,16.899483642578122,-3.0258168379465737,-6.587260087331136,6.605047067006429,1.6887019592514836e+18,16.899483642578122,0.6921612272659937,-1.4620550672213235,1.565953056017558,1.6887019592514836e+18,16.899483642578122,0.6910922179619471,-1.4576263229052226,1.5683456261952715,,,,,,,,,,,,1.6887019592471977e+18,16.895197753906253,20.271519470214844,42.85615997314453,-16.201599311828613,1.6887019592471977e+18,16.895197753906253,-234.26927490234377,138.32116088867187,-149.41339721679688,1.6887019592514836e+18,16.899483642578122,0.1378325099746385,-0.6870390176773071,-0.4329315920670827,0.5667171080907186,-2.021466016769409,0.7483217120170593,0.6418236692746481
1.95,1.6887019593033946e+18,16.951394694010418,-0.0469448169072469,-7.168312390645345,-1.973692814509074,1.6887019592947397e+18,16.942739827473957,0.1244269212086995,-15.076377868652344,3.204587777455648,1.6887019593033946e+18,16.951394694010418,-2.0013747612635293,-7.737021128336589,5.647996107737224,1.6887019593033946e+18,16.951394694010418,3.902309020360311,1.2745194534460704,2.248085896174113,1.6887019593033946e+18,16.951394694010418,3.901341756184896,1.2789481679598491,2.250529408454895,1.6887019593206968e+18,16.96869677734375,0.0,0.0,0.9857969880104064,14.190999984741213,0.7292505502700806,276.87652587890625,41.70000076293945,-122.7544288,49.1906236,1.688701959297192e+18,16.945191943359376,15.872199821472169,45.667039489746095,-11.858399963378906,1.688701959297192e+18,16.945191943359376,-238.66859436035156,141.13204040527344,-145.07019958496093,1.6887019593033946e+18,16.951394694010418,0.2035360982020695,-0.6316632827123007,-0.4554418325424194,0.5923892656962076,-1.9319372574488325,0.9233365853627524,0.5859197775522867
2.0,1.6887019593553006e+18,17.003300537109375,1.0737518469492595,-8.276763280232748,4.535914421081543,1.68870195934665e+18,16.994650146484375,-0.77846497297287,-16.649857838948567,7.51445992787679,1.6887019593553006e+18,17.003300537109375,-1.1735161344210303,-8.785501480102539,4.190035820007324,1.6887019593553006e+18,17.003300537109375,2.311412294705709,-1.2213741540908811,1.9124154249827068,1.6887019593553006e+18,17.003300537109375,2.3103941679000854,-1.2168435454368591,1.9148079951604209,,,,,,,,,,,,1.6887019593471954e+18,16.995195556640624,9.979599857330324,48.74631958007812,-3.1939599812030792,1.6887019593471954e+18,16.995195556640624,-244.56119689941409,144.21131896972656,-136.4057586669922,1.6887019593553006e+18,17.003300537109375,0.2971434791882832,-0.5866012573242188,-0.4689537187417348,0.5892707109451294,-1.8705849250157671,1.123538613319397,0.4790869454542796
2.05,1.6887019594072072e+18,17.055207031250003,1.870654712120692,-2.0483932495117188,7.81883176167806,1.6887019593985574e+18,17.04655729166667,1.8853448033332825,-13.31246852874756,12.22193972269694,1.6887019594072072e+18,17.055207031250003,-0.4497801164786021,-9.154047966003418,3.482792218526205,1.6887019594072072e+18,17.055207031250003,1.5229888757069905,0.6763296475013097,1.555059274037679,1.6887019594072072e+18,17.055207031250003,1.521919846534729,0.6808093239863714,1.5575027465820312,,,,,,,,,,,,1.688701959397197e+18,17.045196923828126,5.331399917602539,49.73939895629883,1.3127199798822402,1.688701959397197e+18,17.045196923828126,-249.2093963623047,145.20439758300782,-131.89907836914062,1.6887019594072072e+18,17.055207031250003,0.3460080126921336,-0.556745191415151,-0.465719183286031,0.5942468643188477,-1.724375565846761,1.2192562023798623,0.3134147773186365
2.1,1.688701959459117e+18,17.107117024739583,-2.290641983350118,6.607433160146077,1.6459167798360188,1.68870195945046e+18,17.098459798177085,-1.7174484729766846,-3.582454284032186,5.239683389663696,1.688701959459117e+18,17.107117024739583,0.2560811613996823,-9.406879107157389,2.7625842889149985,1.688701959459117e+18,17.107117024739583,1.51214599609375,0.4177809158960978,1.002328058083852,1.688701959459117e+18,17.107117024739583,1.5112297137578328,0.4222606122493744,1.0046697060267131,,,,,,,,,,,,1.688701959447197e+18,17.09519677734375,1.3883599579334258,49.688158416748045,5.58759994506836,1.688701959447197e+18,17.09519677734375,-253.15243835449215,145.1531555175781,-127.6241958618164,1.688701959459117e+18,17.107117024739583,0.3802684644858042,-0.517106314500173,-0.4731565117835998,0.6033140023549398,-1.501924753189087,1.302573323249817,0.1120982070763905
2.15,1.6887019595023713e+18,17.15037109375,-5.329107761383057,8.768694400787354,0.5179762840270996,1.6887019595023726e+18,17.150372395833333,-4.6783671379089355,-0.7808577964703242,2.854238589604696,1.6887019595023713e+18,17.15037109375,0.586071103811264,-9.52407169342041,2.2742727994918823,1.6887019595023713e+18,17.15037109375,1.1800389289855957,0.1916589774191379,0.921337515115738,1.6887019595023713e+18,17.15037109375,1.1790462732315063,0.1962404623627663,0.923704594373703,,,,,,,,,,,,1.6887019594971945e+18,17.145194482421875,-0.9759999632835388,49.30507965087891,9.308599758148194,1.6887019594971945e+18,17.145194482421875,-255.51679382324215,144.77008056640625,-123.9031967163086,1.6887019595023713e+18,17.15037109375,0.4002113491296768,-0.4943093955516815,-0.4799196273088455,0.6042621731758118,-1.3363093137741089,1.3496444821357727,-0.0433681128779425
2.2,1.6887019595456274e+18,17.193627197265624,-4.11741320292155,9.650019645690918,0.015764594078064,1.6887019595542746e+18,17.20227449544271,-2.3056840101877847,0.1347956806421279,1.967099666595459,1.6887019595456274e+18,17.193627197265624,0.9414760073026022,-9.56631342569987,1.954849044481913,1.6887019595456274e+18,17.193627197265624,0.8133670687675476,-1.382438898086548,1.2178616722424824,1.6887019595456274e+18,17.193627197265624,0.8124507665634155,-1.3780101537704468,1.2203051050504048,,,,,,,,,,,,1.6887019595471936e+18,17.19519345703125,-4.7823999404907225,48.465718841552736,12.195119857788086,1.6887019595471936e+18,17.19519345703125,-259.323193359375,143.93071594238282,-121.01667785644533,1.6887019595456274e+18,17.193627197265624,0.4327801664670308,-0.4883266190687815,-0.4664428432782491,0.5970513423283895,-1.1151515245437622,1.3691762685775757,-0.3123965263366699
2.25,1.6887019595975304e+18,17.245530517578125,-1.3539317846298218,9.243400573730469,0.1717632214228311,1.688701959606182e+18,17.254181884765625,-0.4673980052272479,-0.5688935865958532,2.203789552052816,1.6887019595975304e+18,17.245530517578125,1.0432002544403076,-9.563483556111654,1.9190897544225056,1.6887019595975304e+18,17.245530517578125,-0.0001527157922585,-0.8992445667584738,0.0012726406566799,1.6887019595975304e+18,17.245530517578125,-0.0011708239714304,-0.8947648604710897,0.003716102684848,,,,,,,,,,,,1.6887019595971937e+18,17.24519375,-6.83199987411499,47.96307907104492,12.94419994354248,1.6887019595971937e+18,17.24519375,-261.37279052734374,143.428076171875,-120.26759643554688,1.6887019595975304e+18,17.245530517578125,0.4576649765173594,-0.4996773997942607,-0.4479871392250061,0.5832116007804871,-1.049261172612508,1.3701423803965251,-0.4472883840401967
2.3,1.6887019596494377e+18,17.29743758138021,13.741036335627236,-1.1550312042236328,-0.6884872118631998,1.6887019596580928e+18,17.306092936197917,16.574285348256428,-15.094723145167032,1.7453647057215371,1.6887019596494377e+18,17.29743758138021,0.2983871350685755,-9.467349688212076,2.5087517897288003,1.6887019596494377e+18,17.29743758138021,-1.6158912976582844,-5.910732269287109,-0.2507601976394653,1.6887019596494377e+18,17.29743758138021,-1.616960346698761,-5.906201680501302,-0.2483676671981811,,,,,,,,,,,,1.6887019596471946e+18,17.29519443359375,-6.046319770812988,48.92443923950195,10.177239799499512,1.6887019596471946e+18,17.29519443359375,-260.5871154785156,144.38944091796876,-123.03455810546876,1.6887019596494377e+18,17.29743758138021,0.4648071229457855,-0.5627590616544088,-0.4095042844613393,0.5443598031997681,-1.440021316210429,1.332866112391154,-0.2053117156028747
2.35,1.6887019597013484e+18,17.34934822591146,17.940383911132812,-15.839783668518066,1.5114539464314778,1.6887019597013407e+18,17.349340698242187,16.28226089477539,-26.324039459228516,6.107679843902588,1.6887019597013484e+18,17.34934822591146,0.2386242945988972,-9.233850797017416,3.3002377351125083,1.6887019597013484e+18,17.34934822591146,-0.966388794283072,-2.9003882656494775,1.1253156264623003,1.6887019597013484e+18,17.34934822591146,-0.9673560373485088,-2.8959594319264093,1.1276572545369463,,,,,,,,,,,,1.6887019596971935e+18,17.34519375,-12.43179988861084,48.65115966796875,3.2793599367141724,1.6887019596971935e+18,17.34519375,-266.97259521484375,144.11615905761718,-129.93243713378905,1.6887019597013484e+18,17.34934822591146,0.524634063243866,-0.6328626275062561,-0.2915992438793182,0.4887380103270213,-1.479884425799052,1.2513100703557332,-0.4754009842872619
2.4,1.688701959753255e+18,17.401255045572913,-2.5024464627106986,-1.9004812240600584,3.284586270650228,1.688701959744602e+18,17.39260205078125,-1.3425729274749756,-11.003195444742838,5.360321680704753,1.688701959753255e+18,17.401255045572913,-0.1359033311406771,-9.252507527669271,3.256119171778361,1.688701959753255e+18,17.401255045572913,0.4852815270423889,2.196315129597982,-1.2270755370457966,1.688701959753255e+18,17.401255045572913,0.4842125177383423,2.2008456786473594,-1.2246321042378745,,,,,,,,,,,,1.688701959747195e+18,17.395194921875,-10.438319778442382,48.94395904541015,2.852359962463379,1.688701959747195e+18,17.395194921875,-264.9791198730469,144.40896301269532,-130.35943908691405,1.688701959753255e+18,17.401255045572913,0.5055057307084402,-0.6384267807006836,-0.3125809629758199,0.4887225131193797,-1.606885035832723,1.2572367588678997,-0.3126254578431447
2.45,1.688701959805159e+18,17.45315861002604,-3.084850549697876,2.7646967569986978,3.773895263671875,1.6887019597965107e+18,17.4445107421875,-3.2925240198771157,-8.399804671605429,8.257630983988443,1.688701959805159e+18,17.45315861002604,0.0299504150946935,-9.289767583211264,3.151456435521444,1.688701959805159e+18,17.45315861002604,0.3128139028946558,2.9015589555104575,-0.547029842933019,1.688701959805159e+18,17.45315861002604,0.3118466983238855,2.906038681666056,-0.5446372727553049,,,,,,,,,,,,1.688701959797192e+18,17.445192041015623,-7.520079803466797,49.31971969604492,5.023959827423096,1.688701959797192e+18,17.445192041015623,-262.0608764648438,144.784716796875,-128.18783721923828,1.688701959805159e+18,17.45315861002604,0.4700749814510345,-0.6044983665148417,-0.3653186758359273,0.5289523800214132,-1.564633846282959,1.2701489528020222,-0.188821310798327
2.5,1.6887019598570693e+18,17.505069335937502,-1.1460445523262024,3.31878932317098,2.858783006668091,1.6887019598484173e+18,17.496417236328124,-1.24227378765742,-4.794020255406697,5.112265666325887,1.6887019598570693e+18,17.505069335937502,-0.1289944586654503,-9.299692153930664,3.1176149050394693,1.6887019598570693e+18,17.505069335937502,-0.2863430778185526,1.395827094713847,-1.068912347157796,1.6887019598570693e+18,17.505069335937502,-0.2874121169249217,1.4003067413965862,-1.0665197968482971,1.688701959839767e+18,17.48776708984375,0.0,0.0,0.9857969880104064,13.789999961853027,0.7405125498771667,277.01568603515625,41.70000076293945,-122.7544421,49.1906248,1.688701959847196e+18,17.495195703125,-5.541239929199219,49.461238861083984,6.507479858398438,1.688701959847196e+18,17.495195703125,-260.0820373535156,144.92623596191407,-126.70431823730468,1.6887019598570693e+18,17.505069335937502,0.4433565040429433,-0.5921860734621683,-0.3970795273780823,0.5430489778518677,-1.62750248114268,1.274625579516093,-0.0397941153496503
2.55,1.6887019599089705e+18,17.556970621744792,-0.8434018492698669,0.0456226666768392,3.3183439572652182,1.688701959900325e+18,17.548325032552082,-1.5124633312225342,-9.579067230224608,7.793423334757487,1.6887019599089705e+18,17.556970621744792,-0.5766023496786753,-9.083755175272625,3.653069337209066,1.6887019599089705e+18,17.556970621744792,-1.100626488526662,1.5136731465657551,-1.5954782168070476,1.6887019599089705e+18,17.556970621744792,-1.101593653361003,1.5181528727213542,-1.593034744262695,,,,,,,,,,,,1.6887019598972006e+18,17.54520068359375,-1.77631995677948,49.7735595703125,5.036159944534302,1.6887019598972006e+18,17.54520068359375,-256.3171142578125,145.23855590820312,-128.1756378173828,1.6887019599089705e+18,17.556970621744792,0.3904074132442474,-0.5985405842463175,-0.4175823430220286,0.5609557231267294,-1.7560191949208577,1.2110970815022786,0.1746818050742149
2.6,1.688701959952232e+18,17.60023193359375,-0.1689046323299408,3.632192850112915,-1.0428874492645264,1.6887019599522284e+18,17.600228190104165,-1.1150553425153096,-5.372285683949788,3.1932218869527182,1.688701959952232e+18,17.60023193359375,-0.9406308233737946,-8.872317790985107,4.076811671257019,1.688701959952232e+18,17.60023193359375,-0.9547060132026672,0.856967568397522,-1.23700213432312,1.688701959952232e+18,17.60023193359375,-0.9556986689567566,0.8614727258682251,-1.234558641910553,,,,,,,,,,,,1.6887019599471946e+18,17.59519458007812,2.259439969062805,49.632039642333986,2.32043993473053,1.6887019599471946e+18,17.59519458007812,-252.28135681152344,145.09703979492187,-130.891357421875,1.688701959952232e+18,17.60023193359375,0.3498178571462631,-0.6054649651050568,-0.4308104068040848,0.5704280734062195,-1.832444489002228,1.1558296084403992,0.308625191450119
2.65,1.6887019599954875e+18,17.643487792968752,-0.3307918707529704,3.794811725616455,-2.330676476160685,1.688701960004139e+18,17.65213883463542,-1.7487545410792034,-5.392026424407959,2.307877461115519,1.6887019599954875e+18,17.643487792968752,-1.2106480995814006,-8.636332194010416,4.489126682281494,1.6887019599954875e+18,17.643487792968752,-1.096401313940684,0.3749185502529144,-0.7972809473673502,1.6887019599954875e+18,17.643487792968752,-1.0974194208780923,0.3794491191705068,-0.7948883970578512,,,,,,,,,,,,1.6887019599971963e+18,17.64519638671875,5.3826398849487305,49.507598876953125,0.004880005121231,1.6887019599971963e+18,17.64519638671875,-249.158154296875,144.97259826660155,-133.20691528320313,1.6887019599954875e+18,17.643487792968752,0.3192886610825856,-0.6155502001444498,-0.4330367644627889,0.5757910013198853,-1.8687351147333784,1.1013755400975545,0.3740476568539937
2.7,1.688701960047394e+18,17.69539396158854,-1.1198676824569702,-1.2698357899983723,-2.154161214828491,1.6887019600560463e+18,17.704046223958333,-2.7080770333607993,-10.05823008219401,2.9351957639058432,1.688701960047394e+18,17.69539396158854,-1.5956506331761675,-8.260420799255371,5.039231936136882,1.688701960047394e+18,17.69539396158854,-1.5305229028066,-1.10139004389445,-0.551305890083313,1.688701960047394e+18,17.69539396158854,-1.5314900875091553,-1.096859484910965,-0.5488624175389608,,,,,,,,,,,,1.6887019600471967e+18,17.695196679687502,6.7807599067687985,49.202598571777344,-3.508719968795776,1.6887019600471967e+18,17.695196679687502,-247.76003723144532,144.66759643554687,-136.72052001953125,1.688701960047394e+18,17.69539396158854,0.2935579617818196,-0.6416581074396769,-0.4170819222927093,0.5726448893547058,-1.9072484970092771,1.024766842524211,0.3930140336354573
2.75,1.6887019600992993e+18,17.747299479166667,0.5621399084726969,-2.7323807080586753,-3.056686004002889,1.6887019601079508e+18,17.75595076497396,-1.7204394737879436,-10.764312108357748,2.40678079922994,1.6887019600992993e+18,17.747299479166667,-2.565594037373861,-7.759989897410075,5.409951845804851,1.6887019600992993e+18,17.747299479166667,-1.6404786109924316,-3.091029087702433,-1.0596475799878438,1.6887019600992993e+18,17.747299479166667,-1.641496737798055,-3.0865493615468345,-1.0572550495465596,,,,,,,,,,,,1.6887019600971927e+18,17.745192675781247,9.457439613342284,48.648719024658206,-6.514799785614014,1.6887019600971927e+18,17.745192675781247,-245.08335571289064,144.11371765136718,-139.72659301757812,1.6887019600992993e+18,17.747299479166667,0.2815658152103424,-0.6969843904177347,-0.3844009737173716,0.5351995428403219,-2.037933905919393,0.9348150889078776,0.4048393368721008
2.8,1.688701960151205e+18,17.799205240885417,16.995284875233967,-7.764883518218994,-2.4681643644968667,1.6887019601512087e+18,17.799208740234377,5.8250277787446985,-14.674582958221436,2.971885681152344,1.688701960151205e+18,17.799205240885417,-4.627047856648763,-6.759991486867269,5.292816321055095,1.688701960151205e+18,17.799205240885417,-1.6520341237386067,-4.316577434539795,-4.971068541208903,1.688701960151205e+18,17.799205240885417,-1.653103192647298,-4.312148729960124,-4.96862518787384,,,,,,,,,,,,1.6887019601471972e+18,17.795197119140624,15.71603946685791,46.77479934692383,-8.466799545288087,1.6887019601471972e+18,17.795197119140624,-238.8247528076172,142.23979797363282,-141.67859497070313,1.688701960151205e+18,17.799205240885417,0.2494844645261764,-0.7826114495595297,-0.3524457514286041,0.4450102249781291,-2.304835875829061,0.7819741566975912,0.478146215279897
2.85,1.6887019602031158e+18,17.851115804036457,1.9752349853515625,-9.760802268981934,-0.9997315406799316,1.688701960194459e+18,17.84245882161458,4.485345522562662,-15.658631642659506,5.633900801340739,1.6887019602031158e+18,17.851115804036457,-5.221760431925456,-5.216515858968099,6.416807492574056,1.6887019602031158e+18,17.851115804036457,1.2903000911076865,7.733655611673991,-3.0009264051914215,1.6887019602031158e+18,17.851115804036457,1.289332886536916,7.73813533782959,-2.998584806919098,,,,,,,,,,,,1.6887019601971942e+18,17.84519404296875,29.702119064331058,38.52272033691406,-13.64691982269287,1.6887019601971942e+18,17.84519404296875,-224.83867492675785,133.9877197265625,-146.8587188720703,1.6887019602031158e+18,17.851115804036457,0.1008427515625953,-0.7741237282752991,-0.4131520390510559,0.4650993446509043,-2.277269204457601,0.5748369097709656,0.7101391553878784
2.9,1.688701960255022e+18,17.903022135416666,4.6725006103515625,-5.8006696701049805,-8.930811405181885,1.688701960246361e+18,17.89436140950521,0.5730811754862462,-10.486744403839111,-1.4107683102289836,1.688701960255022e+18,17.903022135416666,-3.784228483835856,-5.729388236999512,7.004314422607422,1.688701960255022e+18,17.903022135416666,0.4861978093783061,1.2986485958099363,1.243416249752045,1.688701960255022e+18,17.903022135416666,0.4852815369764964,1.303179184595744,1.2458087801933289,,,,,,,,,,,,1.6887019602471967e+18,17.895196630859374,26.107999801635746,39.23275985717773,-17.919359588623045,1.6887019602471967e+18,17.895196630859374,-228.43279418945312,134.6977569580078,-151.13115844726562,1.688701960255022e+18,17.903022135416666,0.0797605291008948,-0.7092073361078898,-0.4430443743864695,0.5424704750378927,-2.0890448093414307,0.6357450286547343,0.738882819811503
2.95,1.6887019603069202e+18,17.954919921875,1.5862878163655598,-8.085256099700928,-5.114119291305542,1.688701960298276e+18,17.946276123046875,-0.7517451047897339,-15.521443049112955,1.0775677810112636,1.6887019603069202e+18,17.954919921875,-2.861725648244222,-6.678302923838298,6.569478352864583,1.6887019603069202e+18,17.954919921875,2.6317601998647056,-0.222558577855428,2.7180957794189453,1.6887019603069202e+18,17.954919921875,2.6307421127955117,-0.2181297938028971,2.7204883893330893,,,,,,,,,,,,1.688701960297196e+18,17.94519609375,21.03767967224121,42.17783966064453,-16.43095932006836,1.688701960297196e+18,17.94519609375,-233.50311584472655,137.64283752441406,-149.64275512695312,1.6887019603069202e+18,17.954919921875,0.1401273881395657,-0.6789188583691915,-0.4363741775353749,0.5728674133618673,-2.003515084584554,0.7625842094421387,0.6402286887168884
3.0,1.6887019603588324e+18,18.00683243815104,-0.0875341097513834,-7.460775693257649,0.1993521849314371,1.6887019603501855e+18,17.99818570963542,-2.5046870708465576,-14.583655993143717,4.5477588176727295,1.6887019603588324e+18,18.00683243815104,-1.9518123865127563,-8.07965342203776,5.176846345265706,1.6887019603588324e+18,18.00683243815104,2.9998064835866294,-1.968156894048055,3.751221577326457,1.6887019603588324e+18,18.00683243815104,2.9987884362538657,-1.963728149731954,3.753665208816528,1.6887019603588367e+18,18.006836669921874,0.0,0.0,0.995532751083374,13.31700038909912,0.7522735595703125,276.8758850097656,41.70000076293945,-122.7544542,49.1906252,1.6887019603472008e+18,17.99520078125,14.303279876708984,46.75039901733398,-9.257359981536863,1.6887019603472008e+18,17.99520078125,-240.23751525878907,142.21539611816405,-142.46915283203126,1.6887019603588324e+18,18.00683243815104,0.2612081319093703,-0.6452782352765402,-0.4325485626856486,0.5717158714930216,-1.9530186255772908,0.9839057326316832,0.484850804011027
3.05,1.6887019604020923e+18,18.0500927734375,2.2368075847625732,-10.34642219543457,7.359426259994507,1.6887019604020887e+18,18.05008846028646,1.4033905143539112,-18.59103520711263,11.407782236735024,1.6887019604020923e+18,18.0500927734375,-1.2544178366661072,-8.818136215209961,4.105010032653809,1.6887019604020923e+18,18.0500927734375,2.249969482421875,-0.8888089358806609,2.0108920335769653,1.6887019604020923e+18,18.0500927734375,2.248976707458496,-0.8843038231134415,2.0133355259895325,,,,,,,,,,,,1.688701960397187e+18,18.045187158203127,6.27323989868164,49.41487884521485,-1.6543199360370635,1.688701960397187e+18,18.045187158203127,-248.2675598144531,144.87987670898437,-134.86611633300782,1.6887019604020923e+18,18.0500927734375,0.3494312912225723,-0.6242592632770538,-0.4209558367729186,0.5575334131717682,-1.8915897011756897,1.133199155330658,0.325724646449089
3.1,1.6887019604453476e+18,18.093347574869792,2.1147330602010093,-0.7758768399556479,8.648688634236654,1.6887019604540004e+18,18.102000325520834,0.6185446331898372,-7.736992756525676,10.80080270767212,1.6887019604453476e+18,18.093347574869792,-0.5249651968479156,-9.180501302083334,3.3992973963419595,1.6887019604453476e+18,18.093347574869792,1.9061031738917031,1.6194547017415364,1.3084224859873457,1.6887019604453476e+18,18.093347574869792,1.905135989189148,1.6238834460576377,1.3108150164286296,,,,,,,,,,,,1.6887019604471956e+18,18.095195410156247,2.5302799344062805,49.68083953857422,3.557519960403442,1.6887019604471956e+18,18.095195410156247,-252.01051635742184,145.14583740234374,-129.65428009033204,1.6887019604453476e+18,18.093347574869792,0.379460593064626,-0.5803653399149576,-0.4392835398515065,0.5707987944285074,-1.746625026067098,1.2290183305740356,0.226787731051445
3.15,1.6887019604972562e+18,18.145256266276043,-2.8108873764673867,7.028087298075358,2.225130478541056,1.6887019605059023e+18,18.153902587890624,-2.774278481801351,-1.8496519327163696,4.48833703994751,1.6887019604972562e+18,18.145256266276043,0.2588786669075489,-9.421152114868164,2.712982098261515,1.6887019604972562e+18,18.145256266276043,1.343547224998474,0.5206607977549235,1.2423981030782063,1.6887019604972562e+18,18.145256266276043,1.342580000559489,0.5251405040423075,1.2448415756225586,,,,,,,,,,,,1.6887019604971932e+18,18.14519306640625,-0.8051999818533659,49.539319610595705,7.778719806671143,1.6887019604971932e+18,18.14519306640625,-255.3459930419922,145.0043182373047,-125.43307647705078,1.6887019604972562e+18,18.145256266276043,0.410759965578715,-0.5367372035980225,-0.4498248100280761,0.5837046305338541,-1.493171493212382,1.309523582458496,0.0091721406206488
3.2,1.6887019605491569e+18,18.19715673828125,-6.35062821706136,9.129263242085775,0.9601012070973716,1.6887019605578135e+18,18.2058134765625,-5.125426133473714,-0.216351052125295,3.054637591044108,1.6887019605491569e+18,18.19715673828125,0.8646202286084493,-9.505776723225912,2.2553784052530923,1.6887019605491569e+18,18.19715673828125,0.8389725089073181,-0.1354084586103758,1.5445727507273357,1.6887019605491569e+18,18.19715673828125,0.838056226571401,-0.1309797043601672,1.5469653606414795,,,,,,,,,,,,1.6887019605471964e+18,18.19519658203125,-3.725879907608032,48.6096794128418,11.05075969696045,1.6887019605471964e+18,18.19519658203125,-258.2666748046875,144.07467651367188,-122.16103668212892,1.6887019605491569e+18,18.19715673828125,0.4370642304420471,-0.5084363222122192,-0.4484926362832387,0.5909149845441183,-1.2018263339996338,1.343947807947795,-0.2744193871815998
3.25,1.6887019606010637e+18,18.249063639322916,-2.6894054412841797,9.475598335266112,0.1155018806457519,1.6887019606010696e+18,18.2490693359375,-1.232602745294571,0.1268196012824773,2.253739833831787,1.6887019606010637e+18,18.249063639322916,1.4030004739761353,-9.461084683736166,2.1791398525238037,1.6887019606010637e+18,18.249063639322916,0.1577559526388844,-1.18436590830485,1.0415761669476826,1.6887019606010637e+18,18.249063639322916,0.156686931848526,-1.1799371242523191,1.0439687073230743,,,,,,,,,,,,1.6887019605971963e+18,18.245196533203124,-8.439959907531739,47.933799743652344,12.029199600219728,1.6887019605971963e+18,18.245196533203124,-262.9807495117187,143.3988006591797,-121.18259887695312,1.6887019606010637e+18,18.249063639322916,0.4712376991907755,-0.5052365660667419,-0.4197871883710225,0.588509182135264,-0.969018797079722,1.3266793886820476,-0.5697216788927714
3.3,1.688701960652976e+18,18.300975830078126,-2.3211538394292197,8.834179242451986,-0.2733248869578044,1.6887019606443223e+18,18.292322347005207,-0.7108677526315054,-0.4334997137387593,2.319841464360555,1.688701960652976e+18,18.300975830078126,1.3149086236953735,-9.420862515767416,2.393489917119344,1.688701960652976e+18,18.300975830078126,-0.3540473133325577,-0.891303280989329,-0.5220861608783405,1.688701960652976e+18,18.300975830078126,-0.355065422753493,-0.8868745366732279,-0.5196427088230848,,,,,,,,,,,,1.6887019606471944e+18,18.295194384765622,-10.279719734191897,47.90695877075195,11.8022798538208,1.6887019606471944e+18,18.295194384765622,-264.8205139160156,143.37195739746093,-121.4095184326172,1.688701960652976e+18,18.300975830078126,0.4771854678789773,-0.521131177743276,-0.4049244821071625,0.5802314877510071,-1.0374023119608562,1.3140914837519329,-0.546665777762731
3.35,1.6887019607048786e+18,18.352878743489583,24.88817024230957,-11.255287806193031,-0.7205959955851237,1.6887019606962312e+18,18.344231038411458,12.601401090621948,-14.0701957543691,2.105883320172628,1.6887019607048786e+18,18.352878743489583,0.2904397876312335,-9.290129025777182,3.115337530771891,1.6887019607048786e+18,18.352878743489583,-1.7013614972432454,-6.982851664225261,0.8897761503855387,1.6887019607048786e+18,18.352878743489583,-1.702379624048869,-6.978371938069661,0.8921687205632528,,,,,,,,,,,,1.6887019606971932e+18,18.345193310546875,-9.245160007476809,48.42423934936524,8.361879920959472,1.6887019606971932e+18,18.345193310546875,-263.78595581054685,143.8892364501953,-124.84991760253908,1.6887019607048786e+18,18.352878743489583,0.4976694285869598,-0.6069884697596232,-0.3370693027973175,0.5161686937014262,-1.4625708659489949,1.2720530827840169,-0.3638737599054972
3.4,1.6887019607567892e+18,18.40478946940104,8.432262659072876,-9.605737368265787,2.367613156636556,1.6887019607481393e+18,18.396139322916667,12.969298521677652,-21.900110244750977,5.7996039390563965,1.6887019607567892e+18,18.40478946940104,0.0725633651018142,-9.104583422342936,3.6472694079081216,1.6887019607567892e+18,18.40478946940104,-0.2434297973910967,-0.5154175311326981,-1.0413216451803844,1.6887019607567892e+18,18.40478946940104,-0.2444479217131932,-0.5108869721492132,-1.0388781627019246,,,,,,,,,,,,1.688701960747196e+18,18.39519599609375,-13.10035972595215,48.53159866333008,1.7299599170684814,1.688701960747196e+18,18.39519599609375,-267.6411499023437,143.99659423828126,-131.4818328857422,1.6887019607567892e+18,18.40478946940104,0.5271511673927307,-0.6517501076062521,-0.2617596685886382,0.4781985183556874,-1.5328067938486736,1.215112527211507,-0.4877574543158213
3.45,1.688701960808698e+18,18.456697998046877,-1.3666486342748003,-3.5004393259684243,7.341832637786865,1.688701960800045e+18,18.448045084635417,0.2007976770401001,-13.624333381652832,10.555339018503824,1.688701960808698e+18,18.456697998046877,-0.345279852549235,-9.167007128397625,3.4752453168233237,1.688701960808698e+18,18.456697998046877,0.7116580009460449,3.59265128771464,-1.5786285003026326,1.688701960808698e+18,18.456697998046877,0.7107417186101278,3.59713085492452,-1.5762359698613484,,,,,,,,,,,,1.688701960797199e+18,18.445199072265627,-9.171959781646729,49.21479949951172,2.283839964866638,1.688701960797199e+18,18.445199072265627,-263.71275634765624,144.67980041503907,-130.9279571533203,1.688701960808698e+18,18.456697998046877,0.4869793057441711,-0.6438467502593994,-0.318288505077362,0.4960252046585083,-1.6705520550409954,1.2337517738342283,-0.2228927612304687
3.5,1.6887019608519532e+18,18.499953125,-2.434914469718933,6.672351360321045,0.8637071847915649,1.6887019608519524e+18,18.499952311197916,-3.0077780882517495,-3.1200413703918457,4.584448893864949,1.6887019608519532e+18,18.499953125,-0.4880814254283905,-9.234010696411133,3.274803638458252,1.6887019608519532e+18,18.499953125,0.6743952035903931,2.22866553068161,-1.5385404825210571,1.6887019608519532e+18,18.499953125,0.6734025776386261,2.2331706285476685,-1.5360970497131348,,,,,,,,,,,,1.6887019608471946e+18,18.495194482421873,-4.635999870300293,49.673518371582034,5.348479843139648,1.6887019608471946e+18,18.495194482421873,-259.1767944335937,145.13851318359374,-127.86331787109376,1.6887019608519532e+18,18.499953125,0.4487068951129913,-0.6187333762645721,-0.378007560968399,0.5223241746425629,-1.7374038100242617,1.2538670301437378,-0.0028349552303553
3.55,1.6887019608952123e+18,18.54321215820312,-0.7809827327728271,7.026130676269531,-0.4295970598856608,1.6887019609038572e+18,18.551857177734377,-1.6147565046946208,-3.223530928293864,3.5433715184529624,1.6887019608952123e+18,18.54321215820312,-0.7518829703330994,-9.222984313964844,3.2554453214009604,1.6887019608952123e+18,18.54321215820312,-0.1181515157222747,1.844202160835266,-1.0578149755795796,1.6887019608952123e+18,18.54321215820312,-0.1190678166846434,1.8486309448877971,-1.0554224451382954,1.6887019608779162e+18,18.525916259765623,0.0,0.0,0.995532751083374,13.149999618530272,0.7561015486717224,276.6495666503906,41.70000076293945,-122.7544669,49.1906255,1.6887019608971942e+18,18.545194091796876,-0.2269200086593627,49.644239807128905,6.883239841461181,1.6887019608971942e+18,18.545194091796876,-254.76771545410156,145.10923767089844,-126.32855682373048,1.6887019608952123e+18,18.54321215820312,0.4187484780947367,-0.6089146931966146,-0.4118944505850474,0.5328952272733053,-1.8307801882425945,1.2505217393239338,0.1760217671593029
3.6,1.6887019609471142e+18,18.59511433919271,-2.4168710708618164,-1.769521713256836,3.5803935527801514,1.6887019609557645e+18,18.60376440429687,-3.201397260030111,-11.08674462636312,7.461419423421224,1.6887019609471142e+18,18.59511433919271,-0.7074211239814758,-8.937205950419107,3.972675085067749,1.6887019609471142e+18,18.59511433919271,-1.657124678293864,2.19804584980011,-0.3064507345358531,1.6887019609471142e+18,18.59511433919271,-1.6581428050994873,2.202576438585917,-0.3041599939266841,,,,,,,,,,,,1.6887019609471954e+18,18.59519521484375,2.1325599431991575,49.71499938964844,3.20371994972229,1.6887019609471954e+18,18.59519521484375,-252.40823364257812,145.17999877929688,-130.00807495117186,1.6887019609471142e+18,18.59511433919271,0.3641692996025085,-0.6003759503364563,-0.4236877858638763,0.5718526045481364,-1.7814196348190308,1.1737468242645264,0.2423234631617863
3.65,1.688701960999014e+18,18.647014241536457,-1.3120323220888774,2.45882256825765,-1.200855731964111,1.688701961007673e+18,18.65567325846354,-1.3948162198066711,-5.296313444773356,2.8903303146362305,1.688701960999014e+18,18.647014241536457,-0.3414715627829233,-8.710114479064941,4.498289585113525,1.688701960999014e+18,18.647014241536457,-0.825024425983429,0.3594941894213359,0.5211698611577352,1.688701960999014e+18,18.647014241536457,-0.8259407083193461,0.3639229734738667,0.5235624114672343,,,,,,,,,,,,1.6887019609971963e+18,18.64519658203125,1.3541999578475952,49.917517852783206,0.4587199792265892,1.6887019609971963e+18,18.64519658203125,-253.18659362792968,145.38251342773438,-132.753076171875,1.688701960999014e+18,18.647014241536457,0.3402201930681864,-0.5928749044736227,-0.4128084580103556,0.6019039551417033,-1.6722906827926636,1.1206106742223103,0.1852495968341827
3.7,1.6887019610509294e+18,18.698929524739583,-1.120156168937683,2.6407952308654785,-2.628896951675415,1.688701961059578e+18,18.70757820638021,-1.6859429876009624,-6.767301241556804,2.462613344192505,1.6887019610509294e+18,18.698929524739583,-0.3837962547938029,-8.404748916625977,5.039191722869873,1.6887019610509294e+18,18.698929524739583,-1.4543174505233765,0.1330668106675147,-0.8147415220737457,1.6887019610509294e+18,18.698929524739583,-1.455284635225932,0.1374955847859382,-0.812399889032046,,,,,,,,,,,,1.6887019610471974e+18,18.6951974609375,0.7734799746423959,49.82967910766602,-2.3033599138259886,1.6887019610471974e+18,18.6951974609375,-253.7673187255859,145.2946746826172,-135.51515502929686,1.6887019610509294e+18,18.698929524739583,0.3169977366924286,-0.6050634384155273,-0.3975205719470978,0.6125541726748148,-1.6684531768163045,1.0566071669260662,0.188714916507403
3.75,1.6887019611028367e+18,18.750836832682293,-1.504672368367513,-2.02444839477539,-3.440324544906616,1.6887019611028367e+18,18.750836791992185,-2.9255248308181763,-10.079466342926024,2.1463619470596313,1.6887019611028367e+18,18.750836832682293,-1.2608957886695862,-7.963235855102539,5.5734507242838545,1.6887019611028367e+18,18.750836832682293,-1.4024447997411091,-1.9443840781847637,-1.6744325558344524,1.6887019611028367e+18,18.750836832682293,-1.4034119844436646,-1.9399043917655945,-1.6719890832901,,,,,,,,,,,,1.688701961097188e+18,18.74518818359375,4.579879999160767,49.47099914550781,-5.9121198654174805,1.688701961097188e+18,18.74518818359375,-249.9609161376953,144.93599853515624,-139.12391967773436,1.6887019611028367e+18,18.750836832682293,0.2805048724015553,-0.6445053418477377,-0.3911780615647633,0.593635360399882,-1.8155369758605957,0.972174028555552,0.3072450459003448
3.8,1.6887019611547384e+18,18.802738525390623,1.513322631518046,-5.228959401448567,-2.9557863076527915,1.6887019611460923e+18,18.794092529296876,-1.8103697697321577,-11.881959597269692,2.5334010124206543,1.6887019611547384e+18,18.802738525390623,-3.0635362466176352,-7.305286407470703,5.751524925231934,1.6887019611547384e+18,18.802738525390623,-1.7624480724334717,-4.316882928212483,-2.210161368052165,1.6887019611547384e+18,18.802738525390623,-1.7634152173995972,-4.312454064687093,-2.207819700241089,,,,,,,,,,,,1.688701961147197e+18,18.79519658203125,10.4919997215271,48.11679916381836,-8.476559925079346,1.688701961147197e+18,18.79519658203125,-244.04879760742188,143.58179626464843,-141.6883575439453,1.6887019611547384e+18,18.802738525390623,0.2588032484054565,-0.7233249147733053,-0.3677503267923991,0.5226749281088511,-2.080857992172241,0.8625595768292745,0.4117972155412037
3.85,1.6887019612066496e+18,18.85464965820313,21.49015760421753,-10.325454076131184,1.9291596412658691,1.6887019611979994e+18,18.845999593098956,19.79841375350952,-15.77428404490153,6.6089762051900225,1.6887019612066496e+18,18.85464965820313,-5.441959540049235,-5.6927421887715655,5.782632827758789,1.6887019612066496e+18,18.85464965820313,-0.4333070814609527,2.679916779200236,-6.46020523707072,1.6887019612066496e+18,18.85464965820313,-0.4343761106332143,2.6843963464101157,-6.457761764526367,,,,,,,,,,,,1.6887019611971958e+18,18.845195703125,22.02099952697754,43.89803924560547,-9.433039474487304,1.6887019611971958e+18,18.845195703125,-232.51979370117184,139.363037109375,-142.64483947753905,1.6887019612066496e+18,18.85464965820313,0.1653711845477421,-0.7977978388468424,-0.3788393338521321,0.4338385760784149,-2.350982268651326,0.6383404533068339,0.6130219300587972
3.9,1.6887019612585577e+18,18.9065576171875,-5.861505031585693,-5.458492596944173,-6.19714339574178,1.6887019612499026e+18,18.897902506510416,-11.016356150309244,-12.065808296203612,2.7802605628967285,1.6887019612585577e+18,18.9065576171875,-3.4827300707499185,-5.476151466369629,7.334456602732341,1.6887019612585577e+18,18.9065576171875,1.4925983312229316,5.28174456457297,0.2494366268316904,1.6887019612585577e+18,18.9065576171875,1.491631085673968,5.2862242584427195,0.2518801093101502,,,,,,,,,,,,1.6887019612472013e+18,18.895201220703125,27.528079223632812,38.55688018798829,-17.38255920410156,1.6887019612472013e+18,18.895201220703125,-227.0127166748047,134.02187805175782,-150.5943572998047,1.6887019612585577e+18,18.9065576171875,0.0536331397791703,-0.6990201671918234,-0.4425340195496877,0.5580801566441854,-2.0380645593007407,0.6061059236526489,0.7478248675664266
3.95,1.6887019613018025e+18,18.949802490234376,-2.144365906715393,-7.731440544128418,-7.060517311096191,1.68870196130181e+18,18.94980973307291,-1.3824532826741536,-13.475180625915527,-0.5076771974563599,1.6887019613018025e+18,18.949802490234376,-3.283915162086487,-5.7277305126190186,7.254460096359253,1.6887019613018025e+18,18.949802490234376,-0.6171266138553619,-3.3473124504089355,2.6278659105300903,1.6887019613018025e+18,18.949802490234376,-0.618042916059494,-3.3428072929382324,2.6302329897880554,,,,,,,,,,,,1.6887019612971912e+18,18.945191113281247,22.96283950805664,40.16727905273437,-19.84207954406738,1.6887019612971912e+18,18.945191113281247,-231.5779541015625,135.632275390625,-153.0538757324219,1.6887019613018025e+18,18.949802490234376,0.0797476582229137,-0.7011084258556366,-0.4268490821123123,0.5651745498180389,-2.0184561014175415,0.6369226574897766,0.6848639845848083
4.0,1.68870196134507e+18,18.993070149739584,10.383100668589275,-9.063004970550535,-5.0936656792958575,1.6887019613537167e+18,19.00171671549479,3.633102516333262,-14.553545951843262,2.374677062034607,1.68870196134507e+18,18.993070149739584,-2.9811667601267495,-6.45947806040446,6.729483604431152,1.68870196134507e+18,18.993070149739584,2.451096793015798,0.656018336613973,2.20919418334961,1.68870196134507e+18,18.993070149739584,2.4500277439753213,0.6604471206665038,2.2115867137908936,,,,,,,,,,,,1.6887019613471928e+18,18.995192919921877,19.214999771118165,43.44907989501953,-15.537919807434085,1.6887019613471928e+18,18.995192919921877,-235.32579345703124,138.91408081054686,-148.74971618652344,1.68870196134507e+18,18.993070149739584,0.1457261443138122,-0.698311984539032,-0.4113882978757222,0.5665558576583862,-2.007849017779032,0.7344389160474142,0.5835234522819519
4.05,1.6887019613969764e+18,19.044976155598956,-1.6468013922373457,-6.170677661895752,-0.3580663998921712,1.6887019614056243e+18,19.05362418619792,-2.959123969078064,-14.98245938618978,5.927021821339925,1.6887019613969764e+18,19.044976155598956,-1.707401116689046,-8.007437547047934,5.36736536026001,1.6887019613969764e+18,19.044976155598956,3.8520144621531167,-0.5001459121704102,2.7547477086385093,1.6887019613969764e+18,19.044976155598956,3.8510471979777017,-0.4955644210179646,2.757089376449585,1.688701961396976e+18,19.04497607421875,0.0,0.0,1.0057793855667114,12.77299976348877,0.7739081978797913,276.3286437988281,41.70000076293945,-122.7544788,49.1906247,1.6887019613971953e+18,19.04519536132813,11.887680053710938,47.86303863525391,-7.642079830169678,1.6887019613971953e+18,19.04519536132813,-242.65311279296876,143.32803955078126,-140.8538787841797,1.6887019613969764e+18,19.044976155598956,0.2412043213844299,-0.629940907160441,-0.441402902205785,0.5907655159632365,-1.9022270838419593,0.9724786281585692,0.5004151264826456
4.1,1.6887019614488794e+18,19.09687955729167,4.060981710751851,-7.941307385762532,7.937015374501546,1.6887019614575342e+18,19.10553434244791,3.486143151919047,-15.98066520690918,13.071192423502604,1.6887019614488794e+18,19.09687955729167,-1.1816815932591755,-8.81028938293457,4.140282233556111,1.6887019614488794e+18,19.09687955729167,1.778483231862386,-0.9364564220110576,1.5420784155527751,1.6887019614488794e+18,19.09687955729167,1.7775669892628987,-0.9319766958554586,1.544470985730489,,,,,,,,,,,,1.6887019614471946e+18,19.09519448242187,6.412319755554199,49.53443908691406,-0.1634799987077713,1.6887019614471946e+18,19.09519448242187,-248.12847290039065,144.99944152832032,-133.37527770996093,1.6887019614488794e+18,19.09687955729167,0.3295888006687164,-0.6077264149983724,-0.4411291182041168,0.5719981789588928,-1.8760112921396892,1.1323964993158977,0.3829514483610789
4.15,1.68870196150079e+18,19.148790201822916,-0.157967726389567,2.776893456776937,6.139013290405273,1.6887019615094426e+18,19.157442626953127,-1.094915767510732,-5.051248709360759,8.043473561604818,1.68870196150079e+18,19.148790201822916,-0.2546581427256266,-9.185314178466797,3.4190412362416587,1.68870196150079e+18,19.148790201822916,1.712560733159383,1.13076247771581,1.6555975278218586,1.68870196150079e+18,19.148790201822916,1.711593508720398,1.1352930466334026,1.6579391558965046,,,,,,,,,,,,1.6887019614971963e+18,19.145196582031257,2.208199954032898,49.82723846435547,4.128479909896851,1.6887019614971963e+18,19.145196582031257,-252.3325958251953,145.292236328125,-129.08331909179688,1.68870196150079e+18,19.148790201822916,0.3691080609957377,-0.5614804228146871,-0.4488907853762309,0.5888086160024008,-1.6682380437850952,1.2320174773534138,0.2061500598986942
4.2,1.6887019615526932e+18,19.200693115234376,-4.348342935244243,7.7184263865153,1.0801002184549968,1.688701961552697e+18,19.200697143554688,-3.6813575625419617,-1.6630117297172546,3.8688950538635254,1.6887019615526932e+18,19.200693115234376,0.4912489751974742,-9.384870847066244,2.804970900217692,1.6887019615526932e+18,19.200693115234376,1.200910170873006,0.7171049018700918,1.2425508101781209,1.6887019615526932e+18,19.200693115234376,1.1998920440673828,0.721635490655899,1.2449942827224731,,,,,,,,,,,,1.688701961547196e+18,19.195195947265624,-1.039439958333969,49.42219924926758,8.230119705200195,1.688701961547196e+18,19.195195947265624,-255.58023376464843,144.88719482421874,-124.98167724609377,1.6887019615526932e+18,19.200693115234376,0.3982726633548736,-0.521809717019399,-0.4547922412554423,0.6017600297927856,-1.412394404411316,1.297798991203308,-0.0205449940015872
4.25,1.688701961604597e+18,19.25259684244792,-5.482481400171916,8.890677452087402,0.2666695912679036,1.6887019615959524e+18,19.24395263671875,-5.121039191881816,-0.5880361596743265,3.012364308039347,1.688701961604597e+18,19.25259684244792,1.0790259043375652,-9.445257186889648,2.4162076314290366,1.688701961604597e+18,19.25259684244792,0.688597838083903,-0.964708924293518,1.4683164358139038,1.688701961604597e+18,19.25259684244792,0.6876306732495626,-0.9601783553759256,1.470759908358256,,,,,,,,,,,,1.6887019615971968e+18,19.245196582031248,-4.9678398132324215,48.86587982177734,10.838479804992676,1.6887019615971968e+18,19.245196582031248,-259.5086364746094,144.33087768554688,-122.3733169555664,1.688701961604597e+18,19.25259684244792,0.4329620798428853,-0.5036284128824869,-0.4417922298113505,0.602958103020986,-1.1443973779678345,1.320651372273763,-0.317330444852511
4.3,1.6887019616565115e+18,19.304511393229166,-2.3746402263641357,9.133680979410808,-0.4877042373021443,1.6887019616478564e+18,19.2958564453125,-1.3347962299982707,-0.24745774269104,1.9387845993041992,1.6887019616565115e+18,19.304511393229166,1.1935195128122966,-9.4312318166097,2.420232137044271,1.6887019616565115e+18,19.304511393229166,0.1104647976656754,-1.2749776045481365,0.0721330096324284,1.6887019616565115e+18,19.304511393229166,0.1094975949575503,-1.2705488204956057,0.074576461687684,,,,,,,,,,,,1.6887019616471926e+18,19.295192333984374,-7.988559818267822,48.248558044433594,11.355759811401366,1.6887019616471926e+18,19.295192333984374,-262.52935180664065,143.71355895996095,-121.85603790283204,1.6887019616565115e+18,19.304511393229166,0.455658217271169,-0.5139550765355428,-0.4220793743928273,0.5915865500768026,-1.0944634278615315,1.3165652751922607,-0.4319155812263489
4.35,1.688701961708416e+18,19.356415852864583,-3.2486324310302734,6.681228955586751,-1.2144765853881836,1.6887019616997663e+18,19.347766682942705,-2.0693928400675454,-1.345165133476257,1.5060824354489644,1.688701961708416e+18,19.356415852864583,0.502805029352506,-9.404104550679524,2.7077221075693765,1.688701961708416e+18,19.356415852864583,-0.8033387015263239,-4.150727550188701,-1.541773001352946,1.688701961708416e+18,19.356415852864583,-0.8044077306985855,-4.146247824033101,-1.539329469203949,,,,,,,,,,,,1.6887019616971978e+18,19.345197753906252,-8.359439849853516,48.26075820922851,10.855559730529786,1.6887019616971978e+18,19.345197753906252,-262.9002380371094,143.7257568359375,-122.35623626708984,1.688701961708416e+18,19.356415852864583,0.4622093240420024,-0.5602681438128153,-0.4019735753536224,0.5563586950302124,-1.3787893454233806,1.3087843259175618,-0.256797062853972
4.4,1.6887019617516682e+18,19.399668334960936,33.79808235168457,-18.809456825256348,-1.4761571884155271,1.688701961751674e+18,19.399673828125,28.04747136433919,-26.240889231363933,2.106880267461141,1.6887019617516682e+18,19.399668334960936,-0.1186709981411695,-9.279732704162598,3.1742881536483765,1.6887019617516682e+18,19.399668334960936,-1.2060770392417908,-6.221586227416992,3.169092535972595,1.6887019617516682e+18,19.399668334960936,-1.207069754600525,-6.2170045375823975,3.1715359687805176,,,,,,,,,,,,1.6887019617471944e+18,19.395194384765624,-9.110959911346436,48.77071914672852,6.163439798355102,1.6887019617471944e+18,19.395194384765624,-263.65175170898436,144.2357208251953,-127.04835662841796,1.6887019617516682e+18,19.399668334960936,0.5132653117179871,-0.6389169692993164,-0.3090404868125915,0.4817704409360885,-1.600778043270111,1.266553819179535,-0.3378253430128097
4.45,1.6887019617949266e+18,19.4429267578125,6.073813756306966,-9.102462768554688,4.3311944007873535,1.688701961803577e+18,19.451576822916667,3.965704888105393,-16.16590976715088,8.496315002441406,1.6887019617949266e+18,19.4429267578125,-0.3111625189582506,-9.135873476664225,3.5528813203175864,1.6887019617949266e+18,19.4429267578125,-0.5716171662012736,-0.9640980263551076,-1.1392128008107345,1.6887019617949266e+18,19.4429267578125,-0.5726861556371053,-0.959669311841329,-1.1368202244242032,,,,,,,,,,,,1.6887019617971945e+18,19.44519443359375,-12.556239891052249,48.83172073364258,1.2858799815177917,1.6887019617971945e+18,19.44519443359375,-267.09703369140624,144.29671630859374,-131.92591857910156,1.6887019617949266e+18,19.4429267578125,0.5243007938067118,-0.6662584543228149,-0.2622540394465129,0.4607443312803904,-1.6444415251413982,1.223242998123169,-0.405648668607076
4.5,1.6887019618468365e+18,19.49483634440104,-0.3467414379119873,-0.7863739331563314,7.751685619354248,1.688701961855488e+18,19.50348787434896,-0.2909274101257324,-8.383852322896322,10.76271677017212,1.6887019618468365e+18,19.49483634440104,-0.6752565701802572,-9.142287572224935,3.4917136828104653,1.6887019618468365e+18,19.49483634440104,0.6927720904350281,3.271132508913676,-1.2045244574546814,1.6887019618468365e+18,19.49483634440104,0.6917539834976196,3.275612195332845,-1.202080984910329,,,,,,,,,,,,1.6887019618471946e+18,19.49519462890625,-8.127639961242675,49.60275955200195,1.864159989356995,1.6887019618471946e+18,19.49519462890625,-262.66843872070314,145.06775817871093,-131.34763793945314,1.6887019618468365e+18,19.49483634440104,0.4894183278083801,-0.6620831688245138,-0.3063642779986063,0.4768683513005574,-1.7654338677724202,1.225872794787089,-0.18158287803332
4.55,1.6887019618987436e+18,19.546743408203124,-2.0185420513153076,6.596116224924724,0.5521396001180013,1.6887019619073946e+18,19.555394368489583,-3.0382866064707437,-2.507478713989258,3.422334591547648,1.6887019618987436e+18,19.546743408203124,-0.7801267902056376,-9.178214073181154,3.3736095428466797,1.6887019618987436e+18,19.546743408203124,0.2471968034903208,1.6534086068471272,-1.1285735766092937,1.6887019618987436e+18,19.546743408203124,0.2461277941862742,1.6578882932662964,-1.1261810064315796,1.6887019619160456e+18,19.564045654296876,0.0,0.0,1.0057793855667114,12.651000022888184,0.7900943756103516,276.3236389160156,41.70000076293945,-122.754489,49.1906246,1.6887019618971968e+18,19.545196630859373,-4.801919841766358,49.8345588684082,4.7994797706604,1.6887019618971968e+18,19.545196630859373,-259.34270629882815,145.29955444335937,-128.41231384277344,1.6887019618987436e+18,19.546743408203124,0.4578246374924977,-0.6426713864008585,-0.3558188875516255,0.5005517303943634,-1.815670172373454,1.2369948625564575,-0.0033436527786155
4.6,1.6887019619506504e+18,19.598650472005207,-2.8630357583363852,3.1165448824564614,0.5458707014719645,1.688701961959298e+18,19.60729809570313,-4.217549244562785,-7.1166534423828125,4.933401981989543,1.6887019619506504e+18,19.598650472005207,-1.05348002910614,-8.963649113972982,3.8361100355784097,1.6887019619506504e+18,19.598650472005207,-1.3983723521232605,1.5481361548105876,-0.8919141789277395,1.6887019619506504e+18,19.598650472005207,-1.399390439192454,1.5526158412297566,-0.8894707163174947,,,,,,,,,,,,1.688701961947195e+18,19.595194873046875,-1.9202799558639527,49.78819885253906,4.282199907302856,1.688701961947195e+18,19.595194873046875,-256.46107788085936,145.2531982421875,-128.92959899902343,1.6887019619506504e+18,19.598650472005207,0.4117814302444458,-0.6429253021876017,-0.376354436079661,0.5245568950970968,-1.8643009265263877,1.1799685955047607,0.1365971614917119
4.65,1.6887019620025572e+18,19.65055721028646,-3.390982866287231,-0.6657010714213053,0.3174177805582682,1.6887019620025572e+18,19.65055725097656,-4.188636064529419,-9.797113418579102,4.832903623580933,1.6887019620025572e+18,19.65055721028646,-0.8742868304252625,-8.678314208984375,4.4870955149332685,1.6887019620025572e+18,19.65055721028646,-1.010014792283376,0.4171700527270635,0.5693773080905279,1.6887019620025572e+18,19.65055721028646,-1.0109819769859314,0.4215988367795945,0.5717698683341345,,,,,,,,,,,,1.6887019619971973e+18,19.645197363281248,-0.558759993314743,50.098078918457034,0.2025199949741363,1.6887019619971973e+18,19.645197363281248,-255.09954833984375,145.56307983398438,-133.0092742919922,1.6887019620025572e+18,19.65055721028646,0.383805384238561,-0.643083651860555,-0.3645091156164805,0.5533553957939148,-1.7833120028177898,1.112999677658081,0.1005113100012143
4.7,1.6887019620544584e+18,19.702458251953125,-0.5998547077178955,2.4685975710550943,-2.516505161921183,1.688701962045813e+18,19.693812988281252,-2.044467568397522,-6.304489453633626,2.616750955581665,1.6887019620544584e+18,19.702458251953125,-1.077776769797007,-8.431354840596518,4.890907605489095,1.6887019620544584e+18,19.702458251953125,-0.8856018980344137,0.3300708631674449,-1.6719890832901,1.6887019620544584e+18,19.702458251953125,-0.886569082736969,0.3344996273517608,-1.669596513112386,,,,,,,,,,,,1.6887019620471946e+18,19.695194482421876,-0.3781999945640564,50.00535888671875,-2.064239978790283,1.6887019620471946e+18,19.695194482421876,-254.9189971923828,145.4703582763672,-135.27603759765626,1.6887019620544584e+18,19.702458251953125,0.3611311316490173,-0.6550746162732443,-0.3575446208318074,0.5588945547739664,-1.80554723739624,1.060857176780701,0.1316296557585398
4.75,1.688701962106374e+18,19.75437410481771,-0.2456219593683878,0.4105836550394694,-3.1464737256368003,1.68870196209772e+18,19.74572013346354,-2.00937283039093,-7.01794958114624,2.162314017613729,1.688701962106374e+18,19.75437410481771,-1.9265262683232625,-8.0082368850708,5.319879055023193,1.688701962106374e+18,19.75437410481771,-1.124806523323059,0.2971859375635783,-2.2136738697687783,1.688701962106374e+18,19.75437410481771,-1.1258246302604675,0.3016147216161092,-2.2112812995910645,,,,,,,,,,,,1.688701962097197e+18,19.745196923828125,5.1825599193573,49.2001594543457,-4.655519914627075,1.688701962097197e+18,19.745196923828125,-249.3582336425781,144.6651580810547,-137.86731872558593,1.688701962106374e+18,19.75437410481771,0.3033536672592163,-0.6766601403554281,-0.3786888221899668,0.5535414020220438,-1.9416039387385051,0.978794793287913,0.3208739757537842
4.8,1.688701962158275e+18,19.806275390625,0.3458162943522135,-3.7126800219217935,-2.8533504803975425,1.688701962149627e+18,19.797627034505208,-2.4811576207478843,-10.555737813313804,2.793022314707438,1.688701962158275e+18,19.806275390625,-2.849968512852987,-7.423160394032796,5.734831968943278,1.688701962158275e+18,19.806275390625,-1.4750359455744426,-1.3936890959739685,-1.598888913790385,1.688701962158275e+18,19.806275390625,-1.4760031302769978,-1.3892093698183696,-1.596496303876241,,,,,,,,,,,,1.688701962147196e+18,19.79519580078125,10.54079990386963,48.355918884277344,-7.144319725036621,1.688701962147196e+18,19.79519580078125,-243.9999969482422,143.82091674804687,-140.35611572265626,1.688701962158275e+18,19.806275390625,0.259466658035914,-0.7120308876037598,-0.3760137856006622,0.5328741868336996,-2.0549232165018716,0.8794638514518738,0.4174630343914032
4.85,1.6887019622015345e+18,19.849534667968747,2.849113345146179,-8.563347578048706,-0.8292415142059326,1.6887019622015286e+18,19.849528645833335,3.782254854838053,-15.248661041259766,4.701298236846924,1.6887019622015345e+18,19.849534667968747,-4.2359172105789185,-6.729324579238892,5.712817668914795,1.6887019622015345e+18,19.849534667968747,-1.6626988649368286,-5.564371585845947,-3.3211216926574707,1.6887019622015345e+18,19.849534667968747,-1.6636914610862732,-5.559866309165955,-3.3187546133995056,,,,,,,,,,,,1.6887019621971986e+18,19.84519853515625,16.369959831237793,46.54543914794922,-9.718519973754884,1.6887019621971986e+18,19.84519853515625,-238.17083740234375,142.01043701171875,-142.93031616210936,1.6887019622015345e+18,19.849534667968747,0.235409066081047,-0.7691534459590912,-0.3553630411624908,0.4749374091625213,-2.2287933826446533,0.7754190266132355,0.4682892113924026
4.9,1.688701962244793e+18,19.892792805989583,23.69175434112549,-10.84139887491862,1.6183147430419922,1.6887019622534372e+18,19.901437174479167,6.205187479654948,-15.022339820861816,7.454838911692302,1.688701962244793e+18,19.892792805989583,-5.274063269297282,-5.455959796905518,6.1285726229349775,1.688701962244793e+18,19.892792805989583,0.3470732445518176,6.4393341938654585,-3.705814083417257,1.688701962244793e+18,19.892792805989583,0.346055157482624,6.443813880284627,-3.7034723361333217,,,,,,,,,,,,1.6887019622471972e+18,19.895197021484375,27.20599937438965,40.460079193115234,-12.41471996307373,1.6887019622471972e+18,19.895197021484375,-227.3347930908203,135.92507934570312,-145.626513671875,1.688701962244793e+18,19.892792805989583,0.1371110950907071,-0.7892937858899435,-0.3852116564909617,0.4518207410971324,-2.3053694566090903,0.605632464090983,0.6340475678443909
4.95,1.688701962296696e+18,19.944695963541665,-4.780388037363688,-4.270889600118001,-7.19111426671346,1.6887019623053504e+18,19.95335034179687,-7.836494127909343,-10.49352439244588,-0.2542374134063721,1.688701962296696e+18,19.944695963541665,-3.1411145528157554,-5.765448888142903,7.286752065022786,1.688701962296696e+18,19.944695963541665,0.7282531758149465,2.4435118635495505,0.7549785152077675,1.688701962296696e+18,19.944695963541665,0.7271841851373512,2.4479915698369346,0.757422017554442,,,,,,,,,,,,1.6887019622971986e+18,19.9451984375,22.557799530029296,41.00907974243164,-18.74651947021484,1.6887019622971986e+18,19.9451984375,-231.98299865722657,136.4740783691406,-151.95831909179688,1.688701962296696e+18,19.944695963541665,0.0790840163826942,-0.6958173116048177,-0.4272322356700897,0.5717812975247701,-2.0002036492029824,0.641846756140391,0.6807241042455038
5.0,1.6887019623485996e+18,19.996599690755207,8.78542415301005,-8.394505341847738,-6.293961842854817,1.688701962357255e+18,20.005254720052083,7.769694646199544,-15.087544441223145,1.1906286875406902,1.6887019623485996e+18,19.996599690755207,-3.215195417404175,-6.226083119710286,6.857196966807048,1.6887019623485996e+18,19.996599690755207,0.5122104957699776,-3.15043572584788,2.259946902592977,1.6887019623485996e+18,19.996599690755207,0.5112433110674223,-3.145956039428711,2.262339472770691,,,,,,,,,,,,1.6887019623471992e+18,19.995199365234377,19.344319534301757,42.93423919677734,-17.114159774780273,1.6887019623471992e+18,19.995199365234377,-235.19647521972655,138.39923400878905,-150.32595825195312,1.6887019623485996e+18,19.996599690755207,0.1416546031832694,-0.7149676084518433,-0.3967011968294779,0.5571163694063822,-2.0296305418014526,0.7017147143681844,0.5664212107658386
5.05,1.6887019624005071e+18,20.04850740559896,0.6373037099838257,-7.06298287709554,-1.7836981614430745,1.6887019624091584e+18,20.057158365885417,-3.166501998901367,-14.226726531982422,4.620939334233602,1.6887019624005071e+18,20.04850740559896,-2.2973877986272178,-7.377345244089763,5.993594964345296,1.6887019624005071e+18,20.04850740559896,3.72383451461792,2.3473514715830484,2.767270485560099,1.6887019624005071e+18,20.04850740559896,3.722867250442505,2.3517802953720093,2.7696630160013833,,,,,,,,,,,,1.688701962397197e+18,20.04519716796875,15.469600105285645,45.876879119873045,-12.07555980682373,1.688701962397197e+18,20.04519716796875,-239.07119445800785,141.34187927246094,-145.2873565673828,1.6887019624005071e+18,20.04850740559896,0.2143788089354832,-0.6716596881548563,-0.4117303192615509,0.5759983658790588,-1.953061819076538,0.8681978583335876,0.4903568228085835
5.1,1.6887019624524175e+18,20.10041748046875,0.2319924434026082,-7.392123858133952,4.041213035583496,1.6887019624524165e+18,20.100416259765623,-1.572383552789688,-16.062121391296387,8.337192058563232,1.6887019624524175e+18,20.10041748046875,-1.321388324101766,-8.562662760416666,4.588027318318685,1.6887019624524175e+18,20.10041748046875,2.5938356717427573,-1.0594439506530762,1.308880607287089,1.6887019624524175e+18,20.10041748046875,2.5928684870402017,-1.055015206336975,1.3113240798314412,1.6887019624351124e+18,20.08311254882813,0.0,0.0,1.0161737203598022,12.348999977111816,0.8198713660240173,276.2269287109375,41.70000076293945,-122.7545033,49.1906236,1.68870196244719e+18,20.095190087890625,8.45704002380371,49.085478973388675,-4.040639925003052,1.68870196244719e+18,20.095190087890625,-246.0837554931641,144.55047607421875,-137.2524383544922,1.6887019624524175e+18,20.10041748046875,0.3018769025802612,-0.6163217027982076,-0.4373970329761505,0.5807744065920512,-1.8766261339187624,1.0769776900609334,0.4090828895568847
5.15,1.6887019625043244e+18,20.152324462890626,3.037485420703888,-2.1596452395121255,7.769616444905599,1.6887019624956716e+18,20.14367179361979,3.147758116324743,-12.99541982014974,12.573086420694986,1.6887019625043244e+18,20.152324462890626,-0.7807181278864541,-8.984569867451986,3.845667044321696,1.6887019625043244e+18,20.152324462890626,1.5515977144241333,0.899702730278174,1.4261158307393391,1.6887019625043244e+18,20.152324462890626,1.5505796273549397,0.9041823893785476,1.4285083611806233,,,,,,,,,,,,1.688701962497194e+18,20.145193798828124,4.9239198684692385,49.51248016357422,1.0101599514484405,1.688701962497194e+18,20.145193798828124,-249.61687622070312,144.97748107910155,-132.2016387939453,1.6887019625043244e+18,20.152324462890626,0.3462550938129425,-0.5883529384930929,-0.4439428150653838,0.580118199189504,-1.794871807098389,1.1748493909835815,0.315312792857488
5.2,1.6887019625562276e+18,20.204227783203123,-1.893718083699544,6.24492867787679,1.0439890225728352,1.688701962547578e+18,20.195578369140623,-1.6390835046768188,-3.7148571809132895,4.967898607254028,1.6887019625562276e+18,20.204227783203123,-0.0905934472878774,-9.29522228240967,3.1268250942230225,1.6887019625562276e+18,20.204227783203123,1.584940791130066,0.676787793636322,0.7794131437937418,1.6887019625562276e+18,20.204227783203123,1.5839736064275105,0.6812674601872762,0.7818566163380941,,,,,,,,,,,,1.6887019625471964e+18,20.195196435546876,1.832439947128296,49.54907989501953,4.931239891052246,1.6887019625471964e+18,20.195196435546876,-252.70835571289064,145.01407470703126,-128.28055725097656,1.6887019625562276e+18,20.204227783203123,0.3765881359577179,-0.5462115605672201,-0.4584043423334757,0.5912346641222636,-1.625722328821818,1.2647775411605835,0.1833478659391402
5.25,1.6887019626081385e+18,20.256138671874997,-6.555672645568848,9.0032590230306,0.1476587454477945,1.6887019625994875e+18,20.247487955729166,-6.443671862284343,-0.7663014456629753,2.771885633468628,1.6887019626081385e+18,20.256138671874997,0.2080490117271741,-9.48386033376058,2.4935433864593506,1.6887019626081385e+18,20.256138671874997,1.2483031352361045,-1.0730865895748138,1.087798277537028,1.6887019626081385e+18,20.256138671874997,1.2472850282986958,-1.0686068932215371,1.090190847714742,,,,,,,,,,,,1.6887019625971978e+18,20.24519790039063,-0.6807599678635597,49.04399948120117,9.586759662628172,1.6887019625971978e+18,20.24519790039063,-255.2215576171875,144.50899658203124,-123.62503814697266,1.6887019626081385e+18,20.256138671874997,0.4064515729745229,-0.5253347357114156,-0.4660919805367787,0.5842352509498596,-1.5106499592463176,1.3328265349070232,0.0593423110743363
5.3,1.6887019626513736e+18,20.29937365722656,-1.556662142276764,9.470232963562012,-0.3924173712730407,1.688701962651383e+18,20.299383056640625,-1.333200991153717,-0.0791625473648309,2.077169418334961,1.6887019626513736e+18,20.29937365722656,0.545232430100441,-9.534682750701904,2.241296172142029,1.6887019626513736e+18,20.29937365722656,0.4398993402719497,-1.3709343373775482,1.2981650233268738,1.6887019626513736e+18,20.29937365722656,0.4389066845178604,-1.3665055930614471,1.300608456134796,,,,,,,,,,,,1.6887019626471877e+18,20.2951876953125,-4.362719964981079,48.51451797485352,12.239039611816406,1.6887019626471877e+18,20.2951876953125,-258.903515625,143.9795166015625,-120.9727554321289,1.6887019626513736e+18,20.29937365722656,0.4469926208257675,-0.5288896560668945,-0.442125603556633,0.5700449049472809,-1.3367497324943542,1.3553964495658877,-0.1975454464554786
5.35,1.6887019626946394e+18,20.342639322916668,-1.7555683453877766,9.18780835469564,0.0920464992523193,1.6887019627032945e+18,20.35129435221354,-1.20339039961497,-0.4442674020926158,2.479761838912964,1.6887019626946394e+18,20.342639322916668,0.71622234582901,-9.50968583424886,2.299305041631063,1.6887019626946394e+18,20.342639322916668,-0.046527567009131,-0.5717698633670807,0.285783126950264,1.6887019626946394e+18,20.342639322916668,-0.0475965856264035,-0.567290186882019,0.2882265796264012,,,,,,,,,,,,1.688701962697191e+18,20.345190576171873,-6.644119834899902,48.1851188659668,12.312239837646484,1.688701962697191e+18,20.345190576171873,-261.184912109375,143.65011596679688,-120.8995590209961,1.6887019626946394e+18,20.342639322916668,0.4588397939999898,-0.5318752725919088,-0.4281552334626515,0.5685363610585531,-1.262088378270467,1.3465278546015422,-0.3026958008607228
5.4,1.688701962746557e+18,20.394556640625,13.961630980173746,-1.90652338663737,-0.9404822985331216,1.6887019627552049e+18,20.403204833984375,22.88256295522054,-17.449260234832764,1.371486206849416,1.688701962746557e+18,20.394556640625,-0.0841217537720998,-9.426525751749674,2.6789921124776206,1.688701962746557e+18,20.394556640625,-1.158302326997121,-6.354525725046794,-0.2779946128527324,1.688701962746557e+18,20.394556640625,-1.1592695116996763,-6.350096861521403,-0.2756020824114482,,,,,,,,,,,,1.6887019627472e+18,20.395200048828123,-6.48307991027832,48.88783950805664,9.74047966003418,1.6887019627472e+18,20.395200048828123,-261.023876953125,144.35283813476562,-123.47131805419922,1.688701962746557e+18,20.394556640625,0.4760658542315165,-0.5960622628529867,-0.3838966985543569,0.5167690316836039,-1.6006789207458496,1.315483768781026,-0.1436504833400249
5.45,1.6887019627984635e+18,20.44646354166667,13.298436800638834,-15.30748462677002,1.6445992787679036,1.688701962807111e+18,20.455111165364585,8.842077811559042,-21.59422715504964,5.262215773264567,1.6887019627984635e+18,20.44646354166667,-0.3232198705275853,-9.252092361450195,3.241070588429769,1.6887019627984635e+18,20.44646354166667,-0.9269880341986816,-1.6309083898862202,0.1140282154083252,1.6887019627984635e+18,20.44646354166667,-0.927955200895667,-1.6264287034670513,0.1164716184139251,,,,,,,,,,,,1.6887019627971973e+18,20.44519736328125,-11.50703945159912,48.555998992919925,4.191919898986816,1.6887019627971973e+18,20.44519736328125,-266.04783325195314,144.02099609375,-129.0198776245117,1.6887019627984635e+18,20.44646354166667,0.5191070834795634,-0.6554731329282125,-0.2905881206194559,0.4650906423727671,-1.661615292231242,1.2561448017756145,-0.3366055389245351
5.5,1.6887019628503662e+18,20.49836612955729,0.3455055157343547,-3.408570925394694,4.811956326166789,1.6887019628590213e+18,20.50702115885417,-1.5581263701121013,-12.447064399719238,9.114261468251549,1.6887019628503662e+18,20.49836612955729,-0.78544948498408,-9.206034024556478,3.295250336329142,1.6887019628503662e+18,20.49836612955729,0.2030108869075774,1.890373428662618,-1.4659238656361897,1.6887019628503662e+18,20.49836612955729,0.2019927725195884,1.894802172978719,-1.4635313351949055,,,,,,,,,,,,1.6887019628471967e+18,20.495196484375,-8.210599803924561,49.21723861694336,3.472119855880737,1.6887019628471967e+18,20.495196484375,-262.75140380859375,144.68223876953124,-129.73967895507812,1.6887019628503662e+18,20.49836612955729,0.4917274514834086,-0.663364311059316,-0.3136117458343505,0.4685495793819427,-1.8116484880447388,1.2419756650924685,-0.1394971832633018
5.55,1.6887019629022784e+18,20.550278564453127,-2.773087104161581,3.919232209523519,2.3753050168355307,1.6887019629022758e+18,20.55027587890625,-3.6086755990982056,-4.823930382728577,5.498706340789795,1.6887019629022784e+18,20.550278564453127,-0.6794205705324808,-9.187472661336264,3.3687899112701416,1.6887019629022784e+18,20.550278564453127,0.2384919722874959,3.023782968521118,-0.1768454909324646,1.6887019629022784e+18,20.550278564453127,0.2374738678336142,3.028211752573649,-0.1744020233551661,,,,,,,,,,,,1.6887019628971958e+18,20.545195703125,-4.709200000762939,49.50515899658203,4.858040046691895,1.6887019628971958e+18,20.545195703125,-259.2499938964844,144.97015991210938,-128.3537567138672,1.6887019629022784e+18,20.550278564453127,0.4552093247572581,-0.637076218922933,-0.3588734467824299,0.5076342821121216,-1.785235603650411,1.2369296948115032,-0.0150854205712676
5.6,1.6887019629541809e+18,20.602181070963542,-1.7081873814264934,4.846504211425781,1.1935186386108398,1.6887019629455332e+18,20.593533203125,-2.4055843353271484,-3.3264222939809165,3.957927942276001,1.6887019629541809e+18,20.602181070963542,-0.3598729471365611,-9.168383598327637,3.4690206050872803,1.6887019629541809e+18,20.602181070963542,-0.4943935970465342,1.1850785811742146,-0.0844521173276007,1.6887019629541809e+18,20.602181070963542,-0.4953608214855194,1.1896091500918071,-0.0820595676389833,1.6887019629541847e+18,20.602184814453125,0.0,0.0,1.0161737203598022,12.348999977111816,0.835820198059082,276.1352844238281,41.70000076293945,-122.7545135,49.1906233,1.6887019629471936e+18,20.595193798828127,-4.330999946594238,49.312399291992186,6.01703987121582,1.6887019629471936e+18,20.595193798828127,-258.8718017578125,144.77739562988282,-127.19475860595703,1.6887019629541809e+18,20.602181070963542,0.4355735381444295,-0.6126357714335123,-0.379981408516566,0.5389682451883951,-1.6901612281799316,1.2326434055964153,-0.0118520419734219
5.65,1.6887019630060905e+18,20.654090494791664,-0.2016773223876952,-0.1633005142211914,2.71441650390625,1.6887019629974405e+18,20.64544018554688,-0.7663014630476633,-9.23948574066162,7.356334527333577,1.6887019630060905e+18,20.654090494791664,-0.544149120648702,-8.902548789978027,4.0803267161051435,1.6887019630060905e+18,20.654090494791664,-1.1914926568667097,0.9802351196606954,-1.1538735429445903,1.6887019630060905e+18,20.654090494791664,-1.1925108035405476,0.9847147663434348,-1.151480992635091,,,,,,,,,,,,1.6887019629971963e+18,20.645196435546875,-3.2695999145507812,49.94435958862304,3.6282798528671263,1.6887019629971963e+18,20.645196435546875,-257.8103942871094,145.40935974121095,-129.5835174560547,1.6887019630060905e+18,20.654090494791664,0.3964673976103465,-0.6202963987986246,-0.3808979392051697,0.5592649579048157,-1.7212570110956829,1.1630438566207886,0.072245510915915
5.7,1.688701963057999e+18,20.705999267578125,-0.3651278416315714,4.1831967035929365,-1.7151064078013103,1.6887019630493435e+18,20.69734366861979,-1.2979068756103516,-4.98744002978007,3.2313075065612793,1.688701963057999e+18,20.705999267578125,-1.0122043291727705,-8.647847811381022,4.514234860738118,1.688701963057999e+18,20.705999267578125,-0.9082548022270204,0.4483241935571034,-1.4490232865015666,1.688701963057999e+18,20.705999267578125,-0.9092220266660056,0.4528038601080577,-1.4465797742207844,,,,,,,,,,,,1.6887019630471936e+18,20.6951935546875,0.57095997184515,50.06391983032226,1.1565599739551544,1.6887019630471936e+18,20.6951935546875,-253.96983337402344,145.52891845703124,-132.05523681640625,1.688701963057999e+18,20.705999267578125,0.3543002307415008,-0.6324030756950378,-0.393151303132375,0.5655131538709005,-1.8144627412160237,1.1035701036453247,0.2148617853720982
5.75,1.688701963101254e+18,20.749254272460934,-0.5380748510360718,2.645343780517578,-2.5394212007522583,1.688701963101254e+18,20.74925398763021,-2.155334949493408,-5.845466295878093,2.486142714818319,1.688701963101254e+18,20.749254272460934,-1.5593972206115725,-8.333524703979492,4.932368040084839,1.688701963101254e+18,20.749254272460934,-1.2640329003334043,-0.0074831023812294,-1.5871806144714355,1.688701963101254e+18,20.749254272460934,-1.265025615692139,-0.002977967262268,-1.5847371816635132,,,,,,,,,,,,1.688701963097199e+18,20.74519912109375,4.797039985656738,49.89067840576172,-0.9784399807453156,1.688701963097199e+18,20.74519912109375,-249.74375915527344,145.35567626953124,-134.19023742675782,1.688701963101254e+18,20.749254272460934,0.3172701895236968,-0.6514028608798981,-0.3981418013572693,0.5625098943710327,-1.9026889204978945,1.0377952456474304,0.3235809803009033
5.8,1.6887019631445002e+18,20.792500162760415,-0.962515910466512,-1.999818007151286,-2.520943562189738,1.6887019631531633e+18,20.80116324869792,-3.201596657435099,-10.4953187306722,2.87198543548584,1.6887019631445002e+18,20.792500162760415,-2.234358469645182,-7.919471581776936,5.332036177317302,1.6887019631445002e+18,20.792500162760415,-1.4856751759847004,-1.4737123648325603,-1.1464413404464722,1.6887019631445002e+18,20.792500162760415,-1.486642360687256,-1.469232698281606,-1.143997887770335,,,,,,,,,,,,1.6887019631471962e+18,20.795196142578124,8.04955997467041,49.17087860107422,-4.35295991897583,1.6887019631471962e+18,20.795196142578124,-246.49123840332032,144.63587951660156,-137.56475830078125,1.6887019631445002e+18,20.792500162760415,0.2889123857021332,-0.6825782457987467,-0.3885843853155772,0.5470865766207377,-1.9914100567499795,0.9610563119252524,0.3829655547936757
5.85,1.6887019631964132e+18,20.8444130859375,1.2577018737792969,-4.58927853902181,-2.8428358236948648,1.688701963205064e+18,20.853063883463545,-1.8049858808517456,-12.139187812805176,2.8241288661956787,1.6887019631964132e+18,20.8444130859375,-3.375213940938314,-7.358725865681966,5.525314172108968,1.6887019631964132e+18,20.8444130859375,-1.617113033930461,-3.2510757446289062,-1.0214685201644895,1.6887019631964132e+18,20.8444130859375,-1.618131120999654,-3.246545155843099,-1.0190759301185608,,,,,,,,,,,,1.6887019631971963e+18,20.84519638671875,11.66319980621338,48.072879791259766,-7.210199928283691,1.6887019631971963e+18,20.84519638671875,-242.87759704589843,143.53787841796876,-140.4220001220703,1.6887019631964132e+18,20.8444130859375,0.275800625483195,-0.7400588194529215,-0.3549025952816009,0.4995447397232055,-2.139525572458903,0.8685134847958883,0.3963191111882527
5.9,1.688701963248323e+18,20.89632340494792,19.762367328008015,-7.725674152374268,-1.066248575846354,1.6887019632569746e+18,20.904974527994792,15.88016668955485,-13.996217727661133,4.901697238286336,1.688701963248323e+18,20.89632340494792,-5.265114943186442,-6.351942857106526,5.21911636988322,1.688701963248323e+18,20.89632340494792,-0.9431759615739188,-3.061300208171209,-5.134322285652161,1.688701963248323e+18,20.89632340494792,-0.9441431363423666,-3.056769609451294,-5.131878773371379,,,,,,,,,,,,1.6887019632471928e+18,20.895192822265624,19.94699935913086,45.105838012695315,-8.664439964294434,1.6887019632471928e+18,20.895192822265624,-234.5937957763672,140.57083740234376,-141.87623596191406,1.688701963248323e+18,20.89632340494792,0.239999105532964,-0.8125461141268412,-0.3295476337273915,0.4135767122109731,-2.3751065731048584,0.7242680986722311,0.4626824259757995
5.95,1.6887019633002268e+18,20.948226643880208,0.9546659787495932,-8.653955777486166,-0.190105120340983,1.6887019633088778e+18,20.956877685546875,-7.939186255137126,-12.900903383890787,5.353741367657979,1.6887019633002268e+18,20.948226643880208,-5.257622877756755,-4.910001436869304,6.610770543416341,1.6887019633002268e+18,20.948226643880208,1.596292754014333,8.766221523284912,-2.8503481410443783,1.6887019633002268e+18,20.948226643880208,1.5952746073404949,8.770650227864584,-2.848006423562765,,,,,,,,,,,,1.6887019632971986e+18,20.945198535156248,30.246239471435548,37.89807968139648,-14.20567970275879,1.6887019632971986e+18,20.945198535156248,-224.2945556640625,133.36307373046876,-147.4174774169922,1.6887019633002268e+18,20.948226643880208,0.0835277512669562,-0.779059886932373,-0.4054554402828216,0.466307799021403,-2.2635794480641684,0.5375821193059286,0.7031022707621256
6.0,1.688701963352135e+18,21.00013468424479,2.511557380358378,-5.900248209635417,-10.298165003458658,1.688701963352132e+18,21.000132202148436,-0.7286144495010376,-10.825727939605711,-3.5916268825531006,1.688701963352135e+18,21.00013468424479,-3.557284196217855,-5.4345957438151045,7.350331465403239,1.688701963352135e+18,21.00013468424479,0.4609487528602282,1.5355116724967957,1.1398236751556396,1.688701963352135e+18,21.00013468424479,0.4599815309047699,1.5399403075377147,1.142216225465139,,,,,,,,,,,,1.688701963347191e+18,20.99519091796875,26.003079223632813,38.76915893554688,-19.11983985900879,1.688701963347191e+18,20.99519091796875,-228.53771362304687,134.2341552734375,-152.33163757324218,1.688701963352135e+18,21.00013468424479,0.0531130457917849,-0.7033048272132874,-0.4394490818182627,0.5561816096305847,-2.04270346959432,0.5986145536104838,0.7433101336161295
6.05,1.688701963404041e+18,21.052040771484375,2.2738964557647705,-8.742365837097168,-5.735717137654622,1.6887019633953974e+18,21.043397216796873,0.0514456828435262,-15.802200317382812,0.5024927655855814,1.688701963404041e+18,21.052040771484375,-2.8354756037394204,-6.373536745707194,6.875622431437175,1.688701963404041e+18,21.052040771484375,2.572404464085897,-0.9493864079316456,2.888425429662069,1.688701963404041e+18,21.052040771484375,2.571437199910482,-0.9449576139450072,2.890817880630493,,,,,,,,,,,,1.6887019633971914e+18,21.045191552734373,21.1377197265625,41.98751983642578,-17.44843978881836,1.6887019633971914e+18,21.045191552734373,-233.4030731201172,137.4525177001953,-150.6602355957031,1.688701963404041e+18,21.052040771484375,0.1210218618313471,-0.6839022437731425,-0.4268749952316284,0.5783038934071859,-1.9823912382125857,0.7207287549972534,0.6323267817497253
6.1,1.6887019634559516e+18,21.10395149739583,1.2106393973032634,-7.608792940775554,0.2653499444325765,1.6887019634472978e+18,21.095297607421873,-1.2921242117881775,-14.557932535807293,4.7403810024261475,1.6887019634559516e+18,21.10395149739583,-2.152677297592163,-7.862842559814453,5.426302274068196,1.6887019634559516e+18,21.10395149739583,3.015739917755127,-2.0781126419703164,3.6119443575541177,1.6887019634559516e+18,21.10395149739583,3.014772653579712,-2.0736838976542153,3.61438783009847,1.688701963473254e+18,21.12125390625,0.0,0.0,1.0257858037948608,11.894000053405762,0.867952823638916,275.708251953125,41.70000076293945,-122.7545273,49.190621,1.6887019634471982e+18,21.095198095703125,14.598519706726076,47.00415878295898,-9.140239906311034,1.6887019634471982e+18,21.095198095703125,-239.94227294921876,142.4691589355469,-142.35203552246094,1.6887019634559516e+18,21.10395149739583,0.249634231130282,-0.6591528654098511,-0.423089454571406,0.5681954026222229,-1.9689852396647136,0.945616086324056,0.4853598177433014
6.15,1.6887019635078582e+18,21.15585807291667,3.499127229054769,-7.41166877746582,7.7732014656066895,1.688701963499203e+18,21.147203369140623,1.5738791177670162,-17.070994695027668,11.237492879231771,1.6887019635078582e+18,21.15585807291667,-1.3340848286946614,-8.726567268371582,4.2634181181589765,1.6887019635078582e+18,21.15585807291667,2.0887518723805747,0.2793690462907155,1.679624875386556,1.6887019635078582e+18,21.15585807291667,2.087784687678019,0.2838996450106303,1.6820683479309082,,,,,,,,,,,,1.688701963497194e+18,21.145193896484376,7.3687999725341795,49.40755844116211,-1.8690399289131163,1.688701963497194e+18,21.145193896484376,-247.1719970703125,144.87255249023437,-135.08083801269532,1.6887019635078582e+18,21.15585807291667,0.3399130702018738,-0.6284416913986206,-0.4192640880743662,0.5598161419232687,-1.895312507947286,1.1126628716786702,0.3355039060115814
6.2,1.688701963551114e+18,21.199113891601563,0.3767540454864501,2.549508810043335,6.859097957611084,1.688701963551114e+18,21.199114095052085,0.1046860019365947,-7.108876546223958,10.416555245717364,1.688701963551114e+18,21.199113891601563,-0.5991504639387131,-9.09222650527954,3.629365563392639,1.688701963551114e+18,21.199113891601563,1.8209893107414248,1.764637053012848,1.0692432522773745,1.688701963551114e+18,21.199113891601563,1.8200729489326477,1.7690657377243042,1.0716103315353394,,,,,,,,,,,,1.6887019635471995e+18,21.195199462890624,3.59411997795105,49.84431838989258,2.9548399209976197,1.6887019635471995e+18,21.195199462890624,-250.94667358398436,145.30931396484374,-130.2569580078125,1.688701963551114e+18,21.199113891601563,0.3632273972034454,-0.5825436115264893,-0.4409526586532593,0.5780572295188904,-1.75920432806015,1.202827513217926,0.2629069834947586
6.25,1.6887019635943698e+18,21.242369710286457,-2.3438908656438193,7.061285654703776,2.1049657662709556,1.6887019636030198e+18,21.251019694010417,-3.1264222462972007,-1.9204395612080891,4.701298236846924,1.6887019635943698e+18,21.242369710286457,-0.0332423945267995,-9.31895669301351,3.0552804470062256,1.6887019635943698e+18,21.242369710286457,1.477581222852071,0.6109670599301656,1.1457286675771077,1.6887019635943698e+18,21.242369710286457,1.4765630960464478,0.6153958241144816,1.1481212377548218,,,,,,,,,,,,1.688701963597194e+18,21.24519404296875,1.107759991288185,49.60763931274414,7.271199893951416,1.688701963597194e+18,21.24519404296875,-253.43303527832032,145.07263793945313,-125.9405960083008,1.6887019635943698e+18,21.242369710286457,0.3875278731187184,-0.5485282142957052,-0.4520172874132792,0.5869115988413492,-1.6036152839660645,1.272264003753662,0.1368917971849441
6.3,1.6887019636462725e+18,21.29427229817708,-5.487941265106201,8.750580787658691,0.5811420281728109,1.6887019636549286e+18,21.302928792317708,-4.3022951285044355,-0.5651049514611562,2.8705894947052,1.6887019636462725e+18,21.29427229817708,0.523368904987971,-9.448729832967125,2.5797015031178794,1.6887019636462725e+18,21.29427229817708,0.8151996731758118,-0.679129421710968,1.4760031302769978,1.6887019636462725e+18,21.29427229817708,0.8142833511034647,-0.6746497650941213,1.478395700454712,,,,,,,,,,,,1.6887019636471944e+18,21.295194287109375,-2.1154799818992616,48.829280090332034,10.643279647827148,1.6887019636471944e+18,21.295194287109375,-256.65627136230466,144.29427795410157,-122.56851654052734,1.6887019636462725e+18,21.29427229817708,0.419686069091161,-0.5257798631985983,-0.4475205639998118,0.5890537103017172,-1.38110347588857,1.3192683458328247,-0.0978188948550572
6.35,1.68870196369818e+18,21.346179850260416,-1.7410372495651243,9.06566874186198,-0.7581443786621094,1.6887019637068342e+18,21.35483447265625,-0.9302097956339518,-0.5018945435682932,1.8725831111272175,1.68870196369818e+18,21.346179850260416,0.8269156217575073,-9.444375991821287,2.5207818349202475,1.68870196369818e+18,21.346179850260416,0.0524835052589575,-0.6707300245761871,0.3446298241615295,1.68870196369818e+18,21.346179850260416,0.0514144922296206,-0.6663012703259786,0.3470732768376668,,,,,,,,,,,,1.6887019636971948e+18,21.345194775390627,-5.741319847106934,48.45839996337891,11.655879974365234,1.6887019636971948e+18,21.345194775390627,-260.2821044921875,143.92339782714845,-121.55591735839845,1.68870196369818e+18,21.346179850260416,0.4455212851365407,-0.5280371904373169,-0.4264958997567494,0.5837546586990356,-1.2500982284545898,1.318961222966512,-0.2837119499842326
6.4,1.6887019637500897e+18,21.398089274088537,-2.3931326071421304,7.999418258666992,-1.083198507626851,1.6887019637587387e+18,21.40673868815104,-2.85503621896108,-2.2683958609898887,1.6652051210403442,1.6887019637500897e+18,21.398089274088537,0.4369367063045501,-9.404048283894856,2.748727242151896,1.6887019637500897e+18,21.398089274088537,-0.6143777171770731,-0.9134471416473388,-0.996677577495575,1.6887019637500897e+18,21.398089274088537,-0.6153958439826965,-0.9089674850304922,-0.9942340850830078,,,,,,,,,,,,1.6887019637471982e+18,21.395198242187497,-5.404599857330322,48.768279266357425,10.982439613342285,1.6887019637471982e+18,21.395198242187497,-259.9453979492188,144.2332763671875,-122.22935791015624,1.6887019637500897e+18,21.398089274088537,0.4367023507754008,-0.5483668446540833,-0.4238238533337911,0.5734100540479025,-1.4181631008783977,1.3052419026692708,-0.1403674222528934
6.45,1.6887019638019942e+18,21.44999422200521,23.39093605677287,-15.45921230316162,-1.4991625150044765,1.6887019638019973e+18,21.449997314453125,35.19094371795654,-28.062424659729004,1.3507484197616575,1.6887019638019942e+18,21.44999422200521,-0.3816165973742803,-9.17414124806722,3.442657550175985,1.6887019638019942e+18,21.44999422200521,-1.9671388069788616,-6.68714173634847,1.8705202738444011,1.6887019638019942e+18,21.44999422200521,-1.9681059916814168,-6.6827131907145185,1.8729127645492551,,,,,,,,,,,,1.6887019637971922e+18,21.44519213867188,-6.444039726257325,49.16599884033203,6.871039819717407,1.6887019637971922e+18,21.44519213867188,-260.9848327636719,144.63099975585936,-126.34076080322264,1.6887019638019942e+18,21.44999422200521,0.4667462309201558,-0.6324064532915751,-0.3421380221843719,0.5117384692033132,-1.6904057264328003,1.2319687604904177,-0.1304352432489395
6.5,1.6887019638539016e+18,21.50190161132812,5.3147893746693935,-4.705404281616211,0.8213728268941244,1.688701963845253e+18,21.493253173828123,7.891130367914836,-17.805192629496258,4.81635324160258,1.6887019638539016e+18,21.50190161132812,-0.4275127599636714,-9.041005770365397,3.778554121653239,1.6887019638539016e+18,21.50190161132812,-0.1060360173384348,-0.9634362844129404,-0.9102910111347834,1.6887019638539016e+18,21.50190161132812,-0.1071050415436427,-0.958905752748251,-0.9079493780930836,,,,,,,,,,,,1.688701963847192e+18,21.49519189453125,-10.97999973297119,49.161119842529295,1.4688799858093262,1.688701963847192e+18,21.49519189453125,-265.52080078125,144.62611694335936,-131.7429168701172,1.6887019638539016e+18,21.50190161132812,0.5003325045108795,-0.6667614181836446,-0.2741710444291432,0.4794045090675354,-1.6785381237665813,1.1944023370742798,-0.3163832426071166
6.55,1.6887019639058112e+18,21.55381119791667,-1.3903718988100688,-2.994510968526205,6.385657628377278,1.6887019638971597e+18,21.54515966796875,-2.0819551150004068,-11.418350219726562,8.898508707682291,1.6887019639058112e+18,21.55381119791667,-0.7339197198549906,-9.063563028971354,3.6788774331410727,1.6887019639058112e+18,21.55381119791667,0.3781764954328537,2.678033192952474,-0.5905539840459824,1.6887019639058112e+18,21.55381119791667,0.3771583760778109,2.682512899239858,-0.5882123361031214,,,,,,,,,,,,1.6887019638971942e+18,21.545194238281248,-7.87387981414795,49.54175872802735,1.8836799621582032,1.6887019638971942e+18,21.545194238281248,-262.4146789550781,145.0067565917969,-131.32811889648437,1.6887019639058112e+18,21.55381119791667,0.4778620998064677,-0.6656092007954916,-0.3046805361906687,0.485016405582428,-1.7719233830769856,1.2005077997843423,-0.1608796765406926
6.6,1.6887019639577147e+18,21.605714518229167,-2.3160373767217,4.509031613667806,2.2839728196461997,1.6887019639490614e+18,21.59706168619792,-2.1202402114868164,-6.2279190222422285,7.570491949717204,1.6887019639577147e+18,21.605714518229167,-0.1055625130732854,-9.079365730285645,3.7115677992502847,1.6887019639577147e+18,21.605714518229167,0.177710880835851,4.495459000269572,-0.6741916239261627,1.6887019639577147e+18,21.605714518229167,0.1766927738984425,4.499938726425171,-0.6717481513818105,,,,,,,,,,,,1.6887019639471964e+18,21.595196337890627,-6.143919944763184,49.57835922241211,3.7380799293518066,1.6887019639471964e+18,21.595196337890627,-260.684716796875,145.043359375,-129.47371826171874,1.6887019639577147e+18,21.605714518229167,0.4335957566897074,-0.6103029052416483,-0.3655869960784912,0.5521975954373678,-1.6077495018641157,1.2053053379058838,-0.0914560928940772
