seconds_elapsed_rounded,accelerometer_time,accelerometer_seconds_elapsed,accelerometer_z,accelerometer_y,accelerometer_x,accelerometeruncalibrated_time,accelerometeruncalibrated_seconds_elapsed,accelerometeruncalibrated_z,accelerometeruncalibrated_y,accelerometeruncalibrated_x,gravity_time,gravity_seconds_elapsed,gravity_z,gravity_y,gravity_x,gyroscope_time,gyroscope_seconds_elapsed,gyroscope_z,gyroscope_y,gyroscope_x,gyroscopeuncalibrated_time,gyroscopeuncalibrated_seconds_elapsed,gyroscopeuncalibrated_z,gyroscopeuncalibrated_y,gyroscopeuncalibrated_x,location_time,location_seconds_elapsed,location_altitude,location_speedAccuracy,location_bearingAccuracy,location_latitude,location_altitudeAboveMeanSeaLevel,location_bearing,location_horizontalAccuracy,location_verticalAccuracy,location_longitude,location_speed,magnetometer_time,magnetometer_seconds_elapsed,magnetometer_z,magnetometer_y,magnetometer_x,magnetometeruncalibrated_time,magnetometeruncalibrated_seconds_elapsed,magnetometeruncalibrated_z,magnetometeruncalibrated_y,magnetometeruncalibrated_x,orientation_time,orientation_seconds_elapsed,orientation_yaw,orientation_qx,orientation_qz,orientation_roll,orientation_qw,orientation_qy,orientation_pitch
0.0,1.6904262026636452e+18,15.0016453125,1.2363407489939031,4.4085059437835215,3.4781911332914235,1.690426202664899e+18,15.002898925781247,0.31402587890625,1.4112762451171874,0.017242431640625,1.6904262026636452e+18,15.0016453125,1.910896925288141,9.185352214197517,-2.853992774515748,1.6904262026636452e+18,15.0016453125,0.439071649312973,0.9159567952156068,0.042408275231719,1.6904262026598894e+18,14.997889355468748,0.4367067039012909,0.894042456150055,0.0783024225383997,,,,,,,,,,,,,1.6904262026636452e+18,15.0016453125,11.607904052734376,37.890723419189456,15.713021850585935,1.6904262026634447e+18,15.00144462890625,58.27762451171875,70.60370178222657,134.6317932128906,1.6904262026636452e+18,15.0016453125,-2.6323976147968025,-0.7690394710522874,-0.2478966877250408,-2.160736816075361,0.5840458210477364,0.0772566225191977,-1.212963820244699
0.05,1.6904262027137418e+18,15.051741992187498,-4.148499910500346,-1.8308879781931635,1.2781848298326133,1.6904262027149957e+18,15.052995654296875,-0.3951263427734375,0.6182708740234375,-0.15123291015625,1.6904262027137418e+18,15.051741992187498,1.7395439826133845,9.257551188967824,-2.7259883843454715,1.6904262027137418e+18,15.051741992187498,0.6490255475044251,1.5132678508758546,0.2308535733260214,1.690426202709986e+18,15.047985986328126,0.6297627568244935,1.4877341985702517,0.1682107418775558,,,,,,,,,,,,,1.6904262027137418e+18,15.051741992187498,12.843069458007813,38.13010177612305,17.477679443359374,1.690426202715453e+18,15.053452978515626,59.6623291015625,70.82538757324218,136.32962036132812,1.6904262027137418e+18,15.051741992187498,-2.672062313564311,-0.7600559810035488,-0.2632407614968842,-2.1383704819039955,0.5847891512724633,0.1044059319785729,-1.234702928846975
0.1,1.6904262027638385e+18,15.101838525390624,-7.058340536705255,-0.3858388077288867,-0.006016308453977,1.6904262027650924e+18,15.103092333984376,-0.5702880859375,0.9995147705078123,-0.31402587890625,1.6904262027638385e+18,15.101838525390624,1.2319909708996115,9.394710185617804,-2.5203750647331775,1.6904262027638385e+18,15.101838525390624,0.546716433763504,0.8921335756778717,1.197213637828827,1.6904262027600827e+18,15.09808251953125,0.5773840248584747,0.9920242428779602,1.1159795880317689,,,,,,,,,,,,,1.6904262027638385e+18,15.101838525390624,13.221149444580078,38.27685317993164,18.943728637695312,1.690426202762263e+18,15.100262939453126,59.61808776855469,70.95235443115234,137.6808738708496,1.6904262027638385e+18,15.101838525390624,-2.621674290485209,-0.7385016454529351,-0.2808539252657006,-2.023043898646359,0.5985436381317811,0.1317478863566329,-1.2802543215842277
0.15,1.690426202813935e+18,15.15193515625,-2.4498800589495895,-0.0165731829470395,-1.5447155302572249,1.690426202815189e+18,15.1531888671875,-0.0782958984375,0.9649993896484376,-0.367431640625,1.690426202813935e+18,15.15193515625,0.3562405673370184,9.506679211431742,-2.3628310133108497,1.690426202813935e+18,15.15193515625,0.2331670001149177,0.8965836226940155,1.865197229385376,1.690426202810179e+18,15.14817919921875,0.2631770931184291,0.8048592686653138,1.8973731756210328,,,,,,,,,,,,,1.690426202813935e+18,15.15193515625,10.919573974609374,39.05226364135742,20.309356689453125,1.690426202809075e+18,15.147074951171874,57.155416870117186,71.79145812988281,138.8809051513672,1.690426202813935e+18,15.15193515625,-2.339736241621845,-0.7065617628593357,-0.2927769116745864,-1.7169537005279771,0.6292897197884398,0.1371861055912383,-1.3229452429461095
0.2,1.6904262028640315e+18,15.202031542968747,1.8459724861785023,-0.0152831431365013,1.7135564608849585,1.6904262028652854e+18,15.203285400390628,0.0777862548828125,0.96177978515625,-0.0080230712890625,1.6904262028640315e+18,15.202031542968747,-0.4645181574944406,9.51819861812055,-2.3088447469359634,1.6904262028640315e+18,15.202031542968747,0.0346071898937225,2.2641125679016114,0.6926161527633667,1.6904262028602757e+18,15.198275488281247,0.0234147258102893,2.241108846664429,0.7677205681800843,,,,,,,,,,,,,1.6904262028640315e+18,15.202031542968747,9.63826675415039,40.27710800170898,20.515228271484375,1.690426202861088e+18,15.199087939453126,56.16108093261719,73.00160217285156,138.95574951171875,1.6904262028640315e+18,15.202031542968747,-2.0714389888862494,-0.672269166613508,-0.3248977726540833,-1.3726414843693324,0.6465189967936065,0.1555972266156707,-1.32765734792015
0.25,1.6904262029141284e+18,15.252128417968752,-0.8803032637409866,-0.2826460273754596,1.1103421164619922,1.690426202915382e+18,15.253382080078126,-0.143377685546875,0.93612060546875,-0.1706939697265625,1.6904262029141284e+18,15.252128417968752,-0.958982277406454,9.518069321878553,-2.1533460837361216,1.6904262029141284e+18,15.252128417968752,0.3073055505752563,1.47675883769989,0.5668112158775329,1.6904262029103724e+18,15.248372314453125,0.2964763015508651,1.5587373971939087,0.5757796466350555,,,,,,,,,,,,,1.6904262029141284e+18,15.252128417968752,10.713128662109376,40.78150100708008,20.315591430664064,1.6904262029130977e+18,15.25109755859375,57.2838623046875,73.47248840332031,138.82828063964843,1.6904262029141284e+18,15.252128417968752,-1.946872452006024,-0.6452689999080385,-0.3574106972397716,-1.1516530739844617,0.6489331071229659,0.1861270225139806,-1.3275998702055245
0.3,1.6904262029642248e+18,15.302224951171874,0.6682295159429311,-0.6780485484546424,-2.539264123407155,1.690426202965479e+18,15.303478564453124,-0.105303955078125,0.9130401611328124,-0.4749908447265625,1.6904262029642248e+18,15.302224951171874,-1.2859633987187595,9.5170215079391,-1.98383172543928,1.6904262029642248e+18,15.302224951171874,0.0593788631260394,1.1182448387145996,0.3797404706478119,1.690426202960469e+18,15.298468994140626,0.0812680095434188,1.127920651435852,0.3640895426273346,,,,,,,,,,,,,1.6904262029642248e+18,15.302224951171874,11.167747497558594,41.03518905639648,20.742288208007817,1.6904262029651092e+18,15.303109375,57.78473815917969,73.81816711425782,139.30734252929688,1.6904262029642248e+18,15.302224951171874,-1.8478532561206145,-0.6263791002450868,-0.3749139578259862,-0.9960028269912627,0.6519020751395725,0.2050383926854807,-1.327168020224841
0.35,1.6904262030143217e+18,15.352321582031248,0.8117000046011805,-0.2117712284940481,-1.11005149217844,1.6904262030155753e+18,15.353575390625,-0.07901611328125,0.9258392333984377,-0.2640899658203125,1.6904262030143217e+18,15.352321582031248,-1.6090288078920545,9.487985733782052,-1.884197017506659,1.6904262030143217e+18,15.352321582031248,0.2102099731564521,0.5150472462177277,0.5612524032592774,1.6904262030105656e+18,15.348565527343748,0.1834382653236388,0.578792142868042,0.5580453157424927,1.6904262030001897e+18,15.338189697265625,76.32330328319222,4.539217930350155,-1.0,49.27989606750161,95.50473219249398,-1.0,40.03983322740667,4.000000000000001,-122.96814068232008,1.0,1.6904262030143217e+18,15.352321582031248,11.568333435058594,41.81980819702149,21.152392578125,1.6904262030119183e+18,15.349918518066406,58.0770263671875,74.62430572509766,139.7780723571777,1.6904262030143217e+18,15.352321582031248,-1.757698435151807,-0.6093695663199922,-0.3899789750499375,-0.8644077098663168,0.6557016598284067,0.2158935705395866,-1.3151858336862776
0.4,1.6904262030644183e+18,15.402418359375,0.2344904545284807,-0.8898499382781981,0.4277621205097436,1.6904262030656722e+18,15.40367197265625,-0.1792144775390625,0.8903564453125,-0.1076080322265625,1.6904262030644183e+18,15.402418359375,-1.9401197172237932,9.46441383644104,-1.677086357395649,1.6904262030644183e+18,15.402418359375,0.5355229854583741,0.3076259285211563,0.7704055786132813,1.6904262030606623e+18,15.398662353515624,0.511410015821457,0.29555005133152,0.7444440007209778,,,,,,,,,,,,,1.6904262030644183e+18,15.402418359375,11.109593963623048,42.2967643737793,22.685824584960937,1.6904262030587277e+18,15.396727783203124,57.52685546875,74.96760864257813,141.2992370605469,1.6904262030644183e+18,15.402418359375,-1.6180102735260302,-0.5936206474499456,-0.3920191567252567,-0.7134460048123701,0.6672492074669589,0.2206027669105813,-1.3058522075871366
0.45,1.690426203114515e+18,15.45251474609375,1.1711958136144278,0.0068642743593454,-0.6872984612284601,1.6904262031157683e+18,15.453768408203128,-0.08929443359375,0.9520782470703124,-0.241754150390625,1.690426203114515e+18,15.45251474609375,-2.3975657589879633,9.41638437419176,-1.312218982185796,1.690426203114515e+18,15.45251474609375,0.7499903440475464,0.3651715993881225,0.9443312406539917,1.690426203110759e+18,15.448758740234377,0.7547584295272827,0.3987874835729599,0.9578016042709352,,,,,,,,,,,,,1.690426203114515e+18,15.45251474609375,10.07452163696289,42.70110244750977,24.865716552734376,1.6904262031107366e+18,15.44873681640625,56.46756591796875,75.37378234863282,143.52300415039062,1.690426203114515e+18,15.45251474609375,-1.419544193853742,-0.5705450706866916,-0.3914645856418251,-0.5021854973469081,0.6848122672438415,0.2284359186785338,-1.2878099694843006
0.5,1.690426203164611e+18,15.502611328125,2.622541103161275,0.5258825368088482,-2.4525208703950048,1.690426203165865e+18,15.503864941406247,-0.0396453857421875,1.0399322509765625,-0.36881103515625,1.690426203164611e+18,15.502611328125,-2.736475116211772,9.364743384994863,-0.9882163944537192,1.690426203164611e+18,15.502611328125,0.4438558757305145,0.1705386146903037,0.3581677451729774,1.6904262031608553e+18,15.498855419921876,0.4827724039554596,0.1633070066571235,0.4129633277654648,,,,,,,,,,,,,1.690426203164611e+18,15.502611328125,9.24374771118164,42.84247817993164,27.440982055664065,1.6904262031627464e+18,15.500746533203124,55.70036010742187,75.49848327636718,146.10733337402343,1.690426203164611e+18,15.502611328125,-1.268028131555463,-0.552862683222419,-0.3873893504809182,-0.3467821388987046,0.6996025618301219,0.2341151036894134,-1.2694618032021918
0.55,1.690426203214708e+18,15.552708007812502,2.051334739026129,1.2336500486052038,-2.6868687892606853,1.6904262032159616e+18,15.553961572265624,-0.046429443359375,1.0833709716796875,-0.3422698974609375,1.690426203214708e+18,15.552708007812502,-2.7798903626638647,9.363954046635032,-0.8708249782648683,1.690426203214708e+18,15.552708007812502,-0.1461416214704513,0.5813236176967621,-0.2289758963044732,1.690426203210952e+18,15.548951904296876,-0.1092711479635909,0.5578899502754211,-0.1811521548777818,,,,,,,,,,,,,1.690426203214708e+18,15.552708007812502,10.104508209228516,43.473645782470705,28.7842041015625,1.690426203214758e+18,15.552758154296871,57.17489013671875,76.37352600097657,147.4106201171875,1.690426203214708e+18,15.552708007812502,-1.2414373439939543,-0.5475328259367606,-0.3900662894567649,-0.3035927306621272,0.6996926632980516,0.2417928827707411,-1.2691891795289665
0.6,1.6904262032648046e+18,15.602804589843752,2.0545715874424575,1.9570901120209696,-3.489747569441944,1.6904262032660585e+18,15.604058447265626,-0.0446441650390625,1.17327880859375,-0.522637939453125,1.6904262032648046e+18,15.602804589843752,-2.554121617703587,9.418389751890896,-0.9613427083144336,1.6904262032648046e+18,15.602804589843752,-0.4723005652427673,-0.1311042726039886,-0.8242326617240906,1.6904262032610486e+18,15.599048583984375,-0.4400301098823547,-0.0068603504449129,-0.7632130146026611,,,,,,,,,,,,,1.6904262032648046e+18,15.602804589843752,13.145951843261718,44.534752655029294,29.144699096679688,1.6904262032615698e+18,15.59956982421875,60.31484603881836,77.3919906616211,147.66217041015625,1.6904262032648046e+18,15.602804589843752,-1.3223842049867465,-0.5544565075374692,-0.3977470393013641,-0.3610253932878865,0.6870250565797649,0.2496540261973462,-1.2885762365790885
0.65,1.6904262033149015e+18,15.6529013671875,3.084372374272346,2.45400830324769,-4.357805537985414,1.690426203316155e+18,15.654154931640624,0.1679168701171875,1.24080810546875,-0.4976470947265625,1.6904262033149015e+18,15.6529013671875,-1.818288696539253,9.524571894092558,-1.4156320396133513,1.6904262033149015e+18,15.6529013671875,-1.0649528861045838,-1.5762421369552613,-2.1782449007034304,1.6904262033111455e+18,15.649145361328124,-1.0234788537025452,-1.4942907333374025,-2.0574914693832396,,,,,,,,,,,,,1.6904262033149015e+18,15.6529013671875,17.11438903808594,46.005889129638675,29.351214599609374,1.6904262033083802e+18,15.64638017578125,63.958370971679685,78.7575927734375,147.8283905029297,1.6904262033149015e+18,15.6529013671875,-1.5954237589933202,-0.5920606704861433,-0.3887769438522493,-0.6704919407415222,0.664411144275172,0.237591470738609,-1.3307792595177268
0.7,1.690426203364998e+18,15.70299794921875,0.3558121447579188,2.584520233872533,2.009344323132336,1.6904262033662518e+18,15.70425166015625,-0.094091796875,1.2555572509765625,0.02344970703125,1.690426203364998e+18,15.70299794921875,-0.3609296065026615,9.562611877247097,-2.090537628480196,1.690426203364998e+18,15.70299794921875,-1.2626121759414672,-1.011059981584549,-2.9962768077850344,1.690426203361242e+18,15.699242041015626,-1.2698549270629882,-1.1225915789604186,-3.0185278415679933,,,,,,,,,,,,,1.690426203364998e+18,15.70299794921875,24.273936462402343,46.05475387573242,28.758908081054688,1.6904262033603927e+18,15.698392578125,71.45429382324218,78.61349182128906,147.131298828125,1.690426203364998e+18,15.70299794921875,-2.2565929625038095,-0.6577446287907168,-0.3693766162181578,-1.390224196779224,0.6178163660425607,0.2205496941760482,-1.347502336925804
0.75,1.6904262034150948e+18,15.7530947265625,-2.8276239399325847,4.233437429264784,0.9724359254804252,1.6904262034163487e+18,15.754348535156248,-0.1622222900390625,1.3470794677734377,-0.2217010498046875,1.6904262034150948e+18,15.7530947265625,0.9370725995761902,9.391066977583764,-2.6429900169500704,1.6904262034150948e+18,15.7530947265625,-1.0434248447418213,0.0278559274971485,-2.280091142654419,1.6904262034113388e+18,15.74933876953125,-1.051201343536377,0.0243346881121396,-2.328626537322998,,,,,,,,,,,,,1.6904262034150948e+18,15.7530947265625,33.35751953125,43.6224250793457,26.64818420410156,1.6904262034124052e+18,15.75040517578125,80.53823547363281,76.0205078125,144.906591796875,1.6904262034150948e+18,15.7530947265625,-2.766690730091286,-0.7068621122850705,-0.3655187738410855,-1.904523523511937,0.5642815512100469,0.2191154614546742,-1.279633244283166
0.8,1.6904262034651914e+18,15.80319140625,-2.513874421441406,0.4472016818994283,0.7266265260452032,1.690426203466445e+18,15.804445068359376,-0.0563385009765625,0.9368377685546876,-0.2412750244140625,1.6904262034651914e+18,15.80319140625,1.9141565992842615,9.1178135155493,-3.0477151361000536,1.6904262034651914e+18,15.80319140625,-0.8318919658660888,-0.9970377206802368,-1.713667106628418,1.6904262034614354e+18,15.7994353515625,-0.8458626747131348,-0.9006444275379181,-1.7484297513961793,,,,,,,,,,,,,1.6904262034651914e+18,15.80319140625,39.709669494628905,40.29220352172852,24.62242126464844,1.6904262034644152e+18,15.802415185546874,86.8775848388672,72.29974365234375,143.02218322753907,1.6904262034651914e+18,15.80319140625,-2.9824488525424377,-0.7425195035147653,-0.3603823314916173,-2.1286485380826647,0.5219325989577401,0.2148044723927126,-1.1944032515358622
0.85,1.6904262035152878e+18,15.853287792968748,-3.48831020088911,-0.4084848223966359,0.0706361970460414,1.6904262035165414e+18,15.854541552734377,-0.0941436767578125,0.833868408203125,-0.3308258056640625,1.6904262035152878e+18,15.853287792968748,2.793930987619459,8.821500431157947,-3.2383745445302123,1.6904262035152878e+18,15.853287792968748,-0.7829776763916015,-1.645849871635437,-1.178690218925476,1.6904262035115318e+18,15.849531689453125,-0.7778819680213929,-1.6041825771331788,-1.2335722684860229,,,,,,,,,,,,,1.6904262035152878e+18,15.853287792968748,42.69931335449219,36.89838180541992,24.912774658203126,1.690426203511226e+18,15.849225708007811,89.64855575561523,68.90132522583008,143.5674705505371,1.6904262035152878e+18,15.853287792968748,-3.075384373205179,-0.7771355071477606,-0.3370832722455224,-2.281250794298779,0.4937839310667701,0.1959001783624795,-1.119108634566421
0.9,1.6904262035653844e+18,15.903384619140624,-4.485137640304267,-1.3390806125611066,0.5124730201375483,1.6904262035666383e+18,15.904638281249998,-0.08353271484375,0.724468994140625,-0.246832275390625,1.6904262035653844e+18,15.903384619140624,3.4467423943215607,8.559663733768463,-3.31626267085284,1.6904262035653844e+18,15.903384619140624,-0.9338806986808776,-1.8642869472503665,-0.4335338115692139,1.6904262035616284e+18,15.899628564453124,-0.9250106453895568,-1.8863726615905765,-0.4815423011779785,,,,,,,,,,,,,1.6904262035653844e+18,15.903384619140624,43.542283630371095,34.47574996948242,26.991461181640624,1.690426203558036e+18,15.8960361328125,90.00475769042968,66.99358215332032,145.65887145996095,1.6904262035653844e+18,15.903384619140624,-3.0761505381338017,-0.8056149125229645,-0.3069820612932964,-2.3750621972750388,0.4795381143997132,0.1629646045411357,-1.0611666041356222
0.95,1.690426203615481e+18,15.95348115234375,-4.2754703398999565,-1.3381228149926665,3.110646983926892,1.6904262036167347e+18,15.954734814453124,-0.0480865478515625,0.7236968994140625,-0.0012725830078125,1.690426203615481e+18,15.95348115234375,3.732764210966528,8.39990992656827,-3.417044766028821,1.690426203615481e+18,15.95348115234375,-0.8229370951652527,-1.185903513431549,0.3797457609325647,1.6904262036117253e+18,15.949725146484374,-0.8416336297988891,-1.2506921887397766,0.3124654904007912,,,,,,,,,,,,,1.690426203615481e+18,15.95348115234375,42.46891632080078,34.35202255249023,28.505517578125,1.690426203610049e+18,15.948049072265624,88.82850646972656,67.05778503417969,147.04248657226563,1.690426203615481e+18,15.95348115234375,-3.013866308079174,-0.8211852693893895,-0.2854424665451102,-2.4003409515377445,0.4776889740764144,0.1259991694779049,-1.0285658734891112
1.0,1.6904262036655775e+18,16.00357783203125,-3.2057985550960892,-1.8963378294163944,4.467469764762223,1.6904262036668316e+18,16.004831640625,0.0400054931640625,0.6490081787109375,0.1037567138671875,1.6904262036655775e+18,16.00357783203125,3.5112087874653937,8.437265902207495,-3.55417155552268,1.6904262036655775e+18,16.00357783203125,-0.2693710923194885,0.0868787325918674,1.1060616612434386,1.6904262036618217e+18,15.99982177734375,-0.3297207007184624,-0.0226275466382503,1.065562629699707,,,,,,,,,,,,,1.6904262036655775e+18,16.00357783203125,41.33976287841797,35.99841384887695,28.555377197265624,1.690426203662063e+18,16.000062939453123,87.7751678466797,68.81388244628906,146.9770721435547,1.6904262036655775e+18,16.00357783203125,-2.920058493278549,-0.8177629923888354,-0.2824023043667425,-2.349759613577579,0.491108228962757,0.1012755248034557,-1.0360392437239183
1.05,1.6904262037156746e+18,16.053674560546874,-1.633517147877812,-2.40786111838758,4.353908793581724,1.690426203716928e+18,16.054928173828124,0.1639251708984375,0.645391845703125,0.0553558349609375,1.6904262037156746e+18,16.053674560546874,2.820023284896612,8.67390713425517,-3.594049041689634,1.6904262037156746e+18,16.053674560546874,0.6416465282440186,1.3023031949996948,1.3583672523498536,1.6904262037119186e+18,16.0499185546875,0.5722156286239624,1.2501469135284424,1.364606547355652,,,,,,,,,,,,,1.6904262037156746e+18,16.053674560546874,40.83359985351562,38.28078994750977,27.257278442382812,1.690426203714078e+18,16.052077880859375,87.30169067382812,71.094189453125,145.6110107421875,1.6904262037156746e+18,16.053674560546874,-2.8319795396117926,-0.7953829316284542,-0.2987685324623143,-2.234752246734237,0.5165788745455755,0.1051044894142364,-1.085755330266297
1.1,1.6904262037657713e+18,16.103771191406253,1.8763062058046456,-0.5762862100696562,1.764988045114875,1.6904262037620152e+18,16.100015258789064,0.4143409729003906,0.8911666870117188,-0.1805496215820312,1.6904262037657713e+18,16.103771191406253,2.018730809445679,8.998669249730707,-3.32522935354501,1.6904262037657713e+18,16.103771191406253,1.111246860027313,0.9663681104779244,1.2138859033584597,1.6904262037620152e+18,16.10001513671875,1.122639298439026,1.0955702364444733,1.2163670539855955,,,,,,,,,,,,,1.6904262037657713e+18,16.103771191406253,41.302676391601565,39.44549179077149,26.366287231445312,1.6904262037660902e+18,16.104090283203128,87.90416259765625,72.26489868164063,144.82586669921875,1.6904262037657713e+18,16.103771191406253,-2.774035224759428,-0.7650618873940568,-0.315932995228013,-2.1148961149145697,0.5451483862425973,0.1322394028845002,-1.1626107571456146
1.15,1.690426203815868e+18,16.153867822265624,6.480750141395331,3.7524943381875753,-7.400203307681082,1.6904262038071022e+18,16.14510224609375,0.8185943603515625,1.3208526611328124,-1.0395538330078125,1.690426203815868e+18,16.153867822265624,1.5463796640771623,9.204985369237065,-3.0070916830974816,1.690426203815868e+18,16.153867822265624,0.0876175373792648,-0.193175122141838,0.4622205048799515,1.690426203812112e+18,16.150111767578124,0.2178230315446853,-0.2105946823954582,0.5640308178961277,,,,,,,,,,,,,1.690426203815868e+18,16.153867822265624,40.77808685302735,39.90184707641602,26.97651062011719,1.6904262038129e+18,16.150900146484375,87.05770111083984,72.60139083862305,145.58368682861328,1.690426203815868e+18,16.153867822265624,-2.708467222529685,-0.747668172661895,-0.3122099535647513,-2.0456532144351263,0.5689174469356174,0.1408225187522138,-1.2187389773628328
1.2,1.6904262038659643e+18,16.203964697265626,3.5568397810447214,0.6602924101072549,-4.2616999394139645,1.6904262038571986e+18,16.195198779296874,0.5301300048828125,1.0056488037109377,-0.79044189453125,1.6904262038659643e+18,16.203964697265626,1.568547276804298,9.117956606507898,-3.2496587980628013,1.6904262038659643e+18,16.203964697265626,-0.741369092464447,0.0567394286394119,-0.1925488226115703,1.6904262038622085e+18,16.20020849609375,-0.768877136707306,0.0410798456519842,-0.2109274679794907,,,,,,,,,,,,,1.6904262038659643e+18,16.203964697265626,41.50236358642578,39.402339935302734,24.892483520507813,1.6904262038597105e+18,16.197710302734375,88.1256591796875,71.97022705078125,143.07626953125,1.6904262038659643e+18,16.203964697265626,-2.6793519396772,-0.7502981187793102,-0.3189056700573253,-2.020605094342383,0.5641891281444746,0.1304195707358031,-1.193957884981881
1.25,1.6904262039160612e+18,16.254061181640626,0.1050801138569414,3.5517400613659618,3.4678151098710295,1.6904262039072955e+18,16.245295605468748,0.16624755859375,1.2640838623046875,-0.0115570068359375,1.6904262039160612e+18,16.254061181640626,1.5025064447245,9.07123904518783,-3.409127300128638,1.6904262039160612e+18,16.254061181640626,0.2322283782064914,0.3164712280035019,0.1529893085360527,1.6904262039123052e+18,16.250305273437498,0.1577774316072464,0.3811454396694898,0.1795930914580821,,,,,,,,,,,,,1.6904262039160612e+18,16.254061181640626,43.27098846435547,38.254781341552736,21.79490966796875,1.6904262039117207e+18,16.249720751953124,89.8644012451172,70.7958251953125,140.0869903564453,1.6904262039160612e+18,16.254061181640626,-2.65698567507624,-0.748416179922679,-0.3285620459389052,-1.9858427633684517,0.5616371055459404,0.1283362163979013,-1.1810869149480812
1.3,1.6904262039661578e+18,16.304157763671874,0.1152522852683066,3.6653006233811376,2.4052965285965797,1.690426203957392e+18,16.2953921875,0.194488525390625,1.339544677734375,-0.0643798828125,1.6904262039661578e+18,16.304157763671874,1.6104282117481528,9.120304397130012,-3.2235746840921045,1.6904262039661578e+18,16.304157763671874,0.3665980964899063,0.5260424673557281,-0.4891937529668212,1.6904262039624018e+18,16.3004017578125,0.3987572908401489,0.3592042386531829,-0.515743188560009,,,,,,,,,,,,,1.6904262039661578e+18,16.304157763671874,44.8833251953125,35.30717391967774,21.74134826660156,1.6904262039637304e+18,16.301730322265627,91.53804626464844,67.65575256347657,140.24234924316406,1.6904262039661578e+18,16.304157763671874,-2.7142329963041147,-0.7500125277055089,-0.323490358298829,-2.0341434149819015,0.5596707838708108,0.1398595424291287,-1.1944475397714451
1.35,1.6904262040162545e+18,16.3542546875,-6.531057134735585,-5.043888836657405,2.740140302268862,1.6904262040074888e+18,16.345488818359375,-0.5328369140625,0.4024169921875,-0.0616363525390625,1.6904262040162545e+18,16.3542546875,1.3634123445195705,9.173976482989191,-3.1826485072028636,1.6904262040162545e+18,16.3542546875,0.4225995272397995,1.2871560156345367,0.5498250722885132,1.6904262040124984e+18,16.3504986328125,0.3892582207918167,1.422843837738037,0.5040741771459579,1.6904262040254067e+18,16.36340673828125,76.30535894725472,4.203807787037202,-1.0,49.27989346911162,95.48678785655648,-1.0,35.808015808313236,4.0,-122.9681328033311,1.0,1.6904262040162545e+18,16.3542546875,47.0675537109375,33.62645645141602,20.02715148925781,1.690426204015738e+18,16.353738037109373,93.78311462402344,66.27691650390625,138.19855041503905,1.6904262040162545e+18,16.3542546875,-2.72278387612383,-0.7366293854273203,-0.3444893144186135,-1.9747890541353008,0.5583612650464387,0.1637648502323065,-1.2097306179531713
1.4,1.690426204066351e+18,16.404351171875,-5.05177158195734,2.1131482211214303,-0.2109282894769312,1.6904262040575854e+18,16.395585546874997,-0.43074951171875,1.1675750732421877,-0.30361328125,1.690426204066351e+18,16.404351171875,0.8770022567407414,9.303393370305894,-2.9679730816999075,1.690426204066351e+18,16.404351171875,0.4570894688367843,0.1540809154510498,1.3317465782165527,1.690426204062595e+18,16.4005951171875,0.4933441340923309,0.0955653980374336,1.2694518566131592,,,,,,,,,,,,,1.690426204066351e+18,16.404351171875,46.933091735839845,34.126651763916016,20.235549926757812,1.6904262040625426e+18,16.400542663574218,93.11606979370116,66.98012161254883,139.04234313964844,1.690426204066351e+18,16.404351171875,-2.6205331472053572,-0.7177856323019798,-0.3488966886667223,-1.8563003812466772,0.577485465511937,0.1716308343056828,-1.249251095134561
1.45,1.6904262041164475e+18,16.4544478515625,2.4469390955138204,0.0916679960632323,-0.9400810022249818,1.6904262041076823e+18,16.4456822265625,0.2626495361328125,0.9661590576171876,-0.4031158447265625,1.6904262041164475e+18,16.4544478515625,0.1942844812373182,9.371264311196208,-2.8791792966726417,1.6904262041164475e+18,16.4544478515625,0.1090083700604736,1.146736478805542,0.8009788572788239,1.6904262041126917e+18,16.450691845703126,0.0975298599805682,1.1327547907829283,0.8893201291561127,,,,,,,,,,,,,1.6904262041164475e+18,16.4544478515625,44.92138824462891,36.15214462280274,20.65606384277344,1.690426204109349e+18,16.447349072265627,91.27422180175782,68.93151245117187,139.0796142578125,1.6904262041164475e+18,16.4544478515625,-2.429515394685956,-0.6921564374009043,-0.3637479877189646,-1.6378651950844332,0.5981117033193125,0.1754316719998318,-1.271705563739962
1.5,1.6904262041665446e+18,16.504544580078125,-1.9059063358461856,-0.8818975179690123,1.0157578822389244,1.6904262041577787e+18,16.495778759765624,-0.2087371826171875,0.870684814453125,-0.1690093994140625,1.6904262041665446e+18,16.504544580078125,-0.2439371484230924,9.413156527412534,-2.7354230352625253,1.6904262041665446e+18,16.504544580078125,0.464507520198822,1.0782029509544373,0.6248474478721618,1.6904262041627886e+18,16.500788525390625,0.4551505267620087,1.1422300934791565,0.5890638411045075,,,,,,,,,,,,,1.6904262041665446e+18,16.504544580078125,44.27279052734375,36.455004119873045,20.09715576171875,1.690426204161357e+18,16.49935693359375,90.69205017089844,69.08856506347657,138.54186401367187,1.6904262041665446e+18,16.504544580078125,-2.3293941007938166,-0.6708175027893901,-0.3826119344328091,-1.4809012630515492,0.6049962793276379,0.1936465193962933,-1.2866122491148062
1.55,1.690426204216641e+18,16.554641259765624,0.5706490663524717,-0.5724088425666094,-1.0060687889432909,1.6904262042078756e+18,16.5458755859375,-0.01884765625,0.9066864013671876,-0.3581756591796875,1.690426204216641e+18,16.554641259765624,-0.672701890197061,9.454029571262,-2.515442635219246,1.690426204216641e+18,16.554641259765624,0.3489261507987976,0.4017780482769012,0.622064220905304,1.6904262042128852e+18,16.55088525390625,0.3683812737464905,0.4406090855598449,0.6437435626983643,,,,,,,,,,,,,1.690426204216641e+18,16.554641259765624,42.25367279052735,36.14290084838867,20.785012817382817,1.6904262042133637e+18,16.551363720703126,88.54122924804688,68.7333984375,139.3604705810547,1.690426204216641e+18,16.554641259765624,-2.187363627161234,-0.6509922730244408,-0.3911594033021749,-1.3090981304067046,0.6174796043298788,0.2046697474231107,-1.30183006090967
1.6,1.6904262042667377e+18,16.604737744140625,0.2056264859678596,-0.567993247307539,-0.6754485074110329,1.6904262042579722e+18,16.595972119140622,-0.0747650146484375,0.904736328125,-0.316436767578125,1.6904262042667377e+18,16.604737744140625,-0.9821857652134448,9.4591905488348,-2.3917930208054186,1.6904262042667377e+18,16.604737744140625,0.1673945248126983,0.3127454549074173,0.5858272194862366,1.690426204262982e+18,16.600981787109376,0.1656951159238814,0.3231830656528472,0.5815475583076477,,,,,,,,,,,,,1.6904262042667377e+18,16.604737744140625,39.2326904296875,34.97067794799805,22.10706481933594,1.6904262042653722e+18,16.60337216796875,85.45922241210937,67.50081787109374,140.6597900390625,1.6904262042667377e+18,16.604737744140625,-2.0714363168296517,-0.6377519875187978,-0.395630403956973,-1.18129884978198,0.627331293572932,0.2077983199315054,-1.303807406502587
1.65,1.6904262043168346e+18,16.654834619140626,0.0127775023780763,-0.5809708023023605,1.0655314116765555,1.6904262043080689e+18,16.64606875,-0.132012939453125,0.9065704345703124,-0.1206024169921875,1.6904262043168346e+18,16.654834619140626,-1.2879592194849996,9.45956861759305,-2.2398872675310075,1.6904262043168346e+18,16.654834619140626,0.4960427939891815,-0.0496063088998198,0.6222819089889526,1.6904262043130783e+18,16.65107861328125,0.4699267566204071,-0.0319887727499007,0.6211647987365723,,,,,,,,,,,,,1.6904262043168346e+18,16.654834619140626,36.507337951660155,33.45649948120117,22.921340942382812,1.690426204312181e+18,16.650180908203126,82.34843063354492,65.6847152709961,141.62300872802734,1.6904262043168346e+18,16.654834619140626,-1.9408954271883208,-0.6251259295806333,-0.3960845133409585,-1.0486889341409642,0.6393460309826923,0.2086591118581959,-1.3039571112075978
1.7,1.6904262043669312e+18,16.704931005859375,0.0623100042144954,-0.9627118777757884,-0.1785351969420909,1.6904262043581655e+18,16.696165478515628,-0.1569305419921875,0.8676727294921875,-0.2138671875,1.6904262043669312e+18,16.704931005859375,-1.6244966599456965,9.473440724887848,-1.939255706192553,1.6904262043669312e+18,16.704931005859375,0.7634450912475585,0.0320006390102207,0.8584952354431152,1.6904262043631752e+18,16.701175,0.7452973842620849,0.0372999671846627,0.8353050589561463,,,,,,,,,,,,,1.6904262043669312e+18,16.704931005859375,32.891238403320315,30.620764923095702,24.04583740234375,1.6904262043589898e+18,16.69698994140625,79.08863830566406,63.02592163085937,142.5759735107422,1.6904262043669312e+18,16.704931005859375,-1.7588947049693124,-0.6103116385074812,-0.3893794325471159,-0.8733920666460049,0.6566367757596947,0.2113390061997884,-1.3093698296726504
1.75,1.6904262044120177e+18,16.750017578125,0.30046284640152,-0.8203294181630014,-1.134511833565682,1.6904262044082614e+18,16.7462615234375,-0.17598876953125,0.8883941650390625,-0.2702667236328125,1.6904262044120177e+18,16.750017578125,-2.0432544983927157,9.45793549265936,-1.5880695115087553,1.6904262044120177e+18,16.750017578125,0.8138756453990936,-0.0056856190785765,1.0885059535503387,1.690426204413271e+18,16.75127104492187,0.8117283582687378,-0.0124264689162373,1.0849339723587037,,,,,,,,,,,,,1.6904262044120177e+18,16.750017578125,29.91807556152344,27.815593719482425,24.15912628173828,1.6904262044109962e+18,16.74899609375,75.90419921875,59.903863525390626,142.51242370605468,1.6904262044120177e+18,16.750017578125,-1.5404684146620888,-0.59151089127458,-0.382067705088058,-0.6614988849196644,0.6768822614213622,0.2142693547167633,-1.3033512756657666
1.8,1.6904262044571044e+18,16.795104443359374,1.280789897764474,0.7914902187174558,-1.0258017510955035,1.690426204458358e+18,16.796358105468748,-0.1139495849609375,1.0769927978515623,-0.24154052734375,1.6904262044571044e+18,16.795104443359374,-2.4736707428339124,9.401074343048334,-1.2855606192976237,1.6904262044571044e+18,16.795104443359374,0.6109154284000397,-0.0788408949971198,0.8213387489318847,1.6904262044633677e+18,16.80136787109375,0.5585093975067139,-0.0402960240840911,0.7377466320991516,,,,,,,,,,,,,1.6904262044571044e+18,16.795104443359374,27.785769653320312,24.98670425415039,22.86986083984375,1.6904262044630052e+18,16.801005029296874,73.87320251464844,56.65665283203125,140.6413360595703,1.6904262044571044e+18,16.795104443359374,-1.3488303096767456,-0.5727458927923976,-0.3748465030966974,-0.4802089785252995,0.6968366411602702,0.2140489428757109,-1.282261559545184
1.85,1.690426204507201e+18,16.845201171874997,1.9987485779336096,1.52611195207417,-1.131923760607764,1.690426204508455e+18,16.846454931640626,-0.0451446533203125,1.0980987548828125,-0.198016357421875,1.690426204507201e+18,16.845201171874997,-2.7194032776406405,9.35792879499614,-1.0963896374073625,1.690426204507201e+18,16.845201171874997,0.0807432554662227,0.5008011192083359,0.2111092515289783,1.6904262045134646e+18,16.851464453124997,0.032851742208004,0.5926017045974732,0.133232464455068,,,,,,,,,,,,,1.690426204507201e+18,16.845201171874997,27.77995147705078,21.59435043334961,19.328619384765624,1.6904262045150172e+18,16.853017089843753,74.83246459960938,53.33493347167969,136.33987121582032,1.690426204507201e+18,16.845201171874997,-1.255788139645596,-0.560513155538912,-0.3734763123023589,-0.3833546384454432,0.7065136047740577,0.2171687281402899,-1.267129329615822
1.9,1.690426204557298e+18,16.8952978515625,2.127917218803763,1.1587331639522314,-1.7563651928112656,1.6904262045585516e+18,16.89655146484375,-0.098077392578125,1.081280517578125,-0.379888916015625,1.690426204557298e+18,16.8952978515625,-2.705219094108939,9.371025826265214,-1.0167486614549903,1.690426204557298e+18,16.8952978515625,-0.0636278311721979,0.5069144874811172,-0.3603537321090698,1.690426204563561e+18,16.90156103515625,-0.0933810257352888,0.4101132787764072,-0.4035990715026855,,,,,,,,,,,,,1.690426204557298e+18,16.8952978515625,30.570001220703126,18.52516479492187,14.123782348632812,1.6904262045618268e+18,16.89982666015625,78.3892593383789,50.49663543701172,131.14019775390625,1.690426204557298e+18,16.8952978515625,-1.2643263938152205,-0.556355058532546,-0.3820930219943443,-0.3595221946776575,0.7013730115623652,0.2291914517923199,-1.271654247043804
1.95,1.6904262046073946e+18,16.94539453125,1.4013888339838383,1.988301710460186,-5.501936556028723,1.690426204608648e+18,16.946648046875,-0.066278076171875,1.1943817138671875,-0.6710540771484375,1.6904262046073946e+18,16.94539453125,-2.3952218554364144,9.437487251070738,-1.1526271021620929,1.6904262046073946e+18,16.94539453125,-0.5676629781723023,-0.80543552339077,-1.111470592021942,1.690426204613658e+18,16.951657958984377,-0.6490376055240631,-0.9942071974277495,-1.2771767139434815,,,,,,,,,,,,,1.6904262046073946e+18,16.94539453125,35.648643493652344,17.475806427001952,10.354830932617189,1.6904262046086336e+18,16.946633544921873,83.88038940429688,50.31904296875,128.45518188476564,1.6904262046073946e+18,16.94539453125,-1.3561483697150205,-0.5698245039025247,-0.382186287761361,-0.4509187973097942,0.6899473369754754,0.2304149619913703,-1.2957458575958074
2.0,1.6904262046574912e+18,16.995491064453127,2.4016895901457964,2.6590184839481115,-1.35217027885437,1.6904262046587448e+18,16.996744970703126,0.092608642578125,1.2043609619140625,-0.19732666015625,1.6904262046574912e+18,16.995491064453127,-1.4772584016387165,9.538301962568164,-1.6909496968621014,1.6904262046574912e+18,16.995491064453127,-1.087299847602844,-1.3783076524734497,-2.2662354469299317,1.6904262046637545e+18,17.0017544921875,-1.1038046598434448,-1.30031898021698,-2.3425377368927003,,,,,,,,,,,,,1.6904262046574912e+18,16.995491064453127,42.27885284423828,18.75045166015625,11.595098876953124,1.69042620466064e+18,16.99863994140625,90.55086364746094,51.65298767089844,131.19039916992188,1.6904262046574912e+18,16.995491064453127,-1.7103655330045036,-0.6160838956231739,-0.3680535722664115,-0.8592493989426506,0.663114237985705,0.2117434507074691,-1.3365046646439338
2.05,1.6904262047075878e+18,17.045587988281248,-1.5240329392299798,0.5186573786348104,2.3924797463475165,1.6904262047088415e+18,17.046841455078123,-0.2284637451171875,1.0560699462890626,-0.0258087158203125,1.6904262047075878e+18,17.045587988281248,-0.2489631516717234,9.529298221188188,-2.274655097147077,1.6904262047075878e+18,17.045587988281248,-1.0896151781082153,-0.7869076132774353,-2.191857171058655,1.6904262047138511e+18,17.051851074218753,-1.0749498844146728,-0.6898236513137818,-2.120237922668457,,,,,,,,,,,,,1.6904262047075878e+18,17.045587988281248,47.6991455078125,18.390151977539062,16.901055908203126,1.690426204712647e+18,17.050646582031252,95.16749572753906,50.52006530761719,137.30211181640624,1.6904262047075878e+18,17.045587988281248,-2.2658216121525,-0.6694193128187803,-0.3565002673374932,-1.4547213687892282,0.6208486544884898,0.1974814545242933,-1.33268793347412
2.1,1.6904262047576845e+18,17.095684521484376,-2.4028600952298937,2.6420090138626096,0.7673894459706544,1.690426204758938e+18,17.096938134765626,-0.1248291015625,1.19088134765625,-0.1783905029296875,1.6904262047576845e+18,17.095684521484376,0.7386806241326034,9.375236955767274,-2.7653206284937264,1.6904262047576845e+18,17.095684521484376,-0.9854665398597716,-0.1644219577312469,-1.8360229015350344,1.6904262047639478e+18,17.101947900390627,-0.96334125995636,-0.1668951913714408,-1.80546555519104,,,,,,,,,,,,,1.6904262047576845e+18,17.095684521484376,49.203094482421875,16.80691909790039,23.6832763671875,1.6904262047646536e+18,17.102653466796873,95.27568664550782,49.18888549804687,143.82447509765626,1.6904262047576845e+18,17.095684521484376,-2.628779436176708,-0.7079939458561784,-0.355190220604839,-1.8270083720028136,0.579693613270535,0.1905786636223023,-1.2737407435363717
2.15,1.690426204807781e+18,17.145781103515624,-1.799321954906136,0.7559114234316349,3.3072975663697717,1.6904262048090348e+18,17.147034814453125,-0.0133392333984375,1.007244873046875,0.0110565185546875,1.690426204807781e+18,17.145781103515624,1.5625052493871747,9.153987821736337,-3.1428456060290335,1.690426204807781e+18,17.145781103515624,-0.6759806990623474,-0.5908981502056122,-1.463714337348938,1.6904262048140444e+18,17.15204448242188,-0.6248893857002258,-0.644919240474701,-1.416303539276123,,,,,,,,,,,,,1.690426204807781e+18,17.145781103515624,45.708770751953125,16.290262603759764,29.052993774414062,1.6904262048114596e+18,17.149459655761717,91.16128540039062,48.92543029785156,148.35575103759766,1.690426204807781e+18,17.145781103515624,-2.825312668657414,-0.7384592164128138,-0.3533101632342307,-2.0300535826238786,0.5435322577339665,0.1851355965035405,-1.2043165610628126
2.2,1.690426204857878e+18,17.1958779296875,-1.89118111885339,-0.0762334617573022,1.3193478549915552,1.6904262048591314e+18,17.197131494140628,0.036138916015625,0.8768280029296875,-0.232354736328125,1.690426204857878e+18,17.1958779296875,2.264017909346372,8.95216632484853,-3.297078019459247,1.690426204857878e+18,17.1958779296875,-0.3901542127132416,-0.80584157705307,-1.0461245775222778,1.690426204864141e+18,17.202141162109374,-0.3818153321743011,-0.7561183929443359,-0.9863219261169434,,,,,,,,,,,,,1.690426204857878e+18,17.1958779296875,40.07436981201172,16.61810760498047,30.806796264648437,1.690426204858266e+18,17.196266064453123,84.54787902832031,49.490719604492185,149.18951416015625,1.690426204857878e+18,17.1958779296875,-2.937531179188517,-0.7642752625535629,-0.3399914543409876,-2.1715909872396906,0.5185775464427956,0.1768296621153284,-1.1504358860948187
2.25,1.6904262049079744e+18,17.245974462890626,-2.6987195614087582,-0.4783967968213558,2.0029627469494935,1.690426204909228e+18,17.24722802734375,-0.00333251953125,0.839898681640625,-0.10252685546875,1.6904262049079744e+18,17.245974462890626,2.7304423242405056,8.789628089174627,-3.383249756193757,1.6904262049079744e+18,17.245974462890626,-0.3511630594730377,-0.5197739362716675,-0.5533511817455292,1.690426204914238e+18,17.252237841796877,-0.3359219253063201,-0.4959500432014465,-0.4767157971858978,,,,,,,,,,,,,1.6904262049079744e+18,17.245974462890626,34.414799499511716,17.359600067138672,28.9408935546875,1.6904262049102715e+18,17.248271630859374,80.05752563476562,50.11968078613281,146.58370361328124,1.6904262049079744e+18,17.245974462890626,-2.988186553418956,-0.7816026056291422,-0.3288783338789788,-2.249572447255633,0.5026019737140531,0.1681991285119389,-1.1114167655846037
2.3,1.6904262049580713e+18,17.29607109375,-2.536102532184124,-0.7938612733107805,2.9282343025773763,1.6904262049593247e+18,17.297324853515626,0.053485107421875,0.8014251708984375,-0.0674163818359375,1.6904262049580713e+18,17.29607109375,2.8993624868103858,8.71151503882885,-3.4457709189409016,1.6904262049580713e+18,17.29607109375,-0.1337621629238128,-0.2132825046777725,0.0831868827342986,1.6904262049643346e+18,17.302334521484376,-0.0890865708235651,-0.1863627895712852,0.1552574433386325,,,,,,,,,,,,,1.6904262049580713e+18,17.29607109375,32.45374603271485,17.474483489990234,26.322830200195312,1.690426204962279e+18,17.300278955078124,78.64964904785157,50.078250122070315,144.21983032226564,1.6904262049580713e+18,17.29607109375,-2.9900229456831418,-0.7887751948494915,-0.3237318184442315,-2.270291129588808,0.4973636551786932,0.1601778136286545,-1.0936914190459237
2.35,1.6904262050081677e+18,17.34616787109375,-1.1065305076715348,-1.4572267488008737,1.809596476100385,1.6904262050094216e+18,17.347421484375,0.2042144775390625,0.7410491943359375,-0.1843994140625,1.6904262050081677e+18,17.34616787109375,2.806593426863551,8.760140713405608,-3.3985084078630807,1.6904262050081677e+18,17.34616787109375,0.1973423093557357,-0.2763068795204162,0.412499988079071,1.690426205014431e+18,17.352431005859376,0.2292106524109839,-0.2898337364196777,0.4187049031257628,,,,,,,,,,,,,1.6904262050081677e+18,17.34616787109375,31.55633850097656,17.38543243408203,24.919482421875,1.690426205014288e+18,17.3522876953125,77.83173828125,49.92880554199219,143.25633850097657,1.6904262050081677e+18,17.34616787109375,-2.9679206592342458,-0.7866182440054355,-0.3202654487054465,-2.261074333368486,0.5043020708850083,0.1559689917343233,-1.1046385337991147
2.4,1.6904262050582646e+18,17.39626455078125,0.1470564135470985,-0.7481431275177002,0.4542597252652048,1.690426205059518e+18,17.397518066406253,0.289599609375,0.8479095458984375,-0.293048095703125,1.6904262050582646e+18,17.39626455078125,2.6754381129947307,8.859518903906942,-3.2430558049881455,1.6904262050582646e+18,17.39626455078125,0.2849262773990631,-0.170400558784604,0.3685658454895019,1.690426205064528e+18,17.402527880859374,0.2825794994831085,-0.1108530171215534,0.3626014709472656,,,,,,,,,,,,,1.6904262050582646e+18,17.39626455078125,31.110340881347657,17.040721130371093,24.528448486328124,1.6904262050610964e+18,17.399096496582033,77.5676498413086,49.6550178527832,142.93381881713867,1.6904262050582646e+18,17.39626455078125,-2.95199214254233,-0.782647330066266,-0.3130068442912715,-2.2605751088431107,0.5153702470914195,0.1545022376134574,-1.127722054422678
2.45,1.690426205108361e+18,17.44636103515625,0.4383775640961527,-0.7018094801747798,0.4700637358576059,1.6904262051096148e+18,17.44761484375,0.3148284912109375,0.834735107421875,-0.26585693359375,1.690426205108361e+18,17.44636103515625,2.513912766077369,8.950971445201635,-3.1187090020903945,1.690426205108361e+18,17.44636103515625,0.2882189452648163,0.1150390699505805,0.3749774277210235,1.6904262051146245e+18,17.45262451171875,0.2962478041648864,0.1125542417168616,0.3917597234249114,,,,,,,,,,,,,1.690426205108361e+18,17.44636103515625,31.343260192871092,16.82154998779297,24.113845825195312,1.6904262051079012e+18,17.445901171875,78.01794738769532,49.383242797851565,142.52181701660157,1.690426205108361e+18,17.44636103515625,-2.940019666456466,-0.776795453012608,-0.3109502942238084,-2.249156400277808,0.5245281009774019,0.1573447528935367,-1.1499999952252773
2.5,1.690426205158458e+18,17.49645786132813,1.541297743089944,-0.4056157551532983,-0.3224522018718719,1.6904262051597115e+18,17.49771142578125,0.4062286376953125,0.9031158447265624,-0.374908447265625,1.690426205158458e+18,17.49645786132813,2.3013062265768647,9.059068714922669,-2.966223198518753,1.690426205158458e+18,17.49645786132813,0.38859543800354,-0.2103296026587486,0.5775225996971131,1.690426205164721e+18,17.50272109375,0.384412807226181,-0.2769852697849273,0.589906883239746,,,,,,,,,,,,,1.690426205158458e+18,17.49645786132813,32.10267944335938,16.63718185424805,24.11399536132813,1.6904262051599068e+18,17.497906884765627,78.71414794921876,49.30183715820313,142.74971618652344,1.690426205158458e+18,17.49645786132813,-2.919502392102784,-0.7692088935952407,-0.3082613256713615,-2.230526586399427,0.5363003662411587,0.1601455701710279,-1.1779172292046567
2.55,1.6904262052085545e+18,17.5465544921875,2.7011528383572396,0.8403175533461571,-2.8258029788896435,1.690426205209808e+18,17.54780810546875,0.5138092041015625,1.021722412109375,-0.607275390625,1.6904262052085545e+18,17.5465544921875,2.1198416981846093,9.155384829052688,-2.8025161528742313,1.6904262052085545e+18,17.5465544921875,-0.038726669549942,-0.7201850295066834,0.4468651592731475,1.6904262052148178e+18,17.552817919921875,-0.1265492588281631,-0.7178049325942993,0.4033000081777572,,,,,,,,,,,,,1.6904262052085545e+18,17.5465544921875,32.467585754394534,16.91669921875,25.24444580078125,1.6904262052119163e+18,17.54991650390625,79.01006774902343,49.78791809082031,144.18906860351564,1.6904262052085545e+18,17.5465544921875,-2.879691093030283,-0.7644705338438637,-0.2976775432781776,-2.2183559461609432,0.5507121408787005,0.1537837779577828,-1.2043206686507504
2.6,1.6904262052586511e+18,17.596651025390624,2.4135123929214477,-1.358216690185666,-2.453836804525256,1.6904262052599048e+18,17.597904833984376,0.4013916015625,0.737139892578125,-0.4770751953125,1.6904262052586511e+18,17.596651025390624,2.0574800222350658,9.14661524714172,-2.8765241059887408,1.6904262052586511e+18,17.596651025390624,-0.3776206612586975,-0.3757275223731994,0.2690846145153045,1.6904262052649144e+18,17.602914501953126,-0.3358079433441162,-0.3517037093639373,0.2883659571409225,,,,,,,,,,,,,1.6904262052586511e+18,17.596651025390624,32.571875,18.089315032958982,26.790621948242187,1.6904262052639286e+18,17.601928466796874,79.15966491699218,51.1700439453125,145.64000244140624,1.6904262052586511e+18,17.596651025390624,-2.820024784063096,-0.7654457569979394,-0.2917971900597857,-2.1917655660452136,0.5567326452805436,0.1377623352379542,-1.2018227821229774
2.65,1.6904262053087478e+18,17.646747900390626,-0.10409233031556,-0.2002844381266832,1.5179735368996856,1.6904262053100017e+18,17.648001513671876,0.1795257568359375,1.0292205810546875,-0.0813262939453125,1.6904262053087478e+18,17.646747900390626,1.9361057761812208,9.165911483764052,-2.8988292859426137,1.6904262053087478e+18,17.646747900390626,0.1836404226720333,-0.3304918140172958,0.5247601926326751,1.690426205315011e+18,17.653011328125,0.2603663431480527,-0.2707373773679137,0.5488451182842254,,,,,,,,,,,,,1.6904262053087478e+18,17.646747900390626,32.6151840209961,19.787488555908205,28.545999145507817,1.6904262053159383e+18,17.65393828125,78.95208740234375,52.91017456054688,147.64024353027344,1.6904262053087478e+18,17.646747900390626,-2.765774440323274,-0.7632068932167003,-0.2878209710843375,-2.159519773282875,0.5642938603467236,0.127373911282892,-1.2073650858153695
2.7,1.690426205358845e+18,17.696844775390623,3.3396695284383,5.886014550017118,1.814658435665071,1.6904262053600986e+18,17.698098535156248,0.5563812255859375,1.5783416748046877,-0.1696868896484375,1.690426205358845e+18,17.696844775390623,1.7971503684076666,9.251176393238902,-2.7113766815036535,1.690426205358845e+18,17.696844775390623,0.3939945816993713,-0.0941158930771052,-0.1248714804649353,1.6904262053651082e+18,17.70310810546875,0.3673610150814056,-0.0490565992891788,-0.2465037297457456,,,,,,,,,,,,,1.690426205358845e+18,17.696844775390623,32.18858642578125,20.83910217285156,30.815643310546875,1.690426205362746e+18,17.700745971679687,78.6008529663086,53.49238967895508,149.71731185913086,1.690426205358845e+18,17.696844775390623,-2.7530599862522154,-0.7581977959721485,-0.2803826614030045,-2.156247370696635,0.5742374923463343,0.1294621850048952,-1.2326319961872532
2.75,1.6904262054089418e+18,17.74694189453125,-4.733152966898977,-1.7749945922487975,-1.0864228962141276,1.6904262054101957e+18,17.748195361328122,-0.464654541015625,0.586590576171875,-0.31368408203125,1.6904262054089418e+18,17.74694189453125,1.8619068013131617,9.272377703604102,-2.592956346045434,1.6904262054089418e+18,17.74694189453125,0.3567451119422912,0.938582843542099,0.0760634273290634,1.6904262054152054e+18,17.753205224609374,0.3914927780628204,0.9980887532234192,0.2004414819180965,,,,,,,,,,,,,1.6904262054089418e+18,17.74694189453125,32.678103637695315,20.639329528808595,32.29572448730469,1.6904262054095534e+18,17.747553320312498,79.53221435546875,53.3110107421875,150.95958251953124,1.6904262054089418e+18,17.74694189453125,-2.810979799695146,-0.7580474347163589,-0.2815701790371763,-2.1934035008042407,0.5707622561248423,0.1423135555381259,-1.239220591568733
2.8,1.6904262054590385e+18,17.79703837890625,-6.169499717017412,-0.6707807201826572,1.652324198130667,1.690426205460292e+18,17.7982921875,-0.4796905517578125,0.9822998046875,-0.1311248779296875,1.6904262054590385e+18,17.79703837890625,1.5786778010310232,9.369544180179238,-2.4239154797053333,1.6904262054590385e+18,17.79703837890625,0.5425666093826294,-0.0724310934543609,0.7299143552780152,1.6904262054653018e+18,17.80330185546875,0.5212559878826142,-0.2560838140547275,0.8440497517585754,,,,,,,,,,,,,1.6904262054590385e+18,17.79703837890625,33.13214263916016,21.178912353515624,32.92816162109375,1.690426205461562e+18,17.799562060546876,79.17195129394531,54.07566528320312,151.7798095703125,1.6904262054590385e+18,17.79703837890625,-2.7962375579444325,-0.7454658805710684,-0.2882059190648232,-2.1476791000583004,0.5800159725239168,0.1573473670362624,-1.271332440240605
2.85,1.690426205509135e+18,17.847135205078125,-4.6211498634588715,-0.1611864703518152,-1.19851858792156,1.6904262055103887e+18,17.848388720703124,-0.2325714111328125,0.9493377685546877,-0.3348388671875,1.690426205509135e+18,17.847135205078125,1.031882634605244,9.495370583336353,-2.211841994942129,1.690426205509135e+18,17.847135205078125,0.1785086823627352,-0.4171659409999847,1.6966961860656735,1.6904262055153984e+18,17.853398437499997,0.1268702253699302,-0.2489998165518045,1.6726088047027587,,,,,,,,,,,,,1.690426205509135e+18,17.847135205078125,30.247454833984374,22.791196441650392,34.552426147460935,1.6904262055135716e+18,17.851571630859375,75.65984802246093,56.17997131347656,153.31307067871094,1.690426205509135e+18,17.847135205078125,-2.622018237842183,-0.728374891305131,-0.2786052901684182,-2.0035060340116884,0.6080021492371709,0.1483714755739545,-1.318487153474679
2.9,1.6904262055592315e+18,17.897231787109376,1.9546264837733656,0.3854989667022228,1.0949131643401084,1.6904262055604854e+18,17.898485400390626,0.2172943115234375,1.00498046875,-0.068914794921875,1.6904262055592315e+18,17.897231787109376,0.377744805258233,9.544482463220954,-2.216925727947205,1.6904262055592315e+18,17.897231787109376,-0.090589316189289,1.087487232685089,0.7052215278148651,1.6904262055654953e+18,17.903495263671875,-0.0762131188064813,1.1870030283927917,0.6175447642803192,,,,,,,,,,,,,1.6904262055592315e+18,17.897231787109376,27.703793334960935,25.120144653320313,34.31998901367187,1.690426205565584e+18,17.903583984375,74.1124267578125,58.21669006347656,152.30552673339844,1.6904262055592315e+18,17.897231787109376,-2.370047042143993,-0.7057290501654825,-0.2900472697254618,-1.7395297875944329,0.6297316796392066,0.1454940786201975,-1.339048420366486
2.95,1.6904262056093284e+18,17.947328369140628,-0.788174226037264,-0.248629425292015,1.1197053095780312,1.6904262056105825e+18,17.948582177734373,-0.0719512939453125,0.93154296875,-0.1501800537109375,1.6904262056093284e+18,17.947328369140628,-0.0425538986487128,9.552975800086855,-2.211940019263029,1.6904262056093284e+18,17.947328369140628,0.2012365028262138,0.8238407254219056,0.7054940342903138,1.690426205615592e+18,17.953591796875,0.2486404404044151,0.70326127409935,0.701567804813385,,,,,,,,,,,,,1.6904262056093284e+18,17.947328369140628,27.65851287841797,26.30235137939453,32.71890563964844,1.6904262056123955e+18,17.950395568847657,74.1030044555664,59.06679153442383,150.98819732666016,1.6904262056093284e+18,17.947328369140628,-2.232842120473371,-0.6874564621672705,-0.3111007998953589,-1.5509189155306893,0.6366785389259894,0.1587288913888909,-1.3428649175317102
3.0,1.6904262056594253e+18,17.997425244140626,0.5351805192015693,-1.170205224367976,-1.177108807824403,1.690426205660679e+18,17.998678857421876,-0.0320343017578125,0.8632049560546875,-0.3542938232421875,1.6904262056594253e+18,17.997425244140626,-0.3826399130495078,9.579360182952284,-2.062096371537149,1.6904262056594253e+18,17.997425244140626,0.3125094652175903,0.1776541650295257,0.5466906785964966,1.6904262056656883e+18,18.0036884765625,0.2946601271629333,0.1958304345607757,0.5672644972801208,,,,,,,,,,,,,1.6904262056594253e+18,17.997425244140626,26.71546325683594,26.806298828125,32.355474853515624,1.690426205659206e+18,17.997206005859375,72.81231384277343,59.550619506835936,150.84701843261718,1.6904262056594253e+18,17.997425244140626,-2.0851076460828266,-0.6731234036108853,-0.3155144443350091,-1.3867942132044413,0.6480360271687052,0.1654843753465378,-1.3550991776575576
3.05,1.6904262057095217e+18,18.047521777343754,-0.7590665556877851,-0.3715006026792525,-1.0075810347501934,1.6904262057107756e+18,18.048775390625003,-0.12537841796875,0.9371368408203123,-0.2708465576171875,1.6904262057095217e+18,18.047521777343754,-0.7469460705267638,9.58815934167087,-1.913075467597097,1.6904262057095217e+18,18.047521777343754,0.3765984416007996,0.2026579625904559,0.9051608681678772,1.6904262057157852e+18,18.05378515625,0.4223238706588745,0.1651614202186465,0.9420685172080994,,,,,,,,,,,,,1.6904262057095217e+18,18.047521777343754,25.055050659179688,27.33393249511719,32.099945068359375,1.690426205711216e+18,18.049215771484377,71.02026977539063,60.14265747070313,150.44411926269532,1.6904262057095217e+18,18.047521777343754,-1.904452185801754,-0.6583710588253425,-0.3175255695474399,-1.1984929376769358,0.6612391004606807,0.1686304603366448,-1.35931075999251
3.1,1.6904262057596186e+18,18.097618457031253,0.5911531736207009,-0.9662041622579098,-0.5467399144941568,1.6904262057608722e+18,18.098872265625,-0.0754608154296875,0.8845184326171875,-0.226171875,1.6904262057596186e+18,18.097618457031253,-1.2418075045802444,9.584821370967626,-1.6517057739713783,1.6904262057596186e+18,18.097618457031253,0.68920978307724,-0.1230524271726607,1.139076590538025,1.690426205765882e+18,18.103881787109373,0.7183805704116821,-0.1387322656810283,1.1734681129455566,,,,,,,,,,,,,1.6904262057596186e+18,18.097618457031253,22.518011474609377,27.79600372314453,31.94065246582031,1.690426205763225e+18,18.101225390625,68.11947021484374,60.53310546875,150.4632995605469,1.6904262057596186e+18,18.097618457031253,-1.627781100260825,-0.6386313823768763,-0.3130898447206316,-0.9268543202645112,0.6820822225050206,0.1697022213192871,-1.3577042859767483
3.15,1.6904262058097157e+18,18.147715380859378,1.3136572713606058,-0.3224541892462969,-2.0222517939525844,1.690426205810969e+18,18.14896904296875,-0.023809814453125,0.9491058349609376,-0.369036865234375,1.6904262058097157e+18,18.147715380859378,-1.81895338560611,9.54494914549768,-1.3113147852746396,1.6904262058097157e+18,18.147715380859378,0.6924009919166565,-0.2308972477912902,1.249032473564148,1.6904262058159788e+18,18.153978808593752,0.6423128008842468,-0.2484040588140487,1.2150102138519288,,,,,,,,,,,,,1.6904262058097157e+18,18.147715380859378,19.38377685546875,27.876401519775392,32.33880615234375,1.6904262058152343e+18,18.153234423828124,64.92601623535157,60.451229858398435,150.89904174804687,1.6904262058097157e+18,18.147715380859378,-1.3112472058837246,-0.6154696003561775,-0.302470612800055,-0.6273775556454441,0.7079477392077014,0.1685558037233417,-1.339410977835466
3.2,1.690426205859812e+18,18.19781220703125,3.9960307073503727,1.0740556989765166,-2.524630384090096,1.690426205861066e+18,18.199065820312494,0.189678955078125,1.0957000732421875,-0.3685943603515625,1.690426205859812e+18,18.19781220703125,-2.245121193435639,9.478687860987186,-1.1318541732767968,1.690426205859812e+18,18.19781220703125,0.2144960299134254,-0.5207599043846131,0.3972935669124126,1.6904262058660754e+18,18.204075439453128,0.1584847144782543,-0.524446827173233,0.2212749093770981,,,,,,,,,,,,,1.690426205859812e+18,18.19781220703125,16.08394775390625,27.735657501220704,32.120278930664064,1.690426205862041e+18,18.200041442871097,62.03977966308594,60.350196838378906,150.4473533630371,1.690426205859812e+18,18.19781220703125,-1.1272492385135195,-0.5994375618123323,-0.2926003052200446,-0.4671987424646957,0.7272117658569207,0.1618489565410254,-1.311483337095566
3.25,1.6904262059099087e+18,18.247908740234372,1.364650756434202,0.6151082835125922,-2.2443829715150594,1.6904262059111624e+18,18.24916240234375,-0.1195037841796875,1.0185882568359377,-0.3176422119140625,1.6904262059099087e+18,18.247908740234372,-2.1522234509947893,9.4907874641037,-1.2067689098118246,1.6904262059099087e+18,18.247908740234372,-0.3323197260499,-0.3208276450634003,-0.4279002547264099,1.6904262059161723e+18,18.25417221679688,-0.3880102068185806,-0.3137476474046707,-0.4468632519245147,,,,,,,,,,,,,1.6904262059099087e+18,18.247908740234372,14.16738739013672,27.188605499267577,30.874920654296876,1.6904262059088466e+18,18.2468466796875,60.52131652832031,59.790505981445314,149.07736511230468,1.6904262059099087e+18,18.247908740234372,-1.1497105308917113,-0.6054506716787105,-0.2862828195641723,-0.511353399842374,0.7264779005342474,0.1538897538465337,-1.3163176207864742
3.3,1.6904262059600054e+18,18.29800541992187,0.2480706808176637,1.0408590641999242,-1.1098218919801712,1.6904262059612593e+18,18.299259277343747,-0.176617431640625,1.1007049560546875,-0.3042266845703125,1.6904262059600054e+18,18.29800541992187,-1.8801979817722736,9.51065676598668,-1.4717558879257735,1.6904262059600054e+18,18.29800541992187,-0.4750232279300689,-0.8265452980995178,-0.6134603500366211,1.690426205966269e+18,18.304268701171875,-0.4636544167995453,-0.9503305435180665,-0.6642956018447876,,,,,,,,,,,,,1.6904262059600054e+18,18.29800541992187,13.540707397460938,26.9571891784668,28.97349853515625,1.6904262059608545e+18,18.298854248046872,59.757635498046874,59.46952209472656,146.89801635742188,1.6904262059600054e+18,18.29800541992187,-1.2830431968844866,-0.6196594756488324,-0.285269757373384,-0.6646496498553716,0.7172682894674972,0.1418001157563063,-1.3244909112031036
3.35,1.6904262060101023e+18,18.34810224609375,1.5225214971406758,3.278396582960487,-2.372017213198691,1.6904262060113556e+18,18.349355810546875,0.139752197265625,1.3392578125,-0.3767669677734375,1.6904262060101023e+18,18.34810224609375,-1.2936358038166909,9.548927284574509,-1.7990712242415543,1.6904262060101023e+18,18.34810224609375,-0.4563225924968719,-1.7710817098617553,-1.6205322265625,1.6904262060163653e+18,18.354365478515625,-0.4377808570861816,-1.8084208726882935,-1.8532538414001465,1.690426206025146e+18,18.363145751953127,76.64354445040226,5.360343343998681,-1.0,49.27990850584023,95.82497335970402,-1.0,53.700870958401744,1.1958985491496263,-122.96820935191106,0.9270806812329548,1.6904262060101023e+18,18.34810224609375,12.352938842773437,26.2073112487793,27.35212097167969,1.690426206012862e+18,18.350861962890622,58.5796875,58.479559326171874,145.44512634277345,1.6904262060101023e+18,18.34810224609375,-1.508111934724769,-0.6481427726750522,-0.2688374225520592,-0.9512573289665486,0.7025567201163329,0.1172562927783624,-1.3411408093105617
3.4,1.690426206060199e+18,18.398198779296873,3.289748246480003,2.641126502713561,1.5831219794104994,1.6904262060614523e+18,18.399452392578123,0.2170562744140625,1.203717041015625,-0.03355712890625,1.690426206060199e+18,18.398198779296873,0.1156442784339468,9.582290858802796,-2.019046217457354,1.690426206060199e+18,18.398198779296873,-0.2306944668292999,-1.6124818086624146,-3.327795886993408,1.6904262060664622e+18,18.404462158203124,-0.2374637395143509,-1.5240418910980225,-3.371750593185425,,,,,,,,,,,,,1.690426206060199e+18,18.398198779296873,12.232392120361329,24.140882110595705,26.29437561035156,1.690426206064868e+18,18.402868115234373,59.016867065429686,55.961038208007814,144.56133117675782,1.690426206060199e+18,18.398198779296873,-2.1040630890503538,-0.7042634838417904,-0.2382004586412325,-1.6216066968510006,0.6610680646661845,0.0977007310774908,-1.3566096152161116
3.45,1.6904262061102956e+18,18.44829541015625,-4.2876586149871345,1.369955409487486,-0.4689417460903525,1.6904262061115492e+18,18.449549267578124,-0.2587188720703125,1.11343994140625,-0.343353271484375,1.6904262061102956e+18,18.44829541015625,1.7539047502079606,9.399942124148012,-2.137924876529276,1.6904262061102956e+18,18.44829541015625,-0.546062833070755,-0.7137947618961334,-2.7845932483673095,1.6904262061165588e+18,18.4545587890625,-0.6112454295158386,-0.647272402048111,-2.6499073982238768,,,,,,,,,,,,,1.6904262061102956e+18,18.44829541015625,13.445767211914063,21.306261444091795,25.282904052734377,1.6904262061116728e+18,18.449672729492185,60.15084457397461,53.49209976196289,143.49789810180664,1.6904262061102956e+18,18.44829541015625,-2.6857006122238145,-0.7623409108126457,-0.2142560667419527,-2.2475604768013717,0.6036730965688637,0.0898873450872429,-1.2833623901640467
3.5,1.6904262061603922e+18,18.4983921875,-5.037560510418713,1.2031010641801356,-2.4927916813415285,1.690426206161646e+18,18.4996458984375,-0.2026092529296875,0.997821044921875,-0.4703887939453125,1.6904262061603922e+18,18.4983921875,2.842886040281057,9.068803342473506,-2.4047272335021197,1.6904262061603922e+18,18.4983921875,-0.9979159235954284,-1.3701892495155334,-1.3695945620536805,1.6904262061666555e+18,18.50465551757812,-1.0123586773872375,-1.529235827922821,-1.1868655800819397,,,,,,,,,,,,,1.6904262061603922e+18,18.4983921875,14.151361846923828,20.158937072753908,23.47496337890625,1.6904262061584783e+18,18.496478417968753,60.620950317382814,52.782797241210936,141.80691833496093,1.6904262061603922e+18,18.4983921875,-2.841278193209045,-0.7996534819911307,-0.2046512219761721,-2.438100709243779,0.559533273541072,0.0731506448801956,-1.1810975808310251
3.55,1.690426206210489e+18,18.548489306640622,-3.612928455752432,-0.0493109680402278,-0.8766551749491691,1.690426206211743e+18,18.549742822265625,0.009417724609375,0.8874053955078125,-0.3442840576171875,1.690426206210489e+18,18.548489306640622,3.4593108424457903,8.807959513965844,-2.5684213904389734,1.690426206210489e+18,18.548489306640622,-1.0681137084960937,-2.1811347723007204,-0.5375780880451202,1.6904262062167524e+18,18.554752392578123,-1.0850337266921997,-2.2249286651611326,-0.4822208642959594,,,,,,,,,,,,,1.690426206210489e+18,18.548489306640622,13.038558959960938,20.276808166503905,22.508102416992188,1.6904262062104868e+18,18.54848662109375,59.026312255859374,53.02747802734375,140.7105682373047,1.690426206210489e+18,18.548489306640622,-2.8092062213690454,-0.8217104867688321,-0.1797111574466181,-2.5024435919897052,0.5396608617324038,0.0307909834921295,-1.11580516095182
3.6,1.6904262062605855e+18,18.598585791015623,-3.9232495487779375,-0.7499986338043213,-0.1286022391590476,1.6904262062618394e+18,18.599839355468752,-0.0188995361328125,0.78297119140625,-0.2693084716796875,1.6904262062605855e+18,18.598585791015623,3.871056244847476,8.608936590981482,-2.657620132231414,1.6904262062605855e+18,18.598585791015623,-1.1954566955566406,-2.0461732864379885,0.0491589430719614,1.6904262062668493e+18,18.604849218749997,-1.195070672035217,-1.9492863655090331,0.1555600292980671,,,,,,,,,,,,,1.6904262062605855e+18,18.598585791015623,10.827368927001952,20.99915771484375,21.28616943359375,1.6904262062624937e+18,18.60049370117188,56.635153198242186,53.9222412109375,139.39165649414062,1.6904262062605855e+18,18.598585791015623,-2.7266220436383106,-0.8346829456817654,-0.1489405021196173,-2.539906590409917,0.529515720578333,-0.0211842509985062,-1.0714693225710854
3.65,1.6904262063106824e+18,18.64868247070313,-4.715144782712757,-1.2903222515153885,0.6129141052430869,1.6904262063119365e+18,18.64993627929687,-0.0971923828125,0.7324798583984375,-0.2131378173828125,1.6904262063106824e+18,18.64868247070313,3.885494052427113,8.550738902843595,-2.81976948549211,1.6904262063106824e+18,18.64868247070313,-1.0506762146949769,-1.3761883974075315,0.9602614521980286,1.690426206316946e+18,18.654945751953125,-1.013814127445221,-1.3362361669540406,1.0657851696014404,,,,,,,,,,,,,1.6904262063106824e+18,18.64868247070313,8.635818481445312,21.9906852722168,19.89385681152344,1.6904262063145006e+18,18.652500488281248,54.460028076171874,54.91438598632813,137.97899169921874,1.6904262063106824e+18,18.64868247070313,-2.599982734006451,-0.8325596686297999,-0.1281885593123,-2.5137427152496215,0.5342523683864285,-0.0692200177484847,-1.0591419254738843
3.7,1.6904262063607793e+18,18.698779248046876,-4.226813159593343,-1.531447350978851,1.9141590835022924,1.6904262063620326e+18,18.70003276367187,-0.0402435302734375,0.7446807861328125,-0.0877532958984375,1.6904262063607793e+18,18.698779248046876,3.5056199398693444,8.674279007081388,-2.9349567134740946,1.6904262063607793e+18,18.698779248046876,-0.6513407051563262,-1.587396216392517,1.693796181678772,1.6904262063620326e+18,18.70003271484375,-0.639021247625351,-1.5985952615737915,1.7190710306167605,,,,,,,,,,,,,1.6904262063607793e+18,18.698779248046876,5.913522338867187,23.00785903930664,18.635699462890624,1.690426206361305e+18,18.69930541992188,51.8575439453125,55.84260559082031,136.89094161987305,1.6904262063607793e+18,18.698779248046876,-2.440412372343538,-0.816318765149416,-0.1078816466993536,-2.444083034322621,0.5563229363134132,-0.110430860168617,-1.0856364236137588
3.75,1.6904262064108756e+18,18.748875732421876,-1.0985385152304172,-0.3081587711989879,1.404213243754804,1.690426206412129e+18,18.750129052734373,0.1972900390625,0.923333740234375,-0.17379150390625,1.6904262064108756e+18,18.748875732421876,2.9359085489192607,8.923603896517752,-2.806527025176883,1.6904262064108756e+18,18.748875732421876,-0.1157416429370641,-1.9846575736999512,2.0672345876693727,1.6904262064071196e+18,18.7451197265625,-0.1491914056241512,-1.9667642831802368,2.032625508308411,,,,,,,,,,,,,1.6904262064108756e+18,18.748875732421876,2.211328887939453,23.563593292236327,18.00426330566406,1.690426206408112e+18,18.74611201171875,48.387106323242186,56.21617126464844,136.45687255859374,1.6904262064108756e+18,18.748875732421876,-2.264740531355279,-0.792138590969076,-0.0702797789500773,-2.3779206432763536,0.5874661193318684,-0.1484843110532718,-1.1436084667191668
3.8,1.6904262064609723e+18,18.7989724609375,-1.0939654497742652,1.4116898047935962,-0.1866197776505351,1.690426206462226e+18,18.80022607421875,0.1550262451171875,1.1021881103515625,-0.2642425537109375,1.6904262064609723e+18,18.7989724609375,2.1313430431470275,9.23131492394924,-2.514338765630573,1.6904262064609723e+18,18.7989724609375,0.1919089049100875,-2.5510442733764647,2.6511215686798097,1.6904262064572165e+18,18.79521650390625,0.1744099408388137,-2.43727445602417,2.6517611503601075,,,,,,,,,,,,,1.6904262064609723e+18,18.7989724609375,-1.92957763671875,23.2819465637207,17.852166748046876,1.6904262064601208e+18,18.798120849609376,43.654571533203125,55.83458557128906,136.2565948486328,1.6904262064609723e+18,18.7989724609375,-2.0347354527668786,-0.7583927739836335,-0.0183176219789229,-2.270743753269657,0.6249373975801844,-0.18238369055355,-1.2275604700472882
3.85,1.690426206511069e+18,18.849068994140627,2.9685673651051525,1.436196118827462,0.3298419029578566,1.6904262065123228e+18,18.850322802734375,0.439678955078125,1.10732421875,-0.108392333984375,1.690426206511069e+18,18.849068994140627,1.5297484381064772,9.443565811105966,-2.1541337562085685,1.690426206511069e+18,18.849068994140627,0.1039277978241443,-2.9638901233673094,1.0105690896511077,1.6904262065073132e+18,18.845313037109378,0.132734340056777,-2.991571283340454,1.1792505383491516,,,,,,,,,,,,,1.690426206511069e+18,18.849068994140627,-6.380744934082031,22.6205078125,17.247274780273436,1.6904262065121316e+18,18.850131591796877,39.108804321289064,55.00497131347656,135.44832458496094,1.690426206511069e+18,18.849068994140627,-1.7920853012786335,-0.7258759482660958,0.0500877069020698,-2.1883273179056992,0.6474632524165272,-0.2256358549258453,-1.297990873502639
3.9,1.6904262065611658e+18,18.89916591796875,-1.2892063407757877,1.9165551556324956,4.662302279545516,1.6904262065624197e+18,18.900419580078125,-0.0748138427734375,1.1455596923828124,0.22628173828125,1.6904262065611658e+18,18.89916591796875,1.6541426165033877,9.484004672095775,-1.863719958988875,1.6904262065611658e+18,18.89916591796875,0.3691483378410339,-2.2148576974868774,0.1795818977057934,1.6904262065574098e+18,18.895409863281248,0.3393542513251305,-2.3309391498565675,0.1327630534768104,,,,,,,,,,,,,1.6904262065611658e+18,18.89916591796875,-8.918099212646485,21.813993072509767,16.21827392578125,1.6904262065641403e+18,18.902140234375,37.09281921386719,54.242495727539065,134.38720092773437,1.6904262065611658e+18,18.89916591796875,-1.7649924223287772,-0.7167047879784973,0.1032828896186375,-2.29750883717652,0.6362376984293712,-0.2657185273533759,-1.3136358293092374
3.95,1.6904262066112625e+18,18.949262402343752,-3.2415760585983096,0.4751932661527395,-1.3331677060294151,1.690426206612516e+18,18.95051606445313,-0.1807647705078125,0.998162841796875,-0.422296142578125,1.6904262066112625e+18,18.949262402343752,1.518828137128502,9.554835398026704,-1.599819168676436,1.6904262066112625e+18,18.949262402343752,0.0782091751694679,-1.0624202370643616,0.8326905012130738,1.6904262066075064e+18,18.945506396484372,0.1248957594856619,-1.0519629955291747,0.8041140079498291,,,,,,,,,,,,,1.6904262066112625e+18,18.949262402343752,-10.523213195800782,20.928540802001955,15.430679321289062,1.6904262066161487e+18,18.954148876953123,35.593624877929685,53.32969360351562,133.71045532226563,1.6904262066112625e+18,18.949262402343752,-1.722680347750042,-0.7057050244334928,0.1380685576678208,-2.3295344665195477,0.6351737641731002,-0.2817596727724364,-1.343856354190942
4.0,1.690426206661359e+18,18.99935927734375,-3.0116557469165324,-0.8963174391788243,-3.3114512373700733,1.690426206662613e+18,19.000613134765626,-0.13699951171875,0.89168701171875,-0.391656494140625,1.690426206661359e+18,18.99935927734375,1.1410358723460885,9.617406362038851,-1.536447818840742,1.690426206661359e+18,18.99935927734375,-0.0926360126584768,-2.44673011302948,1.2003623485565185,1.690426206657603e+18,18.9956033203125,-0.1119613682851195,-2.32424590587616,1.1945735931396484,,,,,,,,,,,,,1.690426206661359e+18,18.99935927734375,-12.492681121826172,20.162909698486327,14.467877197265626,1.6904262066629586e+18,19.00095849609375,33.42163848876953,52.67327880859375,132.7188835144043,1.690426206661359e+18,18.99935927734375,-1.5146256222387688,-0.6817345177817984,0.1726946848095794,-2.207848204010217,0.6417126063724121,-0.3053372791189596,-1.3742329363348724
4.05,1.690426206711456e+18,19.049456005859376,-0.7513098186942189,-0.3109080114549398,-1.0966711431494356,1.69042620671271e+18,19.050709814453125,0.013763427734375,0.9657379150390624,-0.28836669921875,1.690426206711456e+18,19.049456005859376,0.7696557542413472,9.673194417138696,-1.4125118763792517,1.690426206711456e+18,19.049456005859376,-0.0674614332616329,-2.816618633270264,1.2054868459701538,1.6904262067077002e+18,19.0457,-0.0420926450751721,-2.8504083156585693,1.198721718788147,,,,,,,,,,,,,1.690426206711456e+18,19.049456005859376,-15.60313301086426,19.232938385009767,12.82894287109375,1.6904262067097672e+18,19.047767138671876,30.656167602539064,51.802239990234376,131.1463653564453,1.690426206711456e+18,19.049456005859376,-1.2287390520684889,-0.6481643128349684,0.2289532880329177,-2.0674755036552313,0.6388197887309014,-0.3448133856027225,-1.4057930376792585
4.1,1.690426206761553e+18,19.099552880859378,-0.0619874065835773,0.274918647993803,-1.5423273491725324,1.6904262067628063e+18,19.100806591796875,0.031427001953125,1.0208526611328126,-0.267352294921875,1.690426206761553e+18,19.099552880859378,0.3345670683162286,9.696002928891778,-1.4248066805808246,1.690426206761553e+18,19.099552880859378,-0.1706303477287292,-2.4515612602233885,1.2626197338104248,1.6904262067577969e+18,19.095796875,-0.1871473103761672,-2.4241641044616697,1.2769421815872193,,,,,,,,,,,,,1.690426206761553e+18,19.099552880859378,-17.965629196166994,18.60274429321289,11.140097045898438,1.6904262067617754e+18,19.09977529296875,27.811663818359374,51.02610473632812,129.1465270996094,1.690426206761553e+18,19.099552880859378,-0.8292031859779545,-0.6101627780898782,0.2779643949920801,-1.8005112053075834,0.6367943960219848,-0.3802044534768772,-1.420445049092993
4.15,1.6904262068116495e+18,19.1496494140625,0.4195036445391178,0.0264445886200666,-0.0225047065009176,1.690426206812903e+18,19.150903076171875,0.04228515625,0.9856170654296876,-0.146881103515625,1.6904262068116495e+18,19.1496494140625,-0.028919710485984,9.704578215726611,-1.4083600758489967,1.6904262068116495e+18,19.1496494140625,0.1446961417794227,-2.953338623046875,1.0302820086479187,1.6904262068078935e+18,19.14589345703125,0.1306939881294965,-2.944401502609253,1.0499572157859802,,,,,,,,,,,,,1.6904262068116495e+18,19.1496494140625,-20.487871170043945,17.654830169677734,9.004838562011718,1.6904262068137856e+18,19.151785498046877,25.371380615234376,50.00238952636719,126.72637329101562,1.6904262068116495e+18,19.1496494140625,-0.4366346331643815,-0.5710113354037805,0.3297842415354899,-1.5494915901721822,0.6264523867771163,-0.4150231392212634,-1.4264031789594878
4.2,1.6904262068617462e+18,19.19974619140625,-1.0813481904189846,-0.4494616773337125,-0.6991537049689889,1.690426206863e+18,19.20099990234375,-0.2096221923828125,0.9333038330078124,-0.2109375,1.6904262068617462e+18,19.19974619140625,-0.3048944466005824,9.7072711080724,-1.35605881072551,1.6904262068617462e+18,19.19974619140625,0.1298123657703399,-2.48236722946167,0.9765225768089294,1.6904262068579904e+18,19.195990283203123,0.134299537539482,-2.5146857261657716,0.9605292797088624,,,,,,,,,,,,,1.6904262068617462e+18,19.19974619140625,-22.542220687866212,16.577902221679686,6.4990234375,1.6904262068657974e+18,19.203797314453123,23.44843444824219,48.90937805175781,124.34420166015624,1.6904262068617462e+18,19.19974619140625,-0.0957452581761766,-0.5333272569902597,0.3807088748612562,-1.3501841917913722,0.6086196460174977,-0.4470465323132827,-1.4283179227279994
4.25,1.690426206911843e+18,19.24984306640625,-2.7797980082052947,-0.8282776883667708,-0.8939786209677159,1.690426206913097e+18,19.251096875,-0.3489013671875,0.90594482421875,-0.229425048828125,1.690426206911843e+18,19.24984306640625,-0.6935003042367474,9.687931850638986,-1.347742145600766,1.690426206911843e+18,19.24984306640625,0.1550347357988357,-2.283382511138916,1.26500723361969,1.690426206908087e+18,19.246087109375,0.151356391608715,-2.274954891204834,1.2466412782669067,,,,,,,,,,,,,1.690426206911843e+18,19.24984306640625,-24.324966049194337,15.417820739746094,4.213644409179688,1.690426206912607e+18,19.25060693359375,21.804950714111328,47.84771728515625,122.27277755737305,1.690426206911843e+18,19.24984306640625,0.2769978274898997,-0.494356956660781,0.425794058074428,-1.098573656871983,0.5948786010112912,-0.4691361904943661,-1.4151622500914205
4.3,1.69042620696194e+18,19.29993984375,-1.1333571105726064,-0.4196851970380544,-0.072713792424649,1.690426206963193e+18,19.301193505859377,-0.20751953125,0.9441436767578124,-0.1334228515625,1.69042620696194e+18,19.29993984375,-1.1760299411595612,9.639127312363982,-1.3627298713742195,1.69042620696194e+18,19.29993984375,0.253525698184967,-2.4263562202453612,1.2923611879348755,1.690426206958184e+18,19.296183789062503,0.24613339304924,-2.417269229888916,1.313370943069458,,,,,,,,,,,,,1.69042620696194e+18,19.29993984375,-26.214099884033203,14.015321350097656,1.4959640502929688,1.6904262069594156e+18,19.297415478515624,20.132135009765623,46.53995056152344,119.73197021484376,1.69042620696194e+18,19.29993984375,0.6371706571513569,-0.4506936052390309,0.472443803475301,-0.8614727906431769,0.5801323887438962,-0.4865497054262766,-1.3859251994817143
4.35,1.6904262070120366e+18,19.3500365234375,-0.1031126716284453,0.1506000775033235,0.1655547485639154,1.6904262070132902e+18,19.351290136718752,-0.1735748291015625,1.005340576171875,-0.123809814453125,1.6904262070120366e+18,19.3500365234375,-1.5484076043212411,9.584942250094413,-1.3763324848517775,1.6904262070120366e+18,19.3500365234375,0.3320308506488799,-2.008442497253418,0.9195693731307985,1.6904262070082806e+18,19.346280468750003,0.3276447057723999,-2.054212141036987,0.9408811569213869,1.6904262070230497e+18,19.36104956054687,76.31200618948787,5.2022453942247235,-1.0,49.279919762130035,95.49343509878965,-1.0,47.10038991565032,1.1389917042935689,-122.96821095025275,0.7253201501248405,1.6904262070120366e+18,19.3500365234375,-27.457747650146484,12.792193603515624,-1.1204818725585937,1.6904262070114245e+18,19.34942426757813,18.88373718261719,45.275396728515624,116.94640197753908,1.6904262070120366e+18,19.3500365234375,0.89045490398917,-0.4104431483709835,0.5148929395214463,-0.7274706873348846,0.5600822213687175,-0.5024747230406794,-1.3578533299663638
4.4,1.6904262070621332e+18,19.400133251953125,-0.3147264883776008,0.3185554282420873,-0.412201738640964,1.690426207063387e+18,19.40138681640625,-0.214227294921875,1.0051727294921875,-0.202081298828125,1.6904262070621332e+18,19.400133251953125,-1.818297756628543,9.543849659823175,-1.3319443017143011,1.6904262070621332e+18,19.400133251953125,0.4684982717037201,-1.586926794052124,0.7094508886337281,1.6904262070583772e+18,19.396377294921876,0.4624209523200989,-1.5948688507080078,0.7271228671073914,,,,,,,,,,,,,1.6904262070621332e+18,19.400133251953125,-28.280571746826173,12.059675598144532,-3.085797119140625,1.6904262070634337e+18,19.401433447265624,18.0120849609375,44.4886962890625,114.83195495605467,1.6904262070621332e+18,19.400133251953125,1.0777511001903712,-0.3810024464361262,0.5481378554840777,-0.6326753715182132,0.5405043730589235,-0.5119321593030589,-1.3388038364256931
4.45,1.69042620711223e+18,19.450230126953123,0.7124270572660862,0.2309372336393594,-1.2163274209173025,1.6904262071134838e+18,19.451483837890624,-0.115997314453125,0.9914794921875,-0.25130615234375,1.69042620711223e+18,19.450230126953123,-1.99131974310711,9.521124617795945,-1.2457199580097198,1.69042620711223e+18,19.450230126953123,0.5108304977416992,-1.55600745677948,0.4024902403354645,1.690426207108474e+18,19.4464740234375,0.507865709066391,-1.5547980546951294,0.4349810302257538,,,,,,,,,,,,,1.69042620711223e+18,19.450230126953123,-28.818778228759765,11.481847381591797,-5.12596435546875,1.690426207115442e+18,19.4534419921875,17.59425048828125,44.068783569335935,112.78152770996094,1.69042620711223e+18,19.450230126953123,1.23392346648088,-0.3577525779785581,0.5765250249768036,-0.5590795913241351,0.5186971525672117,-0.5200380680060452,-1.3288989674390972
4.5,1.6904262071623268e+18,19.50032685546875,0.8012729524198173,0.0217391874080896,-1.3561649014484882,1.6904262071635804e+18,19.501580517578127,-0.1294342041015625,0.9699554443359376,-0.2471343994140625,1.6904262071623268e+18,19.50032685546875,-2.0066337197732924,9.530885782640576,-1.1422442544486373,1.6904262071623268e+18,19.50032685546875,0.5160661220550538,-1.2527605295181274,0.0674425361678003,1.6904262071585708e+18,19.4965708984375,0.5178741455078125,-1.272749376296997,0.0826548267155885,,,,,,,,,,,,,1.6904262071623268e+18,19.50032685546875,-29.042382431030273,11.41870346069336,-7.022195434570312,1.6904262071622515e+18,19.50025146484375,17.35422134399414,44.07925796508789,111.1407699584961,1.6904262071623268e+18,19.50032685546875,1.3505107499423583,-0.340846199563403,0.5983582861152165,-0.5173733539465986,0.4941723117248986,-0.5305587328191648,-1.333102990750629
4.55,1.6904262072124237e+18,19.550423486328125,0.5939431258262694,-0.1025071361768245,-1.266829966055751,1.690426207213677e+18,19.55167705078125,-0.1381866455078125,0.965472412109375,-0.2339202880859375,1.6904262072124237e+18,19.550423486328125,-1.942357296243608,9.55864542860806,-1.0138567540188137,1.6904262072124237e+18,19.550423486328125,0.4576023995876312,-0.9426393866539,-0.0845960330218076,1.6904262072086676e+18,19.54666748046875,0.4675202131271362,-0.9525112390518188,-0.0735289717093109,,,,,,,,,,,,,1.6904262072124237e+18,19.550423486328125,-29.316935348510743,11.761356353759766,-8.524380493164063,1.6904262072090596e+18,19.547059570312506,17.16571960449219,44.43898010253906,109.8368682861328,1.6904262072124237e+18,19.550423486328125,1.4439966784175144,-0.3310843720534723,0.6133497783097667,-0.4809047167006522,0.4720062234496588,-0.5397596258139633,-1.345458353816505
4.6,1.6904262072625203e+18,19.600520263671875,0.2809054965445399,0.2381167991060018,-1.7590891378824414,1.690426207263774e+18,19.601773876953125,-0.1659088134765625,1.0072601318359375,-0.28721923828125,1.6904262072625203e+18,19.600520263671875,-1.816935265329778,9.59307365100622,-0.9161020146138966,1.6904262072625203e+18,19.600520263671875,0.3144730120897293,-1.060469341278076,-0.2588801532983779,1.6904262072587643e+18,19.59676435546875,0.3282932460308075,-1.0278448224067689,-0.244338908791542,,,,,,,,,,,,,1.6904262072625203e+18,19.600520263671875,-29.37184829711914,12.427947998046877,-9.871270751953125,1.690426207261072e+18,19.599072265625,17.103555297851564,45.14082641601563,108.48306579589844,1.6904262072625203e+18,19.600520263671875,1.5069156844849858,-0.3235853639083427,0.623400771381277,-0.4671112843144523,0.4516258762451349,-0.5501207572754124,-1.3617781883345697
4.65,1.690426207312617e+18,19.650617041015625,0.109750794468671,0.3988467578619717,-1.8258572613234816,1.6904262073138708e+18,19.65187080078125,-0.1338836669921875,1.042376708984375,-0.261260986328125,1.690426207312617e+18,19.650617041015625,-1.5921804612654449,9.634414195463062,-0.8984149229147285,1.690426207312617e+18,19.650617041015625,0.2008757144212722,-1.2321656703948975,-0.45558762550354,1.690426207308861e+18,19.646861083984373,0.2038737148046493,-1.223899483680725,-0.4384759485721588,,,,,,,,,,,,,1.690426207312617e+18,19.650617041015625,-29.40012855529785,13.184705352783205,-11.2543701171875,1.690426207313085e+18,19.65108486328125,17.13065185546875,46.08055114746094,106.69870300292968,1.690426207312617e+18,19.650617041015625,1.5187460868134242,-0.312421890192269,0.6305109009959062,-0.5145318328702482,0.4284695169072508,-0.5667224557249189,-1.3832292342933077
4.7,1.690426207362714e+18,19.70071396484375,1.0866964524585008,1.439163619557023,-1.2174847011936456,1.6904262073639675e+18,19.701967578125,0.01788330078125,1.1355224609375,-0.2116485595703125,1.690426207362714e+18,19.70071396484375,-1.2531533082678168,9.685225046672224,-0.8841753413209318,1.690426207362714e+18,19.70071396484375,0.2705774277448654,-1.4218328237533568,-0.7475109934806824,1.690426207358958e+18,19.696957958984378,0.2639848828315734,-1.390615940093994,-0.712903356552124,,,,,,,,,,,,,1.690426207362714e+18,19.70071396484375,-28.893176651000974,14.274654388427734,-13.257551574707032,1.6904262073650944e+18,19.70309443359375,17.818014526367186,47.3622802734375,104.59659729003906,1.690426207362714e+18,19.70071396484375,1.4811318599209269,-0.300922649258758,0.6344537479984098,-0.61710870044871,0.4016037280523687,-0.5877896706887299,-1.413632340933536
4.75,1.6904262074128108e+18,19.750810693359373,1.9448231018352509,0.671284811860323,-1.212850553200021,1.6904262074140644e+18,19.7520642578125,0.131585693359375,1.046771240234375,-0.20552978515625,1.6904262074128108e+18,19.750810693359373,-0.6818219879657029,9.745706695641877,-0.8270093197052926,1.6904262074128108e+18,19.750810693359373,0.2287008047103881,-1.8851162672042847,-1.3201872825622558,1.6904262074090547e+18,19.747054736328124,0.2480239182710646,-1.840663146972656,-1.2792749643325805,,,,,,,,,,,,,1.6904262074128108e+18,19.750810693359373,-27.74418067932129,16.340269470214842,-15.589871215820311,1.690426207411903e+18,19.749902954101564,19.05066680908203,49.46649932861328,102.38761520385742,1.6904262074128108e+18,19.750810693359373,1.2789565667556595,-0.2889306812524589,0.633652368348866,-0.8997871088264219,0.3648289362911817,-0.6177635462478904,-1.460159470662334
4.8,1.6904262074629076e+18,19.800907763671876,0.4978549423538707,0.2198646354830264,-1.4438797321326284,1.6904262074641613e+18,19.802161279296875,0.037188720703125,1.0173309326171875,-0.23636474609375,1.6904262074629076e+18,19.800907763671876,0.1196696313530998,9.766350489028692,-0.8474011257054656,1.6904262074629076e+18,19.800907763671876,-0.2565957202808931,-2.115850019454956,-1.5108803749084472,1.690426207459152e+18,19.797151757812504,-0.208773186802864,-2.1114079475402834,-1.5158576250076294,,,,,,,,,,,,,1.6904262074629076e+18,19.800907763671876,-25.29950256347656,19.15455551147461,-18.59475250244141,1.690426207458714e+18,19.796713916015623,21.4101806640625,52.002133178710935,99.6300262451172,1.6904262074629076e+18,19.800907763671876,0.5850950690220234,-0.2693774536176944,0.6247815670186257,-1.6932983598431548,0.3215537646192068,-0.6582856566073036,-1.480379757243024
4.85,1.6904262075130043e+18,19.851004345703124,-1.7000744196601958,0.623046207678914,-0.651384691060707,1.6904262075142582e+18,19.852258154296873,-0.0908355712890625,1.058331298828125,-0.166961669921875,1.6904262075130043e+18,19.851004345703124,0.8913729173683003,9.706887077190874,-1.0527780500525237,1.6904262075130043e+18,19.851004345703124,-0.7360708355903626,-1.6796985387802124,-1.218083429336548,1.6904262075092485e+18,19.847248339843752,-0.7053945541381836,-1.7301119327545167,-1.2481135129928589,,,,,,,,,,,,,1.6904262075130043e+18,19.851004345703124,-22.586849212646484,20.88507232666016,-21.920455932617188,1.690426207510724e+18,19.848723974609378,24.093359375,53.624612426757814,96.29127197265626,1.6904262075130043e+18,19.851004345703124,0.1099590107985855,-0.2408511444233577,0.6097925975075638,-2.263827952481708,0.2874562017304745,-0.6980454587873413,-1.4292791496581674
4.9,1.6904262075631012e+18,19.901101171875,-2.1496203996634486,-0.1079798977255821,-0.4698437510444224,1.6904262075643548e+18,19.9023546875,-0.0727508544921875,0.9489837646484376,-0.19517822265625,1.6904262075631012e+18,19.901101171875,1.4667040405897795,9.58267372064054,-1.4652098857353626,1.6904262075631012e+18,19.901101171875,-1.2953265190124512,-0.8934372067451477,-0.8239527940750122,1.6904262075593452e+18,19.897345166015626,-1.2509220838546753,-0.9127605319023132,-0.8603673696517944,,,,,,,,,,,,,1.6904262075631012e+18,19.901101171875,-20.868725204467772,21.249554443359376,-24.761199951171875,1.6904262075627372e+18,19.900737109375,25.85430908203125,53.7470947265625,93.02824096679689,1.6904262075631012e+18,19.901101171875,0.0784816085522149,-0.2113462053413953,0.5915141148002915,-2.357659010603522,0.2744062471357388,-0.7280028067993272,-1.3577196268670282
4.95,1.6904262076131978e+18,19.951197998046876,-2.000286104312241,0.7131696631008386,-0.1946239281469583,1.6904262076144517e+18,19.9524517578125,0.0059661865234375,1.057501220703125,-0.242889404296875,1.6904262076131978e+18,19.951197998046876,1.819344226167649,9.404247361674308,-2.0923474251550434,1.6904262076131978e+18,19.951197998046876,-1.5745452642440796,-1.0837692022323608,-0.3193729013204574,1.6904262076094418e+18,19.9474419921875,-1.575088334083557,-1.055639624595642,-0.3512669503688811,,,,,,,,,,,,,1.6904262076131978e+18,19.951197998046876,-19.863177490234374,20.17920684814453,-28.14840087890625,1.6904262076147482e+18,19.95274814453125,26.990805053710936,52.31585693359375,89.24685974121094,1.6904262076131978e+18,19.951197998046876,0.1988248177926813,-0.1740920869050293,0.5754107600570004,-2.288101141914212,0.2759154191128362,-0.7498492896792632,-1.284010152157346
5.0,1.6904262076632947e+18,20.001294677734375,-0.7282313016672431,1.3458307882475853,1.821701982887983,1.6904262076645484e+18,20.002548242187498,0.1512237548828125,1.0633148193359374,-0.01827392578125,1.6904262076632947e+18,20.001294677734375,2.0799081563684343,9.212418967916964,-2.63635896682471,1.6904262076632947e+18,20.001294677734375,-1.185943031311035,-1.4733296155929565,-0.3188125371932983,1.690426207659539e+18,19.99753872070313,-1.2356057167053225,-1.4369245767593384,-0.2830319717526435,,,,,,,,,,,,,1.6904262076632947e+18,20.001294677734375,-18.33155937194824,18.08836975097656,-31.930035400390626,1.6904262076615596e+18,19.9995595703125,28.46584701538086,50.33338165283203,85.85838317871094,1.6904262076632947e+18,20.001294677734375,0.317775495660536,-0.1303096226571483,0.5659634067786142,-2.2386914019511543,0.2713294450281659,-0.7673965547753916,-1.2212472249753552
5.05,1.6904262077133914e+18,20.05139135742188,-1.518849004559964,-0.3173095782864094,3.868430104901493,1.6904262077146452e+18,20.052645117187502,0.1141937255859375,0.8499237060546875,0.0437957763671875,1.6904262077133914e+18,20.05139135742188,2.518338882730454,9.045312226057648,-2.8272216719681023,1.6904262077133914e+18,20.05139135742188,-0.4364861965179443,-1.402232336997986,-0.5461654007434845,1.690426207709635e+18,20.047635400390625,-0.4747152328491211,-1.4358616828918458,-0.5555896759033203,,,,,,,,,,,,,1.6904262077133914e+18,20.05139135742188,-15.593817138671875,16.697368621826172,-34.90382537841797,1.6904262077083702e+18,20.046370166015624,31.125360107421876,49.281130981445315,83.3763214111328,1.6904262077133914e+18,20.05139135742188,0.3360393048586437,-0.0966528668460538,0.5552460362945364,-2.2979124705003753,0.2514968541737877,-0.7867562458141918,-1.174268944775611
5.1,1.6904262077634885e+18,20.101488330078126,-1.1895555292651057,-1.0765703121459484,0.109697749107182,1.690426207764742e+18,20.102741943359376,0.1646484375,0.799920654296875,-0.2740570068359375,1.6904262077634885e+18,20.101488330078126,2.8653172431543465,8.948704786217808,-2.8064065552154185,1.6904262077634885e+18,20.101488330078126,-0.2710102796554565,-1.232199001312256,-0.1524811003357172,1.6904262077597322e+18,20.0977322265625,-0.2780174553394317,-1.1999354600906371,-0.1928514249622822,,,,,,,,,,,,,1.6904262077634885e+18,20.101488330078126,-13.339022064208985,16.315000915527342,-36.80635375976563,1.690426207760379e+18,20.09837890625,33.298440551757814,48.92494201660156,81.52991333007813,1.6904262077634885e+18,20.101488330078126,0.3287634404427743,-0.0755151085533482,0.5483657957741167,-2.366443060287875,0.2305840392512085,-0.8002145227944775,-1.149410032830422
5.15,1.6904262078135852e+18,20.15158515625,-1.0317447312784194,-1.932448422717452,1.3490180107554792,1.6904262078148388e+18,20.152838720703123,0.22618408203125,0.6963958740234375,-0.122149658203125,1.6904262078135852e+18,20.15158515625,3.0224932503688335,8.939796906427741,-2.666517023009956,1.6904262078135852e+18,20.15158515625,-0.0445961737306788,-1.5670566320419312,0.3077256321907043,1.6904262078098294e+18,20.147829150390624,-0.056058101914823,-1.5567314863204955,0.2771900027990341,,,,,,,,,,,,,1.6904262078135852e+18,20.15158515625,-11.066749572753906,15.962348175048827,-38.40001831054688,1.6904262078123884e+18,20.150388525390625,35.70980529785156,48.578366088867185,79.93080444335938,1.6904262078135852e+18,20.15158515625,0.3502538423627779,-0.0520330584808097,0.5515376016560771,-2.4187821648527077,0.2040078567002174,-0.8070616733251746,-1.1471831655448894
5.2,1.6904262078636815e+18,20.201681738281252,0.7671991840955614,-2.2930075939524173,0.5752133785933256,1.6904262078649352e+18,20.2029353515625,0.4152374267578125,0.6946075439453125,-0.2133331298828125,1.6904262078636815e+18,20.201681738281252,2.9956179275682566,9.012454380168318,-2.442810325146019,1.6904262078636815e+18,20.201681738281252,0.0237776132300495,-1.337540006637573,0.5700844645500183,1.6904262078599258e+18,20.197925732421872,0.0250021826475858,-1.343499970436096,0.5684341430664063,,,,,,,,,,,,,1.6904262078636815e+18,20.201681738281252,-9.142540740966798,15.828898620605468,-39.509326171875,1.6904262078643994e+18,20.20239931640625,37.82390441894531,48.422140502929686,78.57433166503907,1.6904262078636815e+18,20.201681738281252,0.3877357354733003,-0.0295773096418428,0.5626932150166739,-2.4576077547686466,0.1748487174714851,-0.8073565320058507,-1.165624494946215
5.25,1.6904262079137787e+18,20.251778662109377,2.561711897476018,-1.4485692781883477,0.1406763571211695,1.690426207915032e+18,20.253032226562503,0.613201904296875,0.81201171875,-0.1921539306640625,1.6904262079137787e+18,20.251778662109377,2.935884349713027,9.086970750422475,-2.2300062172468005,1.6904262079137787e+18,20.251778662109377,0.0417307228781283,-1.5603579044342042,0.3443502575159072,1.690426207910023e+18,20.248022705078125,0.0304272548761218,-1.51281259059906,0.3757043808698654,,,,,,,,,,,,,1.6904262079137787e+18,20.251778662109377,-7.025399780273437,15.739421844482422,-40.83739013671875,1.6904262079112105e+18,20.24921044921875,39.98592376708984,48.40696334838867,77.39317321777344,1.6904262079137787e+18,20.251778662109377,0.4254660101045517,-0.0082061588025632,0.5732794305245262,-2.492153461124288,0.1468932865644288,-0.805964660771948,-1.1853257840068951
5.3,1.6904262079638753e+18,20.301875390625,4.6186923580780626,0.6174515148639679,0.01947609400779,1.6904262079651292e+18,20.303129150390625,0.7744232177734375,1.001580810546875,-0.217041015625,1.6904262079638753e+18,20.301875390625,3.0897691479754448,9.110100515406131,-1.9006601349818704,1.6904262079638753e+18,20.301875390625,0.1087066374719142,-1.9818288564682007,-0.1949007257819175,1.6904262079601193e+18,20.2981193359375,0.1299216721206903,-1.9790152788162232,-0.1569015778601169,,,,,,,,,,,,,1.6904262079638753e+18,20.301875390625,-3.614529418945312,16.01948699951172,-42.01953582763672,1.690426207958019e+18,20.296019287109377,43.18968811035156,48.689291381835936,76.36238403320313,1.6904262079638753e+18,20.301875390625,0.4191704796274992,0.0161965422727075,0.5750089140746617,-2.5899816120480037,0.1080948380770566,-0.8106869757665203,-1.1916290457852594
5.35,1.6904262080139722e+18,20.351972265625,2.2147398206624387,-1.1557847186362742,-0.6295091785348952,1.690426208015226e+18,20.35322587890625,0.525384521484375,0.7558502197265625,-0.2027923583984375,1.6904262080139722e+18,20.351972265625,3.387991806928217,9.050276570466757,-1.6667096617750825,1.6904262080139722e+18,20.351972265625,-0.3376223266124725,-1.5035892963409423,-0.2776284113526344,1.6904262080102162e+18,20.348216308593752,-0.3157916754484177,-1.5446553707122803,-0.2978436708450317,1.6904262080248922e+18,20.36289208984375,76.6004453189671,5.450866405844092,-1.0,49.279913032182286,95.78187422826886,-1.0,51.324403821838,1.1004510795093434,-122.96821542672409,0.7323442674308152,1.6904262080139722e+18,20.351972265625,0.5100440979003906,15.892510986328125,-42.91100006103515,1.6904262080100306e+18,20.348030615234375,47.29096374511719,48.493185424804686,75.49797668457032,1.6904262080139722e+18,20.351972265625,0.4139534150221505,0.0435260874134641,0.5672556282560641,-2.6841994386383714,0.0736493174735791,-0.8190107104714078,-1.1755119913323306
5.4,1.690426208064069e+18,20.402069091796875,1.4472009708967803,2.5988854438334705,3.7064463174660505,1.6904262080653228e+18,20.403322802734372,0.5762969970703125,1.4753875732421875,0.3066497802734375,1.690426208064069e+18,20.402069091796875,3.5720032140982148,8.996981851939559,-1.5680050450733305,1.690426208064069e+18,20.402069091796875,-0.0647339522838592,-1.2658092737197877,-0.2810027558356524,1.690426208060313e+18,20.398313134765623,-0.1069292165338993,-1.2228208541870118,-0.2326159289106726,,,,,,,,,,,,,1.690426208064069e+18,20.402069091796875,3.751551818847656,15.222673797607422,-43.73240203857422,1.6904262080620388e+18,20.400038964843752,50.481936645507815,47.83751220703125,74.6798828125,1.690426208064069e+18,20.402069091796875,0.4366892303796698,0.0671699539162423,0.5614218384552998,-2.7277851030148543,0.0513330532963982,-0.8231537504767044,-1.1616060882229868
5.45,1.6904262081141658e+18,20.452165673828127,-0.5394207067480684,4.506948782356977,-0.6737829415124654,1.6904262081154196e+18,20.453419482421875,0.12459716796875,1.030975341796875,-0.2578521728515625,1.6904262081141658e+18,20.452165673828127,3.9024362440431113,8.893458232196569,-1.3563502533397078,1.6904262081141658e+18,20.452165673828127,-0.0697309978306293,-0.0901814699172973,-0.3966506093740463,1.6904262081104097e+18,20.44840971679687,-0.0581848993897438,-0.3263940095901489,-0.4807520166039467,,,,,,,,,,,,,1.6904262081141658e+18,20.452165673828127,6.606127166748047,15.046581268310549,-43.893490600585935,1.6904262081140495e+18,20.452049462890624,53.34679260253906,47.578704833984375,74.50321655273437,1.6904262081141658e+18,20.452165673828127,0.4103014390461954,0.0816230835960701,0.5478524417684459,-2.806975284109372,0.0293825915846883,-0.8320441171359116,-1.1358755927620152
5.5,1.690426208164263e+18,20.502262646484375,-6.14533891387254,-0.4547448199814558,2.72452567676872,1.6904262081655163e+18,20.503516357421876,-0.233392333984375,0.9914764404296876,0.043994140625,1.690426208164263e+18,20.502262646484375,3.6777250453117487,8.95918912154436,-1.5317642787474393,1.690426208164263e+18,20.502262646484375,0.3605035066604614,1.932334566116333,0.8871600210666657,1.6904262081605066e+18,20.498506689453126,0.3386117160320281,1.8668591499328613,0.82424675822258,,,,,,,,,,,,,1.690426208164263e+18,20.502262646484375,4.966979217529297,15.156970977783203,-44.42561492919922,1.690426208166059e+18,20.504058935546873,50.05492248535156,48.096920776367185,73.83374938964843,1.690426208164263e+18,20.502262646484375,0.4132211986360232,0.0638308451331562,0.556497880043785,-2.7460563425760616,0.0516286949179918,-0.826635871879035,-1.152230949817329
5.55,1.6904262082143593e+18,20.55235932617187,-4.642108831048608,0.9989839160227774,-1.901032592329979,1.6904262082156132e+18,20.55361318359375,-0.128466796875,0.9898529052734376,-0.387567138671875,1.6904262082143593e+18,20.55235932617187,3.020007044963241,9.161767924992445,-1.7532373431143164,1.6904262082143593e+18,20.55235932617187,0.1892685588449239,2.109133005142212,0.9873199820518492,1.6904262082106035e+18,20.548603369140626,0.2230237618088721,2.154690313339233,1.0137263894081117,,,,,,,,,,,,,1.6904262082143593e+18,20.55235932617187,-0.906085968017578,16.24329605102539,-45.07275848388672,1.690426208212865e+18,20.550864990234377,44.46527099609375,49.05207824707031,73.33824920654297,1.6904262082143593e+18,20.55235932617187,0.4366792434858347,0.0277189358453514,0.581047591387094,-2.614161273673149,0.0908230179628996,-0.8081447325409228,-1.2063570437109672
5.6,1.6904262082644562e+18,20.602456298828123,-3.1216991822692752,-0.5981079319685698,-0.9181775349397956,1.69042620826571e+18,20.603709912109373,-0.04281005859375,0.8948089599609375,-0.26090087890625,1.6904262082644562e+18,20.602456298828123,2.374229570098966,9.293938611835838,-2.0263612166458365,1.6904262082644562e+18,20.602456298828123,-0.1876626223325729,1.6695011138916016,1.1641198754310609,1.6904262082607002e+18,20.59870029296875,-0.1721099808812141,1.7006205797195435,1.1448179483413696,,,,,,,,,,,,,1.6904262082644562e+18,20.602456298828123,-6.490451049804688,16.347962951660158,-45.358087158203126,1.69042620825967e+18,20.597669970703123,39.55521240234375,48.951150512695314,73.09490966796875,1.6904262082644562e+18,20.602456298828123,0.5283358219516003,0.0031885735863673,0.6018432341960017,-2.4330159674929623,0.1287974416139784,-0.7880190976312338,-1.2461887788869317
5.65,1.690426208314553e+18,20.652553173828124,-0.7152482521666587,-0.2416551439130305,0.2600967803065478,1.6904262083158067e+18,20.65380673828125,0.097198486328125,0.9372314453125,-0.220745849609375,1.690426208314553e+18,20.652553173828124,1.6638910387708248,9.39423999620974,-2.2602128179749843,1.690426208314553e+18,20.652553173828124,-0.0706372410058975,1.6680224657058715,1.0899166345596314,1.690426208310797e+18,20.648797119140625,-0.0866087665781378,1.6597579956054689,1.090597414970398,,,,,,,,,,,,,1.690426208314553e+18,20.652553173828124,-11.521006774902345,15.59385986328125,-45.385519409179686,1.6904262083116785e+18,20.64967846679688,34.58222351074219,48.174871826171874,73.09904174804687,1.690426208314553e+18,20.652553173828124,0.6851536881704812,-0.0141119432203327,0.6234471016816157,-2.2035346414164727,0.1623561206842759,-0.7645639482570457,-1.2798708668431569
5.7,1.6904262083646495e+18,20.702649755859376,0.9519614534720034,0.4090968168151378,-0.8788068584772943,1.6904262083659034e+18,20.7039033203125,0.2263275146484375,1.0094451904296875,-0.334722900390625,1.6904262083646495e+18,20.702649755859376,0.9305996772350368,9.468570956120493,-2.3698852280582487,1.6904262083646495e+18,20.702649755859376,0.0282765194773674,1.6973896265029906,0.8682890355587005,1.6904262083608937e+18,20.69889375,0.0315055681858211,1.7206471681594848,0.9474325299263,,,,,,,,,,,,,1.6904262083646495e+18,20.702649755859376,-16.619207000732423,14.897791290283203,-44.71936187744141,1.6904262083636849e+18,20.70168491210938,29.291949462890624,47.47083740234375,73.86170349121093,1.6904262083646495e+18,20.702649755859376,0.8641315654577444,-0.0370480080765601,0.6434827520142328,-1.943570994708222,0.1959095058052726,-0.7389087765606143,-1.3075138022701904
5.75,1.690426208414747e+18,20.752746875000003,-1.9254139355838296,-0.2485682843023538,0.2803522465759515,1.6904262084160005e+18,20.75400048828125,-0.245989990234375,0.934185791015625,-0.1969085693359375,1.690426208414747e+18,20.752746875000003,0.5485686350651829,9.483123680703638,-2.43522337714836,1.690426208414747e+18,20.752746875000003,-0.0512821987271308,1.2956398725509644,0.3899949997663497,1.690426208410991e+18,20.748990917968747,-0.0488880731165408,1.3263913869857789,0.3458216920495033,,,,,,,,,,,,,1.690426208414747e+18,20.752746875000003,-20.30166206359863,14.448414611816409,-44.05903625488281,1.6904262084156915e+18,20.753691699218752,25.19822387695313,46.947122192382814,74.60943603515625,1.690426208414747e+18,20.752746875000003,0.9436322227924708,-0.0585366505087771,0.6494719681692415,-1.792294970566014,0.2239797528684477,-0.7242263109722628,-1.3132176045338342
5.8,1.6904262084648435e+18,20.8028435546875,-1.3184724750095604,0.0128615858519077,1.7485170950463411,1.6904262084660974e+18,20.804097412109375,-0.0710052490234375,0.97720947265625,-0.0409332275390625,1.6904262084648435e+18,20.8028435546875,0.1158953123192582,9.48837806487441,-2.4723439950487016,1.6904262084648435e+18,20.8028435546875,-0.0075887778773903,1.476500391960144,0.5392220079898834,1.6904262084610875e+18,20.799087548828123,-0.011379421269521,1.4447119235992432,0.565972113609314,,,,,,,,,,,,,1.6904262084648435e+18,20.8028435546875,-23.834620666503906,13.682999420166016,-43.14665222167969,1.690426208462499e+18,20.8004990234375,21.93484115600586,46.15047454833984,75.53274154663086,1.6904262084648435e+18,20.8028435546875,1.0565107134400962,-0.0759562876802647,0.6573157863537207,-1.6175869655332036,0.2489261298685066,-0.7071628262132776,-1.3153291228614117
5.85,1.6904262085149404e+18,20.85294052734375,-0.8203385951566696,-0.1620043333798647,1.7918662028466166,1.690426208516194e+18,20.854194140625,-0.1361358642578125,0.934881591796875,-0.109710693359375,1.6904262085149404e+18,20.85294052734375,-0.3228029241388384,9.496428100339177,-2.421571166988462,1.6904262085149404e+18,20.85294052734375,0.2371952772140503,1.7149188756942748,0.5577948033809662,1.6904262085111844e+18,20.849184423828124,0.211497439444065,1.728932809829712,0.5403751492500305,,,,,,,,,,,,,1.6904262085149404e+18,20.85294052734375,-28.277015686035156,13.230072784423829,-41.36033325195312,1.6904262085093064e+18,20.847306494140625,17.836276245117187,45.860418701171874,77.28612365722657,1.6904262085149404e+18,20.85294052734375,1.1564931821870028,-0.1016257651746768,0.6628520845119112,-1.4377618339602758,0.2775291697651218,-0.6878289929200508,-1.318608311071435
5.9,1.6904262085650376e+18,20.903037451171876,-0.1991319947689771,-0.95412197789371,-1.6194555093602836,1.690426208566291e+18,20.904291015625,-0.0758575439453125,0.8704071044921875,-0.4310394287109375,1.6904262085650376e+18,20.903037451171876,-0.8116401641727238,9.51656523015201,-2.2188387511877714,1.6904262085650376e+18,20.903037451171876,0.3634820759296417,1.178564703464508,0.7527669548988343,1.6904262085612815e+18,20.899281298828125,0.369285362958908,1.2489985466003417,0.7384979844093322,,,,,,,,,,,,,1.6904262085650376e+18,20.903037451171876,-32.41227722167969,13.079682159423829,-38.932131958007815,1.6904262085613143e+18,20.8993142578125,13.773931884765624,45.699639892578126,79.72532348632812,1.6904262085650376e+18,20.903037451171876,1.303269734130836,-0.1278193264741098,0.6721022891302291,-1.2198234443011973,0.2993818136561186,-0.6649854715330139,-1.3269663382770114
5.95,1.690426208615134e+18,20.953133935546873,1.2485127451464533,-0.8967056786179542,-1.9025491635988652,1.690426208616387e+18,20.9543875,-0.0085784912109375,0.8834381103515625,-0.3713470458984375,1.690426208615134e+18,20.953133935546873,-1.2896929698619992,9.514275073388218,-1.990572314966768,1.690426208615134e+18,20.953133935546873,0.5127635598182678,0.2983189933001995,0.9188067078590392,1.690426208611378e+18,20.9493779296875,0.4914660155773163,0.3758316807448864,0.9035162210464478,,,,,,,,,,,,,1.690426208615134e+18,20.953133935546873,-35.112264251708986,12.606637573242187,-37.5504653930664,1.6904262086133243e+18,20.95132451171875,11.20755920410156,45.20643920898438,80.97993469238281,1.690426208615134e+18,20.953133935546873,1.495495056683724,-0.1405960438537558,0.686391178690075,-0.9961411943741708,0.3075667840861232,-0.6437711323570243,-1.3259991750010145
6.0,1.6904262086652308e+18,21.00323095703125,1.4391790509349107,-0.4374505708312988,-1.2196343827342986,1.6904262086664845e+18,21.004484472656248,-0.0354736328125,0.942803955078125,-0.2802459716796875,1.6904262086652308e+18,21.00323095703125,-1.754555089262426,9.49172258222282,-1.72595194898203,1.6904262086652308e+18,21.00323095703125,0.501977926492691,-0.0593906998634338,0.9320723533630372,1.6904262086614748e+18,20.99947490234375,0.5211480259895325,-0.0631228307262062,0.95220627784729,,,,,,,,,,,,,1.6904262086652308e+18,21.00323095703125,-36.291604614257814,12.02699966430664,-37.275787353515625,1.6904262086653343e+18,21.00333466796875,9.820828247070311,44.425027465820314,81.18985900878906,1.6904262086652308e+18,21.00323095703125,1.7185716818874834,-0.1425684815309409,0.7058634012147504,-0.7781309011890556,0.3019644102340324,-0.6246526303828588,-1.3167212785740277
6.05,1.6904262087153275e+18,21.0533275390625,1.4183721759408712,0.6724753660452365,-0.5628674871785939,1.6904262087165814e+18,21.054581396484373,-0.0811920166015625,1.0431671142578125,-0.22518310546875,1.6904262087153275e+18,21.0533275390625,-2.1128402949899434,9.451705044611096,-1.5374458607412875,1.6904262087153275e+18,21.0533275390625,0.2948367387056351,0.0117916235700249,0.5882884860038757,1.6904262087115717e+18,21.049571484375,0.3094916462898254,0.0233783990144729,0.6080997705459594,,,,,,,,,,,,,1.6904262087153275e+18,21.0533275390625,-37.814378356933595,11.18252182006836,-37.295179748535155,1.6904262087121408e+18,21.05014093017578,8.38541030883789,43.74155807495117,81.16707992553711,1.6904262087153275e+18,21.0533275390625,1.872288794467471,-0.143071676499609,0.7205135710571909,-0.6295055296269216,0.2976147107652059,-0.6097497438981933,-1.3009580979090676
6.1,1.6904262087654244e+18,21.103424365234375,1.1849872861145436,0.5123440746086836,-0.640632396286875,1.6904262087666785e+18,21.104678125,-0.141729736328125,0.9900360107421876,-0.1856903076171875,1.6904262087654244e+18,21.103424365234375,-2.335850038178712,9.413986197782751,-1.445106190574616,1.6904262087654244e+18,21.103424365234375,0.1634869992733001,-0.0731279335916041,0.384887170791626,1.6904262087616684e+18,21.09966831054688,0.1647426635026931,-0.0680547386407851,0.3954471945762633,,,,,,,,,,,,,1.6904262087654244e+18,21.103424365234375,-39.23143997192383,10.443521118164062,-37.39299011230469,1.6904262087589473e+18,21.096947363281252,7.171978759765625,43.0240478515625,81.07395935058594,1.6904262087654244e+18,21.103424365234375,1.9529779748027427,-0.1418022976441876,0.7294792289102628,-0.5541994944033961,0.2948739921676695,-0.6006604197491947,-1.28687640952797
6.15,1.6904262088155213e+18,21.153521337890623,-0.3183220578776299,0.1498641644442081,-0.1976251265634596,1.690426208816775e+18,21.154774951171873,-0.2910064697265625,0.9842132568359376,-0.1810302734375,1.6904262088155213e+18,21.153521337890623,-2.5306281632001695,9.37648455928862,-1.357169314637631,1.6904262088155213e+18,21.153521337890623,0.2200936526060103,0.0294811552390455,0.5066074550151825,1.6904262088117652e+18,21.149765380859375,0.2201772660017013,0.0276704559102654,0.4932621121406555,,,,,,,,,,,,,1.6904262088155213e+18,21.153521337890623,-40.277200317382814,9.981411743164063,-37.47227020263672,1.6904262088109604e+18,21.1489603515625,6.121343994140625,42.59055786132812,81.00011901855468,1.6904262088155213e+18,21.153521337890623,2.0189463983850575,-0.1410509843564161,0.7372800620919804,-0.4925981525919448,0.2922963835756301,-0.5925112695891712,-1.2735513754408991
6.2,1.690426208865618e+18,21.203617871093748,0.8655299698227644,0.4221933804666995,-0.9883973770438134,1.6904262088668718e+18,21.2048716796875,-0.1873138427734375,0.9966583251953124,-0.229595947265625,1.690426208865618e+18,21.203617871093748,-2.7698780287632347,9.322985725717544,-1.255358636292368,1.690426208865618e+18,21.203617871093748,0.2246386498212814,-0.0849875515326857,0.4462948560714722,1.690426208861862e+18,21.199861914062502,0.2170376121997833,-0.0378222674131393,0.4579269826412201,,,,,,,,,,,,,1.690426208865618e+18,21.203617871093748,-41.89281158447265,9.44061050415039,-37.45047454833984,1.6904262088629724e+18,21.200972509765627,4.468316650390625,42.04133911132813,81.01370239257812,1.690426208865618e+18,21.203617871093748,2.087445161982118,-0.1409940359106677,0.7461471321002212,-0.425740763506815,0.2906587015810901,-0.582142665194013,-1.2554512351289282
6.25,1.6904262089157148e+18,21.253714990234375,0.9496925879180432,1.0011170702069996,-2.643626912001073,1.690426208911959e+18,21.249958923339843,-0.2030906677246093,1.0523948669433594,-0.4219398498535156,1.6904262089157148e+18,21.253714990234375,-2.92996665010184,9.281200827720165,-1.2015207654122264,1.6904262089157148e+18,21.253714990234375,0.1697349548339843,-0.6269940614700318,0.3138101235032081,1.690426208911959e+18,21.249958984375,0.1923176780343055,-0.5978906869888305,0.3382538974285126,,,,,,,,,,,,,1.6904262089157148e+18,21.253714990234375,-42.54602127075195,9.239718627929689,-37.841555786132815,1.6904262089149844e+18,21.252984326171873,3.9844757080078126,41.8292236328125,80.43736572265625,1.6904262089157148e+18,21.253714990234375,2.1467709668423076,-0.1341810003095785,0.7549369354393625,-0.3891987849388155,0.2818542129822251,-0.5767123194982428,-1.2419792262744846
6.3,1.6904262089658117e+18,21.3038115234375,1.6151405395445226,2.100945742152333,-2.5825952571593223,1.690426208957046e+18,21.2950458984375,-0.1321319580078125,1.1560882568359374,-0.3971343994140625,1.6904262089658117e+18,21.3038115234375,-2.9068123351988193,9.272858531310558,-1.3147159866333007,1.6904262089658117e+18,21.3038115234375,-0.1176104515790938,-1.1190077900886537,-0.2294642105698585,1.6904262089620557e+18,21.300055517578123,-0.0983575133606791,-1.0553030371665957,-0.1791213385760783,,,,,,,,,,,,,1.6904262089658117e+18,21.3038115234375,-42.09125289916992,9.094670867919922,-39.157345581054685,1.690426208961795e+18,21.299794982910157,4.545024871826172,41.747093200683594,78.99763488769531,1.6904262089658117e+18,21.3038115234375,2.1526792884733412,-0.1183290105476573,0.7585440280759974,-0.4249043003601593,0.2698150673551597,-0.5811567950890753,-1.2393435245538955
6.35,1.6904262090159086e+18,21.353908496093748,2.6002316561976073,1.5409112279903887,-2.111666779618114,1.690426209007143e+18,21.34514267578125,0.007177734375,1.115460205078125,-0.3821014404296875,1.6904262090159086e+18,21.353908496093748,-2.4565495121631025,9.351478712847827,-1.6189783056895433,1.6904262090159086e+18,21.353908496093748,-0.3424256712198257,-1.6808098316192628,-1.4384740591049194,1.6904262090121526e+18,21.3501525390625,-0.3273442536592483,-1.6528883457183838,-1.302218568325043,1.6904262090264586e+18,21.364458740234376,76.44723345898092,5.388925939800549,-1.0,49.27988424487383,95.62866236828268,-1.0,52.95918400482342,1.0724136527512582,-122.96825591656146,1.0233361733282462,1.6904262090159086e+18,21.353908496093748,-39.761087036132814,10.092739868164063,-41.68812713623047,1.6904262090086026e+18,21.3466025390625,6.976675415039063,42.88629150390625,76.54064025878907,1.6904262090159086e+18,21.353908496093748,2.059709808730907,-0.0921670459554545,0.7498395745354993,-0.5859580978586221,0.2508356242542023,-0.6050431398517748,-1.2652313985406043
6.4,1.6904262090660052e+18,21.404005322265625,3.8481624513506887,0.262003403032422,0.7671458756992221,1.6904262090572396e+18,21.395239501953125,0.277191162109375,0.9943572998046876,-0.123443603515625,1.6904262090660052e+18,21.404005322265625,-1.1496578405603393,9.52911327846229,-1.947247903216332,1.6904262090660052e+18,21.404005322265625,-0.2596002399921416,-2.021328163146973,-3.201342153549194,1.6904262090622492e+18,21.4002494140625,-0.2687418222427368,-2.0084301233291626,-3.1249599933624266,,,,,,,,,,,,,1.6904262090660052e+18,21.404005322265625,-34.52263412475586,14.12539291381836,-44.87270050048828,1.690426209060611e+18,21.398611181640625,12.50579833984375,47.20533752441406,73.34881591796875,1.6904262090660052e+18,21.404005322265625,1.6713026178129184,-0.0669878152835015,0.7131348239186185,-1.0541575872736753,0.2230275845508182,-0.6606539618731924,-1.3331312091227434
6.45,1.690426209116102e+18,21.454102099609376,-3.9739422096610064,3.6965353688871856,-1.1216098280251026,1.6904262091073362e+18,21.44533623046875,-0.3272003173828125,1.3456146240234377,-0.335687255859375,1.690426209116102e+18,21.454102099609376,0.5756122517642704,9.53672550703168,-2.167304904853254,1.690426209116102e+18,21.454102099609376,-0.6035543441772461,-1.5764922499656675,-2.8045387744903563,1.690426209112346e+18,21.450346142578123,-0.5734097898006439,-1.669495940208435,-2.8962703227996824,,,,,,,,,,,,,1.690426209116102e+18,21.454102099609376,-26.251112747192384,19.522286224365235,-47.79420776367188,1.6904262091126216e+18,21.450621484375,20.917572021484375,52.50779724121094,70.46973266601563,1.690426209116102e+18,21.454102099609376,0.9879160176327212,-0.0434787724226505,0.6584536997754286,-1.8168830681047428,0.1919121807458679,-0.7260588405040546,-1.3363248562515568
6.5,1.690426209166199e+18,21.504198974609373,-2.7280579133220018,1.820678835772276,1.1167248616886138,1.690426209157433e+18,21.495433398437505,-0.11876220703125,1.142529296875,-0.1417449951171875,1.690426209166199e+18,21.504198974609373,1.750325868807882,9.321875601744653,-2.474596157889664,1.690426209166199e+18,21.504198974609373,-0.7720960259437561,-0.0558573685586452,-1.9770943880081175,1.690426209162443e+18,21.50044296875,-0.7633313536643982,-0.0853258177638053,-2.013214683532715,,,,,,,,,,,,,1.690426209166199e+18,21.504198974609373,-20.197877883911133,21.864501190185543,-49.22140197753906,1.690426209164634e+18,21.50263388671875,26.61573181152344,54.61853637695312,69.19186401367188,1.690426209166199e+18,21.504198974609373,0.6471288715357062,-0.0292100955446255,0.6126447022740786,-2.182407592912439,0.1878153509768192,-0.7670128470026263,-1.2560385265864351
6.55,1.6904262092162954e+18,21.554295458984377,-1.4562347567018863,0.6489965245890618,1.7249076714000104,1.69042620920753e+18,21.5455298828125,0.1141693115234375,0.993072509765625,-0.1057891845703125,1.6904262092162954e+18,21.554295458984377,2.5853703040567035,9.039739394361376,-2.7770096049827337,1.6904262092162954e+18,21.554295458984377,-0.5467204213142395,-0.4030315279960632,-1.5781458616256714,1.6904262092125394e+18,21.550539501953125,-0.5763247787952424,-0.3591085731983184,-1.598866057395935,,,,,,,,,,,,,1.6904262092162954e+18,21.554295458984377,-17.122158432006835,22.57487564086914,-49.83253021240235,1.6904262092114468e+18,21.549446655273435,30.082908630371097,55.378700256347656,68.47039794921875,1.6904262092162954e+18,21.554295458984377,0.5106349536513526,-0.0216006016913882,0.5748969718469372,-2.318847730090821,0.1938639833872798,-0.7945398783668671,-1.173216305875341
6.6,1.6904262092663926e+18,21.60439248046875,-3.2257720187798142,-1.2675448363268376,1.1079611834487315,1.6904262092576271e+18,21.59562700195313,0.0129638671875,0.771160888671875,-0.17369384765625,1.6904262092663926e+18,21.60439248046875,3.2992139208963516,8.791802276795506,-2.820294035435915,1.6904262092663926e+18,21.60439248046875,-0.1906381800770759,-1.078554117679596,-1.0689185976982116,1.6904262092626363e+18,21.600636474609377,-0.2090757712721824,-1.0352434754371642,-1.1171667337417603,,,,,,,,,,,,,1.6904262092663926e+18,21.60439248046875,-12.675605010986327,23.54259872436523,-50.78560791015625,1.6904262092582605e+18,21.596260546875,34.19318542480469,56.269345092773435,67.60535583496093,1.6904262092663926e+18,21.60439248046875,0.425977677001363,-0.0105861139315854,0.5460744424255255,-2.433446584140122,0.1830723140084076,-0.8173454875482801,-1.11201557607024
6.65,1.6904262093164892e+18,21.654489355468748,-4.098505110301375,-2.204814346714616,1.738107169356346,1.6904262093077235e+18,21.645723535156247,-0.03544921875,0.6599761962890625,-0.095269775390625,1.6904262093164892e+18,21.654489355468748,3.775557116962671,8.655840848593115,-2.641858324119448,1.6904262093164892e+18,21.654489355468748,0.0984978776425122,-1.0640878677368164,-0.3535160358995199,1.6904262093127334e+18,21.650733398437502,0.0753256464377045,-1.0842551589012146,-0.415446738153696,,,,,,,,,,,,,1.6904262093164892e+18,21.654489355468748,-7.888040924072266,24.75585479736328,-51.72818603515625,1.690426209310274e+18,21.64827412109375,38.937353515625,57.49942321777344,66.6778564453125,1.6904262093164892e+18,21.654489355468748,0.3805012677028035,0.0026382111084325,0.5308315535028468,-2.5309003392737006,0.1602120468632497,-0.8321515980862554,-1.081483961641042
