,seconds_elapsed_rounded,accelerometer_time,accelerometer_seconds_elapsed,accelerometer_z,accelerometer_y,accelerometer_x,accelerometeruncalibrated_time,accelerometeruncalibrated_seconds_elapsed,accelerometeruncalibrated_z,accelerometeruncalibrated_y,accelerometeruncalibrated_x,gravity_time,gravity_seconds_elapsed,gravity_z,gravity_y,gravity_x,gyroscope_time,gyroscope_seconds_elapsed,gyroscope_z,gyroscope_y,gyroscope_x,gyroscopeuncalibrated_time,gyroscopeuncalibrated_seconds_elapsed,gyroscopeuncalibrated_z,gyroscopeuncalibrated_y,gyroscopeuncalibrated_x,location_time,location_seconds_elapsed,location_bearingAccuracy,location_speedAccuracy,location_verticalAccuracy,location_horizontalAccuracy,location_speed,location_bearing,location_altitude,location_longitude,location_latitude,magnetometer_time,magnetometer_seconds_elapsed,magnetometer_z,magnetometer_y,magnetometer_x,magnetometeruncalibrated_time,magnetometeruncalibrated_seconds_elapsed,magnetometeruncalibrated_z,magnetometeruncalibrated_y,magnetometeruncalibrated_x,orientation_time,orientation_seconds_elapsed,orientation_qz,orientation_qy,orientation_qx,orientation_qw,orientation_roll,orientation_pitch,orientation_yaw,totalacceleration_time,totalacceleration_seconds_elapsed,totalacceleration_z,totalacceleration_y,totalacceleration_x
0,-1.3,,,,,,,,,,,,,,,,,,,,,,,,,,1.6887552597827512e+18,-1.283248779296875,0.0,0.0,2.151979923248291,8.37600040435791,1.4560513496398926,353.59747314453125,325.1000061035156,-122.9198344,49.2794414,,,,,,,,,,,,,,,,,,,,,,,,
1,-0.0,,,,,,,,,,,,,,,,,,,,,,,,,,,,,,,,,,,,,,,,,,,,,,,,,,,,,,,,1.688755261089027e+18,0.02302703857421875,7.6021469831466675,4.278516530990601,-1.6980067789554596
2,0.1,1.6887552612014828e+18,0.13548291015625002,-0.2949986457824707,0.35361313819885254,-0.15115714073181152,1.688755261184181e+18,0.11818115234375,9.636694590250652,4.269992033640544,-2.2301106452941895,1.6887552612014902e+18,0.135490234375,8.671504974365234,4.0089545249938965,-2.2292144298553467,1.6887552611798482e+18,0.11384804687500001,0.6342308491468429,1.172067129611969,-1.2271977484226226,1.6887552611885048e+18,0.1225047607421875,0.7454846873879433,1.3019829392433167,-1.3519593179225922,,,,,,,,,,,,1.688755261184055e+18,0.1180548095703125,-25.691166241963703,-29.133599281311035,31.337732632954914,1.688755261184055e+18,0.1180548095703125,-280.2197621663411,64.18419965108235,-100.66626485188802,1.6887552612101294e+18,0.14412939453125,0.8514595031738281,0.2418203055858612,-0.0181917529553174,0.4649824500083923,0.2822282612323761,-0.4059401452541351,-2.083447933197021,1.6887552611668782e+18,0.10087817382812499,9.407382011413574,4.579503679275513,-2.624088907241821
3,0.2,1.6887552612706972e+18,0.20469746907552086,-1.494466225306193,0.9507242838541666,-1.2912882566452026,1.688755261262045e+18,0.1960447998046875,6.679165601730347,5.523332595825195,-3.747858166694641,1.688755261262045e+18,0.1960447998046875,8.51945161819458,4.289865414301555,-2.2771785457928977,1.688755261266372e+18,0.20037216796875001,0.3484680803492665,-0.39434405565261843,0.5091256380081177,1.688755261266372e+18,0.20037216796875001,0.34742960836738346,-0.3900985479354858,0.51141636967659,,,,,,,,,,,,1.6887552612640614e+18,0.1980614013671875,-24.35851936340332,-30.07665958404541,31.6943790435791,1.6887552612640614e+18,0.1980614013671875,-278.8871124267578,63.24113883972168,-100.30961685180664,1.6887552612706972e+18,0.20469746907552086,0.8539474407831827,0.25642049064238864,-0.00910715537611395,0.4525132377942403,0.27774428576231,-0.44419408837954205,-2.104047695795695,1.688755261262045e+18,0.1960447998046875,6.673183441162109,5.540680487950643,-3.8106698195139566
4,0.30000000000000004,1.688755261365865e+18,0.29986494140625003,0.07075567245483401,-1.031132125854492,0.5304699420928956,1.6887552613658647e+18,0.29986494954427084,8.013662735621134,3.236292600631714,-1.0410772636532784,1.6887552613658647e+18,0.29986494954427084,8.553809324900309,4.48154338200887,-1.7034282088279724,1.6887552613615409e+18,0.2955406494140625,0.6319909940163294,-0.16213381787141162,0.3719405581553777,1.6887552613615409e+18,0.2955406494140625,0.6309219847122828,-0.1578832132120927,0.37425676733255386,,,,,,,,,,,,1.6887552613640637e+18,0.29806379394531246,-25.915239524841308,-31.732199287414552,28.785899543762206,1.6887552613640637e+18,0.29806379394531246,-280.44383544921874,61.58559875488281,-103.21809768676758,1.688755261365865e+18,0.29986494140625003,0.8639082193374634,0.24936226308345794,0.01476751258596774,0.43714010119438174,0.21634360551834103,-0.45980663895606994,-2.1540237426757813,1.6887552613658647e+18,0.29986494954427084,8.007680654525757,3.253640611966451,-1.103888861835003
5,0.4,1.688755261461031e+18,0.39503100585937495,-2.777066787083944,0.435285210609436,-0.07913469274838765,1.6887552614696817e+18,0.4036815592447917,5.44058084487915,6.1170516808827715,-1.8081763337055843,1.6887552614696817e+18,0.4036815592447917,8.221428473790487,5.1814539432525635,-1.2651630143324535,1.6887552614653576e+18,0.39935758463541665,0.5106324386239672,-0.34279722596208256,-0.49093201756477356,1.6887552614653576e+18,0.39935758463541665,0.5095634285244159,-0.3385465970883767,-0.4886158406734467,,,,,,,,,,,,1.6887552614640558e+18,0.39805590820312503,-23.200739288330077,-35.49589920043945,25.95793914794922,1.6887552614640558e+18,0.39805590820312503,-277.7293365478516,57.82189865112305,-106.04605865478516,1.688755261461031e+18,0.39503100585937495,0.8661157091458639,0.2820231964190801,0.04450127109885212,0.4098689754803975,0.18237989147504166,-0.552780399719874,-2.205500602722168,1.6887552614696817e+18,0.4036815592447917,5.434598724047343,6.134399652481079,-1.8709879020849864
6,0.5,1.6887552615648515e+18,0.4988517659505208,-0.20967562993367514,0.9661599397659302,-4.445202171802521,1.688755261564845e+18,0.4988451171875,9.061978149414063,5.341617631912231,-6.722874355316162,1.688755261564845e+18,0.4988451171875,8.737347030639649,3.9312536239624025,-1.8921669840812683,1.6887552615691756e+18,0.5031756591796875,-1.4704290280739467,2.872135668992996,0.12754355991880106,1.6887552615691756e+18,0.5031756591796875,-1.4714980572462082,2.8763608038425446,0.12983432784676543,,,,,,,,,,,,1.6887552615640622e+18,0.49806203613281247,-26.354439163208006,-30.619559288024902,28.374759483337403,1.6887552615640622e+18,0.49806203613281247,-280.88303527832034,62.698239135742185,-103.62923889160156,1.6887552615648515e+18,0.4988517659505208,0.871544231971105,0.2351285070180893,-0.012338605709373951,0.4264149417479833,0.245865561068058,-0.408920481801033,-2.1795721848805747,1.688755261564845e+18,0.4988451171875,9.055996322631836,5.358965682983398,-6.785686063766479
7,0.6000000000000001,1.6887552616686666e+18,0.6026666666666666,-5.266037384668986,-4.405072172482808,0.6974532604217529,1.688755261660019e+18,0.5940189615885417,0.5471587715049585,-0.23499508698781332,-6.417949199676514,1.688755261660019e+18,0.5940189615885417,6.334412574768066,3.60448427995046,-6.271003007888794,1.6887552616643428e+18,0.598342724609375,-2.4308160543441772,6.291301155090332,-1.146594077348709,1.6887552616643428e+18,0.598342724609375,-2.431854557991028,6.295546627044677,-1.144303348660469,,,,,,,,,,,,1.6887552616640596e+18,0.5980595703125,-5.685199880599976,-25.82007942199707,41.46901893615723,1.6887552616640596e+18,0.5980595703125,-260.2137939453125,67.49771881103516,-90.53497848510742,1.6887552616686666e+18,0.6026666666666666,0.7864610254764557,0.35022178788979846,-0.2557720318436622,0.42669062813123065,0.8494356473286947,-0.34211254119873047,-1.9997666279474895,1.688755261660019e+18,0.5940189615885417,0.5411767189701399,-0.21764721473058066,-6.48076065381368
8,0.7000000000000001,1.6887552617724826e+18,0.7064823811848958,4.503192047278087,-8.819501797358194,1.9174636999766033,1.6887552617638372e+18,0.697837158203125,5.849454383055369,-8.8118683497111,-6.860521713892619,1.6887552617638372e+18,0.697837158203125,2.8962724606196084,0.22587001696228984,-9.313986460367838,1.6887552617595123e+18,0.6935121663411458,-2.2734622160593667,2.3333270847797394,-3.7242672443389893,1.6887552617595123e+18,0.6935121663411458,-2.2745312650998435,2.337577591339747,-3.7219510475794473,,,,,,,,,,,,1.6887552617640604e+18,0.6980604736328125,13.156479835510254,-15.605019760131835,45.83295936584473,1.6887552617640604e+18,0.6980604736328125,-241.3721160888672,77.7127784729004,-86.17103958129883,1.6887552617724826e+18,0.7064823811848958,0.7001916666825613,0.276710477968057,-0.5353199541568756,0.37666793167591095,1.3013077179590862,0.014637563688059666,-2.167778968811035,1.6887552617638372e+18,0.697837158203125,5.843472381432851,-8.794520616531372,-6.923333168029785
9,0.8,1.6887552618676518e+18,0.8016519531249999,13.978693962097168,3.039890503883362,-7.692448234558105,1.6887552618676544e+18,0.8016545003255208,15.204294363657633,-0.7188438177108765,-16.041782061258953,1.6887552618676544e+18,0.8016545003255208,1.8805104494094849,-2.820468326409658,-9.1475248336792,1.6887552618633306e+18,0.7973304036458333,-2.3749167720476785,0.8964447242518266,-2.626567820707957,1.6887552618633306e+18,0.7973304036458333,-2.3759603798389435,0.9006698752442995,-2.62425164381663,,,,,,,,,,,,1.6887552618640594e+18,0.798059423828125,11.681499767303468,-9.548939895629882,47.083459091186526,1.6887552618640594e+18,0.798059423828125,-242.84709625244142,83.76885833740235,-84.92053756713867,1.6887552618676518e+18,0.8016519531249999,0.6830218434333801,0.10092725530266755,-0.6348502159118652,0.34293754100799556,1.3932068347930908,0.3017807245254516,-2.46698260307312,1.6887552618676544e+18,0.8016545003255208,15.198312163352966,-0.7014959255854286,-16.104593912760418
10,0.9,1.6887552619628193e+18,0.8968192138671874,-0.9346312085787455,-3.5875502824783325,1.7040266195933025,1.6887552619714737e+18,0.9054737955729166,0.8679964343706766,-7.615257779757182,-6.444967985153198,1.6887552619714737e+18,0.9054737955729166,2.3750538428624473,-3.88729190826416,-8.674805959065756,1.688755261967147e+18,0.9011471761067709,-1.1243483734627566,-0.6441064849495888,2.251191198825836,1.688755261967147e+18,0.9011471761067709,-1.1253919526934624,-0.63988134264946,2.253481924533844,,,,,,,,,,,,1.6887552619640596e+18,0.8980597167968749,11.718099689483642,-2.332639974355698,47.853279495239256,1.6887552619640596e+18,0.8980597167968749,-242.81049499511718,90.9851577758789,-84.1507194519043,1.6887552619628193e+18,0.8968192138671874,0.6609522600968679,0.08319228763381636,-0.6227157314618429,0.4082920551300049,1.3394312461217244,0.40884340306123096,-2.3613102038701377,1.6887552619714737e+18,0.9054737955729166,0.8620144128799438,-7.597909728686015,-6.507779677708943
11,1.0,1.6887552620666396e+18,1.0006394856770833,-5.211218019326528,-3.0023367404937744,-0.09647846221923828,1.6887552620666394e+18,1.000639306640625,-1.9962122924625874,-7.843792057037353,-7.2540812492370605,1.6887552620666394e+18,1.000639306640625,3.12618088722229,-5.371084213256836,-7.551608562469482,1.6887552620709663e+18,1.0049664306640624,-2.492533802986145,-1.371137931322058,-1.1966850409905117,1.6887552620709663e+18,1.0049664306640624,-2.4935773611068726,-1.3669128082692623,-1.1943942805131276,,,,,,,,,,,,1.688755262064062e+18,0.9980621582031249,8.269159746170043,8.233779740333556,47.74347915649414,1.688755262064062e+18,0.9980621582031249,-246.25943603515626,101.55157775878907,-84.26051788330078,1.6887552620666396e+18,1.0006394856770833,0.6307712395985922,0.025271312954525147,-0.5912564297517141,0.4994198828935623,1.202389617760976,0.5946310609579086,-2.2147481044133506,1.6887552620666394e+18,1.000639306640625,-2.0021942891180515,-7.826444482803344,-7.316892623901367
12,1.1,1.6887552621704548e+18,1.1044546305338543,-5.5682969490687055,-0.4188864231109619,-6.931217114130656,1.6887552621618084e+18,1.0958082682291668,-3.017847813665867,-7.717750231424968,-12.615957736968994,1.6887552621618084e+18,1.0958082682291668,2.955682714780172,-7.247637828191121,-5.885631243387858,1.688755262166131e+18,1.100131005859375,-1.4683062553405761,-1.0984273351728917,-1.4459180176258086,1.688755262166131e+18,1.100131005859375,-1.4693752527236938,-1.0941818356513977,-1.443596762418747,,,,,,,,,,,,1.6887552621640576e+18,1.0980576660156252,5.708379888534546,18.052339553833008,46.097699356079104,1.6887552621640576e+18,1.0980576660156252,-248.82021484375,111.3701385498047,-85.90629806518555,1.6887552621704548e+18,1.1044546305338543,0.6038380364576975,-0.11694259693225222,-0.5902557571729025,0.5213707586129507,1.1385580499966939,0.8596114913622538,-2.2885916233062744,1.6887552621618084e+18,1.0958082682291668,-3.023829941948255,-7.700402498245239,-12.678769588470459
13,1.2000000000000002,1.6887552622656246e+18,1.19962470703125,3.5339685916900634,3.9116620063781737,-6.6568522453308105,1.6887552622656233e+18,1.1996232096354167,8.326524198055267,-4.08524610598882,-12.354642073313395,1.6887552622656233e+18,1.1996232096354167,1.6903329491615295,-7.963348786036174,-5.463038444519043,1.6887552622612992e+18,1.195299031575521,-0.037339136004447916,2.6335164109865823,0.2216677169005076,1.6887552622612992e+18,1.195299031575521,-0.03840815524260207,2.6377161145210266,0.22400937229394904,,,,,,,,,,,,1.6887552622640573e+18,1.1980573974609374,13.416339778900147,22.384559631347656,44.12495918273926,1.6887552622640573e+18,1.1980573974609374,-241.11225433349608,115.70235900878906,-87.8790382385254,1.6887552622656246e+18,1.19962470703125,0.5382610201835633,-0.12398176044225688,-0.6389354348182679,0.5340924143791199,1.3046005487442016,0.9567975997924805,-2.332366704940796,1.6887552622656233e+18,1.1996232096354167,8.320542176564535,-4.067898233731587,-12.417453130086264
14,1.3,1.68875526236079e+18,1.2947901611328125,0.023640657464663112,0.9885002772013346,0.17950069904327393,1.6887552623694436e+18,1.3034435628255208,1.1583255728085835,-6.692425807317098,-5.667898893356323,1.6887552623694436e+18,1.3034435628255208,0.9303781092166901,-7.665748914082845,-6.046844720840454,1.6887552623651174e+18,1.2991175130208334,0.4305327335993449,0.618424691259861,-0.2555962058249861,1.6887552623651174e+18,1.2991175130208334,0.42948917547861737,0.6226752996444702,-0.2532800071251889,,,,,,,,,,,,1.6887552623640596e+18,1.2980597412109376,21.541539573669432,21.59887981414795,42.20711898803711,1.6887552623640596e+18,1.2980597412109376,-232.9870574951172,114.91667785644532,-89.79687805175782,1.68875526236079e+18,1.2947901611328125,0.4987742056449254,-0.059825990969936016,-0.6757608751455942,0.5392468770345052,1.4410391251246135,0.9085332751274109,-2.30286713441213,1.6887552623694436e+18,1.3034435628255208,1.1523435016473134,-6.67507791519165,-5.73071042696635
15,1.4000000000000001,1.6887552624646083e+18,1.3986083984375,0.5323664397001265,3.661663770675659,-0.898334821065267,1.6887552624646077e+18,1.3986079589843752,0.974237710237503,-3.280799078941345,-7.489415168762207,1.6887552624646077e+18,1.3986079589843752,0.40862519592046737,-7.440877056121826,-6.375110721588134,1.688755262468939e+18,1.4029390055338542,0.5572872757911682,0.12120585143566132,-0.8313112482428551,1.688755262468939e+18,1.4029390055338542,0.5562437176704407,0.12543100118637085,-0.8290204803148905,,,,,,,,,,,,1.6887552624640604e+18,1.3980604003906252,23.803419494628905,18.550099754333495,43.14529914855957,1.6887552624640604e+18,1.3980604003906252,-230.7251754760742,111.86789779663086,-88.85869750976562,1.6887552624646083e+18,1.3986083984375,0.5110288063685099,-0.06453784058491385,-0.6966832478841146,0.49906177322069806,1.538088281949361,0.865209142367045,-2.435309966405233,1.6887552624646077e+18,1.3986079589843752,0.9682556986808777,-3.2634511947631837,-7.552226829528808
16,1.5,1.6887552625684308e+18,1.5024310302734376,0.5594204068183899,2.3086830774943032,-2.2444070180257163,1.6887552625597778e+18,1.4937776285807292,0.7239285409450531,-4.261617104212443,-9.013663212458292,1.6887552625597778e+18,1.4937776285807292,-0.030310700337092055,-6.912355184555054,-6.954652309417725,1.6887552625641042e+18,1.4981041015624998,1.0072862386703492,0.3289814781397581,0.24443772435188293,1.6887552625641042e+18,1.4981041015624998,1.0062172293663025,0.33319643922150133,0.24672847390174865,,,,,,,,,,,,1.6887552625640602e+18,1.498060205078125,26.04577922821045,14.142239761352538,42.942779541015625,1.6887552625640602e+18,1.498060205078125,-228.48281707763672,107.46003952026368,-89.0612190246582,1.6887552625684308e+18,1.5024310302734376,0.5151659150918325,-0.026218134094960915,-0.714904397726059,0.4717482974131902,1.6045601963996887,0.7778063913186392,-2.4605245192845664,1.6887552625597778e+18,1.4937776285807292,0.7179464971025785,-4.244269092877706,-9.076474905014038
17,1.6,1.688755262672246e+18,1.6062462158203126,-3.1251609722773233,0.8083138863245646,1.2955419222513835,1.688755262663596e+18,1.5975962320963542,-3.3551361560821533,-4.984050114949544,-7.083253542582194,1.688755262663596e+18,1.5975962320963542,0.16292312213530144,-5.937765757242839,-7.795923153559367,1.6887552626592748e+18,1.5932748616536456,1.3238977193832397,-0.7767151755591234,-0.16394095992048577,1.6887552626592748e+18,1.5932748616536456,1.3228286902109783,-0.7724391035735607,-0.16165021869043505,,,,,,,,,,,,1.688755262664061e+18,1.59806103515625,23.494759941101073,7.954399728775025,44.63369865417481,1.688755262664061e+18,1.59806103515625,-231.0338348388672,101.27219848632812,-87.37029724121093,1.688755262672246e+18,1.6062462158203126,0.5567963421344757,0.014259386264408584,-0.7061876455942789,0.43642695248126984,1.5690245827039082,0.6446867684523264,-2.4559414784113565,1.688755262663596e+18,1.5975962320963542,-3.3611181378364563,-4.966702143351237,-7.1460652351379395
18,1.7000000000000002,1.6887552627674104e+18,1.701410302734375,-0.35709025859832766,2.9659523963928223,2.0529010772705076,1.688755262767412e+18,1.701411865234375,0.9584251766403517,-3.078366366835932,-5.873482306798299,1.688755262767412e+18,1.701411865234375,1.1863048871358235,-5.60579792658488,-7.945188283920288,1.6887552627630922e+18,1.6970924479166667,-0.7764860937992731,-1.5581645170847576,-0.2777909735838572,1.6887552627630922e+18,1.6970924479166667,-0.7775550739218792,-1.5539393623669941,-0.2754493194321791,,,,,,,,,,,,1.688755262764058e+18,1.6980583007812498,15.901479530334473,5.169139957427978,47.18105888366699,1.688755262764058e+18,1.6980583007812498,-238.62711486816406,98.48693923950195,-84.82293701171875,1.6887552627674104e+18,1.701410302734375,0.6132609724998475,-0.008088752673938859,-0.6699368834495545,0.41755383610725405,1.4465062618255615,0.6063279032707214,-2.4843909740448,1.688755262767412e+18,1.701411865234375,0.9524431079626083,-3.0610183599152756,-5.936293840408325
19,1.8,1.688755262862585e+18,1.7965850830078125,-0.26208845774332684,-4.319812536239624,-1.4948585033416748,1.6887552628712353e+18,1.8052352294921876,0.7620143095652262,-10.910673220952352,-8.38195792833964,1.6887552628712353e+18,1.8052352294921876,1.458311140537262,-7.080103317896525,-6.622187852859497,1.6887552628669092e+18,1.8009093424479168,-1.5389731874068577,0.025249103705088333,-0.24406611422697702,1.6887552628669092e+18,1.8009093424479168,-1.5400167157252629,0.029474246005217235,-0.2417499249180158,,,,,,,,,,,,1.6887552628640586e+18,1.7980584960937498,12.840499687194825,13.968999671936036,46.05255889892578,1.6887552628640586e+18,1.7980584960937498,-241.68809661865234,107.28679733276367,-85.95143966674804,1.688755262862585e+18,1.7965850830078125,0.5855111877123514,-0.08568603855868177,-0.653680274883906,0.47116000950336456,1.3830639123916626,0.7990658283233643,-2.4591219425201416,1.6887552628712353e+18,1.8052352294921876,0.7560322831074396,-10.893324931462606,-8.444769620895386
20,1.9000000000000001,1.688755262966399e+18,1.900399169921875,-0.5560612281163534,0.09959610303243001,-1.1404621601104736,1.6887552629663977e+18,1.9003978027343749,1.385324653983116,-7.7085977554321286,-7.133123874664307,1.6887552629663977e+18,1.9003978027343749,1.7297432661056518,-7.619161987304688,-5.928379058837891,1.6887552629707297e+18,1.904729777018229,-0.7764351765314738,-0.8928304761648178,-0.17407114431262008,1.6887552629707297e+18,1.904729777018229,-0.7775041858355204,-0.8886053214470545,-0.17178039749463392,,,,,,,,,,,,1.6887552629640612e+18,1.8980611572265627,9.69289984703064,17.57165946960449,45.24125862121582,1.6887552629640612e+18,1.8980611572265627,-244.8356918334961,110.88945846557617,-86.76273803710937,1.688755262966399e+18,1.900399169921875,0.5867361426353455,-0.14186875149607656,-0.6342419584592184,0.48276132841904956,1.320654034614563,0.89319908618927,-2.476513147354126,1.6887552629663977e+18,1.9003978027343749,1.3793426215648652,-7.691249752044678,-7.195935440063477
21,2.0,1.6887552630702195e+18,2.0042197265625,-0.387404998143514,1.2165499528249104,-0.7827344735463461,1.6887552630615685e+18,1.995568522135417,1.446760396162669,-6.52672282854716,-6.489335060119629,1.6887552630615685e+18,1.995568522135417,1.840701123078664,-7.888945897420247,-5.532655795415242,1.6887552630658985e+18,1.9998984375,-0.16478089727461334,-0.11267409399151798,-0.06466008424758912,1.6887552630658985e+18,1.9998984375,-0.16584991663694376,-0.10845912545919416,-0.06233879998326301,,,,,,,,,,,,1.6887552630640584e+18,1.9980581787109375,8.566839742660523,20.047039604187013,44.318939208984375,1.6887552630640584e+18,1.9980581787109375,-245.96175689697264,113.36483764648438,-87.68505935668945,1.6887552630702195e+18,2.0042197265625,0.5854457517464956,-0.16749585171540574,-0.6230551103750864,0.49090899527072906,1.2826592127482097,0.9404997726281484,-2.4714088439941406,1.6887552630615685e+18,1.995568522135417,1.4407783150672913,-6.509374936421712,-6.552146514256795
22,2.1,1.6887552631653857e+18,2.0993857421874997,-1.1149936676025392,2.7487825393676757,-0.7072470188140869,1.6887552631653878e+18,2.0993878173828127,0.8323034842809042,-5.498706479867299,-5.796114404996236,1.6887552631653878e+18,2.0993878173828127,1.3556780119736989,-8.27526569366455,-5.046257575352986,1.6887552631610627e+18,2.0950628662109376,-1.3873767803112669,-0.2940552632013957,-1.304248183965683,1.6887552631610627e+18,2.0950628662109376,-1.3884203483661015,-0.28985554973284405,-1.3019574383894603,,,,,,,,,,,,1.6887552631640622e+18,2.0980620361328124,9.118279838562012,21.931939315795898,43.17701873779297,1.6887552631640622e+18,2.0980620361328124,-245.41031494140626,115.24973907470704,-88.8269775390625,1.6887552631653857e+18,2.0993857421874997,0.5729871273040772,-0.20794724822044372,-0.6298395156860351,0.48036292791366575,1.351865577697754,1.0042701363563538,-2.5778282642364503,1.6887552631653878e+18,2.0993878173828127,0.8263214031855265,-5.481358468532562,-5.858925938606262
23,2.2,1.6887552632605532e+18,2.1945531819661457,0.43003690242767334,2.7065888245900473,0.09743932882944743,1.6887552632692032e+18,2.203203125,1.377966769039631,-5.985346635182698,-3.6837505102157593,1.6887552632692032e+18,2.203203125,0.9163876672585806,-9.2209841410319,-3.1847249269485474,1.6887552632648804e+18,2.19888037109375,-1.7317011555035908,-0.5153666362166405,-0.15284357592463493,1.6887552632648804e+18,2.19888037109375,-1.7327447533607483,-0.5110905940334002,-0.1505273797859748,,,,,,,,,,,,1.6887552632640576e+18,2.1980574462890625,8.605879735946655,29.97051944732666,37.982259368896486,1.6887552632640576e+18,2.1980574462890625,-245.92271423339844,123.2883186340332,-94.02173767089843,1.6887552632605532e+18,2.1945531819661457,0.5319964786370596,-0.3035574704408645,-0.608921488126119,0.5033684819936752,1.357178548971812,1.2128393054008484,-2.6456923882166543,1.6887552632692032e+18,2.203203125,1.3719846655925114,-5.9679988622665405,-3.7465620835622153
24,2.3000000000000003,1.6887552633643686e+18,2.2983686116536455,1.8358119527498882,-3.1078699429829917,-3.3987472454706826,1.6887552633643735e+18,2.2983734375,3.410131108760834,-13.273226451873779,-5.036772155761719,1.6887552633643735e+18,2.2983734375,1.44609591960907,-9.54895248413086,-1.6492820739746095,1.6887552633686991e+18,2.3026993408203125,-1.4017066458861034,-1.2136619711915653,1.0095820873975754,1.6887552633686991e+18,2.3026993408203125,-1.4027756651242573,-1.2094113777081172,1.0118728131055832,,,,,,,,,,,,1.6887552633640607e+18,2.2980608886718747,4.433479952812195,35.7325798034668,32.992459297180176,1.6887552633640607e+18,2.2980608886718747,-250.0951171875,129.05037689208984,-99.01153793334962,1.6887552633643686e+18,2.2983686116536455,0.518154372771581,-0.3627641002337138,-0.5503493348757426,0.5441116591294607,0.9187315106391907,1.3436509172121684,-2.274147391319275,1.6887552633643735e+18,2.2983734375,3.4041491389274596,-13.255878257751466,-5.099583578109741
25,2.4000000000000004,1.6887552634681905e+18,2.402190511067708,-0.6462754209836324,-2.1187429428100586,1.0920226176579793,1.6887552634595361e+18,2.393536051432292,1.7808582733074825,-11.925628662109375,-0.04167501131693526,1.6887552634595361e+18,2.393536051432292,2.4380983114242554,-9.476365089416504,-0.6413976897795995,1.6887552634725184e+18,2.406518513997396,0.059457559138536446,-2.4302000999450684,0.5040656348379949,1.6887552634725184e+18,2.406518513997396,0.058388541142145804,-2.425974945227305,0.5063818396689991,,,,,,,,,,,,1.6887552634640596e+18,2.3980597656250002,-5.2947999238967896,38.29335975646973,29.262919235229493,1.6887552634640596e+18,2.3980597656250002,-259.8233978271484,131.6111572265625,-102.74107818603515,1.6887552634681905e+18,2.402190511067708,0.5667020877202352,-0.4133193989594777,-0.45778536796569824,0.5446444153785706,0.28313738356033963,1.3205514947573345,-1.831377347310384,1.6887552634595361e+18,2.393536051432292,1.7748761971791585,-11.908280690511068,-0.10448658466339111
26,2.5,1.688755263572005e+18,2.506005126953125,0.24464217821756998,2.000766118367513,0.00201371312141424,1.6887552635633544e+18,2.497354410807292,3.259622653325399,-7.576972723007202,-0.7690930763880411,1.6887552635633544e+18,2.497354410807292,3.0187691847483316,-9.311148961385092,-0.6279888401428858,1.6887552635676838e+18,2.501683740234375,0.6463870644569397,-1.0361801743507386,0.3922976654022932,1.6887552635676838e+18,2.501683740234375,0.6453180551528931,-1.031934654712677,0.39461894519627094,,,,,,,,,,,,1.688755263564059e+18,2.49805888671875,-12.655059623718262,36.72077941894531,29.24095935821533,1.688755263564059e+18,2.49805888671875,-267.18365478515625,130.0385772705078,-102.7630386352539,1.688755263572005e+18,2.506005126953125,0.6284908254941305,-0.43164410690466565,-0.4069402863581975,0.50272436439991,0.2548583969473838,1.259811540444692,-1.9781712690989177,1.6887552635633544e+18,2.497354410807292,3.253640611966451,-7.559624592463176,-0.8319046633938948
27,2.6,1.6887552636671734e+18,2.6011733398437498,0.9743281841278076,1.0277594566345214,-0.6529975414276123,1.6887552636671764e+18,2.6011763509114583,4.3048873742421465,-8.151748498280844,-1.2516456345717113,1.6887552636671764e+18,2.6011763509114583,3.191407243410746,-9.25689967473348,-0.5987833638985952,1.6887552636628529e+18,2.596852783203125,0.11555534414947027,-0.821028341849645,-0.0063631798451145504,1.6887552636628529e+18,2.596852783203125,0.11448632987836993,-0.81677774588267,-0.004046982076639934,,,,,,,,,,,,1.6887552636640622e+18,2.5980622802734374,-16.415099716186525,35.82163925170899,28.765159034729002,1.6887552636640622e+18,2.5980622802734374,-270.9436950683594,129.13943634033203,-103.23883743286133,1.6887552636671734e+18,2.6011733398437498,0.6542980790138244,-0.44614022970199585,-0.38117256760597223,0.47694324254989623,0.231095814704895,1.2453179836273194,-2.0480933666229246,1.6887552636671764e+18,2.6011763509114583,4.2989052931467695,-8.134400367736816,-1.314457247654597
28,2.7,1.6887552637623457e+18,2.6963457031249995,0.8942482868830363,0.9848313331604004,-0.03609978655974069,1.6887552637709967e+18,2.7049967041015623,4.188636024792989,-8.38774061203003,-0.6206383556127548,1.6887552637709967e+18,2.7049967041015623,3.108711361885071,-9.287319660186768,-0.5576560993989309,1.6887552637666716e+18,2.700671590169271,0.18728110194206235,-0.47400597482919693,-0.2615521351496379,1.6887552637666716e+18,2.700671590169271,0.18621209139625228,-0.469780832529068,-0.2592613895734151,,,,,,,,,,,,1.688755263764059e+18,2.69805888671875,-17.94863967895508,35.853359603881835,27.862359619140626,1.688755263764059e+18,2.69805888671875,-272.47723693847655,129.17115783691406,-104.1416389465332,1.6887552637623457e+18,2.6963457031249995,0.6672652860482534,-0.46101809044679004,-0.3669302562872569,0.45552689333756763,0.2245651433865229,1.2519472638765972,-2.1063700517018638,1.6887552637709967e+18,2.7049967041015623,4.182654023170471,-8.370392719904581,-0.68344996124506
29,2.8000000000000003,1.688755263866157e+18,2.8001572265625003,2.488203763961792,-0.679257869720459,0.35902926822503406,1.688755263866159e+18,2.800159033203125,5.405146980285645,-9.64774112701416,-0.27625138163566587,1.688755263866159e+18,2.800159033203125,2.93035306930542,-9.34149627685547,-0.6182675242424012,1.6887552638704886e+18,2.8044886474609374,0.2198605860273043,-0.2841286957263946,-0.21344649791717527,1.6887552638704886e+18,2.8044886474609374,0.21879156927267707,-0.2799289921919505,-0.2111302986741066,,,,,,,,,,,,1.6887552638640625e+18,2.7980624755859376,-18.10601978302002,36.088819122314455,27.690339279174804,1.6887552638640625e+18,2.7980624755859376,-272.6346069335938,129.4066177368164,-104.3136589050293,1.688755263866157e+18,2.8001572265625003,0.6726494431495667,-0.4735404998064041,-0.3643335203329722,0.43648550907770794,0.2625168214241663,1.2700904210408528,-2.184428095817566,1.688755263866159e+18,2.800159033203125,5.399165058135987,-9.630393409729004,-0.33906296640634537
30,2.9000000000000004,1.6887552639699791e+18,2.903978841145833,-1.7372864087422688,-0.01223874092102036,0.7639457980791727,1.6887552639613304e+18,2.8953302001953123,1.7046866895010073,-10.11206857363383,-0.8640084465344745,1.6887552639613304e+18,2.8953302001953123,3.004661202430725,-9.299936930338541,-0.8313945730527242,1.6887552639656579e+18,2.899658056640625,0.2628553137183189,0.3189938306808472,0.2884811073541641,1.6887552639656579e+18,2.899658056640625,0.26178630068898195,0.3231782466173172,0.29077186584472653,,,,,,,,,,,,1.6887552639640604e+18,2.8980605712890624,-18.988079643249513,35.39097900390625,28.19419918060303,1.6887552639640604e+18,2.8980605712890624,-273.5166778564453,128.70877990722656,-103.80979690551757,1.6887552639699791e+18,2.903978841145833,0.6810154914855957,-0.4667004992564519,-0.36706046760082245,0.4284637024005254,0.3265807429949442,1.2541289925575256,-2.2559584379196167,1.6887552639613304e+18,2.8953302001953123,1.6987046853949626,-10.094720482826233,-0.9268199404080709
31,3.0,1.6887552640651471e+18,2.999147119140625,-2.5277645349502564,-0.5964128494262696,-3.162254071235657,1.688755264065148e+18,2.9991479085286454,0.5431706955035528,-9.538488944371542,-2.9739795128504434,1.688755264065148e+18,2.9991479085286454,2.4685126543045044,-9.45829725265503,-0.7665080229441324,1.6887552640608243e+18,2.9948240966796873,-0.5014439993537962,0.7736862947543462,-0.812705314407746,1.6887552640608243e+18,2.9948240966796873,-0.5025130218515793,0.7779114358127117,-0.8103891226152579,,,,,,,,,,,,1.6887552640640604e+18,2.9980603515624997,-14.901079750061035,37.00869941711426,28.345479583740236,1.6887552640640604e+18,2.9980603515624997,-269.42967529296874,130.32649688720704,-103.6585189819336,1.6887552640651471e+18,2.999147119140625,0.6480773687362671,-0.47437424063682554,-0.39549880623817446,0.4451634645462036,0.36703603267669677,1.3144642114639282,-2.223016595840454,1.688755264065148e+18,2.9991479085286454,0.5371886702875296,-9.521140972773233,-3.0367910464604697
32,3.1,1.6887552641603136e+18,3.094313802083333,0.07203997174898784,0.22194290161132812,-1.6884553631146748,1.6887552641689682e+18,3.102968017578125,1.557528148094813,-9.451250712076822,-2.3157537827889123,1.6887552641689682e+18,3.102968017578125,1.6862385670344036,-9.640183289845785,-0.6126681665579478,1.6887552641646426e+18,3.0986424967447914,-0.34722598642110825,0.8704829886555672,-0.7601199721296629,1.6887552641646426e+18,3.0986424967447914,-0.3482695445418358,0.8746826822559038,-0.7578292414546013,,,,,,,,,,,,1.68875526416406e+18,3.0980598876953125,-9.728279781341552,38.835039138793945,27.762319374084473,1.68875526416406e+18,3.0980598876953125,-264.2568756103516,132.1528350830078,-104.24167861938477,1.6887552641603136e+18,3.094313802083333,0.6056709885597229,-0.4815353453159332,-0.4307400385538737,0.46395310262839,0.43251393735408783,1.3886794646581013,-2.197018543879191,1.6887552641689682e+18,3.102968017578125,1.5515461166699727,-9.433902740478516,-2.3785654256741204
33,3.2,1.688755264264134e+18,3.198134114583333,2.0282318592071533,1.2209526697794597,-1.0949838360150654,1.6887552642641318e+18,3.1981317382812504,2.9772696018218996,-8.542616271972657,-1.708236074447632,1.6887552642641318e+18,3.1981317382812504,1.0195678114891051,-9.738345909118653,-0.5895177125930786,1.688755264268463e+18,3.202462972005208,0.06856962277864415,-0.44399723162253696,-0.48752137397726375,1.688755264268463e+18,3.202462972005208,0.06750060936125611,-0.4397466133038203,-0.4852306203295787,,,,,,,,,,,,1.6887552642640594e+18,3.1980594482421876,-6.245179891586304,39.67927894592285,27.186479568481445,1.6887552642640594e+18,3.1980594482421876,-260.773779296875,132.99707641601563,-104.8175178527832,1.688755264264134e+18,3.198134114583333,0.5860903064409891,-0.5045406073331833,-0.44714633623758954,0.4493298480908076,0.6687746644020081,1.4549586574236553,-2.4343626499176025,1.6887552642641318e+18,3.1981317382812504,2.9712875366210936,-8.525268173217773,-1.7710476636886596
34,3.3000000000000003,1.688755264367951e+18,3.301951212565104,1.7259576320648193,3.7486349741617837,-0.18052967389424643,1.688755264359303e+18,3.2933026936848955,3.467598855495453,-6.229813416798909,-1.150249754389127,1.688755264359303e+18,3.2933026936848955,1.0893152753512065,-9.72050174077352,-0.7293622195720673,1.688755264372279e+18,3.3062789713541663,0.15378532310326892,0.5538002550601959,0.46756644546985626,1.688755264372279e+18,3.3062789713541663,0.15271630759040514,0.5579999387264252,0.46985718607902527,,,,,,,,,,,,1.688755264364058e+18,3.29805810546875,-6.182959938049317,39.35475883483887,27.521979904174806,1.688755264364058e+18,3.29805810546875,-260.71155700683596,132.67255706787108,-104.4820182800293,1.688755264367951e+18,3.301951212565104,0.5908154050509135,-0.4965621928373973,-0.45050370693206787,0.44860293467839557,0.7158126135667165,1.4372761448224385,-2.475585659344991,1.688755264359303e+18,3.2933026936848955,3.4616167545318604,-6.212465524673462,-1.2130613612631957
35,3.4000000000000004,1.68875526447177e+18,3.4057699788411457,-1.1215112408002217,3.963290214538574,-1.7932861646016438,1.6887552644631242e+18,3.3971240234375,0.06660025318463643,-5.788437366485596,-2.9039893547693887,1.6887552644631242e+18,3.3971240234375,1.2813084920247395,-9.680759906768799,-0.9265611072381338,1.6887552644674506e+18,3.401450830078125,0.2570520967245102,0.4258341521024704,-0.12977832555770874,1.6887552644674506e+18,3.401450830078125,0.25598307847976687,0.4300796627998352,-0.12745703011751175,,,,,,,,,,,,1.6887552644640668e+18,3.39806689453125,-5.775479888916015,38.99851913452149,28.105139350891115,1.6887552644640668e+18,3.39806689453125,-260.3040771484375,132.31631927490236,-103.89885787963867,1.68875526447177e+18,3.4057699788411457,0.5895915925502777,-0.477708766857783,-0.46240488191445667,0.4584927062193553,0.7446199754873911,1.4118324716885884,-2.4624178409576416,1.6887552644631242e+18,3.3971240234375,0.06061816215515146,-5.771089474360148,-2.9668009678522744
36,3.5,1.6887552645669376e+18,3.5009375976562502,-1.1959218978881836,-4.118014240264893,-0.7397216796875,1.6887552645669425e+18,3.5009422607421876,0.9557332545518875,-13.954044421513876,-1.784347736587127,1.6887552645669425e+18,3.5009422607421876,2.012365162372589,-9.553499062856039,-0.7451758657892545,1.6887552645626145e+18,3.4966145833333333,-0.8005898147821426,-0.7654141634702682,1.543351064125697,1.6887552645626145e+18,3.4966145833333333,-0.8016588340202967,-0.7612144748369852,1.5456418097019196,,,,,,,,,,,,1.6887552645640643e+18,3.4980641845703127,-8.35699987411499,38.788679122924805,27.30359935760498,1.6887552645640643e+18,3.4980641845703127,-262.88559875488284,132.10647735595703,-104.70039672851563,1.6887552645669376e+18,3.5009375976562502,0.6052419066429138,-0.4623803853988647,-0.4371686577796935,0.4775706470012665,0.4526937395334244,1.356055212020874,-2.177450394630432,1.6887552645669425e+18,3.5009422607421876,0.94975117345651,-13.93669625123342,-1.8471593869229157
37,3.6,1.6887552646621043e+18,3.596104451497396,1.2425424655278523,-8.625436147054037,0.7024667263031006,1.6887552646707576e+18,3.604757609049479,5.445466160774231,-16.509778181711834,1.58025989929835,1.6887552646707576e+18,3.604757609049479,4.121944069862366,-8.87214183807373,0.30978188663721085,1.6887552646664307e+18,3.6004305826822915,-0.4896339376767476,-1.2499830176432927,2.243682583173116,1.6887552646664307e+18,3.6004305826822915,-0.4907029482225577,-1.245783309141795,2.246024250984192,,,,,,,,,,,,1.6887552646640614e+18,3.598061474609375,-20.182459831237793,37.50279922485352,22.629779434204103,1.6887552646640614e+18,3.598061474609375,-274.7110534667969,130.82059783935546,-109.37421798706055,1.6887552646621043e+18,3.596104451497396,0.6592272321383158,-0.4396175692478816,-0.33163945376873016,0.5105267961819967,-0.022291813821842282,1.166797677675883,-1.8117093046506245,1.6887552646707576e+18,3.604757609049479,5.439484079678853,-16.492430528004963,1.5174483855565388
38,3.7,1.6887552647659223e+18,3.69992236328125,-2.937829573949178,2.6147523721059165,0.8679517159859339,1.6887552647659246e+18,3.6999244628906247,2.2136001586914062,-5.653881049156189,1.4167903006076812,1.6887552647659246e+18,3.6999244628906247,5.0869065284729,-8.334585571289063,0.9422978520393371,1.6887552647702495e+18,3.7042493489583332,0.16114115835322693,-0.7562002663811048,0.19789489855368933,1.6887552647702495e+18,3.7042493489583332,0.1600975944505384,-0.7519751290480295,0.2001856341958046,,,,,,,,,,,,1.6887552647640612e+18,3.6980610351562495,-27.440239334106444,35.07865905761719,19.177179527282714,1.6887552647640612e+18,3.6980610351562495,-281.9688385009766,128.3964599609375,-112.82681732177734,1.6887552647659223e+18,3.69992236328125,0.6955709457397461,-0.42495986819267273,-0.25688665360212326,0.5189790427684784,-0.16383375475804007,1.031506101290385,-1.766540765762329,1.6887552647659246e+18,3.6999244628906247,2.20761815905571,-5.6365330696105955,1.3539786964654923
39,3.8000000000000003,1.6887552648697426e+18,3.803742472330729,-3.5967344443003335,10.734003941218058,0.33688147862752277,1.688755264861094e+18,3.7950938720703125,0.6164509356021881,2.558425983414054,1.5531412959098816,1.688755264861094e+18,3.7950938720703125,4.465831875801086,-8.644886175791422,1.1255449652671814,1.6887552648654167e+18,3.7994167480468746,-0.6359412550926209,0.6530454874038696,-1.9135353565216064,1.6887552648654167e+18,3.7994167480468746,-0.6370102643966675,0.6572910070419311,-1.9112446308135986,,,,,,,,,,,,1.6887552648640591e+18,3.798059228515625,-25.042939758300783,37.02821998596191,18.420779609680174,1.6887552648640591e+18,3.798059228515625,-279.5715393066406,130.34601593017578,-113.58321838378906,1.6887552648697426e+18,3.803742472330729,0.6674800117810568,-0.45639220376809436,-0.2757539500792821,0.5184759398301443,-0.24949377775192258,1.110435664653778,-1.661876142024994,1.688755264861094e+18,3.7950938720703125,0.6104688669244448,2.5757738410805664,1.4903297076622646
40,3.9000000000000004,1.6887552649649093e+18,3.89890927734375,2.7916941881179804,-5.326731491088867,-1.9128478527069093,1.688755264964909e+18,3.8989089762369793,5.761817127466202,-14.342678606510162,0.5083750709891319,1.688755264964909e+18,3.8989089762369793,2.309629480044047,-9.308576901753744,1.9547726313273113,1.688755264960585e+18,3.894584920247396,-1.7657314538955688,0.7764351715644201,-1.643965611855189,1.688755264960585e+18,3.894584920247396,-1.7667750318845112,0.7806857700149218,-1.641649415095647,,,,,,,,,,,,1.688755264964057e+18,3.89805703125,-13.842119789123535,43.57473869323731,15.42323989868164,1.688755264964057e+18,3.89805703125,-268.3707214355469,136.89253845214844,-116.58075790405273,1.6887552649649093e+18,3.89890927734375,0.5700863480567933,-0.5309755444526673,-0.3321939826011657,0.5305710673332215,-0.7102227807044983,1.278762125968933,-1.102055823802948,1.688755264964909e+18,3.8989089762369793,5.755835220217705,-14.32533061504364,0.4455635001262029
41,4.0,1.6887552650600745e+18,3.994074503580729,-0.4054253896077474,-7.177406469980876,4.402483701705933,1.6887552650687283e+18,4.0027281901041665,1.0049854914347331,-15.493028481801352,7.504988471666972,1.6887552650687283e+18,4.0027281901041665,1.7742154598236084,-9.006173451741537,3.454258759816488,1.6887552650644037e+18,3.998403767903646,-0.9011535122990608,0.6657667743662993,-0.784045527378718,1.6887552650644037e+18,3.998403767903646,-0.9022225129107634,0.6699155395229658,-0.7817547917366028,,,,,,,,,,,,1.6887552650640576e+18,3.9980577148437497,-8.464359903335572,46.93339920043945,7.3895398616790775,1.6887552650640576e+18,3.9980577148437497,-262.9929534912109,140.2511962890625,-124.61445770263671,1.6887552650600745e+18,3.994074503580729,0.49388086299101513,-0.5590672095616659,-0.3188197463750839,0.5841068426767985,-1.101641446352005,1.1804269949595134,-0.6222546001275381,1.6887552650687283e+18,4.0027281901041665,0.9990034302075704,-15.475679874420166,7.442176898320516
42,4.1000000000000005,1.6887552651638948e+18,4.097894653320313,-3.8951836625734964,-0.4332260290781657,-1.795880119005839,1.6887552651725476e+18,4.106547485351562,-2.6604199210802713,-9.636295477549234,1.1844471991062164,1.6887552651725476e+18,4.106547485351562,1.3905533055464427,-9.03865098953247,3.526424249013265,1.688755265168225e+18,4.102224812825521,-0.09908743451038994,0.36018141110738117,-1.030275138715903,1.688755265168225e+18,4.102224812825521,-0.10015645002325374,0.3644574731588364,-1.0279589289178452,,,,,,,,,,,,1.688755265164059e+18,4.098058789062501,-5.674219942092895,47.35551872253418,6.818579864501953,1.688755265164059e+18,4.098058789062501,-260.20281372070315,140.6733184814453,-125.18541870117187,1.6887552651638948e+18,4.097894653320313,0.45979803800582886,-0.5590425630410513,-0.3442938874165217,0.5974858303864797,-1.2017706036567688,1.1819048921267192,-0.4476175010204315,1.6887552651725476e+18,4.106547485351562,-2.666402002175649,-9.618947664896647,1.1216356058915455
43,4.2,1.6887552652677148e+18,4.201714803059896,2.7854632337888083,2.2240392367045083,-2.2857427994410195,1.6887552652677156e+18,4.201715771484375,3.0181868031620978,-6.326264095306397,1.3744372844696044,1.6887552652677156e+18,4.201715771484375,-0.15013510566204785,-9.127486991882325,3.581427240371704,1.6887552652720435e+18,4.206043701171875,-0.15627969242632386,-0.8537859867016474,-1.1207086518406868,1.6887552652720435e+18,4.206043701171875,-0.15734870359301567,-0.8495353894929091,-1.1183924625317256,,,,,,,,,,,,1.6887552652640617e+18,4.198061694335937,1.5591599702835084,47.61537895202637,6.115859842300415,1.6887552652640617e+18,4.198061694335937,-252.9694351196289,140.93317718505858,-125.88813781738281,1.6887552652677148e+18,4.201714803059896,0.42110490302244824,-0.6079834600289663,-0.3780338813861211,0.5565645297368368,-1.6407808264096577,1.2015857100486755,-0.026179527242978413,1.6887552652677156e+18,4.201715771484375,3.0122048184275627,-6.308916187286377,1.3116257190704346
44,4.3,1.6887552653715354e+18,4.3055352783203125,3.4533738096555076,2.858822743097941,-2.2013959089914956,1.6887552653628849e+18,4.296885009765625,4.3997029066085815,-7.074080944061279,1.5674982070922852,1.6887552653628849e+18,4.296885009765625,-0.11961298249661924,-9.10003932317098,3.6468202670415244,1.688755265367213e+18,4.301213037109375,0.2663983374834061,1.7532137751579284,0.28683178033679724,1.688755265367213e+18,4.301213037109375,0.2653293251991272,1.7574592709541321,0.2891225098632276,,,,,,,,,,,,1.6887552653640566e+18,4.2980565917968745,3.4891999483108522,47.6019588470459,5.757179880142212,1.6887552653640566e+18,4.2980565917968745,-251.03939514160157,140.91975860595704,-126.24681701660157,1.6887552653715354e+18,4.3055352783203125,0.40734556317329407,-0.5973354478677114,-0.3893844932317734,0.5696171025435129,-1.618697424729665,1.1976782480875652,0.0013106747840841658,1.6887552653628849e+18,4.296885009765625,4.39372072617213,-7.0567331711451216,1.5046866188446681
45,4.4,1.6887552654666998e+18,4.4006997558593755,-0.23225617408752441,1.7256564140319823,-3.785078001022339,1.688755265466704e+18,4.400703653971354,0.005882392326990764,-7.496214727560679,-0.2613161653280258,1.688755265466704e+18,4.400703653971354,0.8844518313805262,-9.106018066406248,3.509310563405355,1.6887552654623777e+18,4.396377685546875,0.043422336379686975,0.5726097921530406,1.375617613395055,1.6887552654623777e+18,4.396377685546875,0.0423533171415329,0.5768095155556997,1.377908358971278,,,,,,,,,,,,1.6887552654640607e+18,4.398060668945313,1.2773399652913213,47.33355941772461,5.975559854507447,1.6887552654640607e+18,4.398060668945313,-253.25125427246093,140.65135650634767,-126.02843704223633,1.6887552654666998e+18,4.4006997558593755,0.4136430025100708,-0.5605448484420776,-0.38770214319229124,0.6032466292381287,-1.3762814283370972,1.1982861518859864,-0.1774666905403137,1.688755265466704e+18,4.400703653971354,-9.969870249428488e-05,-7.478866815567017,-0.32412776350975037
46,4.5,1.688755265561868e+18,4.4958680013020835,0.7428500652313232,-10.427557309468588,5.818999767303467,1.6887552655705231e+18,4.504523030598958,4.375974138577779,-18.831214745839436,9.551948507626852,1.6887552655705231e+18,4.504523030598958,3.6034836371739707,-8.380018552144369,3.4996918042500815,1.6887552655661975e+18,4.500197347005209,0.028277963399887085,-0.7422013133764267,3.579873959223429,1.6887552655661975e+18,4.500197347005209,0.02720895409584047,-0.7379761549333731,3.5821901162465415,,,,,,,,,,,,1.6887552655640586e+18,4.498058593750001,-12.540379762649536,45.36569938659668,5.735219883918762,1.6887552655640586e+18,4.498058593750001,-267.0689758300781,138.68349609375,-126.2687774658203,1.688755265561868e+18,4.4958680013020835,0.4845222036043803,-0.48962590595086414,-0.30414050320784247,0.6554642021656036,-0.8289282321929932,1.063688764969508,-0.7574279308319092,1.6887552655705231e+18,4.504523030598958,4.369992117087047,-18.81386709213257,9.489137093226114
47,4.6000000000000005,1.6887552656656868e+18,4.5996869303385415,-3.174514134724935,1.443028171857198,-0.9054999351501465,1.6887552656656904e+18,4.599690478515625,1.7575282096862792,-5.809055614471435,2.1373888492584228,1.6887552656656904e+18,4.599690478515625,5.235854053497315,-7.591602611541748,3.336206865310669,1.6887552656700142e+18,4.604014241536459,0.32055154180852696,-0.5223406900962194,1.1526772566139698,1.6887552656700142e+18,4.604014241536459,0.31948251927436405,-0.5181664278109869,1.1549680059154828,,,,,,,,,,,,1.6887552656640591e+18,4.598059130859375,-23.56917953491211,41.00785903930664,6.304959869384765,1.6887552656640591e+18,4.598059130859375,-278.0977752685547,134.3256576538086,-125.69903793334962,1.6887552656656868e+18,4.5996869303385415,0.5533922016620636,-0.43436066806316376,-0.22538481901089347,0.6736676792303721,-0.5740722815195719,0.9020672341187795,-1.0908010601997375,1.6887552656656904e+18,4.599690478515625,1.7515461683273315,-5.791707611083984,2.074577236175537
48,4.7,1.688755265769505e+18,4.703505045572917,-3.235076626141866,8.146669149398804,-1.2681938807169597,1.6887552657608543e+18,4.694854329427083,1.7348960881548312,0.09112667044003801,2.4759732286135354,1.6887552657608543e+18,4.694854329427083,4.8387571175893145,-7.735731601715088,3.5652347405751548,1.6887552657651868e+18,4.69918662109375,-0.03857614099979402,0.03365867435932156,-1.98241046667099,1.6887552657651868e+18,4.69918662109375,-0.039645154960453545,0.03784310072660442,-1.9801197052001953,,,,,,,,,,,,1.6887552657640579e+18,4.698057910156249,-22.53217945098877,41.658119201660156,5.95603985786438,1.6887552657640579e+18,4.698057910156249,-277.06077575683594,134.97591857910157,-126.04795684814454,1.688755265769505e+18,4.703505045572917,0.5468558271725973,-0.4608362913131714,-0.2292138040065765,0.6594834129015604,-0.6561245123545328,0.9380895992120107,-1.0401339332262676,1.6887552657608543e+18,4.694854329427083,1.728914064122364,0.10847464762628078,2.4131616155306497
49,4.800000000000001,1.688755265864678e+18,4.79867783203125,-3.257502627372742,-1.0162572860717773,-1.1525162696838378,1.6887552658646756e+18,4.798675618489583,-0.3813561697800954,-9.94556795184811,2.689632296562195,1.6887552658646756e+18,4.798675618489583,2.3322267731030784,-8.699408372243246,3.812877813975016,1.688755265860352e+18,4.794351969401042,-0.42961643636226654,-0.27969991167386377,-2.521702647209168,1.688755265860352e+18,4.794351969401042,-0.4306854506333669,-0.2755002404252688,-2.51941188176473,,,,,,,,,,,,1.6887552658640602e+18,4.798060180664062,-8.897459840774536,46.17089958190918,4.836079859733582,1.6887552658640602e+18,4.798060180664062,-263.4260559082031,139.48869934082032,-127.16791763305665,1.688755265864678e+18,4.79867783203125,0.4616961061954498,-0.5364506483078003,-0.3197832107543945,0.6287947177886963,-1.0568859219551086,1.1121716499328613,-0.5648853659629822,1.6887552658646756e+18,4.798675618489583,-0.38733818133672077,-9.928219836205244,2.6268207679192224
50,4.9,1.6887552659598418e+18,4.893841674804688,7.300837755203247,-4.28971807161967,2.904877702395121,1.6887552659684959e+18,4.9024957682291666,6.656134883562724,-13.394821723302206,7.6548389593760175,1.6887552659684959e+18,4.9024957682291666,1.732000470161438,-8.775445938110352,4.008646130561829,1.6887552659641705e+18,4.89817061360677,0.5111924012502035,0.21492275844017664,-0.43793944517771405,1.6887552659641705e+18,4.89817061360677,0.5101233919461569,0.2191478957732517,-0.43564871946970624,,,,,,,,,,,,1.688755265964062e+18,4.898061865234375,-8.741299843788147,46.595458984375,3.0939199209213255,1.688755265964062e+18,4.898061865234375,-263.2698913574219,139.91325836181642,-128.91007766723632,1.6887552659598418e+18,4.893841674804688,0.4827176382144292,-0.5756015280882517,-0.2886146456003189,0.592543343702952,-1.1772802074750264,1.1164931058883667,-0.5758658448855082,1.6887552659684959e+18,4.9024957682291666,6.650152921676636,-13.377473831176758,7.592027465502421
51,5.0,1.6887552660636598e+18,4.997659790039062,-4.361330548922221,-3.4818227291107178,-0.6179240544637045,1.6887552660723136e+18,5.0063134765625,-1.287139097849528,-11.45892858505249,1.5251253495613735,1.6887552660723136e+18,5.0063134765625,1.8780524532000225,-8.96085532506307,3.5123335917790732,1.6887552660679887e+18,5.0019887288411455,0.14327335357666013,0.39479711651802063,0.1805106780181328,1.6887552660679887e+18,5.0019887288411455,0.14220434427261353,0.39902225136756897,0.18282686298092202,,,,,,,,,,,,1.688755266064061e+18,4.998061108398438,-4.378579878807068,46.80895881652832,5.3850799083709715,1.688755266064061e+18,4.998061108398438,-258.9071746826172,140.1267578125,-126.6189178466797,1.6887552660636598e+18,4.997659790039062,0.44592954715092975,-0.5353977978229523,-0.3531899650891622,0.6240580677986145,-1.1088099280993144,1.1636170347531636,-0.46614623069763184,1.6887552660723136e+18,5.0063134765625,-1.293121228615443,-11.441580454508463,1.4623136992255847
52,5.1000000000000005,1.6887552661674775e+18,5.101477620442709,0.29131245613098145,1.1196900208791096,-1.325815995534261,1.6887552661674836e+18,5.101483544921875,1.4713467359542847,-7.65440034866333,1.7452052175998687,1.6887552661674836e+18,5.101483544921875,1.1507091641426086,-9.144538497924804,3.3506318092346192,1.6887552661718067e+18,5.1058066406250004,-0.034641148056834915,-0.819170301159223,-0.524936863531669,1.6887552661718067e+18,5.1058066406250004,-0.0357101649666826,-0.8149451613426208,-0.5226461297521988,,,,,,,,,,,,1.688755266164063e+18,5.098063037109375,-1.3932399690151214,47.00415878295898,5.941399955749512,1.688755266164063e+18,5.098063037109375,-255.9218307495117,140.32195587158202,-126.06259841918946,1.6887552661674775e+18,5.101477620442709,0.43703073759873706,-0.5530463755130768,-0.37554381787776947,0.6013196408748627,-1.267374078432719,1.2092329661051433,-0.316853607694308,1.6887552661674836e+18,5.101483544921875,1.4653645992279052,-7.637052345275879,1.6823935627937316
53,5.2,1.6887552662712986e+18,5.205298502604166,2.017979880174001,3.497589588165283,-2.9715412060419717,1.6887552662626445e+18,5.196644327799479,3.440779209136963,-5.914858182271321,0.8852446749806404,1.6887552662626445e+18,5.196644327799479,0.7993738651275635,-9.108716169993082,3.552914341290792,1.6887552662669765e+18,5.20097646484375,-0.1090699907392263,0.6436687080189586,-0.24266621654678597,1.6887552662669765e+18,5.20097646484375,-0.1101084655150771,0.6478836700320244,-0.24037547511979934,,,,,,,,,,,,1.6887552662640591e+18,5.19805908203125,0.10979999750852587,47.33355865478516,5.186219882965088,1.6887552662640591e+18,5.19805908203125,-254.41879577636718,140.65135498046874,-126.81777801513672,1.6887552662712986e+18,5.205298502604166,0.4309539844592412,-0.5714423358440399,-0.3716268539428711,0.5911183953285217,-1.3747992515563965,1.2000839114189148,-0.23635004957516983,1.6887552662626445e+18,5.196644327799479,3.434797207514445,-5.897510210673015,0.8224330643812815
54,5.300000000000001,1.6887552663664625e+18,5.3004625,-0.054500889778137385,3.6566769599914553,-3.001715803146362,1.6887552663664668e+18,5.300466796875,1.3234303616045509,-5.695615847905477,0.36101711230973405,1.6887552663664668e+18,5.300466796875,1.3163565794626872,-9.10000991821289,3.4023437897364297,1.6887552663621458e+18,5.296145874023438,0.07355835599203905,0.012471829851468441,1.0213157803130646,1.6887552663621458e+18,5.296145874023438,0.07248934110005696,0.01672242333491643,1.0236319966303806,,,,,,,,,,,,1.6887552663640568e+18,5.298056762695312,-0.6844199806451797,47.16397933959961,5.371659898757935,1.6887552663640568e+18,5.298056762695312,-255.2130142211914,140.48177490234374,-126.63233642578125,1.6887552663664625e+18,5.3004625,0.430341511964798,-0.5452731370925903,-0.37806340456008913,0.6117975234985351,-1.237459135055542,1.1991238832473754,-0.31884529590606686,1.6887552663664668e+18,5.300466796875,1.3174482332542539,-5.67826787630717,0.298205539273719
55,5.4,1.6887552664616317e+18,5.395631673177083,1.5257958769798279,-9.639856974283854,4.325386504332225,1.688755266470285e+18,5.4042851155598965,4.597609241803487,-18.635003725687664,7.783453305562337,1.688755266470285e+18,5.4042851155598965,3.426136096318563,-8.54596201578776,3.272629419962565,1.6887552664659633e+18,5.399963419596354,0.15467617133011416,0.1587740584897498,2.9712740580240884,1.6887552664659633e+18,5.399963419596354,0.15360715861121807,0.16297375131398437,2.9735902150472007,,,,,,,,,,,,1.6887552664640586e+18,5.398058642578126,-10.670119857788086,45.884199142456055,6.1280598640441895,1.6887552664640586e+18,5.398058642578126,-265.19871520996094,139.20199584960938,-125.8759376525879,1.6887552664616317e+18,5.395631673177083,0.4862880657116572,-0.4914280523856481,-0.31548404196898144,0.6483697692553202,-0.82597283522288,1.0902328391869862,-0.7591684063275655,1.688755266470285e+18,5.4042851155598965,4.591627339522044,-18.617655754089355,7.720641573270162
56,5.5,1.6887552665654538e+18,5.499453694661458,-0.47938708464304614,-2.2136151790618896,0.8167427778244019,1.6887552665654513e+18,5.4994511230468754,4.779423952102661,-9.812606716156006,3.800759506225586,1.6887552665654513e+18,5.4994511230468754,5.207344436645508,-7.691368484497071,3.144885778427124,1.6887552665697802e+18,5.503780314127604,0.046145776597162076,-0.13245594004789987,1.037452797094981,1.6887552665697802e+18,5.503780314127604,0.045076762636502586,-0.12823079029719034,1.0397435277700424,,,,,,,,,,,,1.6887552665640607e+18,5.498060498046875,-21.385379981994628,42.50601921081543,6.891779851913452,1.6887552665640607e+18,5.498060498046875,-275.9139739990234,135.82381896972657,-125.11221771240234,1.6887552665654538e+18,5.499453694661458,0.5353171527385712,-0.4236437926689784,-0.24756196141242978,0.6873059968153635,-0.5504315396149954,0.9173571964104971,-1.0458314617474873,1.6887552665654513e+18,5.4994511230468754,4.773441934585572,-9.795258712768554,3.737947940826416
57,5.6000000000000005,1.6887552666692744e+18,5.603274576822916,-4.215763330459595,6.5201191902160645,-0.7460745573043823,1.6887552666606185e+18,5.59461865234375,0.9722835794091225,-1.939582109451294,2.791426956653595,1.6887552666606185e+18,5.59461865234375,4.9443676471710205,-7.7947163581848145,3.302929957707723,1.688755266664949e+18,5.5989489746093755,-0.14230105876922605,-0.09700540751218795,-1.207711136341095,1.688755266664949e+18,5.5989489746093755,-0.14337007105350494,-0.09279042333364487,-1.2054203867912292,,,,,,,,,,,,1.6887552666640594e+18,5.598059521484375,-21.872159576416017,42.67681884765625,6.181739950180054,1.6887552666640594e+18,5.598059521484375,-276.4007537841797,135.99461822509767,-125.82225723266602,1.6887552666692744e+18,5.603274576822916,0.530525137980779,-0.4409371813138326,-0.2501343364516894,0.6790554821491241,-0.6037551760673523,0.939851184686025,-1.011541227499644,1.6887552666606185e+18,5.59461865234375,0.9663015554348627,-1.9222341477870941,2.728615403175354
58,5.7,1.688755266764436e+18,5.698435986328125,-3.504242277145386,5.668114852905274,-3.5187239170074465,1.6887552667644424e+18,5.698442220052083,-0.31704899668693537,-3.2227332393328347,0.4769693159808715,1.6887552667644424e+18,5.698442220052083,3.1469024817148843,-8.387752691904703,3.924096465110779,1.6887552667601175e+18,5.694117594401042,-0.377209293966492,-1.088129182656606,-2.1553107698758445,1.6887552667601175e+18,5.694117594401042,-0.37827830389142036,-1.0838531355063121,-2.1529945929845176,,,,,,,,,,,,1.688755266764058e+18,5.698057983398437,-13.937279796600341,46.19773941040039,3.323279929161072,1.688755266764058e+18,5.698057983398437,-268.46587829589845,139.51553802490236,-128.68071670532225,1.688755266764436e+18,5.698435986328125,0.48016842007637023,-0.511882346868515,-0.2851355671882629,0.6519431233406067,-0.9062267303466797,1.04088134765625,-0.7214822411537171,1.6887552667644424e+18,5.698442220052083,-0.32303105791409803,-3.205385367075602,0.41415771617903374
59,5.800000000000001,1.6887552668596063e+18,5.7936062825520835,7.017027735710144,-3.7101211547851562,3.606277346611023,1.688755266868257e+18,5.802257242838542,9.519446211556593,-12.539686838785807,7.9095750252405805,1.688755266868257e+18,5.802257242838542,1.8345736861228943,-8.743521372477213,4.045297543207805,1.6887552668639322e+18,5.797932210286458,0.3679954061905543,-0.3854305346806845,-0.15541429569323859,1.6887552668639322e+18,5.797932210286458,0.3669263906776905,-0.38120537002881366,-0.15309809148311615,,,,,,,,,,,,1.6887552668640573e+18,5.7980573242187505,-8.704699897766114,47.90451889038086,2.106939959526062,1.6887552668640573e+18,5.7980573242187505,-263.23328857421876,141.22231750488282,-129.89705810546874,1.6887552668596063e+18,5.7936062825520835,0.47719888389110565,-0.5698367456595103,-0.2919651865959167,0.6017090280850729,-1.1549062132835388,1.1089221239089966,-0.5735998948415121,1.688755266868257e+18,5.802257242838542,9.513464028636614,-12.5223388671875,7.846763372421265
60,5.9,1.688755266963426e+18,5.897425740559896,-4.1471698085467015,-6.229748487472534,-0.5063222249348959,1.6887552669720788e+18,5.9060786539713535,-2.661317308743795,-15.36949888865153,2.925923546155294,1.6887552669720788e+18,5.9060786539713535,2.111084600289663,-8.934936364491781,3.4144146045049033,1.6887552669677537e+18,5.901753662109375,0.21184297798511886,1.4576008319854736,0.10539968808492024,1.6887552669677537e+18,5.901753662109375,0.21077396790497008,1.461800495783488,0.1077413558959961,1.688755266934e+18,5.868000244140625,0.0,0.0,2.07529091835022,59.09600067138672,0.1617627888917923,273.539794921875,325.2910416586722,-122.9198705,49.2794543,1.6887552669640568e+18,5.8980567871093745,-5.448519921302795,47.97527961730957,4.736039829254151,1.6887552669640568e+18,5.8980567871093745,-259.97711486816405,141.29307556152344,-127.26795883178711,1.688755266963426e+18,5.897425740559896,0.44802820682525635,-0.5241760611534119,-0.3525526225566864,0.6312350829442342,-1.0506004790465038,1.157196819782257,-0.5083264460166296,1.6887552669720788e+18,5.9060786539713535,-2.6672993699709573,-15.352150599161783,2.863112062215805
61,6.0,1.6887552670672453e+18,6.001245239257813,-2.111130952835083,-1.1775741577148438,-1.473368227481842,1.688755267067245e+18,6.00124501953125,-1.7258233785629273,-10.514900207519531,1.2850653946399688,1.688755267067245e+18,6.00124501953125,1.5180075645446778,-9.112933921813966,3.2753446102142334,1.6887552670715743e+18,6.005574422200521,0.04757113118345543,-0.4020511309305827,-1.608968158562978,1.6887552670715743e+18,6.005574422200521,0.04650212048242492,-0.39785146216551465,-1.6066265006860097,,,,,,,,,,,,1.6887552670640622e+18,5.99806220703125,-2.9401999369263647,48.30589904785156,5.292359924316406,1.6887552670640622e+18,5.99806220703125,-257.46879119873046,141.62369842529296,-126.71163711547851,1.6887552670672453e+18,6.001245239257813,0.4264944593111674,-0.5281927585601807,-0.3854535420735677,0.6242326100667318,-1.1666557590166728,1.1987614234288533,-0.3481963947415352,1.688755267067245e+18,6.00124501953125,-1.7318053245544434,-10.497552108764648,1.2222537696361542
62,6.1000000000000005,1.6887552671710638e+18,6.1050636800130205,4.11265214284261,3.9292732079823813,-1.6031386454900105,1.6887552671624133e+18,6.096413370768229,4.746761918067932,-5.4138609568278,1.9778673400481541,1.6887552671624133e+18,6.096413370768229,0.5544333110253016,-9.166418075561523,3.4495157400767007,1.6887552671667407e+18,6.100740625,-0.11279627084732051,0.30613511577248576,-0.4778187870979309,1.6887552671667407e+18,6.100740625,-0.11386528275907033,0.3103500721976161,-0.47552804946899413,,,,,,,,,,,,1.6887552671640594e+18,6.09805947265625,1.9532199501991272,48.52305908203125,4.781179904937744,1.6887552671640594e+18,6.09805947265625,-252.57537384033202,141.84085693359376,-127.22281799316406,1.6887552671710638e+18,6.1050636800130205,0.4116857747236888,-0.5664049784342448,-0.396215279897054,0.5937451223532358,-1.4436956644058228,1.2139598727226257,-0.11503545319040613,1.6887552671624133e+18,6.096413370768229,4.740779836972554,-5.396512905756633,1.9150557319323223
63,6.2,1.6887552672662328e+18,6.2002326171875,-2.0237384557724,3.9161041259765623,-2.839987349510193,1.688755267266234e+18,6.200233968098959,-0.5770690937836965,-5.375974655151367,0.28673990567525226,1.688755267266234e+18,6.200233968098959,0.7558337350686392,-9.240624904632567,3.1986120541890464,1.6887552672619082e+18,6.195908325195312,0.4259766973555088,0.908636573391656,-0.2024763741840919,1.6887552672619082e+18,6.195908325195312,0.42493313799301785,0.9128362828244766,-0.2001601805289586,,,,,,,,,,,,1.6887552672640617e+18,6.198061645507813,3.4379599332809447,48.728018569946286,5.000779819488526,1.6887552672640617e+18,6.198061645507813,-251.09063568115235,142.04581756591796,-127.00321578979492,1.6887552672662328e+18,6.2002326171875,0.3877530992031097,-0.5292540788650513,-0.4297955334186554,0.6201932430267334,-1.3570260763168336,1.233638072013855,-0.07877943143248556,1.688755267266234e+18,6.200233968098959,-0.5830511748790741,-5.35862668355306,0.2239283422629038
64,6.300000000000001,1.6887552673613985e+18,6.295398478190104,2.6899742980798087,-1.4343368212382,-0.3204013506571452,1.6887552673700529e+18,6.304052815755209,4.431507637103398,-11.793824036916098,2.551745949933926,1.6887552673700529e+18,6.304052815755209,1.463172455628713,-9.314575831095377,2.6140727599461875,1.688755267365729e+18,6.299729125976563,0.40164389709631604,0.43343434234460204,1.9322431584199269,1.688755267365729e+18,6.299729125976563,0.400574884066979,0.4377103845278422,1.9345338890949886,,,,,,,,,,,,1.6887552673640576e+18,6.29805751953125,2.3314199924468992,48.54013938903809,7.2370398998260494,1.6887552673640576e+18,6.29805751953125,-252.19717559814453,141.85793914794922,-124.76695709228515,1.6887552673613985e+18,6.295398478190104,0.39666708807150525,-0.4904388189315796,-0.4465554555257161,0.6337170998255411,-1.1633545358975728,1.2678090532620747,-0.21171474208434424,1.6887552673700529e+18,6.304052815755209,4.425525451699893,-11.77647606531779,2.488934389936427
65,6.4,1.6887552674652193e+18,6.399219360351562,0.38167305787404376,-10.058477958043417,2.0412696599960327,1.6887552674652206e+18,6.399220556640625,4.686343157291413,-20.14948101043701,5.13715090751648,1.6887552674652206e+18,6.399220556640625,4.145569610595703,-8.421808433532714,2.7830567359924316,1.6887552674695452e+18,6.403545125325521,0.12362385975817841,-0.4950808485349019,2.7770442763964334,1.6887552674695452e+18,6.403545125325521,0.12255483989914258,-0.4908556652565797,2.7793350219726562,1.6887552674573112e+18,6.391311279296875,0.0,0.0,2.39526629447937,56.0629997253418,0.1568458080291748,270.5959777832031,325.31757342960066,-122.9198961,49.2794668,1.6887552674640612e+18,6.398061083984375,-15.071879816055297,46.61863975524902,7.249239873886109,1.6887552674640612e+18,6.398061083984375,-269.60047607421876,139.93643646240236,-124.75475692749023,1.6887552674652193e+18,6.399219360351562,0.48184554775555927,-0.4320472329854965,-0.32839503387610114,0.6866659422715505,-0.6064645051956177,1.0509839256604512,-0.8597650627295176,1.6887552674652206e+18,6.399220556640625,4.680360966920853,-20.132133102416994,5.07433934211731
66,6.5,1.688755267569034e+18,6.503033976236979,-2.575918952624003,2.927872975667318,0.04437168439229328,1.688755267560391e+18,6.4943911132812495,2.6137599547704062,-5.376373449961345,2.6727828780810037,1.688755267560391e+18,6.4943911132812495,4.991738319396973,-7.991767565409343,2.7254400650660195,1.6887552675647145e+18,6.498714453124999,0.277638253569603,-0.7935750484466553,0.06545420289039612,1.6887552675647145e+18,6.498714453124999,0.2765997856855392,-0.7893905937671661,0.06774494498968124,,,,,,,,,,,,1.6887552675640602e+18,6.498060302734375,-21.75259952545166,44.13105926513672,7.6725798606872555,1.6887552675640602e+18,6.498060302734375,-276.2811981201172,137.44885711669923,-124.33141784667968,1.688755267569034e+18,6.503033976236979,0.5256877541542053,-0.41527895629405975,-0.2801350653171539,0.6873915692170461,-0.5069800615310669,0.96477872133255,-1.0359562436739604,1.688755267560391e+18,6.4943911132812495,2.6077779134114585,-5.359025279680888,2.609971264998118
67,6.6000000000000005,1.688755267664205e+18,6.598205078125,-3.8036712646484374,8.66659517288208,-1.5230464935302734,1.688755267664208e+18,6.5982077636718754,-0.053838503857453646,-0.1283150911331177,1.5670994222164154,1.688755267664208e+18,6.5982077636718754,3.857566793759664,-8.456029891967773,3.083365877469381,1.6887552676598833e+18,6.593883097330729,-0.4659374790887038,-0.17218764343609408,-1.96049561103185,1.6887552676598833e+18,6.593883097330729,-0.46700648839275044,-0.16798794052253163,-1.9581794142723083,,,,,,,,,,,,1.688755267664059e+18,6.59805908203125,-16.91285972595215,46.495419311523435,7.018659925460815,1.688755267664059e+18,6.59805908203125,-271.441455078125,139.81321716308594,-124.98533630371094,1.688755267664205e+18,6.598205078125,0.5013116359710693,-0.4612323045730591,-0.30541244745254514,0.6648353695869446,-0.6747036099433898,1.0516465902328491,-0.8881521582603454,1.688755267664208e+18,6.5982077636718754,-0.05982056508461636,-0.11096714933713281,1.5042878190676372
68,6.7,1.6887552677593754e+18,6.693375488281251,-2.5293566385904946,0.6880056063334147,-1.214216669400533,1.688755267768024e+18,6.7020241699218746,-0.10488541920979817,-9.445368329683939,2.565604348977407,1.688755267768024e+18,6.7020241699218746,1.4090079466501872,-8.933710734049479,3.747406800587972,1.6887552677637007e+18,6.697700764973958,-0.32551482195655507,-1.321606953938802,-1.8578448841969173,1.6887552677637007e+18,6.697700764973958,-0.32658383498589194,-1.3173563281695049,-1.855554113785426,,,,,,,,,,,,1.6887552677640614e+18,6.698061547851563,-5.311879873275757,49.7003589630127,3.639259958267212,1.6887552677640614e+18,6.698061547851563,-259.840478515625,143.01815795898438,-128.36473693847657,1.6887552677593754e+18,6.693375488281251,0.43173537651697796,-0.5441843469937643,-0.3560667981704076,0.6239566504955292,-1.187791754802068,1.1514559984207153,-0.37876812120278675,1.688755267768024e+18,6.7020241699218746,-0.11086738109588623,-9.428020517031351,2.5027927358945212
69,6.800000000000001,1.6887552678631928e+18,6.797193033854167,8.40442430973053,-5.080867449442546,3.5266584555308023,1.6887552678718446e+18,6.805844645182291,7.388238708178203,-15.34327745437622,8.818947275479635,1.6887552678718446e+18,6.805844645182291,1.190321574608485,-8.98759667078654,3.7382493019104004,1.688755267867517e+18,6.80151708984375,0.3398701498905818,1.1660144842850664,-0.03278310100237521,1.688755267867517e+18,6.80151708984375,0.3388011306524277,1.1702651058634121,-0.030492345492045086,,,,,,,,,,,,1.6887552678640614e+18,6.798061572265626,-6.376939916610718,49.826018524169925,2.854799914360046,1.6887552678640614e+18,6.798061572265626,-260.90553894042966,143.14381713867186,-129.14919738769532,1.6887552678631928e+18,6.797193033854167,0.45896575848261517,-0.5800494352976481,-0.329544002811114,0.5859738091627756,-1.2913893461227417,1.1659223039944966,-0.40567584335803986,1.6887552678718446e+18,6.805844645182291,7.382256825764974,-15.325929482777914,8.756135702133179
70,6.9,1.6887552679670085e+18,6.901008422851564,-6.129092693328857,-4.263377984364827,0.06035230557123783,1.6887552679670136e+18,6.901013769531249,-4.038486582040787,-12.011012840270997,1.6827525317668914,1.6887552679670136e+18,6.901013769531249,1.5102661371231079,-9.089993858337403,3.3590352535247803,1.6887552679713413e+18,6.905341267903647,0.03191770489017168,0.20904315511385604,-0.30897050971786183,1.6887552679713413e+18,6.905341267903647,0.030874140560626973,0.2132937933007876,-0.3066797802845637,,,,,,,,,,,,1.6887552679640591e+18,6.898059204101562,-2.915799915790558,49.95777969360351,5.09227991104126,1.6887552679640591e+18,6.898059204101562,-257.44439086914065,143.27557830810548,-126.91171875,1.6887552679670085e+18,6.901008422851564,0.4108174741268158,-0.5236072440942129,-0.39639965693155926,0.6321460902690887,-1.1854571302731831,1.198434591293335,-0.28952298561731976,1.6887552679670136e+18,6.901013769531249,-4.044468542933464,-11.993664360046388,1.6199409663677216
71,7.0,1.68875526807083e+18,7.004830159505208,2.064441462357839,0.9805848598480225,-1.2942183812459311,1.6887552680621814e+18,6.996181518554688,1.422632783651352,-8.825627088546753,1.517448325951894,1.6887552680621814e+18,6.996181518554688,0.16540965142970285,-9.21393092473348,3.32828156153361,1.6887552680665068e+18,7.000506787109375,-0.010598511993885038,-1.5026674032211305,-1.150106555223465,1.6887552680665068e+18,7.000506787109375,-0.011606437712907782,-1.4984829992055893,-1.1477852582931518,,,,,,,,,,,,1.6887552680640604e+18,6.998060522460937,2.605919912457466,49.972419357299806,5.180119895935059,1.6887552680640604e+18,6.998060522460937,-251.92267608642578,143.29021606445312,-126.82387771606446,1.68875526807083e+18,7.004830159505208,0.3975773751735687,-0.5720881422360738,-0.41741296648979187,0.5826184352238973,-1.582913835843404,1.2270857493082683,0.04294746803740659,1.6887552680621814e+18,6.996181518554688,1.416650677720706,-8.808279275894165,1.454636757572492
72,7.1000000000000005,1.6887552681660006e+18,7.1000006347656255,3.3349396228790282,3.4694575309753417,-3.066235566139221,1.6887552681659978e+18,7.099998006184896,3.4579278230667114,-5.665306727091472,0.5040879348913828,1.6887552681659978e+18,7.099998006184896,-0.34017835433284443,-9.185001055399576,3.426205277442932,1.6887552681616765e+18,7.095676472981771,-0.09638944330314791,1.2135601490736008,-0.1510364351173242,1.6887552681616765e+18,7.095676472981771,-0.09745846098909773,1.2177853087584178,-0.14872023711601892,1.68875526814015e+18,7.07414990234375,0.0,0.0,2.4057037830352783,53.67499923706055,0.1481404304504394,270.2447509765625,325.21250810476675,-122.9199167,49.2794786,1.6887552681640617e+18,7.098061645507812,5.154499912261963,49.865059280395506,4.803139972686767,1.6887552681640617e+18,7.098061645507812,-249.3740966796875,143.1828582763672,-127.20085906982422,1.6887552681660006e+18,7.1000006347656255,0.38508799672126764,-0.586020541191101,-0.4238062560558319,0.5730586051940918,-1.7041195631027222,1.2148999929428101,0.15950383692979808,1.6887552681659978e+18,7.099998006184896,3.4519457817077637,-5.647958755493164,0.44127636154492694
73,7.2,1.6887552682611684e+18,7.19516845703125,1.1927871853113174,-0.6299647490183512,-3.7443990310033164,1.688755268269817e+18,7.203817057291666,1.639282872279485,-10.38086223602295,-0.24805599451065063,1.688755268269817e+18,7.203817057291666,1.2504842753211658,-9.275113741556803,2.7655892769495645,1.6887552682654945e+18,7.199494710286459,1.2155963778495789,0.8582656433184942,2.649831622838974,1.6887552682654945e+18,7.199494710286459,1.2145273685455322,0.8624399304389954,2.652147799730301,,,,,,,,,,,,1.6887552682640579e+18,7.198057958984376,1.0345599755644799,49.566159057617185,6.980839967727661,1.6887552682640579e+18,7.198057958984376,-253.49403533935546,142.8839569091797,-125.02315673828124,1.6887552682611684e+18,7.19516845703125,0.39923232793807983,-0.5137010961771011,-0.4345689465602239,0.6211187938849131,-1.25514817237854,1.247359573841095,-0.17088892031461,1.688755268269817e+18,7.203817057291666,1.633300890525182,-10.363514343897501,-0.3108675579229991
74,7.300000000000001,1.6887552683649871e+18,7.298986979166667,-2.6968957583109536,0.029407183329264324,5.655261119206746,1.6887552683649848e+18,7.298984814453125,1.0552346587181087,-6.37471866607666,8.283234214782714,1.6887552683649848e+18,7.298984814453125,5.024200010299682,-7.86261510848999,2.751580333709717,1.6887552683693148e+18,7.3033149007161455,-0.7693847815195719,-0.7731263289848963,5.097110549608867,1.6887552683693148e+18,7.3033149007161455,-0.7704537808895111,-0.7689011742671331,5.0994012753168745,,,,,,,,,,,,1.6887552683640596e+18,7.298059619140625,-22.341859531402587,43.92853889465332,8.809619808197022,1.6887552683640596e+18,7.298059619140625,-276.8704498291016,137.2463363647461,-123.19437789916992,1.6887552683649871e+18,7.298986979166667,0.5277172128359476,-0.4095989366372426,-0.2751450588305791,0.6866256296634674,-0.5104174961646398,0.9524272183577219,-1.0355063180128734,1.6887552683649848e+18,7.298984814453125,1.0492527842521664,-6.357370901107788,8.220422458648681
75,7.4,1.6887552684688056e+18,7.4028054606119795,1.7852677106857302,-3.675814390182495,-1.6327633460362752,1.688755268460156e+18,7.3941560465494796,9.60648520787557,-11.817153915762901,1.8960128426551819,1.688755268460156e+18,7.3941560465494796,6.752254406611125,-6.543961922327678,2.774809797604879,1.6887552684644828e+18,7.398482763671875,0.5651419967412948,0.15693128407001497,-0.6479447782039642,1.6887552684644828e+18,7.398482763671875,0.5640729635953904,0.16114625334739685,-0.6456539988517761,,,,,,,,,,,,1.6887552684640622e+18,7.398062280273438,-33.9196590423584,37.04163932800293,8.497299909591675,1.6887552684640622e+18,7.398062280273438,-288.44825439453126,130.35943603515625,-123.50669708251954,1.6887552684688056e+18,7.4028054606119795,0.5646483997503916,-0.34793554743131,-0.19898206988970435,0.7211837967236837,-0.38760041693846387,0.747899572054545,-1.174907962481181,1.688755268460156e+18,7.3941560465494796,9.600503007570902,-11.799806157747904,1.8332011500994365
76,7.5,1.6887552685726246e+18,7.506624430338541,-3.6264275709788003,6.065027236938477,1.8605860471725464,1.6887552685639729e+18,7.49797265625,1.5730814412236214,-2.0215363148599863,4.830510795116425,1.6887552685639729e+18,7.49797265625,5.086879134178162,-7.797268549601237,2.96355406443278,1.688755268559648e+18,7.493648030598958,-0.01025745707253616,-0.422566016515096,-2.92780077457428,1.688755268559648e+18,7.493648030598958,-0.011326468239227944,-0.4183154193063578,-2.925484577814738,,,,,,,,,,,,1.6887552685640596e+18,7.498059814453126,-26.467899513244628,42.25835990905762,7.8726598739624025,1.6887552685640596e+18,7.498059814453126,-280.9964935302734,135.57615661621094,-124.13133697509765,1.6887552685726246e+18,7.506624430338541,0.5267360905806223,-0.4261787881453832,-0.26829190055529273,0.6831438541412354,-0.5585174312194189,0.955142060915629,-1.0139833788077037,1.6887552685639729e+18,7.49797265625,1.5670994520187378,-2.004188352574905,4.767699142297109
77,7.6000000000000005,1.688755268667791e+18,7.60179111328125,-3.291690540313721,-0.03974151611328125,-0.7350945949554444,1.6887552686677916e+18,7.601791870117187,-0.0012961278359095256,-9.1311108370622,2.6694928109645844,1.6887552686677916e+18,7.601791870117187,2.223868101835251,-8.861349105834961,3.4377212127049765,1.688755268663466e+18,7.5974658203125,-0.8332710986336073,-1.1312969550490377,-2.868954082330068,1.688755268663466e+18,7.5974658203125,-0.8343146567543348,-1.127046359082063,-2.866637885570526,1.688755268659249e+18,7.593248779296875,0.0,0.0,2.4057037830352783,51.44400024414063,0.1389803439378738,270.2266845703125,325.21250810476675,-122.9199343,49.2794881,1.688755268664062e+18,7.598062036132812,-10.914119863510132,48.824398803710935,6.286659932136535,1.688755268664062e+18,7.598062036132812,-265.4427154541016,142.14219512939454,-125.71733856201172,1.688755268667791e+18,7.60179111328125,0.44718708395957946,-0.5150878429412842,-0.35188470482826234,0.6395484924316406,-1.0088672518730164,1.1415971279144288,-0.5320751249790192,1.6887552686677916e+18,7.601791870117187,-0.007278166711330414,-9.113763158520063,2.6066811283429465
78,7.7,1.6887552687629578e+18,7.696957926432291,7.906244834264119,-8.339534600575766,1.5372657378514607,1.6887552687716124e+18,7.705612223307291,7.7474611500899,-16.383158047993977,4.77527638276418,1.6887552687716124e+18,7.705612223307291,1.0395050545533497,-9.065774917602539,3.5821061929066977,1.6887552687672832e+18,7.701283121744791,0.5619451353947321,1.7536414364973705,-0.020336722334225937,1.6887552687672832e+18,7.701283121744791,0.5608761161565781,1.7578410456577938,-0.018020495772361794,,,,,,,,,,,,1.6887552687640591e+18,7.698059033203125,-5.285039854049683,50.206658935546876,4.494479846954346,1.6887552687640591e+18,7.698059033203125,-259.8136291503906,143.5244598388672,-127.50951766967773,1.6887552687629578e+18,7.696957926432291,0.42918231586615246,-0.5657792588075002,-0.3654031405846278,0.6005025605360667,-1.3257938822110493,1.1836244662602742,-0.27476892620325083,1.6887552687716124e+18,7.705612223307291,7.741479128599167,-16.36581007639567,4.712464809417725
79,7.800000000000001,1.6887552688667812e+18,7.800781046549479,-7.412405093510945,-1.2389862537384033,0.07544626792271947,1.6887552688667807e+18,7.800780908203126,-6.015675735473633,-9.504889583587646,3.139383280277252,1.6887552688667807e+18,7.800780908203126,1.8566933393478393,-9.140144538879394,3.02152042388916,1.6887552688711078e+18,7.805108072916667,0.01201368123292923,0.03856086855133373,-0.5869651337464651,1.6887552688711078e+18,7.805108072916667,0.010944671928882599,0.04278602575262388,-0.5846489518880845,,,,,,,,,,,,1.6887552688640617e+18,7.798061596679688,-5.686419916152954,49.344119262695315,7.861679887771606,1.6887552688640617e+18,7.798061596679688,-260.2150146484375,142.66191864013672,-124.14231719970704,1.6887552688667812e+18,7.800781046549479,0.4101445327202479,-0.49653250972429913,-0.4094528903563817,0.6458567877610525,-1.0656597018241882,1.21091890335083,-0.35391547530889506,1.6887552688667807e+18,7.800780908203126,-6.0216577529907225,-9.48754186630249,3.0765716791152955
80,7.9,1.6887552689705964e+18,7.904596313476563,3.5311481977502504,-0.4409199555714925,-2.4749713142712912,1.6887552689619456e+18,7.895945475260416,2.7697920203208923,-10.21795097986857,0.9860423505306244,1.6887552689619456e+18,7.895945475260416,-0.3170233865578969,-9.159986019134521,3.42567773660024,1.6887552689662738e+18,7.90027373046875,-0.41105122566223146,-2.166861170530319,-1.6732820749282837,1.6887552689662738e+18,7.90027373046875,-0.4121202230453491,-2.162615704536438,-1.6709913253784179,,,,,,,,,,,,1.688755268964061e+18,7.8980610595703125,1.9776199467480182,49.74915885925293,5.913339853286743,1.688755268964061e+18,7.8980610595703125,-252.55097503662108,143.06695709228515,-126.09065780639648,1.6887552689705964e+18,7.904596313476563,0.3810958017905553,-0.5900851786136627,-0.42461780707041424,0.5697164535522461,-1.7319101293881733,1.2048627138137817,0.18461372796446082,1.6887552689619456e+18,7.895945475260416,2.76380987962087,-10.200602928797403,0.9232307573159536
81,8.0,1.688755269065765e+18,7.999764990234375,4.769041275978088,3.026019287109375,-2.366361141204834,1.6887552690657649e+18,7.999764770507812,2.635793834924698,-6.21495787302653,1.0364909782074392,1.6887552690657649e+18,7.999764770507812,-1.5039098660151164,-9.052862644195557,3.4651682376861572,1.6887552690614405e+18,7.995440633138021,-0.10998119817425801,-0.21530454667905966,-0.36672276134292286,1.6887552690614405e+18,7.995440633138021,-0.11105021151403582,-0.21107939506570497,-0.3644320306678613,,,,,,,,,,,,1.6887552690640625e+18,7.998062719726562,7.313899898529053,49.16355895996094,5.6522599220275875,1.6887552690640625e+18,7.998062719726562,-247.2146957397461,142.48135833740236,-126.35173721313477,1.688755269065765e+18,7.999764990234375,0.3656387746334076,-0.6259710192680359,-0.43651732206344607,0.5327920198440552,-2.013257098197937,1.1756536722183228,0.4197124779224396,1.6887552690657649e+18,7.999764770507812,2.6298118432362876,-6.197610139846802,0.9736794382333755
82,8.1,1.6887552691609303e+18,8.094930257161458,1.6238977313041687,1.8375214735666912,-4.644430836041768,1.6887552691695839e+18,8.103583821614583,0.9303094670176506,-7.381957530975342,-1.1518449982007344,1.6887552691695839e+18,8.103583821614583,-0.2344954932729403,-9.20522165298462,3.2883194287618003,1.6887552691652605e+18,8.099260457356772,0.6011932219068209,0.981507753332456,2.0886246164639792,1.6887552691652605e+18,8.099260457356772,0.6001496414343516,0.9857074369986852,2.0909153719743094,1.6887552691783424e+18,8.11234228515625,0.0,0.0,2.404124021530152,50.24100112915039,0.1341150104999542,270.2313232421875,324.7009965924034,-122.9199413,49.2794921,1.6887552691640607e+18,8.09806064453125,3.3940399289131165,48.93541946411133,6.286659860610962,1.6887552691640607e+18,8.09806064453125,-251.13455505371093,142.2532196044922,-125.71733703613282,1.6887552691609303e+18,8.094930257161458,0.38464266061782837,-0.5852320194244385,-0.427949254711469,0.5700234572092692,-1.709498643875122,1.215005377928416,0.1671907876928647,1.6887552691695839e+18,8.103583821614583,0.924327462911606,-7.364609559377034,-1.2146566112836201
83,8.200000000000001,1.6887552692647534e+18,8.198753173828125,-1.0423278411229453,-3.625988562901815,5.6416579484939575,1.6887552692647542e+18,8.198754052734376,0.9736395418643952,-13.068879699707031,9.844551038742065,1.6887552692647542e+18,8.198754052734376,2.5967811346054077,-8.869922065734864,3.1734620571136474,1.6887552692690813e+18,8.20308154296875,-0.1639155000448227,-0.4568508490920067,3.72856875260671,1.6887552692690813e+18,8.20308154296875,-0.16498451928297683,-0.45262567698955536,3.7308849891026816,,,,,,,,,,,,1.6887552692640617e+18,8.19806162109375,-13.402919697761536,45.70973930358887,7.765299844741821,1.6887552692640617e+18,8.19806162109375,-267.9315155029297,139.02753753662108,-124.23869705200195,1.6887552692647534e+18,8.198753173828125,0.4855661640564601,-0.5094806651274363,-0.33060020705064136,0.6261431574821472,-0.9197650849819183,1.1406577229499817,-0.6905199935038885,1.6887552692647542e+18,8.198754052734376,0.9676574766635895,-13.051531314849854,9.781739234924316
84,8.3,1.688755269368568e+18,8.302567993164063,0.980918804804484,-3.797149976094564,-1.409124235312144,1.6887552693599194e+18,8.293919555664063,5.835296869277954,-12.235100269317627,1.153739293416341,1.6887552693599194e+18,8.293919555664063,4.525260289510091,-8.238775253295898,2.794201612472534,1.6887552693642452e+18,8.2982453125,0.6317262858152389,0.0638965129852295,0.34840698540210724,1.6887552693642452e+18,8.2982453125,0.6306572750210762,0.06817256510257722,0.35069774389266967,,,,,,,,,,,,1.6887552693640627e+18,8.298062646484375,-23.58625946044922,41.07251968383789,9.611159801483154,1.6887552693640627e+18,8.298062646484375,-278.11484680175784,134.39031982421875,-122.39283676147461,1.688755269368568e+18,8.302567993164063,0.5507231255372366,-0.44391454259554547,-0.27292063335577643,0.6519150038560232,-0.5469309190909067,1.0061043004194896,-1.0965482195218403,1.6887552693599194e+18,8.293919555664063,5.829314847787221,-12.21775229771932,1.0909277151028316
85,8.4,1.6887552694723912e+18,8.406391031901043,-0.6265504757563275,5.889865318934123,1.1859803199768066,1.6887552694637412e+18,8.397741170247395,3.198206822077433,-3.1590244422356286,4.895017345746358,1.6887552694637412e+18,8.397741170247395,3.842480222384135,-8.458140055338541,3.1208505630493164,1.6887552694594158e+18,8.393415568033854,-0.12991067518790564,-1.7146478494008381,-0.7770715057849884,1.6887552694594158e+18,8.393415568033854,-0.13097969194253287,-1.710422694683075,-0.7747552941242853,,,,,,,,,,,,1.6887552694640602e+18,8.398060083007811,-22.657839584350587,41.46291923522949,8.045899915695191,1.6887552694640602e+18,8.398060083007811,-277.1864318847656,134.7807174682617,-123.95809783935547,1.6887552694723912e+18,8.406391031901043,0.561327189207077,-0.49754953384399414,-0.25350676228602725,0.6101454695065817,-0.7108216981093088,1.0511813362439473,-1.0623202224572499,1.6887552694637412e+18,8.397741170247395,3.1922248005867004,-3.1416763961315155,4.832205692927043
86,8.5,1.6887552695675581e+18,8.50155810546875,2.785714888572693,0.23386831283569337,-2.642008829116821,1.6887552695675584e+18,8.501558430989583,5.149852812290192,-8.346564292907715,1.7248263253519933,1.6887552695675584e+18,8.501558430989583,2.4206157128016152,-8.642577171325684,3.948060989379883,1.688755269563236e+18,8.49723604329427,-0.13472123350948095,-1.4528920749823253,-0.5296710630257925,1.688755269563236e+18,8.49723604329427,-0.13579025445505977,-1.4487178325653076,-0.5273294101158778,,,,,,,,,,,,1.6887552695640604e+18,8.498060424804688,-18.780679512023926,43.64549865722656,3.6624399185180665,1.6887552695640604e+18,8.498060424804688,-273.30927124023435,136.9632995605469,-128.34155731201173,1.6887552695675581e+18,8.50155810546875,0.5450490593910218,-0.5738429427146912,-0.2296542704105377,0.5661444425582886,-1.038606095314026,1.0881824493408203,-0.8664938688278199,1.6887552695675584e+18,8.501558430989583,5.143870711326599,-8.329216162363688,1.662014725462844
87,8.6,1.6887552696627261e+18,8.596726196289064,2.9251495599746704,5.282455205917358,-0.02023390928904219,1.6887552696713797e+18,8.605379597981772,5.389135042826335,-2.040379842122396,4.018247167269389,1.6887552696713797e+18,8.605379597981772,2.6852044264475503,-8.465218385060629,4.165145476659139,1.6887552696670528e+18,8.601053019205729,0.42528948560357094,-1.3345878223578136,1.034474844733874,1.6887552696670528e+18,8.601053019205729,0.4242204626401265,-1.3303881386915843,1.0368164603908856,,,,,,,,,,,,1.6887552696640607e+18,8.598060693359376,-21.7794397354126,42.0533992767334,1.4090999603271483,1.6887552696640607e+18,8.598060693359376,-276.3080352783203,135.37119750976564,-130.5948959350586,1.6887552696627261e+18,8.596726196289064,0.58895876010259,-0.5807401339213053,-0.1712661857406298,0.5344831248124441,-1.0063569446404774,1.0505497852961223,-1.049541135629018,1.6887552696713797e+18,8.605379597981772,5.383152961730957,-2.023031751314799,3.9554355343182883
88,8.700000000000001,1.6887552697665446e+18,8.700544759114583,-3.28218936920166,-9.628507455190023,4.358798503875732,1.6887552697665475e+18,8.7005474609375,-1.7155342817306518,-21.667726898193358,10.135278844833374,1.6887552697665475e+18,8.7005474609375,2.9301475048065186,-8.432081413269042,4.060009527206421,1.6887552697708746e+18,8.704874430338542,-0.16422094901402787,0.8129089226325353,-0.0798451652129491,1.6887552697708746e+18,8.704874430338542,-0.16528995831807455,0.817108596364657,-0.07750351727008821,,,,,,,,,,,,1.6887552697640627e+18,8.698062939453125,-23.020179557800294,41.268938827514646,1.8556199431419373,1.6887552697640627e+18,8.698062939453125,-277.5487762451172,134.58673706054688,-130.14837799072265,1.6887552697665446e+18,8.700544759114583,0.6037774980068207,-0.571593165397644,-0.1639809608459472,0.5305898090203603,-0.9499055842558543,1.0441408356030781,-1.1241658528645833,1.6887552697665475e+18,8.7005474609375,-1.7215161323547363,-21.650379037857057,10.072467184066772
89,8.8,1.688755269870365e+18,8.804364908854167,-5.06317416826884,-3.864278793334961,-2.0449604988098145,1.6887552698617147e+18,8.795714803059896,-3.0505497927467027,-12.441481351852417,1.3984054327011108,1.6887552698617147e+18,8.795714803059896,1.8372210164864857,-8.955787340799967,3.4167697429656982,1.6887552698660419e+18,8.800041943359375,0.23582452461123465,3.9205636501312258,-4.305011749267578,1.6887552698660419e+18,8.800041943359375,0.23475550785660743,3.9247176170349123,-4.30272102355957,,,,,,,,,,,,1.6887552698640563e+18,8.79805634765625,-12.37201955318451,44.55439910888672,5.842579793930054,1.6887552698640563e+18,8.79805634765625,-266.90061950683594,137.8721954345703,-126.16141891479492,1.688755269870365e+18,8.804364908854167,0.5116742451985677,-0.5685803989569346,-0.30252411961555475,0.561518003543218,-1.1562535564104717,1.179797887802124,-0.6369940117001534,1.6887552698617147e+18,8.795714803059896,-3.056531806786855,-12.424133459726969,1.335593859354655
90,8.9,1.6887552699655316e+18,8.899531884765626,4.150055408477783,2.792671012878418,-1.121255111694336,1.688755269965531e+18,8.899530802408854,2.553839604059855,-6.7560350100199384,1.3571292360623677,1.688755269965531e+18,8.899530802408854,-0.664655485500892,-9.347829659779867,2.8217511574427285,1.6887552699612086e+18,8.895208536783853,0.4944190668563048,-0.8066221016148726,-1.9580776691436768,1.6887552699612086e+18,8.895208536783853,0.4933500476181507,-0.8023715279996395,-1.955786903699239,,,,,,,,,,,,1.688755269964063e+18,8.898062915039063,2.826739889383316,46.1294189453125,8.949919891357421,1.688755269964063e+18,8.898062915039063,-251.70185546875,139.4472183227539,-123.0540786743164,1.6887552699655316e+18,8.899531884765626,0.43639837503433226,-0.6129386305809021,-0.40369192957878114,0.5195255279541016,-1.8411680698394775,1.2659245729446411,0.14268311373889445,1.688755269965531e+18,8.899530802408854,2.5478576123714447,-6.73868711789449,1.2943176279465358
91,9.0,1.6887552700606996e+18,8.99469970703125,2.3644180297851562,2.55573304494222,-1.6741708715756733,1.6887552700693514e+18,9.003351399739584,-0.007876435915629068,-7.18504802385966,0.9796614895264307,1.6887552700693514e+18,9.003351399739584,-1.7821055849393208,-9.170881112416586,2.9830509026845298,1.688755270065027e+18,8.999027221679688,-0.16126842781280482,2.4008022348086038,-1.3693307936191559,1.688755270065027e+18,8.999027221679688,-0.16233743789295355,2.405027389526367,-1.3669891655445099,,,,,,,,,,,,1.6887552700640596e+18,8.998059619140625,12.341519832611084,45.213198852539065,8.377739810943604,1.6887552700640596e+18,8.998059619140625,-242.18707580566405,138.53099670410157,-123.6262580871582,1.6887552700606996e+18,8.99469970703125,0.36314724882443744,-0.6086326440175375,-0.47017524143060047,0.5239791572093964,-2.125952124595642,1.2131513158480327,0.5781248311201731,1.6887552700693514e+18,9.003351399739584,-0.013858497142791895,-7.167700330416362,0.91684989631176
92,9.1,1.688755270164519e+18,9.09851883951823,5.185700337092082,-1.2736196517944336,-2.427736441294352,1.6887552701645202e+18,9.09852001953125,3.9883567810058596,-10.663135528564453,0.6356533765792848,1.6887552701645202e+18,9.09852001953125,-2.1697932720184325,-9.089553451538086,2.9800053596496583,1.6887552701688476e+18,9.102847900390625,0.357508884742856,0.47135888785123825,-0.12003502125541365,1.6887552701688476e+18,9.102847900390625,0.35643987357616425,0.47560953845580417,-0.11764246101180714,,,,,,,,,,,,1.6887552701640602e+18,9.098060131835938,17.325219535827635,44.648339462280276,7.421259832382202,1.6887552701640602e+18,9.098060131835938,-237.20337524414063,137.9661392211914,-124.58273773193359,1.688755270164519e+18,9.09851883951823,0.3194725414117177,-0.5909891227881113,-0.5124164919058481,0.5346027513345083,-2.205622911453247,1.1828186511993408,0.7741090456644694,1.6887552701645202e+18,9.09852001953125,3.982374739646912,-10.645787620544434,0.572841763496399
93,9.200000000000001,1.68875527026834e+18,9.202339965820313,-4.186084548632304,-7.646254857381185,1.3816001216570537,1.6887552702596867e+18,9.193686604817708,-4.431706974903743,-16.519150257110596,3.719642778237661,1.6887552702596867e+18,9.193686604817708,-0.4510799820224444,-9.322244644165039,2.835428516070048,1.6887552702726666e+18,9.206666585286458,0.24577145759637156,0.04097888867060345,3.654043177763621,1.6887552702726666e+18,9.206666585286458,0.24472788992958763,0.045204038421312966,3.6563339034716287,1.6887552702165373e+18,9.150537353515626,0.0,0.0,2.164884328842163,47.5629997253418,0.1250364035367965,270.2606506347656,324.27334578579035,-122.9199553,49.2794987,1.6887552702640614e+18,9.198061499023437,10.927539825439453,46.497859191894534,7.980019998550415,1.6887552702640614e+18,9.198061499023437,-243.60105590820314,139.81565704345704,-124.02397689819335,1.68875527026834e+18,9.202339965820313,0.34949130316575366,-0.5203969031572342,-0.4890574465195338,0.6035919785499573,-1.63437024752299,1.2575203975041707,0.28964384148518246,1.6887552702596867e+18,9.193686604817708,-4.437688996394475,-16.501802285512287,3.656831204891205
94,9.3,1.6887552703721572e+18,9.306157185872395,-4.670590996742248,-8.536036332448324,6.151920040448506,1.6887552703635054e+18,9.297505330403647,-0.4577271019419034,-17.129718621571858,9.303792913754782,1.6887552703635054e+18,9.297505330403647,3.136453409989675,-8.891998926798502,2.5372341076533,1.6887552703678323e+18,9.30183232421875,0.12018772959709167,0.9074709057807923,3.069933843612671,1.6887552703678323e+18,9.30183232421875,0.11911871880292897,0.9116552948951719,3.0722551345825195,,,,,,,,,,,,1.6887552703640604e+18,9.298060522460938,-6.911299848556519,45.87443885803223,10.08939962387085,1.6887552703640604e+18,9.298060522460938,-261.4398956298828,139.192236328125,-121.91459808349609,1.6887552703721572e+18,9.306157185872395,0.42356206973393756,-0.41959798832734424,-0.3912060856819153,0.6993851164976755,-0.666239470243454,1.1268743475278218,-0.6499552428722382,1.6887552703635054e+18,9.297505330403647,-0.4637091060479482,-17.11237096786499,9.240981181462606
95,9.4,1.6887552704673265e+18,9.401326318359375,-8.077354049682617,8.061451530456543,-1.0643662452697753,1.6887552704673247e+18,9.401324544270834,-1.7532411416371663,-0.6686942726373676,0.3199403285980225,1.6887552704673247e+18,9.401324544270834,5.62907616297404,-7.865395387013753,1.4699083765347798,1.6887552704629967e+18,9.396996744791666,1.6059647699197133,0.1117374449968338,2.4501550992329917,1.6887552704629967e+18,9.396996744791666,1.6048957308133442,0.11596258232990901,2.4524458249409995,,,,,,,,,,,,1.68875527046406e+18,9.398060009765626,-19.45045976638794,39.11929931640625,15.165819549560547,1.68875527046406e+18,9.398060009765626,-273.97905883789065,132.43709716796874,-116.83817901611329,1.6887552704673265e+18,9.401326318359375,0.5146088480949402,-0.3297888576984405,-0.3229582726955414,0.7217712521553039,-0.25105275511741637,0.936915647983551,-1.108604633808136,1.6887552704673247e+18,9.401324544270834,-1.7592231233914692,-0.6513462364673615,0.2571287453174591
96,9.5,1.688755270562489e+18,9.496489217122397,-4.627465923627217,12.228092829386393,-1.2467078069845836,1.6887552705711444e+18,9.505144409179687,1.2346964875857036,3.8189450204372406,-0.0295114821443955,1.6887552705711444e+18,9.505144409179687,5.739081780115764,-7.826949119567871,1.3184937437375386,1.6887552705668188e+18,9.500818969726563,-0.1256346193452676,0.07009679079055786,-1.676799688488245,1.6887552705668188e+18,9.500818969726563,-0.12670363113284108,0.07434739172458649,-1.6744579871495564,,,,,,,,,,,,1.688755270564063e+18,9.498063159179688,-20.9839994430542,37.10507926940918,16.62859992980957,1.688755270564063e+18,9.498063159179688,-275.51259155273436,130.42287902832032,-115.37539749145508,1.688755270562489e+18,9.496489217122397,0.5395249128341675,-0.3285654187202453,-0.3098371922969818,0.7101260523001353,-0.2218554889162381,0.919057677189509,-1.188485821088155,1.6887552705711444e+18,9.505144409179687,1.2287144362926483,3.836292862892151,-0.09232307842466979
97,9.600000000000001,1.6887552706663137e+18,9.600313639322916,-5.2895216941833505,-2.310403903325399,2.9982070922851562,1.6887552706663124e+18,9.600312548828125,-2.083071744441986,-10.936036777496337,5.202115988731384,1.6887552706663124e+18,9.600312548828125,3.7345834255218504,-8.777178192138672,2.1395938396453857,1.6887552706706424e+18,9.604642659505208,-1.103909860054652,-1.6644041985273361,-1.7238871455192566,1.6887552706706424e+18,9.604642659505208,-1.104978879292806,-1.660179043809573,-1.7215963800748189,,,,,,,,,,,,1.6887552706640614e+18,9.598061499023437,-11.448479747772216,41.12375946044922,13.887259578704834,1.6887552706640614e+18,9.598061499023437,-265.97707214355466,134.44155578613282,-118.1167381286621,1.6887552706663137e+18,9.600313639322916,0.473731870452563,-0.41607239345709485,-0.3690798928340276,0.6810680627822876,-0.533322756489118,1.111018677552541,-0.8723870515823364,1.6887552706663124e+18,9.600312548828125,-2.089053750038147,-10.918688714504242,5.1393044859170915
98,9.700000000000001,1.6887552707701312e+18,9.704131225585938,7.6295439799626665,-9.032304128011068,4.119821230570476,1.6887552707614792e+18,9.695479248046874,10.145667493343353,-17.132012208302815,8.084649840990702,1.6887552707614792e+18,9.695479248046874,2.8394468228022256,-8.795761585235596,3.275630990664164,1.6887552707658063e+18,9.6998064453125,0.042577305808663354,-0.7147733926773071,-0.1673771061003208,1.6887552707658063e+18,9.6998064453125,0.04150829389691354,-0.7105889797210694,-0.16508635282516487,1.6887552707831117e+18,9.717111572265624,0.0,0.0,2.164884328842163,44.45399856567383,0.1178448721766471,270.2711486816406,324.27334578579035,-122.9199679,49.2795028,1.6887552707640607e+18,9.698060693359375,-12.900279808044434,41.29211921691895,9.252479934692383,1.6887552707640607e+18,9.698060693359375,-267.4288757324219,134.60991668701172,-122.75151824951172,1.6887552707701312e+18,9.704131225585938,0.49372271696726483,-0.5083110233147939,-0.3137067010005315,0.6307025849819183,-0.8612593114376068,1.118072748184204,-0.7688645819822947,1.6887552707614792e+18,9.695479248046874,10.139685670534769,-17.11466344197591,8.021838108698526
99,9.8,1.6887552708653e+18,9.7992998046875,-9.155598640441895,-1.4882713317871095,-0.538651418685913,1.6887552708652977e+18,9.799297729492187,-4.872086008389791,-11.560523907343546,1.9876380165417988,1.6887552708652977e+18,9.799297729492187,3.324260393778483,-8.846529483795166,2.5894357363382974,1.6887552708609708e+18,9.794970784505209,0.2099594709773858,1.0807733349502087,-0.304770847161611,1.6887552708609708e+18,9.794970784505209,0.20889045794804886,1.0849984710415204,-0.3024800817171733,,,,,,,,,,,,1.688755270864062e+18,9.798061840820314,-9.905179882049561,40.45885887145996,11.75469970703125,1.688755270864062e+18,9.798061840820314,-264.43377075195315,133.7766586303711,-120.24929656982422,1.6887552708653e+18,9.7992998046875,0.46276445388793946,-0.44073002934455874,-0.364386123418808,0.6770956158638001,-0.647114360332489,1.1232077836990357,-0.7819953083992004,1.6887552708652977e+18,9.799297729492187,-4.878068129221599,-11.5431756178538,1.9248263637224834
100,9.9,1.6887552709604616e+18,9.894461466471354,3.7285143733024597,1.009458303451538,-0.8748502731323242,1.6887552709691187e+18,9.903118611653646,6.509474620223045,-7.558727383613586,2.254437724749247,1.6887552709691187e+18,9.903118611653646,1.478602300087611,-9.246931393941244,2.8996595541636148,1.6887552709647905e+18,9.89879073079427,-0.01972585419813792,-2.462321470181147,-0.9901870818187793,1.6887552709647905e+18,9.89879073079427,-0.020794874678055467,-2.4580962931116423,-0.9878709018230438,,,,,,,,,,,,1.6887552709640627e+18,9.898062646484375,-5.420459890365601,41.41533889770508,11.006839847564697,1.6887552709640627e+18,9.898062646484375,-259.9490539550781,134.73313751220704,-120.99715728759766,1.6887552709604616e+18,9.894461466471354,0.46404442687829334,-0.5298501501480738,-0.37342143555482227,0.6020066142082214,-1.0770118137200673,1.2316252986590068,-0.5124877343575159,1.6887552709691187e+18,9.903118611653646,6.503492400050163,-7.54137937227885,2.1916261141498885
101,10.0,1.6887552710642865e+18,9.998286499023436,1.6642418801784515,4.642874081929524,-2.4388347466786704,1.688755271064286e+18,9.998286035156251,2.3566910862922668,-4.598167657852173,0.05371890664100647,1.688755271064286e+18,9.998286035156251,1.0185171246528626,-9.338097953796387,2.824533748626709,1.6887552710686136e+18,10.002613566080731,0.09631308703683317,2.4146230220794678,-0.3669009481867154,1.6887552710686136e+18,10.002613566080731,0.09524407478359838,2.4188227454821267,-0.3646101802587509,,,,,,,,,,,,1.6887552710640594e+18,9.998059594726563,-0.9223200086504221,41.139618682861325,10.897039699554442,1.6887552710640594e+18,9.998059594726563,-255.45091705322267,134.4574188232422,-121.10695724487304,1.6887552710642865e+18,9.998286499023436,0.43765923380851746,-0.5350229740142822,-0.4039689054091771,0.5980049868424734,-1.2355197072029114,1.2624380985895793,-0.30565082530180615,1.688755271064286e+18,9.998286035156251,2.3507089257240295,-4.580819702148437,-0.009092700481414705
102,10.100000000000001,1.6887552711681052e+18,10.102105224609375,-1.4648075103759766,5.070967435836792,-1.8986855149269104,1.6887552711594499e+18,10.093450073242186,-0.24755747119585672,-4.344468593597412,0.30289146800835925,1.6887552711594499e+18,10.093450073242186,1.5093175570170085,-9.351796627044678,2.5402802228927612,1.6887552711724308e+18,10.106430908203125,0.10076731443405151,-0.04922557373841604,1.4456634670495987,1.6887552711724308e+18,10.106430908203125,0.0996982989211877,-0.04502584536870321,1.4479796836773555,,,,,,,,,,,,1.6887552711640612e+18,10.098061059570313,-0.09149999022483826,39.976959228515625,11.669299697875976,1.6887552711640612e+18,10.098061059570313,-254.6200958251953,133.29475860595704,-120.33469772338867,1.6887552711681052e+18,10.102105224609375,0.4329053958257039,-0.4953819115956624,-0.4187668164571126,0.6256202260653178,-1.0257523655891418,1.2622644106547039,-0.42747701207796734,1.6887552711594499e+18,10.093450073242186,-0.25353943308194477,-4.327120661735535,0.24007988969484959
103,10.200000000000001,1.6887552712719245e+18,10.205924194335937,3.1715650955835977,-15.0861922899882,3.7196828921635947,1.688755271263272e+18,10.197271850585937,6.878766934076945,-22.68296202023824,6.5199432373046875,1.688755271263272e+18,10.197271850585937,3.8326140642166138,-8.521573305130005,2.840895732243856,1.6887552712675988e+18,10.20159892578125,-0.30830368101596833,-0.6798930332064629,3.368738555908203,1.6887552712675988e+18,10.20159892578125,-0.30937270224094393,-0.6756169691681861,3.371029281616211,1.6887552713022057e+18,10.236205810546876,0.0,0.0,2.4379525184631348,43.07400131225586,0.113600768148899,270.2852783203125,323.94121504833146,-122.9199727,49.2795039,1.6887552712640627e+18,10.198062817382812,-9.735599827766418,37.75411949157715,10.585939884185791,1.6887552712640627e+18,10.198062817382812,-264.2641937255859,131.07191772460936,-121.41805725097656,1.6887552712719245e+18,10.205924194335937,0.49957191447416943,-0.44534759720166517,-0.3099140375852585,0.6734690169493357,-0.6311806490023931,1.0422747532526653,-0.9000059564908346,1.688755271263272e+18,10.197271850585937,6.872784932454427,-22.665613730748493,6.457131624221802
104,10.3,1.6887552713670927e+18,10.301092529296875,-3.720449161529541,-0.31394596099853506,2.486243486404419,1.68875527136709e+18,10.301089925130208,2.185045858224233,-8.54656426111857,4.965306361516316,1.68875527136709e+18,10.301089925130208,5.638120412826538,-7.5555579662323,2.6882659594217935,1.6887552713627658e+18,10.296765706380208,0.3516547506054242,-0.39823321998119354,1.407560795545578,1.6887552713627658e+18,10.296765706380208,0.35061120241880417,-0.3940080652634303,1.4098769823710124,,,,,,,,,,,,1.6887552713640607e+18,10.29806083984375,-17.394759464263917,34.935919189453124,11.126399803161622,1.6887552713640607e+18,10.29806083984375,-271.92335510253906,128.25371704101562,-120.87759704589844,1.6887552713670927e+18,10.301092529296875,0.5420429110527039,-0.3876259446144104,-0.25218428373336793,0.7013897180557251,-0.44207090735435484,0.885587739944458,-1.1034484386444092,1.68875527136709e+18,10.301089925130208,2.179063856601715,-8.529216289520264,4.902494788169861
105,10.4,1.6887552714622605e+18,10.396260335286458,-3.784991463025411,7.775685866673787,-0.9273901383082072,1.6887552714709105e+18,10.404910400390625,1.3403794566790264,0.6085745866099993,1.8219350775082905,1.6887552714709105e+18,10.404910400390625,5.3485221068064375,-7.699416955312093,2.8385109504063926,1.6887552714665859e+18,10.400585774739584,0.5060763998577992,-0.3168608934308092,-1.5462017866472404,1.6887552714665859e+18,10.400585774739584,0.5050073893119892,-0.3126357464740674,-1.54388558678329,,,,,,,,,,,,1.6887552714640617e+18,10.398061694335938,-19.25647954940796,34.66263961791992,10.749419784545898,1.6887552714640617e+18,10.398061694335938,-273.7850738525391,127.98043670654297,-121.25457763671875,1.6887552714622605e+18,10.396260335286458,0.5624195436636606,-0.40861988564332324,-0.23706093182166413,0.6781474053859711,-0.4808176855246226,0.8971816003322601,-1.1491604447364807,1.6887552714709105e+18,10.404910400390625,1.3343974749247234,0.6259225234389305,1.7591234644254048
106,10.5,1.688755271566079e+18,10.500079060872395,-3.9785985151926675,5.454264322916667,-1.3375316460927327,1.6887552715660772e+18,10.500077294921876,-0.3900301015935838,-2.3375484481453896,1.3892728328704833,1.6887552715660772e+18,10.500077294921876,3.3455612659454346,-8.692198944091796,3.0161135673522947,1.688755271570404e+18,10.504404134114584,-0.42816564192374545,0.09231701493263245,-2.696155587832133,1.688755271570404e+18,10.504404134114584,-0.42923465371131897,0.09656761089960732,-2.6938393910725913,,,,,,,,,,,,1.6887552715640627e+18,10.498062841796875,-8.740079832077026,37.69311866760254,11.22033987045288,1.6887552715640627e+18,10.498062841796875,-263.2686706542969,131.01091766357422,-120.78365707397461,1.688755271566079e+18,10.500079060872395,0.5010210325320562,-0.4794621914625168,-0.31728676458199817,0.6454074581464132,-0.743715226650238,1.0965937972068787,-0.845544437567393,1.6887552715660772e+18,10.500077294921876,-0.39601215794682504,-2.3202005095779894,1.3264612197875976
107,10.600000000000001,1.6887552716698952e+18,10.603895263671875,8.004565000534058,-4.229209264119466,2.9984877904256186,1.6887552716612454e+18,10.595245442708334,9.562018434206644,-14.0284214814504,6.641678094863892,1.6887552716612454e+18,10.595245442708334,1.770930290222168,-8.951479434967041,3.5821189085642495,1.6887552716655683e+18,10.599568408203124,-0.04230241775512696,-3.5763411283493043,1.157559134811163,1.6887552716655683e+18,10.599568408203124,-0.043371434509754156,-3.5721261262893678,1.1598498638719321,,,,,,,,,,,,1.6887552716640604e+18,10.598060424804688,-5.465600001811981,38.00665969848633,9.64897985458374,1.6887552716640604e+18,10.598060424804688,-259.9941940307617,131.32445678710937,-122.35501708984376,1.6887552716698952e+18,10.603895263671875,0.5065245777368546,-0.5709148744742075,-0.29136642316977185,0.5738393863042196,-1.1225794355074565,1.1568139990170796,-0.6660359005133311,1.6887552716612454e+18,10.595245442708334,9.556036631266275,-14.011073112487793,6.578866481781006
108,10.700000000000001,1.6887552717650662e+18,10.699066162109375,-6.841890001296997,-7.593395328521728,3.015093469619751,1.6887552717650624e+18,10.699062255859374,-3.911168376604716,-15.93241016070048,5.074080030123393,1.6887552717650624e+18,10.699062255859374,2.3167338967323303,-9.028105735778809,3.0041720867156982,1.6887552717607386e+18,10.694738810221354,0.30581440617485595,3.873012858132521,-0.4360814342896144,1.6887552717607386e+18,10.694738810221354,0.3047453935723751,3.8772380774219832,-0.4337398012479146,,,,,,,,,,,,1.6887552717640607e+18,10.698060571289062,-2.1581799358129503,38.336059188842775,10.768939971923828,1.6887552717640607e+18,10.698060571289062,-256.68677520751953,131.65385894775392,-121.2350570678711,1.6887552717650662e+18,10.699066162109375,0.46009459495544436,-0.5007532715797425,-0.3636793434619904,0.6334416389465332,-0.9184794187545776,1.1807306051254272,-0.6153035283088684,1.6887552717650624e+18,10.699062255859374,-3.9171502590179443,-15.915062348047892,5.011268536249797
109,10.8,1.6887552718602312e+18,10.794231160481772,-5.823353290557861,-1.8733830451965332,-1.4277743895848591,1.6887552718688817e+18,10.80288175455729,-2.9366912841796875,-11.122736930847168,1.5028920223315556,1.6887552718688817e+18,10.80288175455729,1.5513660311698914,-9.226481119791666,2.855826656023661,1.6887552718645568e+18,10.79855704752604,-0.31826079078018665,-1.5055028349161148,-1.975029170513153,1.6887552718645568e+18,10.79855704752604,-0.319329805051287,-1.5013031686345737,-1.9727129737536113,1.6887552718213007e+18,10.75530078125,0.0,0.0,2.4379525184631348,39.709999084472656,0.1017427593469619,270.3927001953125,323.94121504833146,-122.9199774,49.2795072,1.6887552718640614e+18,10.798061328125,1.7763199657201767,38.74475936889648,10.857999801635742,1.6887552718640614e+18,10.798061328125,-252.7522735595703,132.06255798339845,-121.14599685668945,1.6887552718602312e+18,10.794231160481772,0.4230980724096298,-0.4936481714248657,-0.4100842873255412,0.6385766565799713,-1.031106819709142,1.224779486656189,-0.40562933931748074,1.6887552718688817e+18,10.80288175455729,-2.9426733255386353,-11.105388959248861,1.4400804564356804
110,10.9,1.6887552719640456e+18,10.898045694986978,5.66582977771759,3.8396379947662354,-0.5287914872169495,1.6887552719726994e+18,10.90669942220052,4.36440896987915,-5.31057071685791,2.3029920756816864,1.6887552719726994e+18,10.90669942220052,-0.3656245544552803,-9.350883801778158,2.9399298826853433,1.688755271968374e+18,10.902373982747397,0.2937752728660901,0.20955223341782894,-1.121268590291341,1.688755271968374e+18,10.902373982747397,0.2927062623202801,0.21375193695227304,-1.118977854649226,,,,,,,,,,,,1.6887552719640602e+18,10.89806015625,7.293159770965576,38.4226791381836,10.750639915466309,1.6887552719640602e+18,10.89806015625,-247.23543548583984,131.7404769897461,-121.2533576965332,1.6887552719640456e+18,10.898045694986978,0.40219174325466156,-0.5720605750878652,-0.43569772442181903,0.5658464133739471,-1.69050532579422,1.2659319440523784,0.14730820835878447,1.6887552719726994e+18,10.90669942220052,4.358426670233409,-5.293222824732463,2.2401805023352304
111,11.0,1.6887552720678666e+18,11.001866617838543,4.740178495645523,1.8209563096364338,-2.270545184612274,1.6887552720678697e+18,11.0018697265625,7.8101729393005375,-8.288976860046386,0.24167507886886597,1.6887552720678697e+18,11.0018697265625,0.015521900821477152,-9.373118019104004,2.8354344844818113,1.688755272072194e+18,11.006194173177084,0.37715837856133777,1.9801451166470845,0.9139816562334696,1.688755272072194e+18,11.006194173177084,0.3761402741074562,1.9843447804450989,0.9162724117437998,,,,,,,,,,,,1.688755272064062e+18,10.998061938476562,9.368379735946656,38.336059188842775,10.635959720611572,1.688755272064062e+18,10.998061938476562,-245.16021728515625,131.653857421875,-121.36803894042968,1.6887552720678666e+18,11.001866617838543,0.37749198575814563,-0.532385915517807,-0.4639177272717158,0.5965193112691244,-1.5628107786178589,1.2770626346270244,0.1444530840963125,1.6887552720678697e+18,11.0018697265625,7.804191207885742,-8.271628952026367,0.17886350750923158
112,11.100000000000001,1.6887552721716887e+18,11.105688680013023,-3.3440001706282296,1.1799127260843914,0.8587753375371298,1.6887552721630351e+18,11.097035237630209,-3.6994035243988037,-6.568996071815491,2.411167579392592,1.6887552721630351e+18,11.097035237630209,1.7995604077974956,-9.346763928731281,2.2464075485865274,1.688755272167362e+18,11.101362158203125,0.20931297540664673,-0.028069233894348188,2.632493185997009,1.688755272167362e+18,11.101362158203125,0.20827450454235077,-0.02385430335998535,2.634814476966858,,,,,,,,,,,,1.6887552721640635e+18,11.098063525390625,6.314719796180725,38.79355926513672,10.78357982635498,1.6887552721640635e+18,11.098063525390625,-248.21387481689453,132.11135559082032,-121.22041854858398,1.6887552721716887e+18,11.105688680013023,0.39144844313462573,-0.4375198533137639,-0.45559292534987134,0.6676115194956461,-0.8854088286558787,1.2557672063509624,-0.3862152323126793,1.6887552721630351e+18,11.097035237630209,-3.7053855260213218,-6.551648199558258,2.348356030881405
113,11.200000000000001,1.688755272266854e+18,11.200853662109376,4.111058473587036,-11.163880825042725,3.1483299493789674,1.6887552722668506e+18,11.200850667317708,8.072087407112122,-18.204893350601196,5.79551621278127,1.6887552722668506e+18,11.200850667317708,4.823163072268168,-8.089689175287882,2.631101369857788,1.6887552722625298e+18,11.196529866536459,-0.07332928664982319,-0.5308419006566206,3.091385324796041,1.6887552722625298e+18,11.196529866536459,-0.07437284539143245,-0.5265658597151437,3.093676189581553,,,,,,,,,,,,1.6887552722640614e+18,11.198061596679688,-8.679079782962798,38.71547927856445,9.932019805908203,1.6887552722640614e+18,11.198061596679688,-263.2076782226562,132.0332763671875,-122.07197723388671,1.688755272266854e+18,11.200853662109376,0.46666854023933413,-0.38951430320739744,-0.3180507481098175,0.7268125891685486,-0.5053256571292877,0.9722535371780395,-0.8675845265388489,1.6887552722668506e+18,11.200850667317708,8.066105442742506,-18.187546094258625,5.732704480489095
114,11.3,1.6887552723620232e+18,11.296023234049478,-0.6376833120981852,0.5195037523905436,0.7053933540980021,1.6887552723706714e+18,11.304671264648436,5.578666587670644,-6.782954136530559,3.453042507171631,1.6887552723706714e+18,11.304671264648436,5.92403785387675,-7.344892104466756,2.67501429716746,1.6887552723663485e+18,11.300348714192708,-0.2316451879839102,-0.1994984063009421,0.29746591051419585,1.6887552723663485e+18,11.300348714192708,-0.232714203496774,-0.1952732503414154,0.2997821271419525,1.6887552723403978e+18,11.274397705078124,0.0,0.0,2.465272188186645,36.18600082397461,0.1085632145404815,270.2807006835937,323.8270235975561,-122.9199931,49.2795065,1.6887552723640604e+18,11.298060546875,-15.484239673614502,37.529639434814456,9.396439933776856,1.6887552723640604e+18,11.298060546875,-270.01283569335936,130.8474365234375,-122.6075569152832,1.6887552723620232e+18,11.296023234049478,0.47837049265702564,-0.3517083426316579,-0.2764277805884679,0.7555765310923258,-0.41888290643692017,0.8545958697795868,-0.9359144667784373,1.6887552723706714e+18,11.304671264648436,5.572684446970622,-6.7656063636144,3.390230894088745
115,11.4,1.6887552724658412e+18,11.39984110514323,-4.622866312662761,5.836498975753784,-1.073090175787608,1.6887552724658422e+18,11.399842041015626,0.12454644441604615,-2.079721808433533,1.7801403760910035,1.6887552724658422e+18,11.399842041015626,4.923611164093018,-7.988319206237793,2.8140025615692137,1.6887552724701688e+18,11.404168945312499,-0.3538691500822703,0.1919644003113111,-2.1419480443000793,1.6887552724701688e+18,11.404168945312499,-0.35493815938631695,0.19618955502907434,-2.1396064360936484,,,,,,,,,,,,1.6887552724640604e+18,11.398060571289061,-10.472479820251465,39.795178985595705,8.642479801177979,1.6887552724640604e+18,11.398060571289061,-265.00107727050784,133.11297607421875,-123.36151657104492,1.6887552724658412e+18,11.39984110514323,0.4380745788415273,-0.38049669563770294,-0.32588229576746625,0.7456347346305847,-0.5217679440975189,0.9605640868345896,-0.7830799122651418,1.6887552724658422e+18,11.399842041015626,0.11856434643268594,-2.0623738765716553,1.7173288285732269
116,11.5,1.6887552725696576e+18,11.503657592773436,-3.11768901348114,1.9285542964935303,-1.8940194050470989,1.6887552725610094e+18,11.495009440104168,-1.2001002430915833,-5.823532124360402,1.1492527822653453,1.6887552725610094e+18,11.495009440104168,2.735667407512665,-8.812906265258789,3.202167510986328,1.6887552725653335e+18,11.499333642578126,-0.3939164564013481,-1.1056660939007998,-2.754605197906494,1.6887552725653335e+18,11.499333642578126,-0.3949854664504528,-1.1014205526560545,-2.7523144245147706,,,,,,,,,,,,1.688755272564061e+18,11.498061108398437,0.24156002700328827,41.27747917175293,6.873479843139648,1.688755272564061e+18,11.498061108398437,-254.28703765869142,134.59527740478515,-125.13051910400391,1.6887552725696576e+18,11.503657592773436,0.3727893680334091,-0.4546472579240799,-0.40906823178132373,0.6962393621603647,-0.9384962220986685,1.1375633080800374,-0.3466160148382187,1.6887552725610094e+18,11.495009440104168,-1.2060823316375415,-5.806184152762095,1.0864412176112335
117,11.600000000000001,1.6887552726648274e+18,11.59882734375,10.14388382434845,-1.0963733673095704,2.0539003372192384,1.688755272664828e+18,11.598827799479167,10.231011708577475,-10.853344917297363,4.749354183673859,1.688755272664828e+18,11.598827799479167,1.3988067706425984,-9.152093728383383,3.2331278324127197,1.6887552726605023e+18,11.594502115885417,0.48456885914007825,0.10690141220887502,0.013159048433105188,1.6887552726605023e+18,11.594502115885417,0.4834998498360316,0.11112654705842336,0.015475249849259817,,,,,,,,,,,,1.6887552726640596e+18,11.598059765624999,5.59491982460022,40.69431915283203,7.441999912261963,1.6887552726640596e+18,11.598059765624999,-248.93367462158204,134.01211853027343,-124.56199722290039,1.6887552726648274e+18,11.59882734375,0.37863766551017763,-0.49828587770462035,-0.4266250252723694,0.6527604937553406,-1.168790578842163,1.2063199281692505,-0.19576282054185862,1.688755272664828e+18,11.598827799479167,10.225029667218527,-10.835997104644775,4.686542530854543
118,11.700000000000001,1.6887552727599962e+18,11.693995930989582,-4.473914881547292,-7.939750035603841,0.5015725692113243,1.6887552727686484e+18,11.702648640950521,-2.588136692841848,-18.033108949661255,3.0844480991363525,1.6887552727686484e+18,11.702648640950521,1.9785784681638081,-9.182249387105305,2.8089752197265625,1.688755272764321e+18,11.69832088216146,-0.0026216308275858746,0.410170574982961,0.3949752772847812,1.688755272764321e+18,11.69832088216146,-0.0036906426151593528,0.41439568003018706,0.39729145914316183,,,,,,,,,,,,1.6887552727640614e+18,11.698061547851562,7.216299915313721,40.889519119262694,7.344399881362915,1.6887552727640614e+18,11.698061547851562,-247.31229553222656,134.2073181152344,-124.65959777832032,1.6887552727599962e+18,11.693995930989582,0.345507671435674,-0.4357191820939382,-0.4610297580560048,0.6909337341785431,-0.9757108092308044,1.2188384135564168,-0.2162024676799774,1.6887552727686484e+18,11.702648640950521,-2.5941188633441925,-18.015760739644367,3.021636505921682
