seconds_elapsed_rounded,accelerometer_time,accelerometer_seconds_elapsed,accelerometer_z,accelerometer_y,accelerometer_x,accelerometeruncalibrated_time,accelerometeruncalibrated_seconds_elapsed,accelerometeruncalibrated_z,accelerometeruncalibrated_y,accelerometeruncalibrated_x,gravity_time,gravity_seconds_elapsed,gravity_z,gravity_y,gravity_x,gyroscope_time,gyroscope_seconds_elapsed,gyroscope_z,gyroscope_y,gyroscope_x,gyroscopeuncalibrated_time,gyroscopeuncalibrated_seconds_elapsed,gyroscopeuncalibrated_z,gyroscopeuncalibrated_y,gyroscopeuncalibrated_x,location_time,location_seconds_elapsed,location_bearingAccuracy,location_speedAccuracy,location_verticalAccuracy,location_horizontalAccuracy,location_speed,location_bearing,location_altitude,location_longitude,location_latitude,magnetometer_time,magnetometer_seconds_elapsed,magnetometer_z,magnetometer_y,magnetometer_x,magnetometeruncalibrated_time,magnetometeruncalibrated_seconds_elapsed,magnetometeruncalibrated_z,magnetometeruncalibrated_y,magnetometeruncalibrated_x,orientation_time,orientation_seconds_elapsed,orientation_qz,orientation_qy,orientation_qx,orientation_qw,orientation_roll,orientation_pitch,orientation_yaw
0.0,1.688875722670532e+18,45.0005322265625,-12.963627815246582,-2.8084001541137695,0.7521340250968933,1.688875722670532e+18,45.0005322265625,-8.293223857879639,-11.354541301727297,-0.5482554957270622,1.688875722670532e+18,45.0005322265625,4.647602558135986,-8.530395984649658,-1.365103006362915,1.688875722670532e+18,45.0005322265625,-0.5190827399492264,2.2662336826324463,0.2008219361305237,1.688875722670532e+18,45.0005322265625,-0.5199990421533585,2.270662486553192,0.2029599845409393,,,,,,,,,,,,1.6888757226659948e+18,44.995994873046875,-14.74735984802246,45.923239135742186,-7.424919891357422,1.6888757226659948e+18,44.995994873046875,-270.14215087890625,141.15643920898438,-140.78312072753906,1.688875722670532e+18,45.0005322265625,-0.4038784652948379,0.3096518963575362,-0.4090355038642883,0.7573629915714264,0.2848314344882965,1.0547720789909365,0.8131712973117828
0.05,1.688875722713776e+18,45.043775797526045,-3.891079187393189,3.2639430363972983,-0.983786940574646,1.688875722713776e+18,45.043775797526045,-0.1168495019276936,-5.577470143636067,-2.885145902633667,1.688875722713776e+18,45.043775797526045,3.7514283657073975,-8.825668017069498,-1.9660724401474,1.688875722713776e+18,45.043775797526045,0.9089674750963846,3.193959891796112,-2.827237010002136,1.688875722713776e+18,45.043775797526045,0.9080512126286824,3.1983885765075684,-2.825099070866903,1.6888757227137846e+18,45.04378466796875,0.0,0.0,1.0720134973526,8.58899974822998,1.4876583814620972,84.69786834716797,41.20000076293945,-122.7521062,49.1905185,1.6888757227159887e+18,45.04598872070313,-12.736799621582032,46.755278778076175,-5.375319957733154,1.6888757227159887e+18,45.04598872070313,-268.1315979003906,141.9884796142578,-138.7335174560547,1.688875722713776e+18,45.043775797526045,-0.4009715318679809,0.3671029210090637,-0.416008323431015,0.7280383110046387,0.4906852344671885,1.120566685994466,0.6916413307189941
0.1,1.6888757227656814e+18,45.09568115234375,-10.50078010559082,0.5696763992309574,-4.309894164403279,1.6888757227656814e+18,45.09568115234375,-8.964510758717855,-8.847661018371582,-6.502096811930339,1.6888757227656814e+18,45.09568115234375,1.513468046983083,-9.401592254638672,-2.2569159666697183,1.6888757227656814e+18,45.09568115234375,-2.6745716532071433,4.667774120966594,-3.0793208281199136,1.6888757227656814e+18,45.09568115234375,-2.675538976987203,4.672202984491984,-3.07718276977539,,,,,,,,,,,,1.6888757227659912e+18,45.09599111328125,-5.848679924011231,48.22171936035157,-4.426159954071045,1.6888757227659912e+18,45.09599111328125,-261.2434814453125,143.45491638183594,-137.78435668945312,1.6888757227656814e+18,45.09568115234375,-0.4260132114092509,0.4808462659517924,-0.4372357428073883,0.6277538736661276,1.001572052637736,1.2885833581288657,0.4089017311731974
0.15,1.6888757228175772e+18,45.147577311197914,2.7920045057932534,-4.233861128489177,-3.115342140197754,1.6888757228175772e+18,45.147577311197914,2.700100859006246,-13.954741954803469,-4.40060027440389,1.6888757228175772e+18,45.147577311197914,-0.1147052198648452,-9.705135663350424,-1.3499715725580852,1.6888757228175772e+18,45.147577311197914,-0.488183150688807,3.7883826891581216,-2.674113512039185,1.6888757228175772e+18,45.147577311197914,-0.4890994330247243,3.79291319847107,-2.6719754536946616,,,,,,,,,,,,1.688875722815993e+18,45.14599296875,-1.4078799605369567,47.51411895751953,-9.725839805603028,1.688875722815993e+18,45.14599296875,-256.80266723632815,142.7473175048828,-143.084033203125,1.6888757228175772e+18,45.147577311197914,-0.4689176281293233,0.5430079897244772,-0.4586021105448405,0.5231762727101644,1.6400978565216064,1.4255054791768391,-0.0390451724330583
0.2,1.6888757228694766e+18,45.19947664388021,4.274619102478027,4.154980500539144,2.3430370887120566,1.6888757228694766e+18,45.19947664388021,2.8937201499938965,-5.451846917470296,0.9040881743033728,1.6888757228694766e+18,45.19947664388021,-1.4037002325057983,-9.591082255045572,-1.503662387530009,1.6888757228694766e+18,45.19947664388021,0.6486879686514536,2.690861384073893,-1.0150544345378876,1.6888757228694766e+18,45.19947664388021,0.6477717061837515,2.695290207862854,-1.0129163761933644,,,,,,,,,,,,1.6888757228659912e+18,45.1959912109375,3.545319890975952,47.814238739013675,-9.345199775695802,1.6888757228659912e+18,45.1959912109375,-251.84947204589844,143.0474395751953,-142.70339660644532,1.6888757228694766e+18,45.19947664388021,-0.4722375075022378,0.6195898056030273,-0.4328790803750356,0.4532109598318736,2.321749130884806,1.359990914662679,-0.5436468124389648
0.25,1.6888757229213796e+18,45.25137955729167,0.13765815893809,5.074679056803386,-1.9836841026941936,1.6888757229213796e+18,45.25137955729167,-1.3324034214019775,-4.5375893115997314,-3.2985060612360635,1.6888757229213796e+18,45.25137955729167,-1.4928630193074544,-9.59652328491211,-1.379535436630249,1.6888757229213796e+18,45.25137955729167,-0.4652756949265798,1.444950819015503,0.0480038244277238,1.6888757229213796e+18,45.25137955729167,-0.466191994647185,1.4494305451711018,0.0501418511072794,,,,,,,,,,,,1.68887572291599e+18,45.24598989257812,2.3350799798965456,48.25587921142578,-9.062159729003906,1.68887572291599e+18,45.24598989257812,-253.05971069335936,143.48908081054688,-142.42035827636718,1.6888757229213796e+18,45.25137955729167,-0.493189920981725,0.6392791271209717,-0.4090214868386586,0.4250624080499013,2.398133913675944,1.3624170621236165,-0.5261785984039307
0.3,1.6888757229732823e+18,45.30328222656251,4.073911905288696,-0.6284211476643881,-2.1880356073379517,1.6888757229732823e+18,45.30328222656251,2.1591235796610513,-10.196415583292644,-3.204188903172811,1.6888757229732823e+18,45.30328222656251,-1.9375897645950315,-9.552249272664389,-1.0808667341868083,1.6888757229732823e+18,45.30328222656251,-0.1607593689113855,1.845373034477234,-1.4557936986287434,1.6888757229732823e+18,45.30328222656251,-0.1616756686319907,1.8498018185297649,-1.4536556204160054,,,,,,,,,,,,1.688875722965994e+18,45.29599409179688,2.779159927368164,47.75324020385742,-10.306559753417968,1.688875722965994e+18,45.29599409179688,-252.61564025878903,142.98644104003907,-143.66476135253907,1.6888757229732823e+18,45.30328222656251,-0.4999909202257792,0.6600712537765503,-0.4034704367319743,0.3888129691282908,2.628313938776652,1.3425136009852092,-0.6850925087928772
0.35,1.688875723025179e+18,45.35517903645833,0.659295876820882,-2.0676854451497397,-6.991559187571208,1.688875723025179e+18,45.35517903645833,-1.669990877310435,-11.571091969807943,-7.7455668449401855,1.688875723025179e+18,45.35517903645833,-2.352088212966919,-9.487661361694336,-0.818721354007721,1.688875723025179e+18,45.35517903645833,-0.5687664598226547,-0.4434372385342915,0.2856304248174031,1.688875723025179e+18,45.35517903645833,-0.569733664393425,-0.4389575918515522,0.2877684434254964,,,,,,,,,,,,1.688875723015995e+18,45.34599492187501,4.8311999320983885,47.389678955078125,-11.677839851379394,1.688875723015995e+18,45.34599492187501,-250.5635955810547,142.6228790283203,-145.03603515625,1.688875723025179e+18,45.35517903645833,-0.4991512199242909,0.6743147571881613,-0.4061576624711354,0.3620559175809224,2.808829148610433,1.3146272897720337,-0.8265031377474467
0.4,1.688875723077078e+18,45.4070780436198,2.8585841258366904,-1.8446747461954751,-7.242664972941081,1.688875723077078e+18,45.4070780436198,0.8147560755411783,-11.384053230285645,-8.278767585754395,1.688875723077078e+18,45.4070780436198,-2.0666294495264688,-9.523633321126304,-1.1008161107699077,1.688875723077078e+18,45.4070780436198,0.8973610401153564,-0.6857980812589327,0.7892378916343054,1.688875723077078e+18,45.4070780436198,0.8963938554128011,-0.6813692773381869,0.7913759549458822,,,,,,,,,,,,1.6888757230659994e+18,45.3959994140625,4.062599945068359,47.67027893066406,-12.053599739074707,1.6888757230659994e+18,45.3959994140625,-251.3321960449219,142.90347595214843,-145.41179809570312,1.688875723077078e+18,45.4070780436198,-0.4983041683832804,0.6669741272926331,-0.4003344376881917,0.3826387425263722,2.652199029922486,1.3293981552124023,-0.693862239519755
0.45,1.6888757231203256e+18,45.45032580566406,-0.8213911056518555,-4.8042497634887695,-3.7153549790382385,1.6888757231203256e+18,45.45032580566406,-1.8613169193267824,-14.417654037475586,-5.3593244552612305,1.6888757231203256e+18,45.45032580566406,-1.0627271234989166,-9.59765911102295,-1.708682894706726,1.6888757231203256e+18,45.45032580566406,1.2602913975715635,-2.2175936102867126,2.622826337814331,1.6888757231203256e+18,45.45032580566406,1.2593750357627869,-2.2130883932113647,2.6249642372131348,,,,,,,,,,,,1.6888757231159926e+18,45.445992480468746,1.017479991912842,48.63651885986328,-9.686800003051758,1.6888757231159926e+18,45.445992480468746,-254.37731018066407,143.86971740722657,-143.0449981689453,1.6888757231203256e+18,45.45032580566406,-0.5020332932472229,0.6366527676582336,-0.385526031255722,0.4402162432670593,2.1272276043891907,1.3632855415344238,-0.2404744699597358
0.5,1.6888757231635791e+18,45.49357902018229,-5.908501863479614,-10.515813509623207,-0.4182491302490234,1.6888757231635791e+18,45.49357902018229,-5.841677745183309,-20.002003351847332,-2.867399056752523,1.6888757231635791e+18,45.49357902018229,0.044022711731183,-9.470444679260256,-2.5138634045918784,1.6888757231635791e+18,45.49357902018229,1.9487109978993733,-4.308279832204183,1.8024088144302368,1.6888757231635791e+18,45.49357902018229,1.947794755299886,-4.303800264994304,1.80454687277476,,,,,,,,,,,,1.6888757231659894e+18,45.49598916015625,-2.893839883804321,49.56127853393555,-6.2122400283813475,1.6888757231659894e+18,45.49598916015625,-258.28863525390625,144.7944763183594,-139.5704376220703,1.6888757231635791e+18,45.49357902018229,-0.4814284642537434,0.5962497989336649,-0.3766209085782369,0.5190732677777609,1.5689217646916709,1.3094030221303303,0.1856740862131118
0.55,1.6888757232154767e+18,45.5454765625,-1.6082162062327068,-10.609596570332846,5.23746919631958,1.6888757232154767e+18,45.5454765625,0.2354935010274251,-19.9236380259196,2.819742123285929,1.6888757232154767e+18,45.5454765625,1.8209083875020344,-9.298296292622885,-2.4824405511220298,1.6888757232154767e+18,45.5454765625,-1.2779810229937236,-2.913318196932474,2.824131886164347,1.6888757232154767e+18,45.5454765625,-1.2789481828610103,-2.908889373143514,2.826269785563151,1.6888757232327764e+18,45.5627763671875,0.0,0.0,1.0720134973526,8.4399995803833,1.463229775428772,84.81752014160156,41.20000076293945,-122.7520935,49.1905196,1.6888757232159903e+18,45.54599047851563,-7.9470799446105955,49.161119079589845,-6.473319721221924,1.6888757232159903e+18,45.54599047851563,-263.3418762207031,144.39431762695312,-139.83151550292968,1.6888757232154767e+18,45.5454765625,-0.4763119717439015,0.5101864337921143,-0.3824966549873352,0.6047350764274597,0.9369278947512308,1.2471168438593547,0.6331235766410828
0.6,1.688875723267376e+18,45.597376220703126,-3.512971798578898,-3.0065415700276694,2.7262784242630005,1.688875723267376e+18,45.597376220703126,-0.3906282981236775,-12.176077524820965,1.1407781839370728,1.688875723267376e+18,45.597376220703126,3.0995419025421143,-9.153790791829426,-1.6502137581507366,1.688875723267376e+18,45.597376220703126,0.8752171993255615,-4.041993538538615,1.7360281149546306,1.688875723267376e+18,45.597376220703126,0.8742499947547913,-4.037564675013225,1.7382170756657918,,,,,,,,,,,,1.688875723265994e+18,45.595993798828125,-11.465559577941894,47.93867874145508,-10.01131992340088,1.688875723265994e+18,45.595993798828125,-266.8603576660156,143.1718780517578,-143.36951599121093,1.688875723267376e+18,45.597376220703126,-0.4724437395731608,0.4195412099361419,-0.4070048928260803,0.6588754455248514,0.4905887842178345,1.2046842177708943,0.9028804699579874
0.65,1.6888757233192755e+18,45.64927530924479,-9.01581605275472,8.977553049723307,1.307284593582153,1.6888757233192755e+18,45.64927530924479,-4.854438861211141,0.2594218651453654,-0.4434697929148872,1.6888757233192755e+18,45.64927530924479,4.138576030731201,-8.702385902404785,-1.815467834472656,1.6888757233192755e+18,45.64927530924479,1.4005103905995686,-3.302541176478068,1.5898785988489788,1.6888757233192755e+18,45.64927530924479,1.3995431860287983,-3.2981123129526773,1.5921184221903484,,,,,,,,,,,,1.6888757233159972e+18,45.64599697265625,-13.666439819335938,47.88255844116211,-8.64979953765869,1.6888757233159972e+18,45.64599697265625,-269.06122436523435,143.11575622558593,-142.00799865722655,1.6888757233192755e+18,45.64927530924479,-0.4256206850210826,0.3603942592938741,-0.3986875414848327,0.7274962266286215,0.4137355983257293,1.092122236887614,0.8048027555147806
0.7,1.688875723371175e+18,45.70117496744791,-9.334489663441977,13.463374773661297,-1.3158140182495115,1.688875723371175e+18,45.70117496744791,-4.294717748959859,5.094120105107625,-2.3003001610438027,1.688875723371175e+18,45.70117496744791,5.016970634460449,-8.353509267171225,-1.0491996606191,1.688875723371175e+18,45.70117496744791,-0.4957171579202016,-3.999894618988037,1.1767809788386028,1.688875723371175e+18,45.70117496744791,-0.4966843426227569,-3.9954658349355063,1.1789190371831255,,,,,,,,,,,,1.6888757233659955e+18,45.695995556640625,-15.78679962158203,47.41163940429688,-9.71851978302002,1.6888757233659955e+18,45.695995556640625,-271.1815979003906,142.64483642578125,-143.07671813964845,1.688875723371175e+18,45.70117496744791,-0.389963428179423,0.2746467739343643,-0.4101482033729553,0.7767530878384908,0.2069862236579258,1.0196011861165364,0.8138083418210348
0.75,1.6888757234230671e+18,45.75306722005208,-2.91507617632548,8.726772944132486,3.6849586168924966,1.6888757234230671e+18,45.75306722005208,2.2412772178649902,0.3557329575220744,3.5302109718322754,1.6888757234230671e+18,45.75306722005208,5.133551915486653,-8.355294863382975,-0.2194611231486002,1.6888757234230671e+18,45.75306722005208,0.4674137234687805,-1.2876530488332112,-0.9644543826580046,1.6888757234230671e+18,45.75306722005208,0.4664974411328633,-1.2832242647806804,-0.9622145593166352,,,,,,,,,,,,1.6888757234159918e+18,45.7459916015625,-14.537519645690915,46.4893196105957,-13.307759475708009,1.6888757234159918e+18,45.7459916015625,-269.93231201171875,141.72251586914064,-146.66595458984375,1.6888757234230671e+18,45.75306722005208,-0.3695774873097737,0.2180073857307433,-0.4369861582914988,0.7904361089070638,0.0416091910252968,1.019937793413798,0.8513772487640381
0.8,1.6888757234749737e+18,45.804973632812505,8.28489891688029,-0.0740594863891601,2.4786109129587808,1.6888757234749737e+18,45.804973632812505,12.642677625020346,-8.836095492045084,1.6821543375651042,1.6888757234749737e+18,45.804973632812505,4.33497683207194,-8.746290842692057,-0.8611701428890228,1.6888757234749737e+18,45.804973632812505,1.8690948883692424,1.154688000679016,-2.076025605201721,1.6888757234749737e+18,45.804973632812505,1.8681786457697551,1.1592185993989308,-2.073887507120768,,,,,,,,,,,,1.6888757234659945e+18,45.79599438476563,-10.326079940795898,48.163159942626955,-11.858399772644043,1.6888757234659945e+18,45.79599438476563,-265.7208740234375,143.3963592529297,-145.2165985107422,1.6888757234749737e+18,45.804973632812505,-0.3307899435361226,0.2521609663963317,-0.4639573792616526,0.7817868590354919,0.1991468667984008,1.1019745270411174,0.6761812567710876
0.85,1.6888757235268718e+18,45.85687182617187,5.440506458282471,-18.218231201171875,-0.4312619169553121,1.6888757235268718e+18,45.85687182617187,9.798608779907228,-26.99004141489665,-1.154138113061587,1.6888757235268718e+18,45.85687182617187,4.335300922393799,-8.75606377919515,-0.7875896791617075,1.6888757235268718e+18,45.85687182617187,-0.5262604157129923,-3.433622678120931,1.0497210224469502,1.6888757235268718e+18,45.85687182617187,-0.5271767179171244,-3.4291938940684,1.0518590410550437,,,,,,,,,,,,1.6888757235159928e+18,45.845992724609374,-7.612799739837646,49.190398406982425,-8.85719985961914,1.6888757235159928e+18,45.845992724609374,-263.00758666992186,144.42359313964843,-142.21539916992188,1.6888757235268718e+18,45.85687182617187,-0.3071997165679931,0.2342052112023035,-0.4728599588076274,0.7913390000661215,0.1805744469165801,1.1037500699361165,0.6286083261171976
0.9,1.68887572357012e+18,45.90011987304688,0.3772581815719604,3.653376817703247,6.274179458618164,1.68887572357012e+18,45.90011987304688,5.169394373893738,-4.930411100387573,6.065805435180664,1.68887572357012e+18,45.90011987304688,4.76933479309082,-8.568042755126953,-0.2730876356363296,1.68887572357012e+18,45.90011987304688,0.3985895663499832,-0.824133574962616,0.7292967438697815,1.68887572357012e+18,45.90011987304688,0.3976732790470123,-0.8197048157453537,0.7314347624778748,,,,,,,,,,,,1.6888757235659963e+18,45.89599638671875,-8.383839893341065,49.222119140625,-10.670119857788086,1.6888757235659963e+18,45.89599638671875,-263.7786376953125,144.45531616210937,-144.0283172607422,1.68887572357012e+18,45.90011987304688,-0.2878419905900955,0.1842467635869979,-0.4724498540163039,0.8123881220817566,0.0562524590641259,1.062769055366516,0.6479796171188354
0.95,1.6888757236133686e+18,45.94336865234376,-14.163678169250488,-5.824376742045085,-0.0743037462234497,1.6888757236133686e+18,45.94336865234376,-9.277371883392334,-14.35254923502604,-0.3503491481145223,1.6888757236133686e+18,45.94336865234376,4.8635053634643555,-8.51242733001709,-0.3407588899135589,1.6888757236133686e+18,45.94336865234376,-0.9299913992484412,2.421826203664144,0.288888348887364,1.6888757236133686e+18,45.94336865234376,-0.9309586385885872,2.426254908243815,0.2910772959391276,,,,,,,,,,,,1.6888757236159928e+18,45.945992724609376,-11.199599838256834,48.19975891113281,-11.35331974029541,1.6888757236159928e+18,45.945992724609376,-266.5943908691406,143.43295593261718,-144.71151428222657,1.6888757236133686e+18,45.94336865234376,-0.3189203937848409,0.2035125841697057,-0.4590606292088826,0.8035957415898641,0.0691088686386743,1.0510849555333457,0.7155156135559082
1.0,1.6888757236652695e+18,45.99526936848958,-2.1187308629353843,3.1034396489461265,-0.2942567269007365,1.6888757236652695e+18,45.99526936848958,2.2348963419596353,-5.603791236877441,-1.492722565929095,1.6888757236652695e+18,45.99526936848958,4.330825726191203,-8.691485722859701,-1.2631793022155762,1.6888757236652695e+18,45.99526936848958,0.9077457586924236,4.557054758071899,-1.9231055974960327,1.6888757236652695e+18,45.99526936848958,0.9067785739898682,4.561483542124431,-1.9209675391515095,,,,,,,,,,,,1.6888757236659927e+18,45.99599272460938,-11.204479598999024,48.97079849243164,-8.544879627227782,1.6888757236659927e+18,45.99599272460938,-266.5992797851562,144.2040008544922,-141.9030792236328,1.6888757236652695e+18,45.99526936848958,-0.3454776406288147,0.2819899121920268,-0.4455835322539012,0.7752341826756796,0.288810854156812,1.089685797691345,0.6605153481165568
1.05,1.6888757237171722e+18,46.04717220052083,-10.129584948221842,-0.0867636998494466,-2.6207875410715737,1.6888757237171722e+18,46.04717220052083,-8.096115430196127,-9.40658473968506,-4.810570637385051,1.6888757237171722e+18,46.04717220052083,2.01066788037618,-9.304075876871744,-2.2544965744018555,1.6888757237171722e+18,46.04717220052083,-1.1496992508570354,5.58071231842041,-3.924096584320069,1.6888757237171722e+18,46.04717220052083,-1.1506156275669734,5.585140864054362,-3.9219584465026855,,,,,,,,,,,,1.68887572371599e+18,46.045989941406255,-4.096759915351868,50.02243881225586,-5.953600025177002,1.68887572371599e+18,46.045989941406255,-259.4915496826172,145.2556396484375,-139.31179809570312,1.6888757237171722e+18,46.04717220052083,-0.3742079834143321,0.4261062542597453,-0.4635643561681111,0.679012656211853,0.8695802887280782,1.2531780004501345,0.3521549006303151
1.1,1.6888757237690696e+18,46.09906966145834,-1.5384604334831238,-2.3170318603515625,-5.089153130849202,1.6888757237690696e+18,46.09906966145834,-1.301097293694814,-11.967303911844889,-6.811369101206462,1.6888757237690696e+18,46.09906966145834,0.2145616461833318,-9.63452688852946,-1.7869294087092082,1.6888757237690696e+18,46.09906966145834,-0.5976807028055191,4.366057713826497,-2.1583905617396035,1.6888757237690696e+18,46.09906966145834,-0.5986479222774506,4.370486259460449,-2.156252463658651,1.688875723751771e+18,46.08177099609375,0.0,0.0,1.0720134973526,8.236000061035156,1.4487344026565552,84.74544525146484,41.20000076293945,-122.7520803,49.1905206,1.6888757237659922e+18,46.0959921875,0.8076399654150009,49.507599639892575,-9.5306396484375,1.6888757237659922e+18,46.0959921875,-254.5871551513672,144.7407989501953,-142.8888366699219,1.6888757237690696e+18,46.09906966145834,-0.4263121287027995,0.5125999947388967,-0.4750726322333018,0.573249876499176,1.4520849386850994,1.3821565707524617,0.0087053564687569
1.15,1.688875723820975e+18,46.15097517903646,2.234022776285807,2.0316672325134277,1.061379353205363,1.688875723820975e+18,46.15097517903646,0.8646065791447958,-7.485945542653401,-0.8370891710122427,1.688875723820975e+18,46.15097517903646,-1.3922176361083984,-9.501867612202965,-1.9631820519765215,1.688875723820975e+18,46.15097517903646,0.5731443166732788,2.9665652910868325,-2.449976841608683,1.688875723820975e+18,46.15097517903646,0.5722280144691467,2.971044937769572,-2.44783886273702,,,,,,,,,,,,1.6888757238159928e+18,46.145992822265626,4.7970398426055905,49.402678680419925,-9.420839881896972,1.6888757238159928e+18,46.145992822265626,-250.59775390625,144.63587646484376,-142.77904052734374,1.688875723820975e+18,46.15097517903646,-0.4278935492038727,0.5990883509318033,-0.4600906471411387,0.4956502219041188,2.175890604654948,1.3213303883870442,-0.5332085390885671
1.2,1.6888757238728684e+18,46.20286857096354,4.703149716059367,4.29536771774292,3.257967193921407,1.6888757238728684e+18,46.20286857096354,2.6743780970573425,-5.140979607899983,1.5162519216537476,1.6888757238728684e+18,46.20286857096354,-2.0515730381011963,-9.420602162679035,-1.8064287106196089,1.6888757238728684e+18,46.20286857096354,-0.2200642029444376,2.4135795434316,0.0833831131458282,1.6888757238728684e+18,46.20286857096354,-0.2210313975811004,2.4181101322174072,0.0855211317539214,,,,,,,,,,,,1.688875723865995e+18,46.195994970703126,7.700639915466309,49.25627899169922,-9.664839744567873,1.688875723865995e+18,46.195994970703126,-247.69415283203125,144.4894775390625,-143.02303466796874,1.6888757238728684e+18,46.20286857096354,-0.4399718542893727,0.638691266377767,-0.4432852268218994,0.4490702152252197,2.4218478997548423,1.2886671622594197,-0.6625859340031942
1.25,1.6888757239247695e+18,46.25476936848958,0.0103928248087565,1.2419781684875488,-3.244235873222351,1.6888757239247695e+18,46.25476936848958,-2.1950159867604575,-8.246464252471924,-4.402195453643799,1.6888757239247695e+18,46.25476936848958,-2.2282102902730307,-9.472697257995604,-1.2226731379826865,1.6888757239247695e+18,46.25476936848958,-0.7926994562149048,2.200489322344462,-0.5174537648757299,1.6888757239247695e+18,46.25476936848958,-0.7937175631523132,2.204918066660563,-0.515315741300583,,,,,,,,,,,,1.688875723915995e+18,46.245994873046875,5.851119899749756,48.7755989074707,-11.092239570617677,1.688875723915995e+18,46.245994873046875,-249.5436767578125,144.00879516601563,-144.4504364013672,1.6888757239247695e+18,46.25476936848958,-0.4760474860668182,0.6592571139335632,-0.4228708545366923,0.399595707654953,2.639976739883423,1.308279275894165,-0.7522674600283304
1.3,1.6888757239766671e+18,46.3066670735677,2.3584484259287515,-2.273167610168457,-8.017377376556396,1.6888757239766671e+18,46.3066670735677,-0.3296113113562266,-11.677572886149088,-8.81136973698934,1.6888757239766671e+18,46.3066670735677,-2.7108612855275473,-9.388660113016764,-0.8587058385213217,1.6888757239766671e+18,46.3066670735677,-0.2566143018193543,0.617432047923406,-0.4981605956951777,1.6888757239766671e+18,46.3066670735677,-0.2575815049155305,0.6219626069068909,-0.4960225721200307,,,,,,,,,,,,1.688875723965992e+18,46.295991992187496,6.439159965515136,48.04847869873047,-13.266279602050782,1.688875723965992e+18,46.295991992187496,-248.95563354492188,143.28167114257812,-146.62447814941407,1.6888757239766671e+18,46.3066670735677,-0.4788190225760142,0.6768954594930013,-0.4241025745868683,0.3642336726188659,2.836343685785929,1.277082443237305,-0.8919997215270996
1.35,1.6888757240199178e+18,46.34991796875,3.6292999982833862,-2.9777956008911133,-8.878113746643066,1.6888757240199178e+18,46.34991796875,1.0211370587348938,-12.390334606170654,-9.8165545463562,1.6888757240199178e+18,46.34991796875,-2.6309643983840942,-9.396793842315674,-1.0031540989875791,1.6888757240199178e+18,46.34991796875,0.680198460817337,-0.182266915217042,0.4178318381309509,1.6888757240199178e+18,46.34991796875,0.6792058050632477,-0.1778381429612636,0.4199698567390442,,,,,,,,,,,,1.6888757240159995e+18,46.34599931640625,6.631919860839844,48.12411880493164,-13.434639739990237,1.6888757240159995e+18,46.34599931640625,-248.76287536621095,143.35731506347656,-146.79283752441407,1.6888757240199178e+18,46.34991796875,-0.4798487722873688,0.6791390478610992,-0.4156093299388885,0.3684604316949844,2.7789896726608276,1.280012130737305,-0.8269729912281036
1.4,1.6888757240631642e+18,46.39316398111979,0.2150416374206543,-3.645785649617513,-1.80623996257782,1.6888757240631642e+18,46.39316398111979,-1.5860426276922226,-13.177274068196615,-3.2175488471984863,1.6888757240631642e+18,46.39316398111979,-1.823885798454285,-9.515743255615234,-1.476022442181905,1.6888757240631642e+18,46.39316398111979,0.933656632900238,-1.6047430038452148,2.392301003138224,1.6888757240631642e+18,46.39316398111979,0.9326894084612528,-1.6002633174260457,2.3944390217463174,,,,,,,,,,,,1.6888757240659922e+18,46.395992333984374,3.80883994102478,48.98299865722656,-11.5119197845459,1.6888757240659922e+18,46.395992333984374,-251.5859558105469,144.21619262695313,-144.8701141357422,1.6888757240631642e+18,46.39316398111979,-0.48743869860967,0.6573426524798075,-0.4007228414217631,0.411339263121287,2.4501658280690513,1.3266512155532837,-0.5425103108088175
1.45,1.6888757241150577e+18,46.4450576985677,-4.46891450881958,-10.311455090840658,-0.3022401332855224,1.6888757241150577e+18,46.4450576985677,-4.808775981267293,-19.81436602274577,-2.647857666015625,1.6888757241150577e+18,46.4450576985677,-0.3626628319422404,-9.487165768941244,-2.4103310108184814,1.6888757241150577e+18,46.4450576985677,2.2085324128468833,-3.5660276412963867,2.236021359761556,1.6888757241150577e+18,46.4450576985677,2.207616130510966,-3.5615480740865073,2.2381593386332193,,,,,,,,,,,,1.6888757241159872e+18,46.44598715820312,-1.498159980773926,49.810159301757814,-8.288679695129394,1.6888757241159872e+18,46.44598715820312,-256.8929504394531,145.0433563232422,-141.6468719482422,1.6888757241150577e+18,46.4450576985677,-0.4826061526934306,0.6130457321802775,-0.3772745231787364,0.497642566760381,1.7399167617162068,1.3157270749409993,0.0538863812883694
1.5,1.688875724166957e+18,46.49695686848958,-1.2381633321444194,-12.508659998575846,3.8954787254333496,1.688875724166957e+18,46.49695686848958,0.1782652735710144,-21.738195419311523,0.9367900490760804,1.688875724166957e+18,46.49695686848958,1.3936272064844768,-9.21379025777181,-3.023402214050293,1.688875724166957e+18,46.49695686848958,-0.1590794722239176,-1.893682320912679,3.180571715037028,1.688875724166957e+18,46.49695686848958,-0.160097579161326,-1.8892534772555032,3.1827096939086914,,,,,,,,,,,,1.6888757241659868e+18,46.49598666992188,-8.193519783020019,50.0273193359375,-4.665279865264893,1.6888757241659868e+18,46.49598666992188,-263.58831176757815,145.26051635742186,-138.02347717285156,1.688875724166957e+18,46.49695686848958,-0.4748424192269643,0.5494376420974731,-0.3559170663356781,0.5876125892003378,1.1413726011912029,1.2210867802302043,0.5114431778589884
1.55,1.6888757242188567e+18,46.548856689453125,-3.142072995503744,-4.718801498413086,2.7905961672465005,1.6888757242188567e+18,46.548856689453125,-0.2787638505299886,-13.860026677449545,0.676371177037557,1.6888757242188567e+18,46.548856689453125,2.840507904688517,-9.125480016072592,-2.1789384682973227,1.6888757242188567e+18,46.548856689453125,0.2803362409273783,-4.872413794199626,1.562796910603841,1.6888757242188567e+18,46.548856689453125,0.2793690363566081,-4.867985248565674,1.5649858713150024,,,,,,,,,,,,1.6888757242159872e+18,46.545987109375,-12.924679565429688,48.73899917602539,-8.012959861755371,1.6888757242159872e+18,46.545987109375,-268.31947021484376,143.97219543457032,-141.37115478515625,1.6888757242188567e+18,46.548856689453125,-0.4809429943561553,0.4579697648684184,-0.3804250160853068,0.6424634059270223,0.6577084461847941,1.196162184079488,0.8273800611495972
1.6,1.6888757242707558e+18,46.6007559407552,-9.735880851745604,8.906845728556315,1.3402907450993855,1.6888757242707558e+18,46.6007559407552,-5.6664033730824785,0.2594218254089355,-0.8859425783157349,1.6888757242707558e+18,46.6007559407552,4.04667592048645,-8.631678581237793,-2.2909468015034995,1.6888757242707558e+18,46.6007559407552,1.4351260860761006,-3.1149545510609946,1.7998634974161785,1.6888757242707558e+18,46.6007559407552,1.4341588417689006,-3.1105257670084634,1.8020524978637695,1.6888757242647608e+18,46.5947607421875,0.0,0.0,1.082384705543518,8.211000442504883,1.4297953844070437,84.43319702148438,41.20000076293945,-122.7520688,49.1905216,1.6888757242659866e+18,46.59598657226563,-15.984439659118651,47.87523880004883,-7.05403995513916,1.6888757242659866e+18,46.59598657226563,-271.3792297363281,143.10843811035156,-140.4122344970703,1.6888757242707558e+18,46.6007559407552,-0.4416930576165517,0.3935501674811045,-0.3722653488318125,0.714623232682546,0.5160435438156128,1.0767627954483032,0.7942259709040324
1.65,1.6888757243226655e+18,46.652665364583335,-9.930668036142984,14.08532969156901,0.0159828066825866,1.6888757243226655e+18,46.652665364583335,-4.766502767801285,5.855237007141113,-1.3625131448109944,1.6888757243226655e+18,46.652665364583335,5.141363461812337,-8.214347839355469,-1.44320942958196,1.6888757243226655e+18,46.652665364583335,-0.5714135318994522,-4.259105205535889,1.5548557043075562,1.6888757243226655e+18,46.652665364583335,-0.5724316587050756,-4.254676342010498,1.5569937229156494,,,,,,,,,,,,1.6888757243159977e+18,46.64599765625,-18.256079864501952,47.011478424072266,-8.583919906616211,1.6888757243159977e+18,46.64599765625,-273.6508728027344,142.244677734375,-141.94212036132814,1.6888757243226655e+18,46.652665364583335,-0.4106603562831878,0.3000632325808207,-0.3835273683071136,0.7701688607533773,0.2752708594004313,0.993087867895762,0.828836460908254
1.7,1.6888757243745638e+18,46.70456388346354,-3.1096643606821694,8.409393151601156,4.302815596262614,1.6888757243745638e+18,46.70456388346354,2.3665016492207847,0.2542374034722646,3.89132801691691,1.6888757243745638e+18,46.70456388346354,5.453364531199138,-8.139410654703775,-0.476201057434082,1.6888757243745638e+18,46.70456388346354,0.2669481039047241,-1.3373367091019948,-0.7870489731431007,1.6888757243745638e+18,46.70456388346354,0.266031801700592,-1.332857092221578,-0.7849109296997389,,,,,,,,,,,,1.688875724365991e+18,46.69599072265625,-18.63184013366699,46.196519470214845,-13.066199684143069,1.688875724365991e+18,46.69599072265625,-274.0266357421875,141.42972106933593,-146.42440185546874,1.6888757243745638e+18,46.70456388346354,-0.3956270515918731,0.2353588044643401,-0.4083187878131866,0.7881907820701599,0.0861713215708732,0.9790999293327332,0.8844450314839681
1.75,1.6888757244264604e+18,46.75646036783854,4.721917788187663,2.643405755360922,2.9808250268300376,1.6888757244264604e+18,46.75646036783854,9.339984575907389,-5.972286144892375,2.0753748019536338,1.6888757244264604e+18,46.75646036783854,4.5952653884887695,-8.599946657816568,-0.9701636433601378,1.6888757244264604e+18,46.75646036783854,1.67086919148763,0.823191819091638,-2.603762229283651,1.6888757244264604e+18,46.75646036783854,1.669901927312215,0.8276205733418465,-2.6016241709391275,,,,,,,,,,,,1.6888757244159926e+18,46.745992675781245,-14.332559776306152,47.71175918579102,-11.77299976348877,1.6888757244159926e+18,46.745992675781245,-269.72734985351565,142.94495544433593,-145.13119506835938,1.6888757244264604e+18,46.75646036783854,-0.3588463266690572,0.2666681855916977,-0.4409216245015462,0.7779014905293783,0.2115862369537353,1.070220589637756,0.7367104291915894
1.8,1.688875724469713e+18,46.799712890625,6.498376369476318,-21.094311237335205,-0.6032568216323853,1.688875724469713e+18,46.799712890625,10.67198896408081,-29.902506828308105,-1.824527144432068,1.688875724469713e+18,46.799712890625,4.150811195373535,-8.792449474334717,-1.2859837412834167,1.688875724469713e+18,46.799712890625,0.0619264543056488,-2.5085944086313248,0.399124063551426,1.688875724469713e+18,46.799712890625,0.0610101670026778,-2.504165604710579,0.4012621194124222,,,,,,,,,,,,1.6888757244659914e+18,46.79599140625,-8.78643970489502,49.27091827392578,-8.576599884033204,1.6888757244659914e+18,46.79599140625,-264.1812316894531,144.50411987304688,-141.93479919433594,1.688875724469713e+18,46.799712890625,-0.334697961807251,0.282047763466835,-0.4569358080625534,0.7741532027721405,0.300477385520935,1.1118404269218445,0.6283439099788666
1.85,1.688875724512963e+18,46.84296329752604,7.0256452560424805,-3.581683953603109,2.9316116174062095,1.688875724512963e+18,46.84296329752604,11.699507077534994,-12.21196993192037,2.3970099687576294,1.688875724512963e+18,46.84296329752604,4.651060104370117,-8.614540417989096,-0.5993150671323141,1.688875724512963e+18,46.84296329752604,-0.0104865251729885,-1.8471037844816844,0.9671014746030172,1.688875724512963e+18,46.84296329752604,-0.0114537216722965,-1.8426240881284075,0.9692903955777488,,,,,,,,,,,,1.688875724515991e+18,46.84599106445312,-8.886479759216309,49.18063888549805,-10.235799980163574,1.688875724515991e+18,46.84599106445312,-264.28126831054686,144.41383666992186,-143.593994140625,1.688875724512963e+18,46.84296329752604,-0.3114591240882873,0.2186398456494013,-0.4639130731423695,0.7998998761177063,0.1279487361510594,1.0726545254389446,0.6663310329119364
1.9,1.688875724564858e+18,46.8948583984375,-13.735291481018066,-6.182554244995117,3.82515017191569,1.688875724564858e+18,46.8948583984375,-8.858628273010254,-14.706088701883951,3.3487553199132285,1.688875724564858e+18,46.8948583984375,4.853861967722575,-8.507789293924967,-0.5411083896954855,1.688875724564858e+18,46.8948583984375,-1.2628111839294434,2.340733846028646,0.239917330443859,1.688875724564858e+18,46.8948583984375,-1.2637274662653606,2.345162550608317,0.2420553515354792,,,,,,,,,,,,1.688875724565995e+18,46.895995068359376,-11.62659969329834,48.26075897216797,-11.16055965423584,1.688875724565995e+18,46.895995068359376,-267.0213989257812,143.49395751953125,-144.51875915527344,1.688875724564858e+18,46.8948583984375,-0.3410407404104869,0.2270917743444442,-0.4483987589677174,0.7940858006477356,0.1103409479061762,1.0500197013219197,0.7473870515823364
1.95,1.688875724616761e+18,46.94676147460937,-3.53886349995931,2.884298324584961,-1.903438886006673,1.688875724616761e+18,46.94676147460937,0.7457630634307861,-5.85284423828125,-3.126023372014364,1.688875724616761e+18,46.94676147460937,4.261825164159139,-8.721397399902344,-1.2872980038324993,1.688875724616761e+18,46.94676147460937,1.1436415513356526,4.023107528686523,-2.0023144483566284,1.688875724616761e+18,46.94676147460937,1.1427252491315203,4.027587254842122,-2.000176509221395,,,,,,,,,,,,1.6888757246159918e+18,46.94599155273438,-12.031639862060548,48.51695938110352,-9.88687973022461,1.6888757246159918e+18,46.94599155273438,-267.4264343261719,143.75015869140626,-143.24507751464844,1.688875724616761e+18,46.94676147460937,-0.3674191137154897,0.2978966732819875,-0.4392285148302714,0.762864351272583,0.2987063378095627,1.0961449543635051,0.7121265331904093
2.0,1.688875724668661e+18,46.99866097005208,-11.993849436442057,1.106604735056559,-2.842485189437866,1.688875724668661e+18,46.99866097005208,-9.924431165059408,-8.16909646987915,-5.178267637888591,1.688875724668661e+18,46.99866097005208,2.0466169913609824,-9.259956041971842,-2.400495926539103,1.688875724668661e+18,46.99866097005208,-1.0516554315884912,5.71718962987264,-3.661475340525309,1.688875724668661e+18,46.99866097005208,-1.052673578262329,5.72161849339803,-3.659286578496298,,,,,,,,,,,,1.6888757246659932e+18,46.9959931640625,-6.3098397731781,49.98827896118164,-5.86575984954834,1.6888757246659932e+18,46.9959931640625,-261.704638671875,145.2214782714844,-139.2239532470703,1.688875724668661e+18,46.99866097005208,-0.3885073661804199,0.4416287243366241,-0.4466729958852132,0.6723134716351827,0.8892959554990133,1.2385811408360798,0.3869246045748393
2.05,1.6888757247205532e+18,47.05055305989583,-2.5945792198181152,-3.277572631835937,-3.096686681111654,1.6888757247205532e+18,47.05055305989583,-2.284547328948974,-12.952149709065756,-4.686542510986328,1.6888757247205532e+18,47.05055305989583,0.2872306456168492,-9.658831914265951,-1.6545693079630537,1.6888757247205532e+18,47.05055305989583,-1.3250176111857097,2.857220411300659,-2.0405444304148355,1.6888757247205532e+18,47.05055305989583,-1.3259848554929097,2.8616491158803306,-2.0384064515431723,,,,,,,,,,,,1.688875724715995e+18,47.04599487304687,-0.8003199934959412,49.4563591003418,-9.65507984161377,1.688875724715995e+18,47.04599487304687,-256.1951141357422,144.68955688476564,-143.01327514648438,1.6888757247205532e+18,47.05055305989583,-0.4367661476135254,0.5114261309305826,-0.4728647967179616,0.5687960386276245,1.4117169777552288,1.3963618278503418,0.0651805748542149
2.1,1.6888757247724598e+18,47.102459879557294,4.392470359802246,2.4550668398539224,0.1009554862976073,1.6888757247724598e+18,47.102459879557294,3.3186455766359964,-7.151149908701579,-1.5469598323106766,1.6888757247724598e+18,47.102459879557294,-1.0966262221336365,-9.590471585591636,-1.7126288016637166,1.6888757247724598e+18,47.102459879557294,0.5074253877003988,3.937535524368286,-2.014989912509918,1.6888757247724598e+18,47.102459879557294,0.5065090954303741,3.941964308420817,-2.0128518939018245,1.6888757247897595e+18,47.119759765625,0.0,0.0,1.082384705543518,8.175999641418457,1.4247053861618042,84.08771514892578,41.20000076293945,-122.7520559,49.1905227,1.6888757247659889e+18,47.09598881835937,3.3549999475479124,49.40023956298828,-10.692079544067385,1.6888757247659889e+18,47.09598881835937,-252.0397918701172,144.63343811035156,-144.05027465820314,1.6888757247724598e+18,47.102459879557294,-0.4432196716467539,0.5861559510231018,-0.4601584474245707,0.4972098966439565,2.12800395488739,1.360077699025472,-0.4846973220507304
2.15,1.6888757248243597e+18,47.154359456380206,2.1053311824798584,4.574328104654948,0.1504621505737305,1.6888757248243597e+18,47.154359456380206,0.528016209602356,-4.985844850540161,-1.389232988158862,1.6888757248243597e+18,47.154359456380206,-1.600116531054179,-9.544427871704102,-1.604408621788025,1.6888757248243597e+18,47.154359456380206,-0.1240056455135345,2.002212643623352,0.0114537237677723,1.6888757248243597e+18,47.154359456380206,-0.1249728426337242,2.006641427675883,0.0135917506025483,,,,,,,,,,,,1.6888757248159936e+18,47.14599365234375,3.896679925918579,49.24651947021484,-10.68231964111328,1.6888757248159936e+18,47.14599365234375,-251.49811401367188,144.47972106933594,-144.04051818847657,1.6888757248243597e+18,47.154359456380206,-0.4658039410909017,0.6290498773256937,-0.4309635559717813,0.4487907489140828,2.3561309973398843,1.3379983107248945,-0.5683293541272482
2.2,1.688875724876256e+18,47.206255940755206,2.1330895821253457,1.4071790377298992,-3.017702341079712,1.688875724876256e+18,47.206255940755206,0.279561440149943,-8.15354331334432,-4.210968971252441,1.688875724876256e+18,47.206255940755206,-1.8763297001520791,-9.544977188110352,-1.2579801082611084,1.688875724876256e+18,47.206255940755206,-0.5694791376590729,1.4607315063476562,-0.709774523973465,1.688875724876256e+18,47.206255940755206,-0.570395439863205,1.4652111927668254,-0.7075855632623037,,,,,,,,,,,,1.6888757248659955e+18,47.19599545898437,3.82347993850708,49.11231994628906,-11.919399642944336,1.6888757248659955e+18,47.19599545898437,-251.57131652832032,144.34551696777345,-145.27759704589843,1.688875724876256e+18,47.206255940755206,-0.4820074339707692,0.6455604235331217,-0.4228164255619049,0.4147401452064514,2.550794760386149,1.338288426399231,-0.6869497895240784
2.25,1.6888757249194977e+18,47.249497558593745,3.61372309923172,-1.3869762420654297,-2.8432836532592773,1.6888757249194977e+18,47.249497558593745,1.2299108505249023,-10.8699951171875,-3.671487331390381,1.6888757249194977e+18,47.249497558593745,-2.406613707542419,-9.467273712158203,-0.89291712641716,1.6888757249194977e+18,47.249497558593745,-0.4756349474191665,2.3551145792007446,-1.1478157937526705,1.6888757249194977e+18,47.249497558593745,-0.4765512496232986,2.3595433831214905,-1.145677775144577,,,,,,,,,,,,1.6888757249159951e+18,47.245994921875,4.911719894409179,48.43644027709961,-13.515159606933594,1.6888757249159951e+18,47.245994921875,-250.4830749511719,143.66963806152344,-146.87335510253905,1.6888757249194977e+18,47.249497558593745,-0.4896572530269623,0.6707237958908081,-0.4155237525701523,0.3709258884191513,2.786539673805237,1.3061394095420835,-0.8362132012844086
2.3,1.6888757249627566e+18,47.292756754557296,2.6890605290730796,-3.2853244145711265,-8.669633706410727,1.6888757249627566e+18,47.292756754557296,0.3998008370399475,-12.804193496704102,-9.356534798940023,1.6888757249627566e+18,47.292756754557296,-2.3120612303415933,-9.503123919169107,-0.7516146500905355,1.6888757249627566e+18,47.292756754557296,0.0491237466533978,-0.1064432760079701,0.6535240113735199,1.6888757249627566e+18,47.292756754557296,0.0482074456910292,-0.1020144919554392,0.6556620399157206,,,,,,,,,,,,1.6888757249659958e+18,47.29599560546875,4.445679950714111,48.12899932861328,-14.178839874267576,1.6888757249659958e+18,47.29599560546875,-250.9491180419922,143.36219482421876,-147.5370361328125,1.6888757249627566e+18,47.292756754557296,-0.4991357028484344,0.6688986817995707,-0.4126558403174082,0.3648388981819153,2.8277412255605063,1.3205743630727131,-0.8607343236605326
2.35,1.6888757250146583e+18,47.344658365885415,0.2087785800298053,-3.487738291422526,-5.115840474764506,1.6888757250146583e+18,47.344658365885415,-1.57427795479695,-13.06182066599528,-6.276573061943054,1.6888757250146583e+18,47.344658365885415,-1.805858055750529,-9.558337211608888,-1.225446105003357,1.6888757250146583e+18,47.344658365885415,1.077464481194814,-0.8108727335929871,1.536427895228068,1.6888757250146583e+18,47.344658365885415,1.0765481392542522,-0.8064439296722412,1.538565953572591,,,,,,,,,,,,1.688875725015997e+18,47.345996923828125,2.020319974422455,48.934199523925784,-12.160959815979004,1.688875725015997e+18,47.345996923828125,-253.37447509765624,144.16739501953126,-145.51915893554687,1.6888757250146583e+18,47.344658365885415,-0.5052196582158407,0.6633549332618713,-0.3896013498306274,0.3906280199686686,2.538705269495646,1.344674785931905,-0.5745032628377279
2.4,1.6888757250665526e+18,47.39655249023438,-3.084149122238159,-7.855425516764323,0.437309185663859,1.6888757250665526e+18,47.39655249023438,-3.630111336708069,-17.44387690226237,-1.5148561000823977,1.6888757250665526e+18,47.39655249023438,-0.56876373787721,-9.57270622253418,-2.0168787638346353,1.6888757250665526e+18,47.39655249023438,1.6058629353841145,-2.992679715156555,2.147242228190104,1.6888757250665526e+18,47.39655249023438,1.6049466133117676,-2.988250970840454,2.1494312286376953,,,,,,,,,,,,1.6888757250659927e+18,47.395992822265626,-2.0081199407577515,49.70523910522461,-9.110959815979005,1.6888757250659927e+18,47.395992822265626,-257.4029113769531,144.93843688964844,-142.4691589355469,1.6888757250665526e+18,47.39655249023438,-0.5036638379096985,0.6242995460828146,-0.3727381726106007,0.4655343294143677,1.8583994309107463,1.3514558871587117,0.0049231002728144
2.45,1.6888757251184558e+18,47.448455891927075,1.0612306396166484,-11.794070879618326,2.232668399810791,1.6888757251184558e+18,47.448455891927075,2.1421744326750436,-21.19422721862793,-0.3112663427988688,1.6888757251184558e+18,47.448455891927075,1.0581423938274384,-9.384411176045736,-2.6086483001708984,1.6888757251184558e+18,47.448455891927075,0.4607959985733032,-1.765756885210673,3.107624133427938,1.6888757251184558e+18,47.448455891927075,0.459879716237386,-1.7612771888573964,3.109762271245321,,,,,,,,,,,,1.6888757251159954e+18,47.44599536132812,-6.917399787902832,50.054158782958986,-6.109759902954101,1.6888757251159954e+18,47.44599536132812,-262.31219482421875,145.2873565673828,-139.46795654296875,1.6888757251184558e+18,47.448455891927075,-0.4991686840852101,0.5639100869496664,-0.3572958111763,0.5518225828806559,1.1948912938435872,1.2762662172317505,0.5317026178042094
2.5,1.688875725170353e+18,47.50035302734375,-6.586708386739095,-6.0859934488932295,3.084357261657715,1.688875725170353e+18,47.50035302734375,-4.1419758796691895,-15.322838147481283,0.8534400711456936,1.688875725170353e+18,47.50035302734375,2.421931028366089,-9.221099535624186,-2.295630693435669,1.688875725170353e+18,47.50035302734375,0.346666008234024,-3.711006388068199,1.379740963379542,1.688875725170353e+18,47.50035302734375,0.3457497258981069,-3.706577559312185,1.3818790316581726,,,,,,,,,,,,1.6888757251659927e+18,47.4959927734375,-13.876279640197756,48.372999572753905,-7.1345597267150875,1.6888757251659927e+18,47.4959927734375,-269.2710754394531,143.60619506835937,-140.49275817871094,1.688875725170353e+18,47.50035302734375,-0.5202154517173767,0.5036392013231913,-0.3495524326960246,0.5934608777364095,0.7597038944562277,1.2230737209320068,0.8931658069292704
2.55,1.6888757252222564e+18,47.55225618489583,-6.837338924407959,4.253629207611084,1.6027633746465046,1.6888757252222564e+18,47.55225618489583,-3.269592761993408,-4.57647289832433,-0.7519445319970449,1.6888757252222564e+18,47.55225618489583,3.544944683710734,-8.814356803894043,-2.419421354929606,1.6888757252222564e+18,47.55225618489583,1.8022560675938923,-3.3275866508483887,1.825876196225484,1.6888757252222564e+18,47.55225618489583,1.801237980524699,-3.323157866795858,1.8280142148335776,,,,,,,,,,,,1.688875725215993e+18,47.54599287109375,-15.088959503173829,48.24611892700195,-7.266319751739502,1.688875725215993e+18,47.54599287109375,-270.48375244140624,143.47931823730468,-140.62451782226563,1.6888757252222564e+18,47.55225618489583,-0.4720036288102467,0.4344404339790344,-0.3610056340694427,0.6762910683949789,0.5999024311701456,1.117827733357747,0.8362827698389689
2.6,1.6888757252741496e+18,47.60414965820312,-10.859266916910808,11.315327008565268,1.274048129717509,1.6888757252741496e+18,47.60414965820312,-6.134598970413208,2.922035296758016,-0.5994020799795786,1.6888757252741496e+18,47.60414965820312,4.7018663088480634,-8.377546628316244,-1.9381636778513591,1.6888757252741496e+18,47.60414965820312,0.3582724655667941,-4.725857257843018,1.597412625948588,1.6888757252741496e+18,47.60414965820312,0.357356163362662,-4.72132666905721,1.5995506445566814,,,,,,,,,,,,1.6888757252659963e+18,47.59599658203125,-17.433799743652344,47.465318298339845,-7.239480018615723,1.6888757252659963e+18,47.59599658203125,-272.82859497070314,142.69851684570312,-140.5976776123047,1.6888757252741496e+18,47.60414965820312,-0.4309260845184326,0.3483428756395975,-0.3717422584692636,0.7439845601717631,0.392851968606313,1.0242923895517986,0.8263075947761536
2.65,1.6888757253260536e+18,47.6560536295573,-4.540916522343953,11.77114200592041,2.7994367281595864,1.6888757253260536e+18,47.6560536295573,0.8923234542210898,3.626721541086833,1.949352780977885,1.6888757253260536e+18,47.6560536295573,5.410438537597656,-8.12867514292399,-0.9147975047429404,1.6888757253260536e+18,47.6560536295573,0.0757472887635231,-2.9877928495407104,0.1274672150611877,1.6888757253260536e+18,47.6560536295573,0.074780081709226,-2.9833640654881797,0.1296052386363347,,,,,,,,,,,,1.6888757253159916e+18,47.645991455078125,-18.639159774780275,46.41855926513672,-10.648159980773926,1.6888757253159916e+18,47.645991455078125,-274.03395385742186,141.6517578125,-144.00635681152343,1.6888757253260536e+18,47.6560536295573,-0.3980749150117238,0.2596357812484105,-0.3957521418730418,0.7855643232663473,0.1668211296200752,0.9769647121429444,0.8492117722829183
2.7,1.6888757253692918e+18,47.69929187011719,1.5405642986297607,6.331050395965576,4.144520282745361,1.6888757253692918e+18,47.69929187011719,6.6520469188690186,-2.024926245212555,3.353839874267578,1.6888757253692918e+18,47.69929187011719,5.088681221008301,-8.34023141860962,-0.8553938865661621,1.6888757253692918e+18,47.69929187011719,1.3928491473197937,0.0675769746303558,-2.121229588985443,1.6888757253692918e+18,47.69929187011719,1.3918564319610596,0.0720821171998977,-2.119091510772705,,,,,,,,,,,,1.688875725365991e+18,47.695991015625,-16.54563961029053,46.77479858398438,-11.636359786987304,1.688875725365991e+18,47.695991015625,-271.9404296875,142.00799865722655,-144.9945556640625,1.6888757253692918e+18,47.69929187011719,-0.3701992630958556,0.2524059787392616,-0.420665293931961,0.788761705160141,0.1665978506207465,1.0169142484664917,0.7842309772968292
2.75,1.6888757254125435e+18,47.74254353841146,5.1266114711761475,-3.0490283966064453,2.185660322507222,1.6888757254125435e+18,47.74254353841146,9.298708279927572,-11.797213872273764,0.6253243188063303,1.6888757254125435e+18,47.74254353841146,4.149295409520467,-8.732440312703451,-1.6250494718551636,1.6888757254125435e+18,47.74254353841146,1.235933115084966,0.79157954454422,-2.208176016807556,1.6888757254125435e+18,47.74254353841146,1.2349150081475575,0.7961101134618124,-2.2059871355692544,,,,,,,,,,,,1.688875725415987e+18,47.7459869140625,-9.45743989944458,49.51247863769531,-7.366359901428223,1.688875725415987e+18,47.7459869140625,-264.85223388671875,144.74567565917968,-140.72455749511718,1.6888757254125435e+18,47.74254353841146,-0.3395280539989471,0.302265057961146,-0.4438865681489308,0.7720078031222025,0.3751190602779388,1.0985466241836548,0.5961978038152059
2.8,1.6888757254644416e+18,47.79444165039062,6.304905414581299,-14.393449783325195,0.3744399944941203,1.6888757254644416e+18,47.79444165039062,10.551151275634766,-23.191036860148113,-0.6079763571421305,1.6888757254644416e+18,47.79444165039062,4.22344430287679,-8.781841278076172,-1.0471298495928447,1.6888757254644416e+18,47.79444165039062,-0.5038111036022505,-3.959475755691528,1.2558371325333912,1.6888757254644416e+18,47.79444165039062,-0.5047783081730207,-3.955047051111857,1.2579751536250114,,,,,,,,,,,,1.6888757254659868e+18,47.7959869140625,-7.671359920501709,49.45147857666016,-8.859639644622803,1.6888757254659868e+18,47.7959869140625,-263.0661560058594,144.68467712402344,-142.21783752441405,1.6888757254644416e+18,47.79444165039062,-0.3057240446408589,0.2503596494595209,-0.4705711901187897,0.7883300185203552,0.2460465629895527,1.109810709953308,0.5857169429461161
2.85,1.6888757255163436e+18,47.84634358723958,-9.754724979400637,-4.972461382548015,1.6047967274983723,1.6888757255163436e+18,47.84634358723958,-4.872385342915853,-13.464811642964682,0.8043871720631918,1.6888757255163436e+18,47.84634358723958,4.859538396199544,-8.476605097452799,-0.8651229937871298,1.6888757255163436e+18,47.84634358723958,-0.3701843420664469,2.3165027797222137,0.6722571899493536,1.6888757255163436e+18,47.84634358723958,-0.371100644270579,2.320982520778974,0.6743952309091886,,,,,,,,,,,,1.6888757255159882e+18,47.84598828125,-11.038559913635254,48.78779830932617,-9.245159912109376,1.6888757255159882e+18,47.84598828125,-266.43336181640626,144.0209991455078,-142.60335693359374,1.6888757255163436e+18,47.84634358723958,-0.3139850695927937,0.2287738770246505,-0.4470196763674418,0.8054311474164327,0.1755284170309702,1.0437120199203491,0.6423365473747253
2.9,1.6888757255682447e+18,47.89824462890625,-4.871486822764079,2.0246795018514,1.2408488591512044,1.6888757255682447e+18,47.89824462890625,-0.3330012957255046,-6.533402760823567,-0.3531407415866852,1.6888757255682447e+18,47.89824462890625,4.515684286753337,-8.5423370997111,-1.658703088760376,1.6888757255682447e+18,47.89824462890625,0.6705773174762726,3.1271210511525473,-0.8711956441402435,1.6888757255682447e+18,47.89824462890625,0.6696610351403555,3.131549676259359,-0.8690576230486234,,,,,,,,,,,,1.688875725565987e+18,47.8959869140625,-12.83439998626709,48.74631958007812,-7.615239810943604,1.688875725565987e+18,47.8959869140625,-268.22919921875,143.9795166015625,-140.9734375,1.6888757255682447e+18,47.89824462890625,-0.3467747171719869,0.2972274422645569,-0.425603687763214,0.7808729012807211,0.3526906569798787,1.0571977297465007,0.6278859774271647
2.95,1.6888757256201477e+18,47.95014762369792,-9.806248982747396,-0.2459716796875,0.4150327444076537,1.6888757256201477e+18,47.95014762369792,-7.139983495076497,-9.293723424275717,-2.177069813013077,1.6888757256201477e+18,47.95014762369792,2.6434640884399414,-9.03200658162435,-2.656816005706787,1.6888757256201477e+18,47.95014762369792,-0.6354525486628214,5.854837894439697,-3.714264392852783,1.6888757256201477e+18,47.95014762369792,-0.6363688707351683,5.859266757965088,-3.7121262550354,,,,,,,,,,,,1.688875725615993e+18,47.945993017578125,-8.232559967041016,49.86871871948242,-3.73319993019104,1.688875725615993e+18,47.945993017578125,-263.6273559570312,145.10191650390624,-137.09139709472657,1.6888757256201477e+18,47.95014762369792,-0.3682124714056651,0.4196102321147918,-0.4333278636137644,0.7056407531102499,0.8070629835128784,1.1731589237848916,0.4028146167596181
3.0,1.68887572567205e+18,48.00204980468751,-8.660949945449829,-2.7055368423461914,-5.270609060923259,1.68887572567205e+18,48.00204980468751,-8.175876140594482,-12.285150210062662,-7.285945574442546,1.68887572567205e+18,48.00204980468751,0.4622725037237007,-9.563868204752604,-2.080049912134806,1.68887572567205e+18,48.00204980468751,-2.3197607596715293,3.5878151257832847,-2.183945099512736,1.68887572567205e+18,48.00204980468751,-2.3206770420074463,3.5922439893086753,-2.181807001431783,,,,,,,,,,,,1.6888757256659932e+18,47.99599331054687,-0.8710799813270569,50.129798126220706,-7.107719802856446,1.6888757256659932e+18,47.99599331054687,-256.26587829589846,145.3629943847656,-140.46591796875,1.68887572567205e+18,48.00204980468751,-0.4198898077011108,0.5111756722132365,-0.4636210401852925,0.5886032780011495,1.3751372893651326,1.3499211470286052,0.0735356745620568
3.05,1.6888757257239468e+18,48.053946777343754,6.308873335520427,1.5487194061279297,-1.9971829255421956,1.6888757257239468e+18,48.053946777343754,5.461218754450479,-8.079565048217773,-3.637887994448344,1.6888757257239468e+18,48.053946777343754,-0.8704561193784078,-9.612539291381836,-1.705418586730957,1.6888757257239468e+18,48.053946777343754,0.2206750685969988,4.038735628128052,-2.2103649775187173,1.6888757257239468e+18,48.053946777343754,0.2197078665097554,4.043164412180583,-2.208226998647054,,,,,,,,,,,,1.6888757257159951e+18,48.045994921875,2.3448399782180784,49.33679885864258,-10.567639541625976,1.6888757257159951e+18,48.045994921875,-253.0499542236328,144.56999816894532,-143.92583618164062,1.6888757257239468e+18,48.053946777343754,-0.4448868731657664,0.5759799679120382,-0.4603799879550933,0.5070974926153818,2.0260854164759317,1.371078650156657,-0.40154663225015
3.1,1.6888757257758392e+18,48.10583927408854,3.266446272532145,3.957372506459554,0.8471684654553732,1.6888757257758392e+18,48.10583927408854,1.698704679807027,-5.5944193204243975,-0.7519445319970449,1.6888757257758392e+18,48.10583927408854,-1.5905431111653645,-9.536046663920084,-1.6638264656066897,1.6888757257758392e+18,48.10583927408854,0.0650062412023544,1.7853554884592693,0.0197004079818725,1.6888757257758392e+18,48.10583927408854,0.0639372318983078,1.7897842725118,0.0218384315570195,,,,,,,,,,,,1.68887572576599e+18,48.095989892578125,4.6847999572753904,49.34655838012695,-10.32363967895508,1.68887572576599e+18,48.095989892578125,-250.70999755859376,144.5797576904297,-143.6818359375,1.6888757257758392e+18,48.10583927408854,-0.4580818812052409,0.6237872838973999,-0.4379885892073313,0.4572364489237467,2.334557135899862,1.3343207438786824,-0.5755176544189453
3.15,1.6888757258190991e+18,48.14909899902344,0.4441967010498047,6.705671787261963,-1.727095127105713,1.6888757258190991e+18,48.14909899902344,-1.0929217338562012,-2.882154941558838,-3.1366913318634033,1.6888757258190991e+18,48.14909899902344,-1.5599199533462524,-9.572081565856934,-1.4743096232414246,1.6888757258190991e+18,48.14909899902344,-0.5052619278430939,1.706604778766632,0.0659734457731247,1.6888757258190991e+18,48.14909899902344,-0.5062545835971832,1.7111098766326904,0.0681878328323364,1.6888757258277484e+18,48.15774829101562,0.0,0.0,1.0923445224761963,8.109999656677246,1.399268627166748,83.24553680419922,41.20000076293945,-122.7520349,49.1905255,1.688875725815995e+18,48.145994921875,3.0914799690246584,49.49295883178711,-10.853119850158691,1.688875725815995e+18,48.145994921875,-252.30331726074215,144.72615661621094,-144.21131591796876,1.6888757258190991e+18,48.14909899902344,-0.480701670050621,0.6352863311767578,-0.4193240255117416,0.4352587908506393,2.3855384588241577,1.3505181074142456,-0.5509742498397827
3.2,1.6888757258623447e+18,48.19234456380209,4.5170267422993975,-0.7915372848510746,-2.503344933191935,1.6888757258623447e+18,48.19234456380209,2.4957139641046524,-10.330413500467936,-3.5782669385274253,1.6888757258623447e+18,48.19234456380209,-2.0441142320632935,-9.523131052652994,-1.139635483423869,1.6888757258623447e+18,48.19234456380209,-0.4308127164840698,2.1896464824676514,-1.3471614718437197,1.6888757258623447e+18,48.19234456380209,-0.431728998819987,2.1941261688868203,-1.344972550868988,,,,,,,,,,,,1.688875725865991e+18,48.19599067382812,3.723439836502075,48.83659973144531,-12.480599784851076,1.688875725865991e+18,48.19599067382812,-251.67135620117188,144.0697998046875,-145.83880004882812,1.6888757258623447e+18,48.19234456380209,-0.4892298281192779,0.6582015554110209,-0.4132016400496165,0.3953237930933633,2.6284066836039224,1.3292417526245115,-0.7144485314687093
3.25,1.6888757259142395e+18,48.24423942057292,0.9913427035013834,-2.898421287536621,-7.863736470540364,1.6888757259142395e+18,48.24423942057292,-1.1748759349187214,-12.43270746866862,-8.705886522928873,1.6888757259142395e+18,48.24423942057292,-2.1890200773874917,-9.518541018168133,-0.9068633119265238,1.6888757259142395e+18,48.24423942057292,-0.1624901592731476,-0.1818851302377879,0.6539312501748403,1.6888757259142395e+18,48.24423942057292,-0.1634064416090647,-0.1774563465151004,0.6560692687829336,,,,,,,,,,,,1.6888757259159895e+18,48.245989501953126,4.204119920730591,48.39251937866211,-13.59567985534668,1.6888757259159895e+18,48.245989501953126,-251.1906768798828,143.62571716308594,-146.9538787841797,1.6888757259142395e+18,48.24423942057292,-0.4977915187676747,0.6661391456921896,-0.4095140993595123,0.3751048644383748,2.7489027182261148,1.327108105023702,-0.7935835719108582
3.3,1.6888757259661435e+18,48.29614371744791,2.955578009287516,-2.0717992782592773,-6.002019643783569,1.6888757259661435e+18,48.29614371744791,1.2919248342514038,-11.661819775899252,-7.197809934616089,1.6888757259661435e+18,48.29614371744791,-1.6864546140034993,-9.574275334676107,-1.2605036497116089,1.6888757259661435e+18,48.29614371744791,0.8376998504002889,-1.0898854285478592,1.6527977239650984,1.6888757259661435e+18,48.29614371744791,0.8367835879325867,-1.0854566345612209,1.6549357855692506,,,,,,,,,,,,1.688875725965992e+18,48.29599189453125,2.566879940032959,48.68287811279297,-12.324439811706544,1.688875725965992e+18,48.29599189453125,-252.82791442871093,143.91607666015625,-145.6826385498047,1.6888757259661435e+18,48.29614371744791,-0.5023203690846761,0.6547989249229431,-0.3961827556292216,0.4019091427326202,2.4884745279947915,1.3522614638010662,-0.5544542968273163
3.35,1.6888757260180426e+18,48.34804256184896,-5.574724594751994,-9.6382687886556,-0.8258510828018188,1.6888757260180426e+18,48.34804256184896,-5.821737448374431,-19.24148432413737,-2.7670999467372894,1.6888757260180426e+18,48.34804256184896,-0.2698141187429428,-9.587470372517904,-2.005962292353312,1.6888757260180426e+18,48.34804256184896,1.7711528937021892,-3.0679689248402915,2.2526673873265586,1.6888757260180426e+18,48.34804256184896,1.7701347668965657,-3.0634891986846924,2.254805405934652,,,,,,,,,,,,1.6888757260159913e+18,48.34599111328125,-2.0154399514198302,49.52467880249024,-9.584319877624512,1.6888757260159913e+18,48.34599111328125,-257.4102355957031,144.75787353515625,-142.94252014160156,1.6888757260180426e+18,48.34804256184896,-0.5071654617786407,0.6112466057141622,-0.3739080329736073,0.4777838389078776,1.7243214845657349,1.3590376377105713,0.1155455335974693
3.4,1.688875726069945e+18,48.39994539388021,0.2451980908711751,-13.561854680379232,3.9619327386220298,1.688875726069945e+18,48.39994539388021,1.52542445063591,-22.920448939005535,1.3563316265741985,1.688875726069945e+18,48.39994539388021,1.2574248711268108,-9.342849095662435,-2.6703145503997803,1.688875726069945e+18,48.39994539388021,0.6369797190030416,-3.1909056107203164,2.5506678422292075,1.688875726069945e+18,48.39994539388021,0.6360634366671244,-3.186476786931356,2.55280594031016,,,,,,,,,,,,1.6888757260659927e+18,48.39599272460937,-6.439159774780274,50.03219909667969,-6.0682799339294435,1.6888757260659927e+18,48.39599272460937,-261.8339599609375,145.26539916992186,-139.42647705078124,1.688875726069945e+18,48.39994539388021,-0.4775249660015106,0.5435275236765543,-0.3742072582244873,0.5793848832448324,1.1395140290260315,1.2620916366577148,0.499526580174764
3.45,1.6888757261218447e+18,48.45184472656249,-4.146440188090007,-7.0102799733479815,3.7914422750473022,1.6888757261218447e+18,48.45184472656249,-1.352941870689392,-16.208980242411297,1.8313069591919584,1.6888757261218447e+18,48.45184472656249,2.7706968784332275,-9.182955106099447,-2.0248486200968423,1.6888757261218447e+18,48.45184472656249,-0.4369213382403056,-3.447570661703746,1.914960781733195,1.6888757261218447e+18,48.45184472656249,-0.4378376404444377,-3.4430400729179382,1.9172005653381348,,,,,,,,,,,,1.6888757261159928e+18,48.44599267578125,-12.158520126342774,48.41447982788086,-8.640039920806885,1.6888757261159928e+18,48.44599267578125,-267.5533142089844,143.64767761230468,-141.99823913574218,1.6888757261218447e+18,48.45184472656249,-0.5021785398324331,0.467034896214803,-0.3740354577700297,0.6234283645947775,0.6333343784014384,1.211817940076192,0.9086568355560304
3.5,1.6888757261737418e+18,48.503741617838536,-5.5105429490407305,3.949229081471761,0.941491961479187,1.6888757261737418e+18,48.503741617838536,-1.695115566253662,-4.873980482419332,-1.0380862553914387,1.6888757261737418e+18,48.503741617838536,3.792626221974691,-8.807464281717936,-2.044291694959005,1.6888757261737418e+18,48.503741617838536,1.9811887343724568,-2.7652343114217124,1.6279558738072712,1.6888757261737418e+18,48.503741617838536,1.9802215496699016,-2.7607545057932534,1.6300938924153645,,,,,,,,,,,,1.688875726165991e+18,48.49599072265625,-14.130039978027344,47.84595947265625,-8.984079742431641,1.688875726165991e+18,48.49599072265625,-269.52483520507815,143.07915954589845,-142.34227600097657,1.6888757261737418e+18,48.503741617838536,-0.4584004580974578,0.4015662968158722,-0.3811800479888916,0.6947361429532369,0.4937486251195271,1.116106907526652,0.8547144532203674
3.55,1.6888757262256435e+18,48.555643717447914,-12.724223136901855,14.211182594299316,0.5333526134490966,1.6888757262256435e+18,48.555643717447914,-7.960721333821614,5.8061840534210205,-1.192223889132341,1.6888757262256435e+18,48.555643717447914,4.740700721740723,-8.389253298441568,-1.7902899980545044,1.6888757262256435e+18,48.555643717447914,0.2179771065711975,-4.423377116521199,1.3504703442255657,1.6888757262256435e+18,48.555643717447914,0.2170098721981048,-4.41889746983846,1.352608362833659,,,,,,,,,,,,1.6888757262159995e+18,48.5459994140625,-16.474879646301268,47.863040161132815,-7.951959896087646,1.6888757262159995e+18,48.5459994140625,-271.8696716308594,143.0962371826172,-141.3101593017578,1.6888757262256435e+18,48.555643717447914,-0.415135512749354,0.3322835862636565,-0.3836191991964976,0.7542762756347656,0.3625177145004272,1.026428500811259,0.7996701598167419
3.6,1.688875726277542e+18,48.60754191080729,-5.413281440734863,9.775771458943684,1.8643067280451455,1.688875726277542e+18,48.60754191080729,0.0305084859331448,1.6023936420679092,1.4370894034703572,1.688875726277542e+18,48.60754191080729,5.4209885597229,-8.157632827758789,-0.4919307678937912,1.688875726277542e+18,48.60754191080729,-0.3267110884189606,-3.0274991194407144,0.350229392449061,1.688875726277542e+18,48.60754191080729,-0.3276274005572001,-3.0230703353881836,0.3523674607276916,,,,,,,,,,,,1.6888757262659942e+18,48.595994140624995,-17.297159576416014,46.496638488769534,-12.319559669494629,1.6888757262659942e+18,48.595994140624995,-272.69195556640625,141.7298370361328,-145.6777587890625,1.688875726277542e+18,48.60754191080729,-0.3910709023475647,0.2347997476657231,-0.4103102485338847,0.7894388635953268,0.0899923543135324,0.982202728589376,0.8716569940249125
3.65,1.6888757263207956e+18,48.65079553222657,-0.6741666793823242,5.481945753097534,3.1988426446914673,1.6888757263207956e+18,48.65079553222657,4.549952268600464,-2.8453651666641235,2.9940192699432373,1.6888757263207956e+18,48.65079553222657,5.201317548751831,-8.31156587600708,-0.2695369124412536,1.6888757263207956e+18,48.65079553222657,1.425454020500183,-0.8658251315355301,-1.574886977672577,1.6888757263207956e+18,48.65079553222657,1.4245377779006958,-0.8613963723182678,-1.5727488994598389,,,,,,,,,,,,1.6888757263159926e+18,48.64599272460937,-15.108479499816896,46.98707962036133,-13.778679847717283,1.6888757263159926e+18,48.64599272460937,-270.50327758789064,142.22027587890625,-147.13687438964843,1.6888757263207956e+18,48.65079553222657,-0.3627952188253402,0.2150297164916992,-0.4344197958707809,0.7958080172538757,0.0515283942222594,1.0112206041812897,0.8267047107219696
3.7,1.6888757263640422e+18,48.69404231770833,6.497611045837402,-0.8805317878723145,2.6186711390813193,1.6888757263640422e+18,48.69404231770833,10.82353432973226,-9.6368936697642,1.6119648615519206,1.6888757263640422e+18,48.69404231770833,4.30312196413676,-8.740616798400879,-1.0714197158813477,1.6888757263640422e+18,48.69404231770833,1.6136005520820618,1.2232576608657837,-2.199063996473948,1.6888757263640422e+18,48.69404231770833,1.6126842498779297,1.227737307548523,-2.1969258983929953,1.6888757263467423e+18,48.676742431640626,0.0,0.0,0.9897761344909668,7.842000007629395,1.361179232597351,82.65884399414062,39.400001525878906,-122.7520291,49.1905276,1.6888757263659963e+18,48.69599653320312,-9.140239715576172,49.18063888549805,-9.733159828186036,1.6888757263659963e+18,48.69599653320312,-264.5350341796875,144.4138397216797,-143.091357421875,1.6888757263640422e+18,48.69404231770833,-0.3248347441355387,0.2607229600350062,-0.46090829372406,0.7833272020022074,0.2470260957876841,1.1004527012507122,0.6326595544815063
3.75,1.6888757264159388e+18,48.74593896484375,8.407200813293457,-17.324544588724773,2.1471009254455566,1.6888757264159388e+18,48.74593896484375,12.9114720026652,-26.03071975708008,1.510070522626241,1.6888757264159388e+18,48.74593896484375,4.481469631195068,-8.69042936960856,-0.7017438809076945,1.6888757264159388e+18,48.74593896484375,-0.6942992508411407,-3.17410675684611,1.2385801871617634,1.6888757264159388e+18,48.74593896484375,-0.6952155729134878,-3.1696779330571494,1.2407182455062866,,,,,,,,,,,,1.688875726415993e+18,48.74599326171875,-8.844999885559082,49.14647903442383,-10.257759857177737,1.688875726415993e+18,48.74599326171875,-264.239794921875,144.37967834472656,-143.61595764160157,1.6888757264159388e+18,48.74593896484375,-0.3071125944455464,0.2258858730395634,-0.4691233535607655,0.7961756388346354,0.1566828861832618,1.0888807376225789,0.6406150460243225
3.8,1.688875726467842e+18,48.79784204101562,-5.61736536026001,7.309633255004883,6.41783332824707,1.688875726467842e+18,48.79784204101562,-0.7892326513926188,-1.2544373671213789,6.221937259038289,1.688875726467842e+18,48.79784204101562,4.805331230163574,-8.548325538635254,-0.260609636704127,1.688875726467842e+18,48.79784204101562,-0.2143118977546692,0.2659808993339538,-0.009926567475001,1.688875726467842e+18,48.79784204101562,-0.2152281800905863,0.2704097131888072,-0.0077885289986928,,,,,,,,,,,,1.6888757264659953e+18,48.79599501953125,-9.97471981048584,48.860999298095706,-11.482639694213868,1.6888757264659953e+18,48.79599501953125,-265.3695129394531,144.09419860839844,-144.84083862304686,1.688875726467842e+18,48.79784204101562,-0.3011023700237273,0.1904544333616892,-0.4678852260112762,0.808771034081777,0.0536070726811885,1.058340311050415,0.6814640363057455
3.85,1.6888757265197417e+18,48.849741699218754,-11.18986670176188,-10.994170188903809,0.5092226415872574,1.6888757265197417e+18,48.849741699218754,-6.917849779129028,-19.844276428222656,0.3016950190067291,1.6888757265197417e+18,48.849741699218754,4.249215126037598,-8.83436107635498,-0.2722411106030146,1.6888757265197417e+18,48.849741699218754,-1.0627018610636394,3.839797099431356,-1.4432709415753682,1.6888757265197417e+18,48.849741699218754,-1.0637708902359009,3.8442766666412354,-1.4410820206006367,,,,,,,,,,,,1.6888757265159954e+18,48.84599555664063,-10.121119689941406,48.331520080566406,-13.437079620361327,1.6888757265159954e+18,48.84599555664063,-265.51591796875,143.56471557617186,-146.79527893066407,1.6888757265197417e+18,48.849741699218754,-0.3571616907914479,0.239400232831637,-0.475154956181844,0.767200251420339,0.0647068979839483,1.121547261873881,0.8305293917655945
3.9,1.6888757265716398e+18,48.901639892578125,-7.243808587392171,1.5763262112935383,-2.605145891507467,1.6888757265716398e+18,48.901639892578125,-4.077768584092458,-7.553542931874593,-4.232105652491252,1.6888757265716398e+18,48.901639892578125,3.1432387034098306,-9.114123980204264,-1.6916731595993042,1.6888757265716398e+18,48.901639892578125,1.641191343466441,5.1526993115743,-2.248900373776754,1.6888757265716398e+18,48.901639892578125,1.6402240594228108,5.1571281750996905,-2.24676243464152,,,,,,,,,,,,1.688875726565991e+18,48.895990869140626,-9.115839767456055,49.09279937744141,-10.779919719696045,1.688875726565991e+18,48.895990869140626,-264.5106262207031,144.32599792480468,-144.13811950683595,1.6888757265716398e+18,48.901639892578125,-0.3729068338871002,0.3573264181613922,-0.4588119884332021,0.721657415231069,0.5020694732666016,1.1925999720891316,0.6057563523451487
3.95,1.68887572662354e+18,48.95353963216146,-4.879342555999756,0.4493788083394368,-6.234732309977214,1.68887572662354e+18,48.95353963216146,-3.519044558207194,-9.013762633005776,-8.396015803019205,1.68887572662354e+18,48.95353963216146,1.3374966581662495,-9.447396278381348,-2.225997050603231,1.68887572662354e+18,48.95353963216146,-1.716633141040802,5.880697886149089,-2.038100997606913,1.68887572662354e+18,48.95353963216146,-1.7176512678464253,5.8851267496744795,-2.0359628995259604,,,,,,,,,,,,1.6888757266159954e+18,48.94599545898438,-4.226079845428467,49.83211898803711,-6.465999889373779,1.6888757266159954e+18,48.94599545898438,-259.6208740234375,145.06531677246093,-139.8241973876953,1.68887572662354e+18,48.95353963216146,-0.4173623621463775,0.4803582032521565,-0.4476160109043121,0.6264577309290568,1.0459242860476177,1.3009625673294067,0.3462489744027455
4.0,1.6888757266754396e+18,49.00543937174479,0.8208317756652832,1.5617849032084148,-0.696548859278361,1.6888757266754396e+18,49.00543937174479,0.5641080141067505,-8.066404501597086,-2.5174487829208374,1.6888757266754396e+18,49.00543937174479,-0.2795251806577046,-9.612444241841636,-1.885613481203715,1.6888757266754396e+18,49.00543937174479,-0.1551088690757751,2.5255713860193887,-2.7691539923350015,1.6888757266754396e+18,49.00543937174479,-0.1560760736465454,2.5300002495447793,-2.7670158545176187,,,,,,,,,,,,1.6888757266659896e+18,48.99598979492187,0.0414799898862838,49.47099914550781,-9.171959686279296,1.6888757266659896e+18,48.99598979492187,-255.3533172607422,144.70419616699218,-142.53015747070313,1.6888757266754396e+18,49.00543937174479,-0.448853333791097,0.5587650537490845,-0.44906152288119,0.5329278707504272,1.7086411714553833,1.3702977895736694,-0.1120736946662266
4.05,1.6888757267273357e+18,49.057335530598955,3.5779689153035483,1.9369060198465984,1.6112123330434165,1.6888757267273357e+18,49.057335530598955,2.2149561246236167,-7.608577887217204,-0.1908276180426279,1.6888757267273357e+18,49.057335530598955,-1.3858141501744587,-9.529738744099935,-1.8667534589767456,1.6888757267273357e+18,49.057335530598955,0.0989092628781994,1.7984890937805176,-0.9172650848825772,1.6888757267273357e+18,49.057335530598955,0.0979929668828845,1.8029179175694785,-0.9151270228127638,,,,,,,,,,,,1.688875726715997e+18,49.045996875,5.172799873352051,49.446598815917966,-9.420839881896972,1.688875726715997e+18,49.045996875,-250.22199401855468,144.67979431152344,-142.77903442382814,1.6888757267273357e+18,49.057335530598955,-0.4394509494304656,0.6047414143880209,-0.4525305430094401,0.486009140809377,2.2088123162587485,1.3315709829330444,-0.5315371255079905
4.1,1.6888757267705876e+18,49.10058764648437,2.346860349178314,3.9407997131347656,-0.1917612552642822,1.6888757267705876e+18,49.10058764648437,0.7719844114035368,-5.6099724769592285,-1.788634955883026,1.6888757267705876e+18,49.10058764648437,-1.59767746925354,-9.535027027130129,-1.6615871787071228,1.6888757267705876e+18,49.10058764648437,-0.3112358450889587,2.7731754779815674,0.010537426918745,1.6888757267705876e+18,49.10058764648437,-0.3122285008430481,2.777604341506958,0.0126754529774189,,,,,,,,,,,,1.688875726765995e+18,49.09599497070312,4.653079843521118,49.309959411621094,-10.32363986968994,1.688875726765995e+18,49.09599497070312,-250.7417114257813,144.54316101074218,-143.6818389892578,1.6888757267705876e+18,49.10058764648437,-0.4632429778575897,0.6290992498397827,-0.4307620078325271,0.4515996873378753,2.337342143058777,1.33379328250885,-0.5546747744083405
4.15,1.6888757268138373e+18,49.14383715820313,2.0178798039754233,1.5283981959025066,-2.9551267623901367,1.6888757268138373e+18,49.14383715820313,0.1625125408172607,-8.025726636250814,-4.193421522776286,1.6888757268138373e+18,49.14383715820313,-1.8781686623891192,-9.538379669189451,-1.303008238474528,1.6888757268138373e+18,49.14383715820313,-0.6937902172406515,1.4001031716664631,-0.7005097270011902,1.6888757268138373e+18,49.14383715820313,-0.6947574019432068,1.4045319159825642,-0.6983716984589895,,,,,,,,,,,,1.688875726815991e+18,49.145991015625,3.847879934310913,49.07327880859375,-12.236599731445311,1.688875726815991e+18,49.145991015625,-251.54691467285156,144.3064758300781,-145.59479675292968,1.6888757268138373e+18,49.14383715820313,-0.4794946908950805,0.6451717813809713,-0.4235369265079498,0.4175358712673187,2.5347065925598145,1.3352728684743245,-0.6773478388786316
4.2,1.6888757268657357e+18,49.19573575846354,2.4407397905985513,-0.8741137186686198,-5.1630659103393555,1.6888757268657357e+18,49.19573575846354,0.0699901183446249,-10.362915992736816,-5.96450932820638,1.6888757268657357e+18,49.19573575846354,-2.3935510317484536,-9.47305711110433,-0.8661568959554037,1.6888757268657357e+18,49.19573575846354,-0.5442300140857697,1.330668124059836,-0.5578726828098297,1.6888757268657357e+18,49.19573575846354,-0.5451463162899017,1.3350969180464745,-0.5557346642017365,1.688875726865735e+18,49.19573461914062,0.0,0.0,0.9922941327095032,7.581999778747559,1.3414944410324097,82.39407348632812,39.400001525878906,-122.7520184,49.1905297,1.6888757268659958e+18,49.19599575195313,5.277719879150391,48.38275909423828,-14.081239700317385,1.6888757268659958e+18,49.19599575195313,-250.11707458496093,143.61595458984374,-147.43943786621094,1.6888757268657357e+18,49.19573575846354,-0.4872456689675649,0.6660439173380533,-0.4222283860047658,0.3749643564224243,2.7947352727254233,1.308273712793986,-0.8627757827440897
4.25,1.688875726917638e+18,49.247637776692706,1.5146455764770508,-3.1068236033121743,-9.83425235748291,1.688875726917638e+18,49.247637776692706,-0.6741777062416077,-12.634901364644367,-10.68614673614502,1.688875726917638e+18,49.247637776692706,-2.2116246223449707,-9.512332598368326,-0.9166077971458436,1.688875726917638e+18,49.247637776692706,0.5446372777223587,-0.3252348403135936,0.6497570077578226,1.688875726917638e+18,49.247637776692706,0.5436700731515884,-0.3208060761292775,0.6518950263659159,,,,,,,,,,,,1.6888757269159908e+18,49.245990625000005,4.162639856338501,48.49011917114258,-14.008039665222167,1.6888757269159908e+18,49.245990625000005,-251.2321563720703,143.7233154296875,-147.36623840332032,1.688875726917638e+18,49.247637776692706,-0.4940303266048431,0.663922389348348,-0.4144965310891469,0.3785231312115987,2.7491115729014077,1.3241684436798096,-0.8084851304690043
4.3,1.6888757269695355e+18,49.29953556315104,-1.618741770585378,-6.084582964579265,-0.2595868110656738,1.6888757269695355e+18,49.29953556315104,-2.961118002732595,-15.664015452067057,-1.8482561508814497,1.6888757269695355e+18,49.29953556315104,-1.3651777505874634,-9.563687324523926,-1.653382738431295,1.6888757269695355e+18,49.29953556315104,1.4492268562316897,-2.2675826946894326,2.0854939619700112,1.6888757269695355e+18,49.29953556315104,1.448259711265564,-2.263153831164042,2.087631901105245,,,,,,,,,,,,1.688875726965995e+18,49.295995068359375,1.8397599637508393,49.146478271484376,-11.663199615478517,1.688875726965995e+18,49.295995068359375,-253.55503845214844,144.37967529296876,-145.02139587402343,1.6888757269695355e+18,49.29953556315104,-0.4893381198247273,0.6403469840685526,-0.399146298567454,0.4366170465946197,2.259145418802897,1.3466804027557373,-0.3914561967055002
4.35,1.688875727021435e+18,49.351434733072914,-0.9958285490671792,-10.239441553751629,3.370258331298828,1.688875727021435e+18,49.351434733072914,-0.7830512324968973,-19.74497413635254,1.0099705811589956,1.688875727021435e+18,49.351434733072914,0.1899758428335189,-9.489787419637045,-2.425001303354899,1.688875727021435e+18,49.351434733072914,1.3191125790278118,-3.058042287826538,2.822146495183309,1.688875727021435e+18,49.351434733072914,1.3181962966918943,-3.0536135832468667,2.824284553527832,,,,,,,,,,,,1.6888757270159908e+18,49.34599086914063,-2.7010799646377563,49.86627883911133,-7.927559947967529,1.6888757270159908e+18,49.34599086914063,-258.09588012695315,145.09947814941407,-141.28575744628907,1.688875727021435e+18,49.351434733072914,-0.4843708674112956,0.5877516667048136,-0.3800884087880452,0.5239446659882864,1.5075139999389648,1.3158050378163657,0.2329408004879951
4.4,1.68887572707333e+18,49.40332975260416,-4.118806680043538,-10.819821993509928,3.221439758936564,1.68887572707333e+18,49.40332975260416,-2.3064816196759543,-20.154545466105144,0.8245268116394678,1.68887572707333e+18,49.40332975260416,1.7895236412684123,-9.318978309631348,-2.4616263707478843,1.68887572707333e+18,49.40332975260416,-0.4323907941579819,-1.2344568769137063,2.5050565799077353,1.68887572707333e+18,49.40332975260416,-0.4333070715268452,-1.2300280630588531,2.5072454611460366,,,,,,,,,,,,1.688875727065995e+18,49.39599497070312,-9.525759887695312,49.59543991088867,-6.885679817199707,1.688875727065995e+18,49.39599497070312,-264.920556640625,144.8286376953125,-140.24387817382814,1.68887572707333e+18,49.40332975260416,-0.5095005631446838,0.5316338936487833,-0.3547857602437337,0.5757738351821899,0.9447611967722574,1.253459095954895,0.7380746205647787
4.45,1.688875727125238e+18,49.455238037109375,-2.4507150650024414,-1.234440008799235,1.3137048482894895,1.688875727125238e+18,49.455238037109375,0.5513462026913961,-10.314262231191,-0.871984471877416,1.688875727125238e+18,49.455238037109375,2.979259808858236,-9.064077059427897,-2.2504027684529624,1.688875727125238e+18,49.455238037109375,1.4682146310806274,-4.080172697703044,1.6415476004282634,1.688875727125238e+18,49.455238037109375,1.467196504275004,-4.075743834177653,1.643685619036357,,,,,,,,,,,,1.6888757271159956e+18,49.44599570312501,-13.615199851989749,48.40715789794922,-8.53267993927002,1.6888757271159956e+18,49.44599570312501,-269.00999755859374,143.6403564453125,-141.89087524414063,1.688875727125238e+18,49.455238037109375,-0.4855636854966481,0.4580886463324229,-0.3714237908522288,0.6445913910865784,0.6496424674987793,1.1799299716949463,0.8471670349438986
4.5,1.688875727177136e+18,49.50713598632813,-10.291698455810549,9.132437229156494,1.1525325775146484,1.688875727177136e+18,49.50713598632813,-6.150152365366618,0.5122634371121723,-1.043868859608968,1.688875727177136e+18,49.50713598632813,4.118744770685832,-8.60442860921224,-2.2611149152119956,1.688875727177136e+18,49.50713598632813,1.0435105363527934,-3.9850812753041582,1.6049466133117676,1.688875727177136e+18,49.50713598632813,1.0425942341486614,-3.980652491251627,1.6070846716562908,,,,,,,,,,,,1.688875727165998e+18,49.49599809570312,-16.069839668273925,47.9703987121582,-7.402959823608398,1.688875727165998e+18,49.49599809570312,-271.4646362304687,143.20359802246094,-140.7611572265625,1.688875727177136e+18,49.50713598632813,-0.4453141192595164,0.3914553423722585,-0.3691903452078501,0.7149320443471273,0.5038428902626038,1.0705618063608806,0.8106350898742676
4.55,1.6888757272203845e+18,49.55038427734375,-10.085166931152344,13.108466148376465,0.094720184803009,1.6888757272203845e+18,49.55038427734375,-5.03270423412323,4.814658284187317,-1.3704892098903656,1.6888757272203845e+18,49.55038427734375,5.029661417007446,-8.278062343597412,-1.529922902584076,1.6888757272203845e+18,49.55038427734375,-0.2763401791453361,-4.4024293422698975,1.497383415699005,1.6888757272203845e+18,49.55038427734375,-0.2772564496845007,-4.398000717163086,1.4995214343070984,,,,,,,,,,,,1.688875727215994e+18,49.54599384765625,-18.7025993347168,47.1676383972168,-8.762039756774902,1.688875727215994e+18,49.54599384765625,-274.0973876953125,142.4008361816406,-142.1202362060547,1.6888757272203845e+18,49.55038427734375,-0.4166264683008194,0.3110605627298354,-0.3828985393047333,0.7633264064788818,0.2954777255654335,1.0046871304512024,0.8357771039009094
4.6,1.6888757272636283e+18,49.593628336588544,-3.4845916430155435,9.011644999186196,3.5897228717803955,1.6888757272636283e+18,49.593628336588544,1.942373752593994,0.8406783143679301,2.9435707529385886,1.6888757272636283e+18,49.593628336588544,5.404163996378581,-8.155221303304037,-0.7108656167984009,1.6888757272636283e+18,49.593628336588544,0.332310676574707,-2.438523213068644,-0.1723149170478185,1.6888757272636283e+18,49.593628336588544,0.3313943942387898,-2.4340943495432534,-0.1701259712378183,,,,,,,,,,,,1.6888757272659932e+18,49.59599296875,-18.2243595123291,46.2160400390625,-12.687999725341797,1.6888757272659932e+18,49.59599296875,-273.61915893554686,141.44923400878906,-146.04619750976562,1.6888757272636283e+18,49.593628336588544,-0.3948544363180796,0.2482482542594273,-0.4035253425439198,0.7870047887166342,0.1301320095856984,0.9816859563191732,0.8604336977005005
4.65,1.688875727315529e+18,49.64552888997395,3.4544790585835776,4.782411893208821,2.515617569287618,1.688875727315529e+18,49.64552888997395,8.229515234629313,-3.751746535301209,1.6269199848175049,1.688875727315529e+18,49.64552888997395,4.752234935760498,-8.518413225809732,-0.9534110824267068,1.688875727315529e+18,49.64552888997395,1.6462818384170532,0.1506291975577671,-2.5488352378209433,1.688875727315529e+18,49.64552888997395,1.645365556081136,0.1551088765263557,-2.54669721921285,,,,,,,,,,,,1.688875727315992e+18,49.64599213867187,-12.834399604797364,48.27783889770508,-11.03367977142334,1.688875727315992e+18,49.64599213867187,-268.22919921875,143.51103515625,-144.39187927246093,1.688875727315529e+18,49.64552888997395,-0.3499891857306162,0.2562421907981236,-0.4380515615145365,0.7870573997497559,0.2007590482632318,1.0529910723368328,0.7182741165161133
4.7,1.6888757273674353e+18,49.697435139973955,5.1304825146993,-16.439581871032715,1.0659823815027871,1.6888757273674353e+18,49.697435139973955,9.207382122675575,-25.285555521647137,-0.1876371701558431,1.6888757273674353e+18,49.697435139973955,4.054097890853882,-8.830228487650553,-1.3183330694834392,1.6888757273674353e+18,49.697435139973955,-0.1326595644156137,-1.983173926671346,-0.1371901432673137,1.6888757273674353e+18,49.697435139973955,-0.1335758666197458,-1.9787453015645344,-0.1350521147251129,1.688875727384731e+18,49.71473095703125,0.0,0.0,0.9922941327095032,7.354000091552734,1.329016923904419,81.99510192871094,39.400001525878906,-122.7520044,49.1905319,1.688875727365993e+18,49.69599282226562,-7.810439777374268,49.42463912963867,-8.42287998199463,1.688875727365993e+18,49.69599282226562,-263.2052368164062,144.6578369140625,-141.7810791015625,1.6888757273674353e+18,49.697435139973955,-0.323558896780014,0.2798049201567967,-0.4632715781529744,0.7757256825764974,0.314510628581047,1.1203548510869343,0.5918107231458029
4.75,1.6888757274193306e+18,49.749330403645835,3.989932060241699,4.30186144510905,5.430318832397461,1.6888757274193306e+18,49.749330403645835,8.762317180633545,-4.282354891300201,5.018746217091878,1.6888757274193306e+18,49.749330403645835,4.749583562215169,-8.568471272786459,-0.4762859443823496,1.6888757274193306e+18,49.749330403645835,-0.0641408562660217,-1.164156476656596,1.1592695116996763,1.6888757274193306e+18,49.749330403645835,-0.0650571386019389,-1.159727692604065,1.161407540241877,,,,,,,,,,,,1.688875727415992e+18,49.745992041015626,-8.82791976928711,49.08791961669922,-10.594479560852047,1.688875727415992e+18,49.745992041015626,-264.22271728515625,144.3211181640625,-143.9526794433594,1.6888757274193306e+18,49.749330403645835,-0.3047080834706624,0.2056450694799423,-0.4643788933753967,0.805669109026591,0.0997905358672141,1.062739650408427,0.664363443851471
4.8,1.6888757274712297e+18,49.80122981770833,-15.233298937479654,-11.629461606343588,2.5487098495165506,1.6888757274712297e+18,49.80122981770833,-10.62971576054891,-20.30449644724528,2.1162522236506143,1.6888757274712297e+18,49.80122981770833,4.580781936645508,-8.659289360046387,-0.4971711238225301,1.6888757274712297e+18,49.80122981770833,-1.9244800408681233,3.737375338872274,-0.7314093311627706,1.6888757274712297e+18,49.80122981770833,-1.9253963232040403,3.741905927658081,-0.7292712926864624,,,,,,,,,,,,1.6888757274659937e+18,49.795993896484376,-11.294759559631348,48.38275985717773,-12.531839752197266,1.6888757274659937e+18,49.795993896484376,-266.68955078125,143.61595764160157,-145.8900390625,1.6888757274712297e+18,49.80122981770833,-0.3562389115492503,0.2414280176162719,-0.456110546986262,0.7782777150472006,0.1074956332643826,1.0819646120071411,0.7942074537277222
4.85,1.688875727523129e+18,49.85312923177083,-4.185834248860677,-0.8142000834147135,-1.1731228431065877,1.688875727523129e+18,49.85312923177083,-0.4460619489351908,-9.75294558207194,-2.6327030658721924,1.688875727523129e+18,49.85312923177083,3.716970841089884,-8.92300033569336,-1.5242936809857686,1.688875727523129e+18,49.85312923177083,1.9901480277379353,4.3694173494974775,-2.17824367682139,1.688875727523129e+18,49.85312923177083,1.98918084303538,4.373845974604289,-2.1760546763738,,,,,,,,,,,,1.6888757275159928e+18,49.84599282226562,-10.474920082092286,48.480359649658205,-10.56275987625122,1.6888757275159928e+18,49.84599282226562,-265.8697143554688,143.71355590820312,-143.92095642089845,1.688875727523129e+18,49.85312923177083,-0.3777248958746592,0.3330360253651936,-0.4450952708721161,0.7392957806587219,0.3958908170461654,1.142876466115316,0.6849794189135233
4.9,1.6888757275750254e+18,49.90502539062499,-9.62721061706543,2.1439406077067056,-3.628637949625651,1.6888757275750254e+18,49.90502539062499,-7.780462265014648,-7.186244646708171,-5.99142853418986,1.6888757275750254e+18,49.90502539062499,1.823947032292684,-9.31444009145101,-2.427503983179728,1.6888757275750254e+18,49.90502539062499,-1.4538083920876186,4.844823042551677,-2.3616559505462646,1.6888757275750254e+18,49.90502539062499,-1.4547246918082235,4.849302848180135,-2.3595178922017417,,,,,,,,,,,,1.688875727565995e+18,49.89599501953125,-6.309839916229248,50.18103866577148,-5.958479881286621,1.688875727565995e+18,49.89599501953125,-261.704638671875,145.4142333984375,-139.31667785644532,1.6888757275750254e+18,49.90502539062499,-0.4014452993869781,0.4596035083134969,-0.4418805539608001,0.6563570698102316,0.9382003545761108,1.254404624303182,0.3914400041103363
4.95,1.688875727626917e+18,49.956917399088546,-0.0965141057968139,-1.3941240310668943,-2.408549110094706,1.688875727626917e+18,49.956917399088546,0.2081755797068278,-11.04387346903483,-4.120241204897563,1.688875727626917e+18,49.956917399088546,0.2818882316350937,-9.634004275004068,-1.7764056126276653,1.688875727626917e+18,49.956917399088546,-0.9671524365743002,3.39020037651062,-2.457918167114258,1.688875727626917e+18,49.956917399088546,-0.9680687189102172,3.3946799437204995,-2.455780108769735,,,,,,,,,,,,1.68887572761599e+18,49.94598984375,-2.5278399705886843,49.61007919311523,-9.659959602355958,1.68887572761599e+18,49.94598984375,-257.92262573242186,144.84328002929686,-143.01815490722657,1.688875727626917e+18,49.956917399088546,-0.4466591775417328,0.525858998298645,-0.4568187594413757,0.5607305367787679,1.4255393346150715,1.3818612098693848,0.0999843378861745
5.0,1.6888757276701696e+18,50.000169433593754,4.997892379760742,2.518321990966797,1.741506814956665,1.6888757276701696e+18,50.000169433593754,3.987638950347901,-7.078268527984619,-0.0170488655567169,1.6888757276701696e+18,50.000169433593754,-1.0330547988414764,-9.580845355987549,-1.8232690691947937,1.6888757276701696e+18,50.000169433593754,0.4811327457427978,2.8395307064056396,-2.4796546697616577,1.6888757276701696e+18,50.000169433593754,0.4802164435386657,2.8440359830856323,-2.477516770362854,,,,,,,,,,,,1.688875727665987e+18,49.995987255859376,2.3789999127388,49.58079833984375,-10.699399757385256,1.688875727665987e+18,49.995987255859376,-253.0157958984375,144.81399841308593,-144.05759887695314,1.6888757276701696e+18,50.000169433593754,-0.4425071775913238,0.587297111749649,-0.4555798172950744,0.5014714151620865,2.081225335597992,1.3548763990402222,-0.4372118413448334
5.05,1.6888757277134193e+18,50.04341910807292,2.0003397862116494,3.9994328816731777,-0.392996350924174,1.6888757277134193e+18,50.04341910807292,0.548554539680481,-5.577470143636067,-1.950150395433108,1.6888757277134193e+18,50.04341910807292,-1.4745867649714148,-9.561157862345375,-1.6218674977620442,1.6888757277134193e+18,50.04341910807292,-0.4788165365656217,2.228334665298462,-0.0289142876863479,1.6888757277134193e+18,50.04341910807292,-0.4798346633712451,2.2328142722447715,-0.0267762566606203,,,,,,,,,,,,1.6888757277159877e+18,50.045987744140625,4.301719808578492,49.266038513183595,-11.160559654235838,1.6888757277159877e+18,50.045987744140625,-251.09307556152345,144.49923400878907,-144.5187561035156,1.6888757277134193e+18,50.04341910807292,-0.4601906239986419,0.6176402568817139,-0.4399543901284535,0.4614337583382924,2.310530185699463,1.3454920053482056,-0.5619224707285563
5.1,1.6888757277653207e+18,50.09532063802084,0.7535190184911092,3.270145575205485,-5.14537254969279,1.6888757277653207e+18,50.09532063802084,-0.9495517810185752,-6.322236220041911,-6.31386137008667,1.6888757277653207e+18,50.09532063802084,-1.725872238477071,-9.57663663228353,-1.233202298482259,1.6888757277653207e+18,50.09532063802084,-0.644055595000585,0.6833036740620931,-0.7895942131678263,1.6888757277653207e+18,50.09532063802084,-0.6450228095054626,0.6877324481805166,-0.787456194559733,,,,,,,,,,,,1.6888757277659914e+18,50.09599145507813,3.6331599235534666,48.724359130859376,-12.780719757080078,1.6888757277659914e+18,50.09599145507813,-251.76163635253903,143.95755920410156,-146.1389190673828,1.6888757277653207e+18,50.09532063802084,-0.4754139383633931,0.6288795272509257,-0.4386118749777476,0.4313260515530904,2.519840637842814,1.3526428540547688,-0.7127333680788676
5.15,1.6888757278172262e+18,50.14722615559896,3.812430262565613,-0.9183775583902994,-1.981887420018514,1.6888757278172262e+18,50.14722615559896,1.4604194164276123,-10.402597109476725,-2.8679972489674888,1.6888757278172262e+18,50.14722615559896,-2.374812205632528,-9.46847438812256,-0.9508232474327089,1.6888757278172262e+18,50.14722615559896,-0.1693623873094717,2.0276145140329995,-1.1217522124449413,1.6888757278172262e+18,50.14722615559896,-0.1703295881549517,2.0320940812428794,-1.119614193836848,,,,,,,,,,,,1.6888757278159895e+18,50.145989453125,5.319199848175049,48.24367980957031,-14.171519470214845,1.6888757278159895e+18,50.145989453125,-250.0755920410156,143.47687683105468,-147.52971801757812,1.6888757278172262e+18,50.14722615559896,-0.4766473273436227,0.6569242676099142,-0.4350905418395996,0.3894256353378296,2.7585972944895425,1.3067755301793416,-0.8746867179870605
5.2,1.6888757278691226e+18,50.19912255859375,1.8474949598312376,-2.889764149983724,-7.385866006215413,1.6888757278691226e+18,50.19912255859375,-0.4749752680460613,-12.393425623575846,-8.158528168996176,1.6888757278691226e+18,50.19912255859375,-2.3452717463175454,-9.487916310628256,-0.8373758792877197,1.6888757278691226e+18,50.19912255859375,0.0709621707598368,-0.2522364457448323,0.6045020669698715,1.6888757278691226e+18,50.19912255859375,0.0699949872990449,-0.2477567593256632,0.6066400855779647,,,,,,,,,,,,1.6888757278659973e+18,50.19599716796875,5.343599891662597,48.05335922241211,-14.937679672241211,1.6888757278659973e+18,50.19599716796875,-250.0511932373047,143.28655700683595,-148.2958740234375,1.6888757278691226e+18,50.19912255859375,-0.4851628541946411,0.6592085361480713,-0.4299707810084025,0.3809772829214732,2.798565069834391,1.3142596085866292,-0.8899725675582886
5.25,1.6888757279210222e+18,50.25102221679688,1.0099284648895264,-3.2881460189819336,-2.9791344006856284,1.6888757279210222e+18,50.25102221679688,-0.8189435154199601,-12.84427293141683,-4.194618145624797,1.6888757279210222e+18,50.25102221679688,-1.851673483848572,-9.54038174947103,-1.280197262763977,1.6888757279210222e+18,50.25102221679688,1.0811805526415508,-1.0257954597473145,1.6923512518405917,1.6888757279210222e+18,50.25102221679688,1.0802642901738484,-1.021366665760676,1.69454022248586,1.6888757278990868e+18,50.2290869140625,0.0,0.0,1.002491474151611,7.267000198364258,1.3233548402786257,81.71300506591797,39.400001525878906,-122.7520022,49.1905326,1.6888757279159916e+18,50.24599135742187,3.513599991798401,48.90491943359375,-13.1052396774292,1.6888757279159916e+18,50.24599135742187,-251.8811981201172,144.13811340332032,-146.46343994140625,1.6888757279210222e+18,50.25102221679688,-0.4879862169424693,0.6513461271921793,-0.4122094412644704,0.4089697301387786,2.526928663253784,1.3366440534591677,-0.6343587934970856
5.3,1.6888757279729244e+18,50.302924397786455,-3.1042933464050293,-8.174374262491861,1.6625510851542156,1.6888757279729244e+18,50.302924397786455,-3.4905301332473755,-17.758134206136067,-0.3375873863697052,1.6888757279729244e+18,50.302924397786455,-0.4090382854143778,-9.568014780680338,-2.064851959546407,1.6888757279729244e+18,50.302924397786455,1.6628261009852092,-2.505820115407308,2.686636288960775,1.6888757279729244e+18,50.302924397786455,1.6618080139160156,-2.5013405084609985,2.688774267832438,,,,,,,,,,,,1.6888757279659935e+18,50.295993701171874,-1.817799937725067,49.16355895996094,-10.357799911499024,1.6888757279659935e+18,50.295993701171874,-257.21259765625,144.39675598144532,-143.71599731445312,1.6888757279729244e+18,50.302924397786455,-0.4954456488291421,0.6114379167556763,-0.3829619189103444,0.4828022023042043,1.7816827694574993,1.349167426427205,0.0323363492886225
5.35,1.6888757280248218e+18,50.354821940104166,1.2955639958381653,-12.48542849222819,1.7197401126225789,1.6888757280248218e+18,50.354821940104166,2.562912404537201,-21.85584259033203,-0.8636095722516378,1.6888757280248218e+18,50.354821940104166,1.2445469498634338,-9.354668935139976,-2.6480631828308105,1.6888757280248218e+18,50.354821940104166,0.3452915946642558,-1.3175345460573833,2.75917649269104,1.6888757280248218e+18,50.354821940104166,0.3443243702252705,-1.3131057222684224,2.761314551035563,,,,,,,,,,,,1.6888757280159903e+18,50.34599038085938,-7.468839931488037,49.81503829956055,-6.727079772949219,1.6888757280159903e+18,50.34599038085938,-262.86363525390624,145.04823608398436,-140.0852783203125,1.6888757280248218e+18,50.354821940104166,-0.495327889919281,0.5544690688451132,-0.3589329520861308,0.5638529856999716,1.137198229630788,1.265598177909851,0.5621894399325053
5.4,1.6888757280767237e+18,50.40672338867188,-5.088581005732219,-5.930169423421224,2.6509127616882324,1.6888757280767237e+18,50.40672338867188,-2.6414766709009805,-15.151153564453123,0.3686940868695577,1.6888757280767237e+18,50.40672338867188,2.4243027369181314,-9.205238978068031,-2.346932172775269,1.6888757280767237e+18,50.40672338867188,0.553087592124939,-3.94970186551412,1.451415777206421,1.6888757280767237e+18,50.40672338867188,0.5521203676859537,-3.945273240407308,1.4535538752873738,,,,,,,,,,,,1.6888757280659927e+18,50.3959927734375,-12.73191967010498,48.93663940429688,-7.873880004882812,1.6888757280659927e+18,50.3959927734375,-268.12672119140626,144.16983337402343,-141.2320770263672,1.6888757280767237e+18,50.40672338867188,-0.5015816787878672,0.4947126507759094,-0.3620264132817586,0.6093939145406088,0.7728506326675415,1.2186564207077026,0.8231004079182943
5.45,1.6888757281199729e+18,50.44997277832032,-5.5264732837677,2.2677230834960938,2.0203383564949036,1.6888757281199729e+18,50.44997277832032,-2.076072700321674,-6.622735023498535,-0.300299234688282,1.6888757281199729e+18,50.44997277832032,3.42759907245636,-8.874712944030762,-2.385351061820984,1.6888757281199729e+18,50.44997277832032,1.181642472743988,-2.0750328302383423,1.9630154967308044,1.6888757281199729e+18,50.44997277832032,1.180726170539856,-2.0705277919769287,1.9652298092842104,,,,,,,,,,,,1.688875728115991e+18,50.44599111328125,-15.784359741210938,47.921599578857425,-7.905599880218506,1.688875728115991e+18,50.44599111328125,-271.179150390625,143.15479736328126,-141.2637939453125,1.6888757281199729e+18,50.44997277832032,-0.4783897697925567,0.4410210698843002,-0.361542597413063,0.667668491601944,0.6080239415168762,1.1310825943946838,0.850163459777832
5.5,1.688875728163216e+18,50.49321606445312,-10.815460205078123,10.181512832641602,3.178372621536255,1.688875728163216e+18,50.49321606445312,-6.520242373148601,1.6344972451527913,0.987438142299652,1.688875728163216e+18,50.49321606445312,4.272416512171428,-8.531270345052084,-2.255647897720337,1.688875728163216e+18,50.49321606445312,0.857603907585144,-3.5168530146280923,1.5572482347488403,1.688875728163216e+18,50.49321606445312,0.8566366831461588,-3.512373367945353,1.5593862533569336,,,,,,,,,,,,1.688875728165997e+18,50.49599692382812,-18.17555961608887,47.36771926879883,-7.45664005279541,1.688875728165997e+18,50.49599692382812,-273.5703491210937,142.60091857910157,-140.81483764648436,1.688875728163216e+18,50.49321606445312,-0.4544989168643951,0.3900507688522339,-0.3600463370482127,0.7147270441055298,0.4872715572516123,1.0550995667775471,0.8446054259936014
5.55,1.6888757282151155e+18,50.545115559895834,-7.893676122029622,12.367644945780436,1.380527416865031,1.6888757282151155e+18,50.545115559895834,-2.639283378918966,4.182654023170471,0.031106690565745,1.6888757282151155e+18,50.545115559895834,5.23159122467041,-8.169245719909668,-1.41413414478302,1.6888757282151155e+18,50.545115559895834,-0.082059567173322,-3.7999889850616455,0.979675143957138,1.6888757282151155e+18,50.545115559895834,-0.0829758594433466,-3.7954583962758384,0.9818640649318696,,,,,,,,,,,,1.688875728215995e+18,50.545994921875,-19.97383918762207,46.24775848388672,-10.29923973083496,1.688875728215995e+18,50.545994921875,-275.3686279296875,141.48095703125,-143.65743713378907,1.6888757282151155e+18,50.545115559895834,-0.4231155117352803,0.3018591900666554,-0.3763620754082997,0.7664529283841451,0.2646505484978357,0.9843104481697084,0.8658823172251383
5.6,1.6888757282670223e+18,50.597022135416665,0.7730153401692709,6.529155254364014,3.5902018547058105,1.6888757282670223e+18,50.597022135416665,6.001996835072835,-1.7387844324111938,2.673181692759196,1.6888757282670223e+18,50.597022135416665,5.206180095672607,-8.25219440460205,-0.9817336400349932,1.6888757282670223e+18,50.597022135416665,0.9443976680437725,-0.5042692522207896,-1.6172657211621602,1.6888757282670223e+18,50.597022135416665,0.943430463473002,-0.4998404880364736,-1.6151277422904968,,,,,,,,,,,,1.6888757282659914e+18,50.59599145507813,-18.04623947143555,46.5332389831543,-12.085319900512696,1.6888757282659914e+18,50.59599145507813,-273.4410339355469,141.7664337158203,-145.44351806640626,1.6888757282670223e+18,50.597022135416665,-0.3959431548913319,0.2684824367364247,-0.4030919273694356,0.780025045077006,0.1868568907181421,1.0000304579734802,0.8365642229715983
5.65,1.6888757283189207e+18,50.64892073567708,5.498691002527873,-3.640226682027181,1.973804235458374,1.6888757283189207e+18,50.64892073567708,9.63828945159912,-12.396217028299969,0.3667000805338223,1.6888757283189207e+18,50.64892073567708,4.116797049840291,-8.74024518330892,-1.671817620595296,1.6888757283189207e+18,50.64892073567708,0.8945612286527952,0.7722863952318827,-2.100307365258535,1.6888757283189207e+18,50.64892073567708,0.8935431589682897,0.7767151792844137,-2.098169426123301,,,,,,,,,,,,1.6888757283159936e+18,50.64599345703125,-11.572919845581056,48.597479248046874,-9.006039810180663,1.6888757283159936e+18,50.64599345703125,-266.96771240234375,143.83067932128907,-142.36423950195314,1.6888757283189207e+18,50.64892073567708,-0.3619612058003743,0.3185050586859385,-0.4342430432637532,0.7607254981994629,0.3874296645323435,1.100085179011027,0.6478398640950521
5.7,1.6888757283708165e+18,50.70081640625,7.323429743448893,-10.76604906717936,1.5931387344996135,1.6888757283708165e+18,50.70081640625,11.669796307881674,-19.51546287536621,0.5836493596434593,1.6888757283708165e+18,50.70081640625,4.323564847310384,-8.733668327331543,-1.074202835559845,1.6888757283708165e+18,50.70081640625,-0.3144428779681523,-3.461620648701986,1.1639018853505452,1.6888757283708165e+18,50.70081640625,-0.3153591776887576,-3.45719180504481,1.1660908460617063,,,,,,,,,,,,1.6888757283659922e+18,50.69599208984375,-8.203279876708985,49.13915939331055,-9.027999782562256,1.6888757283659922e+18,50.69599208984375,-263.59807739257815,144.3723571777344,-142.38619689941407,1.6888757283708165e+18,50.70081640625,-0.3335165083408355,0.2655162413914998,-0.4568582773208618,0.780344545841217,0.2452033708492914,1.0985318422317505,0.6565364996592203
5.75,1.6888757284227187e+18,50.75271866861979,-8.965913931528727,-5.594659010569255,5.083333174387614,1.6888757284227187e+18,50.75271866861979,-4.31126832962036,-14.20299768447876,4.180859406789144,1.6888757284227187e+18,50.75271866861979,4.631844202677409,-8.592593828837076,-0.9671873052914938,1.6888757284227187e+18,50.75271866861979,-1.178511768579483,2.5750515460968018,0.0910698175430298,1.6888757284227187e+18,50.75271866861979,-1.1794280707836151,2.579531272252401,0.0932078609863917,1.6888757284227195e+18,50.752719482421874,0.0,0.0,1.002491474151611,7.107999801635742,1.313112735748291,81.22351837158203,39.400001525878906,-122.7519851,49.1905352,1.6888757284159923e+18,50.74599208984375,-10.848239517211914,48.98299789428711,-10.157719993591307,1.6888757284159923e+18,50.74599208984375,-266.2430358886719,144.21619567871093,-143.5159149169922,1.6888757284227187e+18,50.75271866861979,-0.3519429663817087,0.261840080221494,-0.441840132077535,0.7821023861567179,0.2054659972588221,1.067592183748881,0.7241238355636597
5.8,1.688875728474618e+18,50.80461832682292,-7.536522070566813,-1.4161701202392578,-0.4286718269189198,1.688875728474618e+18,50.80461832682292,-3.2173496087392173,-10.151350657145182,-1.63788707057635,1.688875728474618e+18,50.80461832682292,4.29637082417806,-8.719435373942057,-1.2739287217458088,1.688875728474618e+18,50.80461832682292,0.7325292428334554,2.401362220446269,-0.7754934132099153,1.688875728474618e+18,50.80461832682292,0.7316129406293234,2.405892769495646,-0.7733044922351837,,,,,,,,,,,,1.6888757284659963e+18,50.79599604492188,-13.378519821166991,47.69955902099609,-11.20691967010498,1.6888757284659963e+18,50.79599604492188,-268.7733154296875,142.93275756835936,-144.56511535644532,1.688875728474618e+18,50.80461832682292,-0.3917737702528636,0.3101106385389964,-0.4295326272646586,0.7519572178522745,0.2893462677796681,1.095027248064677,0.7827117443084717
5.85,1.6888757285265183e+18,50.85651847330729,-9.430603822072348,0.5319364865620931,0.4783215125401814,1.6888757285265183e+18,50.85651847330729,-6.618746836980184,-8.51266590754191,-2.0047865509986877,1.6888757285265183e+18,50.85651847330729,2.789055665334066,-9.028857231140137,-2.547821521759033,1.6888757285265183e+18,50.85651847330729,0.0394008370737234,5.643274784088135,-2.781625827153524,1.6888757285265183e+18,50.85651847330729,0.0384335942411174,5.647703647613525,-2.779487689336141,,,,,,,,,,,,1.6888757285159885e+18,50.845988525390624,-10.69451971054077,49.27823944091797,-6.8173600196838375,1.6888757285159885e+18,50.845988525390624,-266.0893188476563,144.51143798828124,-140.1755584716797,1.6888757285265183e+18,50.85651847330729,-0.401906023422877,0.4294575750827789,-0.4147947231928506,0.6926620602607727,0.7526054978370667,1.170791745185852,0.5350046654542288
5.9,1.6888757285697682e+18,50.89976818847656,-8.317272663116455,-0.9067401885986328,-4.933839797973633,1.6888757285697682e+18,50.89976818847656,-7.074380159378052,-10.371091842651367,-7.189833879470825,1.6888757285697682e+18,50.89976818847656,1.220091164112091,-9.448606491088867,-2.320707678794861,1.6888757285697682e+18,50.89976818847656,-2.4757604598999023,2.7258334159851074,-2.0923661589622498,1.6888757285697682e+18,50.89976818847656,-2.476676821708679,2.7302621603012085,-2.0902281999588013,,,,,,,,,,,,1.688875728565997e+18,50.895997021484376,-4.748239898681641,49.98827896118164,-7.293159866333008,1.688875728565997e+18,50.895997021484376,-260.1430297851563,145.22147521972656,-140.65135498046874,1.6888757285697682e+18,50.89976818847656,-0.4325257539749145,0.4995725750923157,-0.4337472766637802,0.6122934818267822,1.0899807214736938,1.3001187443733215,0.3657028526067734
5.95,1.688875728613017e+18,50.94301733398438,3.29170298576355,-0.1029384930928546,-3.5817126035690308,1.688875728613017e+18,50.94301733398438,3.342175006866455,-9.746764024098717,-5.339184919993083,1.688875728613017e+18,50.94301733398438,0.0276705995202064,-9.628080368041992,-1.822185715039571,1.688875728613017e+18,50.94301733398438,-0.5499823490778605,3.875227212905884,-2.526233196258545,1.688875728613017e+18,50.94301733398438,-0.5509495387474695,3.879706859588623,-2.524095217386882,,,,,,,,,,,,1.6888757286159974e+18,50.9459974609375,-0.9857599675655364,49.61007919311523,-10.269959640502927,1.6888757286159974e+18,50.9459974609375,-256.38055419921875,144.84327697753906,-143.62816162109374,1.688875728613017e+18,50.94301733398438,-0.456964244445165,0.548297385374705,-0.4442082742849986,0.5404176712036133,1.5559070507685344,1.3782548507054646,0.0356285274028777
6.0,1.688875728664917e+18,50.994916992187505,2.6882381439208984,2.334217389424642,1.3419022957483928,1.688875728664917e+18,50.994916992187505,1.4251253406206768,-7.229913711547852,-0.4329014768203099,1.688875728664917e+18,50.994916992187505,-1.2859142621358235,-9.548385938008629,-1.8395172754923503,1.688875728664917e+18,50.994916992187505,0.3180062621831893,2.615623195966085,-1.1144218668341637,1.688875728664917e+18,50.994916992187505,0.317089964946111,2.620102842648824,-1.1122838060061138,,,,,,,,,,,,1.688875728665995e+18,50.9959951171875,2.0520400047302245,49.373400115966795,-10.18943977355957,1.688875728665995e+18,50.9959951171875,-253.34275817871097,144.60659484863282,-143.54763793945312,1.688875728664917e+18,50.994916992187505,-0.4641317029794057,0.6209018031756083,-0.4240302046140035,0.4679525097211202,2.178469657897949,1.33979864915212,-0.4129793047904968
6.05,1.6888757287168166e+18,51.04681665039063,2.0481839179992676,4.852352937062581,-1.0746830304463704,1.6888757287168166e+18,51.04681665039063,0.5820540885130564,-4.714059988657634,-2.681157867113749,1.6888757287168166e+18,51.04681665039063,-1.4889311790466309,-9.550667762756348,-1.671188275019328,1.6888757287168166e+18,51.04681665039063,-0.3963497231403987,1.8594228823979695,0.0192422568798065,1.6888757287168166e+18,51.04681665039063,-0.3972660228610039,1.863902568817139,0.0214311927556991,,,,,,,,,,,,1.6888757287159923e+18,51.0459921875,1.6811599850654602,49.61739883422852,-10.421239852905272,1.6888757287159923e+18,51.0459921875,-253.7136383056641,144.85059509277343,-143.77943420410156,1.6888757287168166e+18,51.04681665039063,-0.4844182133674621,0.6433587670326233,-0.4023131430149078,0.4351748128732045,2.299514373143514,1.3406574328740437,-0.4354260663191477
6.1,1.6888757287687114e+18,51.098711263020824,3.352641145388285,0.1835370063781738,-3.3114819526672363,1.6888757287687114e+18,51.098711263020824,1.5118650595347087,-9.375477949778238,-4.528616110483806,1.6888757287687114e+18,51.098711263020824,-1.863577445348104,-9.543269793192543,-1.2818477551142375,1.6888757287687114e+18,51.098711263020824,-0.6417648593584696,1.3655383586883545,-1.0673342943191528,1.6888757287687114e+18,51.098711263020824,-0.6426811615626017,1.3700180053710938,-1.0651453733444214,,,,,,,,,,,,1.6888757287659953e+18,51.09599521484375,2.1642799377441406,49.14891891479492,-11.999919891357422,1.6888757287659953e+18,51.09599521484375,-253.2305114746094,144.38211364746093,-145.35811767578124,1.6888757287687114e+18,51.098711263020824,-0.4958148499329884,0.6599045197168986,-0.3992291490236917,0.3989074230194092,2.5362788836161294,1.3375124136606853,-0.6034514506657919
6.15,1.6888757288206144e+18,51.15061458333333,0.1860322952270508,-1.860465367635091,-5.847087303797404,1.6888757288206144e+18,51.15061458333333,-2.0873389740784964,-11.370892842610678,-6.681757767995198,1.6888757288206144e+18,51.15061458333333,-2.296172698338826,-9.49468231201172,-0.8993840217590332,1.6888757288206144e+18,51.15061458333333,-0.4974988400936126,0.3413209766149521,-0.0661770701408386,1.6888757288206144e+18,51.15061458333333,-0.4984151323636372,0.3458006332317988,-0.0639881441990534,,,,,,,,,,,,1.6888757288159923e+18,51.145992333984374,3.179319906234741,48.573079681396486,-13.602999687194824,1.6888757288159923e+18,51.145992333984374,-252.21547241210936,143.8062774658203,-146.96119995117186,1.6888757288206144e+18,51.15061458333333,-0.5005539755026499,0.6758878231048584,-0.4001337091128031,0.3639939129352569,2.7690797646840415,1.3168988227844238,-0.7795671820640564
6.2,1.6888757288725066e+18,51.20250651041666,2.9679694175720215,-3.077596346537272,-7.590559482574463,1.6888757288725066e+18,51.20250651041666,0.8813563187917074,-12.615758577982584,-8.571489651997885,1.6888757288725066e+18,51.20250651041666,-2.109414498011271,-9.522417068481444,-1.0456434686978655,1.6888757288725066e+18,51.20250651041666,0.5883650382359823,-0.0986038347085316,0.5477934045096239,1.6888757288725066e+18,51.20250651041666,0.5873469312985738,-0.0941750605901082,0.5499314293265343,,,,,,,,,,,,1.68887572886599e+18,51.19598979492188,2.906040000915527,48.31687850952149,-13.74451961517334,1.68887572886599e+18,51.19598979492188,-252.48875427246097,143.55007934570312,-147.10271606445312,1.6888757288725066e+18,51.20250651041666,-0.5018234650293986,0.6712942123413086,-0.3959128161271412,0.3751475314299266,2.681342124938965,1.3283946911493938,-0.7026940981547037
6.25,1.6888757289244027e+18,51.25440266927083,-2.1533132791519165,-5.870411554972331,-0.1892771323521932,1.6888757289244027e+18,51.25440266927083,-3.2666017214457193,-15.481961250305176,-1.7676977937420209,1.6888757289244027e+18,51.25440266927083,-1.1360899011294048,-9.595804532368978,-1.6431341568628948,1.6888757289244027e+18,51.25440266927083,1.2721268733342488,-2.1437297264734902,2.2802072366078696,1.6888757289244027e+18,51.25440266927083,1.2711087862650554,-2.139250079790751,2.2823452949523926,1.688875728941704e+18,51.27170385742187,0.0,0.0,1.0124703645706177,7.039000034332275,1.312932372093201,81.14181518554688,39.400001525878906,-122.7519819,49.1905361,1.6888757289159877e+18,51.2459876953125,0.1488399922847748,49.039118957519534,-11.877919769287107,1.6888757289159877e+18,51.2459876953125,-255.24595947265624,144.272314453125,-145.23611755371093,1.6888757289244027e+18,51.25440266927083,-0.5091684659322103,0.6449129581451416,-0.3765126466751098,0.4272330204645793,2.1734620332717896,1.3618218501408894,-0.2485287537177403
6.3,1.6888757289763085e+18,51.30630851236979,-1.0586199760437012,-10.357393582661947,2.565558671951294,1.6888757289763085e+18,51.30630851236979,-0.6867400805155436,-19.830118815104168,0.0985045433044433,1.6888757289763085e+18,51.30630851236979,0.3490784068902333,-9.456980069478352,-2.5317676067352295,1.6888757289763085e+18,51.30630851236979,1.810655514399211,-3.2780555884043374,2.545628229777018,1.6888757289763085e+18,51.30630851236979,1.809586485226949,-3.2736268838246665,2.5477662086486816,,,,,,,,,,,,1.6888757289659896e+18,51.29598955078124,-4.018679904937744,49.59055862426758,-8.383839988708496,1.6888757289659896e+18,51.29598955078124,-259.4134765625,144.82375793457032,-141.74203796386718,1.6888757289763085e+18,51.30630851236979,-0.4970910946528117,0.5934439698855082,-0.3600845336914062,0.5196216007073721,1.4516815741856892,1.3036213318506875,0.3322296937306722
6.35,1.6888757290195538e+18,51.3495537109375,-1.767894268035889,-11.413342952728271,3.567053437232971,1.6888757290195538e+18,51.3495537109375,-0.002392768859863,-20.6967191696167,0.9403793253004552,1.6888757290195538e+18,51.3495537109375,1.7427000999450684,-9.26763105392456,-2.6913875341415405,1.6888757290195538e+18,51.3495537109375,-0.8192466571927071,-0.1074359277263283,3.145650625228882,1.6888757290195538e+18,51.3495537109375,-0.8201629370450974,-0.1030071545392274,3.1478649377822876,,,,,,,,,,,,1.688875729015988e+18,51.345988134765626,-10.47491970062256,49.18551864624023,-5.731559944152832,1.688875729015988e+18,51.345988134765626,-265.8697204589844,144.41871948242186,-139.08975830078126,1.6888757290195538e+18,51.3495537109375,-0.5171433985233307,0.5468944013118744,-0.3345680236816406,0.5668544173240662,0.9964520633220671,1.236916422843933,0.7394444346427917
6.4,1.6888757290628014e+18,51.39280143229166,-3.5525054931640625,-4.423882484436035,2.807105461756388,1.6888757290628014e+18,51.39280143229166,-0.8584250807762146,-13.612967491149902,0.6711868047714233,1.6888757290628014e+18,51.39280143229166,2.671278953552246,-9.173339843749998,-2.200632015864054,1.6888757290628014e+18,51.39280143229166,0.5670865774154664,-4.608367363611857,1.2392928798993428,1.6888757290628014e+18,51.39280143229166,0.5661193529764811,-4.603938738505046,1.241430898507436,,,,,,,,,,,,1.688875729065988e+18,51.395988037109376,-14.354519653320311,48.05335922241211,-8.659559726715088,1.688875729065988e+18,51.395988037109376,-269.7493103027344,143.28656005859375,-142.01775817871095,1.6888757290628014e+18,51.39280143229166,-0.5118371744950613,0.4843060076236725,-0.3585422535737355,0.6111189723014832,0.6921891768773397,1.2092639605204265,0.905417819817861
6.45,1.6888757291147072e+18,51.444707356770834,-8.763527234395346,6.0906728108723955,2.0302881797154746,1.6888757291147072e+18,51.444707356770834,-4.9294140338897705,-2.675375064214071,-0.151744837562243,1.6888757291147072e+18,51.444707356770834,3.8113114833831783,-8.75030263264974,-2.24674646059672,1.6888757291147072e+18,51.444707356770834,1.1772900422414143,-2.6229026317596436,1.8486818472544353,1.6888757291147072e+18,51.444707356770834,1.1763737400372822,-2.618473847707113,1.8508199055989585,,,,,,,,,,,,1.6888757291159872e+18,51.44598720703125,-16.940919876098633,47.38723907470703,-8.29355983734131,1.6888757291159872e+18,51.44598720703125,-272.33571166992186,142.6204345703125,-141.6517547607422,1.6888757291147072e+18,51.444707356770834,-0.4812123378117879,0.4215428630510966,-0.3574548165003459,0.6800039609273275,0.533929169178009,1.1025429169336955,0.8981093962987264
6.5,1.6888757291666135e+18,51.49661352539062,-10.474518140157064,13.703647295633951,0.6354890664418539,1.6888757291666135e+18,51.49661352539062,-5.565505941708882,5.349952697753906,-0.9138588607311248,1.6888757291666135e+18,51.49661352539062,4.886210600535075,-8.33794911702474,-1.61406143506368,1.6888757291666135e+18,51.49661352539062,-0.1262454837560653,-4.397669871648152,1.717244029045105,1.6888757291666135e+18,51.49661352539062,-0.1271617859601974,-4.393241008122762,1.7194329500198364,,,,,,,,,,,,1.6888757291659912e+18,51.4959912109375,-19.60051918029785,46.333159637451175,-9.940559768676758,1.6888757291659912e+18,51.4959912109375,-274.9953186035156,141.566357421875,-143.2987548828125,1.6888757291666135e+18,51.49661352539062,-0.452403058608373,0.3379225234190623,-0.3685259620348612,0.7376356522242228,0.3216336866219838,1.016414225101471,0.9189137617746987
6.55,1.6888757292185078e+18,51.54850773111979,-3.2943604787190757,8.343043486277262,3.0373287995656333,1.6888757292185078e+18,51.54850773111979,2.214357932408651,0.2207378496726354,2.4624138673146567,1.6888757292185078e+18,51.54850773111979,5.485916932423909,-8.106560389200846,-0.6396284302075704,1.6888757292185078e+18,51.54850773111979,0.212326576312383,-1.944180448849996,-0.1795435001452764,1.6888757292185078e+18,51.54850773111979,0.2114102840423584,-1.939700762430827,-0.1774054368336995,,,,,,,,,,,,1.6888757292159918e+18,51.54599174804688,-19.84939956665039,45.35471954345703,-14.098319625854492,1.6888757292159918e+18,51.54599174804688,-275.24419555664065,140.5879150390625,-147.45651550292968,1.6888757292185078e+18,51.54850773111979,-0.43361164132754,0.2618094583352406,-0.3895626167456309,0.7690947850545248,0.1154898405075072,0.97273188829422,0.9656561215718588
6.6,1.6888757292704123e+18,51.60041219075521,4.7032443682352705,3.6675936381022134,2.921478350957235,1.6888757292704123e+18,51.60041219075521,9.507681369781494,-4.844070037206014,2.0065811475118003,1.6888757292704123e+18,51.60041219075521,4.781635602315267,-8.49591859181722,-0.9796106815338136,1.6888757292704123e+18,51.60041219075521,1.6547321478525798,0.9173160195350648,-2.6042712529500327,1.6888757292704123e+18,51.60041219075521,1.6538158655166626,0.9217956761519116,-2.6021331946055093,,,,,,,,,,,,1.6888757292659953e+18,51.59599506835938,-15.601359939575197,46.95535888671875,-12.797799682617187,1.6888757292659953e+18,51.59599506835938,-270.99615478515625,142.18855895996094,-146.15599670410157,1.6888757292704123e+18,51.60041219075521,-0.396416296561559,0.282344381014506,-0.4197030464808146,0.7657536069552103,0.2057919800281523,1.0482950607935588,0.8341842293739319
