seconds_elapsed_rounded,accelerometer_time,accelerometer_seconds_elapsed,accelerometer_z,accelerometer_y,accelerometer_x,accelerometeruncalibrated_time,accelerometeruncalibrated_seconds_elapsed,accelerometeruncalibrated_z,accelerometeruncalibrated_y,accelerometeruncalibrated_x,gravity_time,gravity_seconds_elapsed,gravity_z,gravity_y,gravity_x,gyroscope_time,gyroscope_seconds_elapsed,gyroscope_z,gyroscope_y,gyroscope_x,gyroscopeuncalibrated_time,gyroscopeuncalibrated_seconds_elapsed,gyroscopeuncalibrated_z,gyroscopeuncalibrated_y,gyroscopeuncalibrated_x,location_time,location_seconds_elapsed,location_bearingAccuracy,location_speedAccuracy,location_verticalAccuracy,location_horizontalAccuracy,location_speed,location_bearing,location_altitude,location_longitude,location_latitude,magnetometer_time,magnetometer_seconds_elapsed,magnetometer_z,magnetometer_y,magnetometer_x,magnetometeruncalibrated_time,magnetometeruncalibrated_seconds_elapsed,magnetometeruncalibrated_z,magnetometeruncalibrated_y,magnetometeruncalibrated_x,orientation_time,orientation_seconds_elapsed,orientation_qz,orientation_qy,orientation_qx,orientation_qw,orientation_roll,orientation_pitch,orientation_yaw
0.0,1.6888760259864686e+18,15.00546875,2.8466203212738037,1.4899288813273113,-2.9796696106592813,1.6888760259778184e+18,14.996818440755208,2.7768706927696862,-8.533204555511475,-1.224327594041824,1.6888760259864686e+18,15.00546875,-1.0799893538157146,-9.452253341674805,2.3827524185180664,1.6888760259821494e+18,15.001149495442707,0.4693990349769592,1.501812179883321,-2.621019124984741,1.6888760259864686e+18,15.00546875,0.483550747235616,1.6614007552464802,-2.417295535405477,,,,,,,,,,,,1.688876025977737e+18,14.99673701171875,-11.787639808654784,49.06107864379883,-5.241119861602783,1.688876025977737e+18,14.99673701171875,-267.4142272949219,143.91607666015625,-138.36752014160157,1.6888760259778184e+18,14.996818440755208,0.6551324526468912,-0.727735181649526,-0.0625696902473767,0.1918136924505233,-1.8974546988805137,1.3579308986663818,-0.8802925944328308
0.05,1.6888760260383706e+18,15.05737068684896,2.7468835512797036,1.3424819310506184,-1.4045913616816204,1.6888760260297167e+18,15.048716796875,1.0662018656730652,-7.586244742075603,1.08175524075826,1.6888760260383706e+18,15.05737068684896,-1.733393510182699,-9.376391728719076,2.294015884399414,1.6888760260340467e+18,15.053046793619792,0.1690060496330261,0.8610654572645823,-1.7106772263844807,1.6888760260383706e+18,15.05737068684896,0.0946332116921742,0.8125526010990143,-1.7339409987131755,,,,,,,,,,,,1.6888760260277358e+18,15.0467357421875,-6.465999794006348,50.29571914672851,-3.8210398674011232,1.6888760260277358e+18,15.0467357421875,-262.09259643554685,145.1507141113281,-136.9474365234375,1.6888760260297167e+18,15.048716796875,0.6198914845784506,-0.74870898326238,-0.1050448194146155,0.2096621692180633,-2.2289369901021323,1.3347066640853882,-0.4606091479460398
0.1,1.688876026081619e+18,15.100618774414064,-0.0382277965545654,-2.0468053817749023,0.0972371101379394,1.688876026081622e+18,15.100621907552084,-1.3449657559394836,-11.267004330952965,2.396013100941976,1.688876026081619e+18,15.100618774414064,-2.201822876930237,-9.237853527069092,2.4587883949279785,1.6888760260859515e+18,15.104951497395833,-0.448782334725062,-0.0723366190989812,-0.9265807867050172,1.688876026081619e+18,15.100618774414064,-0.4006512463092804,0.4617377519607544,-0.8778897225856781,,,,,,,,,,,,1.6888760260777382e+18,15.09673828125,-2.7767199993133547,50.46407928466797,-3.5257999420166017,1.6888760260777382e+18,15.09673828125,-258.4033142089844,145.31907348632814,-136.652197265625,1.688876026081622e+18,15.100621907552084,0.5892457167307535,-0.7677761713663737,-0.1191246658563613,0.2214967012405394,-2.3745227654774985,1.27868914604187,-0.2752180496851602
0.15,1.6888760261248737e+18,15.143873291015623,4.547354539235433,-5.773938179016113,-3.547722101211548,1.6888760261335237e+18,15.152523681640623,0.8354939619700114,-15.914863268534342,-2.2370898127555847,1.6888760261248737e+18,15.143873291015623,-2.484013477961222,-9.11441135406494,2.640934467315674,1.68887602613785e+18,15.156849772135416,-0.6155485411485037,1.2163854042689006,-0.009570217380921,1.6888760261248737e+18,15.143873291015623,-0.6976589957873026,0.2879720528920491,-0.3906992375850677,,,,,,,,,,,,1.688876026127743e+18,15.14674306640625,-0.5953600108623505,50.60071868896485,-5.32163987159729,1.688876026127743e+18,15.14674306640625,-256.2219512939453,145.45571594238282,-138.44803771972656,1.6888760261335237e+18,15.152523681640623,0.5759623845418295,-0.777873675028483,-0.1082000533739725,0.2264613459507623,-2.369834820429484,1.238154411315918,-0.2870756983757018
0.2,1.688876026176779e+18,15.195778727213542,-0.808669646581014,-8.77068042755127,-6.456185976664226,1.688876026185426e+18,15.204425862630208,-0.8550353050231934,-17.597814559936523,-3.153141975402832,1.688876026176779e+18,15.195778727213542,-2.1959873835245767,-9.13342316945394,2.825768311818441,1.6888760261810964e+18,15.200096435546875,0.1783726513385772,-1.3995685875415802,0.6910413205623627,1.688876026176779e+18,15.195778727213542,0.0632245540618896,-0.6492988665898641,0.7930558125178019,,,,,,,,,,,,1.6888760261777403e+18,15.1967404296875,-2.0300799369812013,50.490919494628905,-6.139039802551269,1.6888760261777403e+18,15.1967404296875,-257.65667114257815,145.34591369628907,-139.26543579101562,1.688876026185426e+18,15.204425862630208,0.5863983233769735,-0.7673801183700562,-0.1075849930445352,0.2354591439167658,-2.277465264002482,1.2560422817866008,-0.367749551932017
0.25,1.6888760262286733e+18,15.24767325846354,3.5280340711275735,-4.700294176737468,-2.3835414250691733,1.688876026237328e+18,15.25632804361979,1.2041879693667097,-13.051452000935871,0.9619146585464478,1.6888760262286733e+18,15.24767325846354,-1.226607124010722,-9.40998903910319,2.4298948446909585,1.688876026224349e+18,15.243348714192708,0.8807658950487772,0.0182750423749287,3.0972394943237305,1.6888760262286733e+18,15.24767325846354,0.967661460240682,0.2102394501368204,3.285029729207357,,,,,,,,,,,,1.6888760262277384e+18,15.246738427734376,-7.241919898986817,50.28839874267578,-4.843399953842163,1.6888760262277384e+18,15.246738427734376,-262.86851196289064,145.14339904785157,-137.96979675292968,1.688876026237328e+18,15.25632804361979,0.6431929667790731,-0.725675125916799,-0.1004604101181029,0.2208947439988453,-1.905104637145996,1.3589790264765422,-0.7753280202547709
0.3,1.6888760262805788e+18,15.299578694661458,-3.1299853722254434,-2.2295122146606445,1.6984612941741943,1.6888760262805747e+18,15.299574707031253,-2.486142635345459,-11.845967769622805,3.4085758924484253,1.6888760262805788e+18,15.299578694661458,0.5879404631753763,-9.591836929321287,1.9177840948104856,1.6888760262762555e+18,15.295255452473958,0.9722938537597656,0.5512040754159292,3.398955980936686,1.6888760262805788e+18,15.299578694661458,0.9729556242624918,0.5831217815478643,3.3368513584136963,,,,,,,,,,,,1.6888760262777403e+18,15.296740332031248,-16.596879768371583,48.31931915283203,-1.949559998512268,1.6888760262777403e+18,15.296740332031248,-272.2234741210938,143.17431640625,-135.0759521484375,1.6888760262805747e+18,15.299574707031253,0.7008153200149536,-0.6696553528308868,-0.1058688163757324,0.221399113535881,-1.0780097246170044,1.3992397785186768,-1.5947626233100891
0.35,1.688876026332477e+18,15.351476806640626,-5.879641056060791,-5.6101687749226885,9.460512161254885,1.688876026323827e+18,15.342827067057293,-3.7461632092793784,-14.620345751444498,10.06540854771932,1.688876026332477e+18,15.351476806640626,2.2554423014322915,-9.372896512349447,1.7509512503941853,1.6888760263281582e+18,15.347158203125,0.1213585647443931,-1.6696983228127162,3.769700368245443,1.688876026332477e+18,15.351476806640626,0.0066686073939005,-1.9816977977752688,3.7637444337209063,,,,,,,,,,,,1.688876026327738e+18,15.346738232421876,-25.019759368896484,45.10584030151367,-0.8686399936676026,1.688876026327738e+18,15.346738232421876,-280.6463623046875,139.9608367919922,-133.9950378417969,1.688876026323827e+18,15.342827067057293,0.7517178853352865,-0.6153888901074728,-0.0934824571013449,0.2156989922126133,-0.5250256160895029,1.3099910418192546,-2.1718336741129556
0.4,1.6888760263843786e+18,15.403378662109375,-1.8316561381022136,-0.2254988352457682,0.140208880106608,1.688876026375732e+18,15.394731689453124,0.7433702796697617,-10.032706578572592,5.143771052360535,1.6888760263843786e+18,15.403378662109375,3.4804407755533853,-8.864044189453125,2.3244906266530356,1.6888760263800586e+18,15.399058512369791,-0.0492764661709467,-2.772411863009135,3.155780792236328,1.6888760263843786e+18,15.403378662109375,0.0450004041194915,-2.473037044207255,3.200170358022054,,,,,,,,,,,,1.6888760263777423e+18,15.39674228515625,-32.1835994720459,40.60159912109375,-5.116679954528808,1.6888760263777423e+18,15.39674228515625,-287.81019287109376,135.45659790039062,-138.24307861328126,1.688876026375732e+18,15.394731689453124,0.8049431641896566,-0.5635268886884054,-0.0123839912315209,0.1826603909333546,-0.4746195375919342,1.1497323513031006,-2.3840295473734536
0.45,1.688876026436281e+18,15.455281331380208,-9.482494036356607,5.440206209818522,-4.044098536173503,1.6888760264276324e+18,15.44663240559896,-2.9351956844329834,-4.72163728872935,-2.055235226949056,1.688876026436281e+18,15.455281331380208,4.817616780598958,-8.305219968159994,1.9807799657185872,1.6888760264319598e+18,15.450959716796874,1.4512631098429365,-0.4596251820524533,3.124728520711263,1.688876026436281e+18,15.455281331380208,1.4352788130442302,-0.7536041239897409,3.0692924658457437,1.6888760264362842e+18,15.4552841796875,0.0,0.0,1.1867313385009766,14.69200038909912,1.2068432569503784,181.30941772460935,25.56658199128296,-122.7500189,49.192556,1.6888760264277358e+18,15.4467359375,-38.33972015380859,35.075,-5.433879852294922,1.6888760264277358e+18,15.4467359375,-293.96630859375,129.93000030517578,-138.56027526855468,1.6888760264276324e+18,15.44663240559896,0.8529534339904785,-0.499223788579305,0.0102826879980663,0.1501946200927098,-0.3262217541535695,1.0131733218828838,-2.6092220147450766
0.5,1.688876026488186e+18,15.50718603515625,-7.766786098480225,11.143786430358888,-3.5396399895350137,1.68887602647953e+18,15.498530192057292,-3.403391341368357,3.779662768046061,-1.7018950780232749,1.688876026488186e+18,15.50718603515625,5.661431312561035,-7.6083984375,2.4787147839864097,1.6888760264838587e+18,15.502858723958331,-0.1607084621985753,-3.022459348042806,2.598417123158773,1.688876026488186e+18,15.50718603515625,-0.266846294204394,-2.939992586771647,2.483014543851217,,,,,,,,,,,,1.6888760264777403e+18,15.496740332031248,-42.32911911010742,30.246239471435548,-7.307799911499023,1.6888760264777403e+18,15.496740332031248,-297.955712890625,125.10123901367189,-140.43419799804687,1.68887602647953e+18,15.498530192057292,0.8880722920099894,-0.4428944687048594,0.0593801103532313,0.1039258142312367,-0.3178207079569499,0.8867934743563334,-2.757170041402181
0.55,1.688876026531439e+18,15.55043896484375,-4.072116255760193,5.951333045959473,1.052198052406311,1.6888760265314373e+18,15.550437337239584,1.6456637879212697,-1.1369895537694297,3.958725770314534,1.688876026531439e+18,15.55043896484375,5.837351560592651,-7.217841863632202,3.1713258028030396,1.6888760265357637e+18,15.554763753255209,0.1450804968674977,-1.414509375890096,0.0516181024722754,1.688876026531439e+18,15.55043896484375,0.0434477925300598,-1.585271656513214,0.266184538602829,,,,,,,,,,,,1.6888760265277384e+18,15.546738330078124,-44.01515884399414,26.139719772338868,-13.027159690856934,1.6888760265277384e+18,15.546738330078124,-299.6417541503906,120.99471740722656,-146.15355529785157,1.6888760265314373e+18,15.550437337239584,0.8987428744633993,-0.4130066037178039,0.1209154427051543,0.0833454653620719,-0.4266952276229858,0.8071350256601969,-2.772165139516195
0.6,1.6888760265746895e+18,15.593689453125,1.0133767127990725,2.6102861563364663,1.324703375498454,1.6888760265833357e+18,15.602335693359374,8.72343365351359,-6.651847680409749,4.573481718699138,1.6888760265746895e+18,15.593689453125,5.386157830556233,-7.560046672821045,3.15933895111084,1.6888760265876657e+18,15.606665608723958,1.0728320678075154,-0.5754859695831934,-1.915215253829956,1.6888760265746895e+18,15.593689453125,0.9736173748970032,-0.53725599249204,-1.703652262687683,,,,,,,,,,,,1.688876026577741e+18,15.596741064453123,-42.31935958862304,27.674479675292968,-14.903519821166991,1.688876026577741e+18,15.596741064453123,-297.9459594726562,122.52947692871092,-148.02991943359376,1.6888760265833357e+18,15.602335693359374,0.8844965497652689,-0.4432209531466166,0.130006730556488,0.0634521941343943,-0.4633690416812897,0.8753756682078043,-2.7783374786376953
0.65,1.688876026626587e+18,15.645586995442708,11.802473386128744,-15.21553103129069,2.1187683741251626,1.6888760266352376e+18,15.65423771158854,16.3070863087972,-23.889741897583008,5.285346349080403,1.688876026626587e+18,15.645586995442708,4.765161037445068,-7.959162871042888,3.1830212275187173,1.6888760266309156e+18,15.64991540527344,-0.2029599770903587,-2.5918248295783997,0.6653849855065346,1.688876026626587e+18,15.645586995442708,0.0966694305340449,-2.225636661052704,0.0859283804893493,,,,,,,,,,,,1.6888760266277404e+18,15.646740380859375,-38.64959945678711,31.395479583740233,-15.647719764709471,1.6888760266277404e+18,15.646740380859375,-294.2761962890625,126.25047760009764,-148.77411804199218,1.6888760266352376e+18,15.65423771158854,0.8718182643254598,-0.4616869688034057,0.1576673835515975,0.0358457453548908,-0.5316080351670583,0.9177831808725992,-2.7923100789388022
0.7,1.6888760266784932e+18,15.69749324544271,4.454128583272298,0.4451222419738769,4.435081084569295,1.688876026687143e+18,15.70614298502604,5.4913284331560135,-5.772485256195068,9.503493944803871,1.6888760266784932e+18,15.69749324544271,4.479803880055745,-7.818014780680339,3.8744866847991943,1.6888760266741686e+18,15.69316837565104,0.2104430741940935,-2.557743708292643,0.159334013859431,1.6888760266784932e+18,15.69749324544271,0.2236275921265284,-2.249103983243306,-0.0920370370149611,,,,,,,,,,,,1.688876026677741e+18,15.696740966796876,-37.07335815429688,30.275519180297852,-21.615959930419923,1.688876026677741e+18,15.696740966796876,-292.69996337890626,125.130517578125,-154.7423583984375,1.688876026687143e+18,15.70614298502604,-0.2838631868362427,0.1548621455828348,-0.0815563897291819,0.0034782212169374,-0.6588651140530905,0.9021429816881816,-2.8109066486358643
0.75,1.688876026730393e+18,15.749393310546871,-9.461044947306316,-1.4160784085591631,0.8159631093343096,1.6888760267303877e+18,15.749387329101562,-7.893921732902527,-10.759327411651611,4.826921582221985,1.688876026730393e+18,15.749393310546871,3.8743326663970943,-8.124312241872152,3.895596901575724,1.688876026726067e+18,15.745066813151045,0.0681114755570888,1.5436564981937408,-1.7115426063537598,1.688876026730393e+18,15.749393310546871,0.1551597739259402,1.9175060391426089,-1.613702376683553,,,,,,,,,,,,1.688876026727737e+18,15.746737402343747,-34.80171890258789,32.32511940002441,-22.167399215698243,1.688876026727737e+18,15.746737402343747,-290.4283142089844,127.18011779785157,-155.293798828125,1.6888760267303877e+18,15.749387329101562,0.8463682532310486,-0.4869222491979598,0.2149417176842689,0.0158444801345467,-0.7191080152988434,0.9571016132831572,-2.7189860343933105
0.8,1.6888760267822948e+18,15.80129451497396,-3.892355442047119,4.539047718048096,-2.5402677059173584,1.6888760267736466e+18,15.792646647135417,-0.5254239651064078,-4.484149694442749,-0.4598207672437032,1.6888760267822948e+18,15.80129451497396,3.4771310488382974,-8.692796071370443,2.883729934692383,1.6888760267779674e+18,15.796967366536458,1.0015644629796343,3.4103588263193765,-2.9534826278686523,1.6888760267822948e+18,15.80129451497396,0.9696467518806458,3.3226486841837564,-3.33145538965861,,,,,,,,,,,,1.6888760267777403e+18,15.796740283203125,-34.61627883911133,36.03635940551758,-15.52327938079834,1.6888760267777403e+18,15.796740283203125,-290.2428771972656,130.891357421875,-148.64967651367186,1.6888760267736466e+18,15.792646647135417,0.8395233750343323,-0.5213597218195597,0.143307069937388,0.0412383346507946,-0.6006755034128824,1.0444152355194092,-2.690953016281128
0.85,1.6888760268341978e+18,15.853197753906253,-5.030700206756592,2.1181492805480957,0.6677199999491373,1.6888760268255475e+18,15.844547281901042,-2.203988949457804,-6.7750779787699384,3.042274554570516,1.6888760268341978e+18,15.853197753906253,1.6094923814137776,-9.363224983215332,2.3892030715942383,1.68887602682987e+18,15.8488701171875,-0.4807509531577428,4.019238789876302,-5.044983386993408,1.6888760268341978e+18,15.853197753906253,-0.6449719034135342,4.206774314244588,-4.8758753935496015,,,,,,,,,,,,1.6888760268277345e+18,15.846734716796874,-26.81803970336914,43.107478332519534,-9.84539966583252,1.6888760268277345e+18,15.846734716796874,-282.44463500976565,137.9624755859375,-142.9717987060547,1.6888760268255475e+18,15.844547281901042,0.7788046002388,-0.6155662139256796,0.0594313430289427,0.0935305655002593,-0.7520635922749838,1.2493245601654053,-2.340896209081014
0.9,1.6888760268860997e+18,15.905099527994793,-9.604321479797363,-3.082301457722982,-3.2300395170847573,1.6888760268774444e+18,15.896444498697916,-8.992626190185547,-11.905688603719076,0.5479563872019452,1.6888760268860997e+18,15.905099527994793,0.679422120253245,-9.3998654683431,2.7200616200764975,1.688876026881776e+18,15.900776041666669,-1.0659598509470622,3.0262263814608255,-1.6591609120368958,1.6888760268860997e+18,15.905099527994793,-0.936660036444664,2.541148612896601,-1.482417205969493,,,,,,,,,,,,1.6888760268777375e+18,15.896737890625,-21.096239471435545,46.35023956298828,-7.324879932403564,1.6888760268777375e+18,15.896737890625,-276.72283935546875,141.20523986816406,-140.45127868652344,1.6888760268774444e+18,15.896444498697916,0.7184930443763733,-0.6688537001609802,-0.0147722614152977,0.1883275707562764,-1.1451215744018557,1.3138184944788616,-1.7057344913482666
0.95,1.688876026938e+18,15.957000244140623,5.739199638366699,0.1000903447469075,-5.83979066212972,1.688876026929351e+18,15.948351074218747,3.259821971257528,-9.75135072072347,-3.528416474660238,1.688876026938e+18,15.957000244140623,-0.4429556479056676,-9.419145266215006,2.659023920694987,1.6888760269336732e+18,15.952673177083334,0.384641483426094,-1.6405804355939229,-2.8584930499394736,1.688876026938e+18,15.957000244140623,0.4298964142799377,-1.491122064491113,-3.000926415125529,1.6888760269552896e+18,15.97428955078125,0.0,0.0,1.1853687763214111,14.496999740600586,1.0204755067825315,179.9450225830078,22.899999618530273,-122.7499964,49.1925572,1.688876026927738e+18,15.946737939453126,-17.18736000061035,47.706878662109375,-7.37855978012085,1.688876026927738e+18,15.946737939453126,-272.81395263671874,142.56187744140624,-140.5049560546875,1.688876026929351e+18,15.948351074218747,0.6846176584561666,-0.7031437555948893,-0.0218232174714406,0.1889847467343012,-1.5362923940022786,1.3278981844584148,-1.303784728050232
1.0,1.6888760269812475e+18,16.00024768066406,3.991946458816528,1.7962045669555664,-2.5900349617004395,1.688876026981253e+18,16.00025301106771,2.971088111400604,-7.956733226776123,-0.1258225937684376,1.6888760269812475e+18,16.00024768066406,-1.3294025659561155,-9.41356372833252,2.4188408851623535,1.6888760269855803e+18,16.004580403645832,0.7299839655558268,1.846798340479533,-1.5276721715927124,1.6888760269812475e+18,16.00024768066406,0.7595345973968506,2.128254532814026,-1.4330898523330688,,,,,,,,,,,,1.6888760269777403e+18,15.996740380859372,-9.65507984161377,49.64179916381836,-6.551399803161621,1.6888760269777403e+18,15.996740380859372,-265.28167114257815,144.49679565429688,-139.67779541015625,1.688876026981253e+18,16.00025301106771,0.6416080792744955,-0.7432006994883219,-0.0503436364233493,0.1819963951905568,-2.062339981396993,1.334486762682597,-0.7467979391415914
1.05,1.688876027024504e+18,16.043504313151043,1.9664064248402913,-0.8036079406738281,-0.5936510562896727,1.6888760270331497e+18,16.05214973958333,-0.3026920656363169,-10.538190205891928,2.0683957735697427,1.688876027024504e+18,16.043504313151043,-1.7929964860280354,-9.36410140991211,2.297233502070109,1.6888760270374807e+18,16.056480712890625,0.1594358310103415,1.3512848019599917,-1.915826161702474,1.688876027024504e+18,16.043504313151043,0.2988658199707666,1.2268210649490356,-1.878257950146993,,,,,,,,,,,,1.6888760270277422e+18,16.046742138671874,-5.982879734039306,50.39575881958008,-4.799479961395264,1.6888760270277422e+18,16.046742138671874,-261.60947265625,145.2507537841797,-137.92587585449218,1.6888760270331497e+18,16.05214973958333,0.6096979180971781,-0.7612852454185486,-0.0918720836440721,0.1999551902214685,-2.307462453842163,1.306003252665202,-0.4146454036235809
1.1,1.6888760270764055e+18,16.095405680338544,-0.0104926427205403,-1.848297119140625,1.8587794303894043,1.6888760270850568e+18,16.104056559244793,-1.083350340525309,-11.542178789774576,4.1096729437510175,1.6888760270764055e+18,16.095405680338544,-2.4767165978749595,-9.19498602549235,2.3484931786855063,1.6888760270807237e+18,16.0997236328125,-0.2147954851388931,-1.3106877598911524,-1.1331549882888794,1.6888760270764055e+18,16.095405680338544,-0.2048434702058633,-0.5924883882204691,-1.205338954925537,,,,,,,,,,,,1.688876027077742e+18,16.09674228515625,-1.932479977607727,50.56167907714844,-4.418839931488037,1.688876027077742e+18,16.09674228515625,-257.5590759277344,145.41667785644532,-137.54523620605468,1.6888760270850568e+18,16.104056559244793,0.579774796962738,-0.7824390927950541,-0.1021772275368372,0.2023140788078307,-2.461676041285197,1.24962317943573,-0.2401298433542251
1.15,1.6888760271283085e+18,16.147308512369793,4.4195756912231445,-7.6772918701171875,-6.477979421615601,1.6888760271369572e+18,16.155957194010416,0.1168494423230489,-17.406588236490887,-4.954139788945516,1.6888760271283085e+18,16.147308512369793,-2.679664452870687,-9.07885487874349,2.567003011703491,1.6888760271239844e+18,16.142984212239583,-0.7573201755682627,0.5693773428599039,0.2275473078091939,1.6888760271283085e+18,16.147308512369793,-0.6840163667996725,0.8795950611432394,0.3759366472562154,,,,,,,,,,,,1.688876027127739e+18,16.1467390625,-0.2732800006866455,50.37379837036133,-5.816959857940674,1.688876027127739e+18,16.1467390625,-255.8998779296875,145.22879943847656,-138.943359375,1.6888760271369572e+18,16.155957194010416,0.5770164728164673,-0.7848031918207804,-0.0868446429570515,0.2083703329165776,-2.3981992403666177,1.2283762693405151,-0.3164508740107218
1.2,1.68887602718021e+18,16.199209960937498,3.137627442677816,-5.420785268147786,-5.648658275604248,1.6888760271802097e+18,16.199209716796876,0.8105686902999878,-14.26959753036499,-2.8477580547332764,1.68887602718021e+18,16.199209960937498,-2.1568391720453897,-9.228880246480308,2.5199355284372964,1.688876027175882e+18,16.194882242838542,0.4619159450133641,-0.7208719253540039,1.3556627035140991,1.68887602718021e+18,16.199209960937498,0.517402857542038,-0.7959573914607366,1.5558228691418965,,,,,,,,,,,,1.6888760271777418e+18,16.196741748046875,-2.2594399452209473,50.4274787902832,-6.229319763183594,1.6888760271777418e+18,16.196741748046875,-257.88604125976565,145.28247985839843,-139.35571899414063,1.6888760271802097e+18,16.199209716796876,0.5946758389472961,-0.771771103143692,-0.0874104686081408,0.2073219045996665,-2.333255648612976,1.2671290040016174,-0.3834452033042907
1.25,1.6888760272321106e+18,16.251110432942706,-0.6104615926742554,-2.72565491994222,-1.4355844259262085,1.6888760272234616e+18,16.242461507161458,0.2159521579742431,-12.186047236124674,0.0348953306674957,1.6888760272321106e+18,16.251110432942706,-0.5963883375128111,-9.538366317749023,2.1395651499430337,1.688876027227788e+18,16.246787841796873,0.7392996549606323,0.5527821481227875,3.8442259629567466,1.6888760272321106e+18,16.251110432942706,0.7694356838862101,0.6021604140599569,3.8825577100118,,,,,,,,,,,,1.6888760272277353e+18,16.246735205078124,-8.905999946594239,49.929718780517575,-4.501799869537353,1.6888760272277353e+18,16.246735205078124,-264.53260498046876,144.7847137451172,-137.62820129394532,1.6888760272234616e+18,16.242461507161458,0.6490705410639445,-0.7279729247093201,-0.0846752623716989,0.201873501141866,-1.9223811626434328,1.364587624867757,-0.8088947335879008
1.3,1.6888760272840133e+18,16.30301350911458,-5.049620787302653,-5.250294367472331,4.986087163289388,1.6888760272753615e+18,16.29436140950521,-3.7924245993296304,-14.632509549458822,5.301099141438802,1.6888760272840133e+18,16.30301350911458,1.20827317237854,-9.57205295562744,1.7151048978169758,1.6888760272796897e+18,16.29868937174479,0.8227336903413137,0.0355829000473022,3.430924574534098,1.6888760272840133e+18,16.30301350911458,0.7291694929202398,-0.2318233450253805,3.458413600921631,,,,,,,,,,,,1.6888760272777385e+18,16.296738330078124,-18.795319747924804,47.601959228515625,-2.21551992893219,1.6888760272777385e+18,16.296738330078124,-274.4219177246094,142.4569580078125,-135.3419189453125,1.6888760272753615e+18,16.29436140950521,0.718032717704773,-0.6589115460713705,-0.0903043722112973,0.2037932276725768,-0.9041371544202168,1.3843406438827517,-1.8166057268778484
1.35,1.6888760273359114e+18,16.35491153971354,-3.428393284479777,-3.3318249384562173,7.314402421315511,1.688876027327263e+18,16.34626310221354,-2.4648067156473794,-13.449657122294107,10.63250732421875,1.6888760273359114e+18,16.35491153971354,2.67458446820577,-9.212754885355633,2.017299373944601,1.68887602733159e+18,16.350590169270834,-0.1909462958574294,-3.402875741322835,3.4201836585998535,1.6888760273359114e+18,16.35491153971354,-0.1901827106873194,-3.405370076497396,3.382513523101806,,,,,,,,,,,,1.6888760273277384e+18,16.346738330078125,-27.430479431152342,44.01027908325195,-3.0573199987411503,1.6888760273277384e+18,16.346738330078125,-283.05707397460935,138.86527404785156,-136.1837158203125,1.688876027327263e+18,16.34626310221354,0.7781997919082642,-0.5999659498532613,-0.0375377444239953,0.1785814960797627,-0.5185945630073547,1.2476924260457356,-2.3120786348978677
1.4,1.6888760273878172e+18,16.40681730143229,-4.333843946456909,1.5622143745422363,-3.199605862299601,1.6888760273791665e+18,16.39816666666667,0.7948159376780192,-8.03749132156372,-0.078763723373413,1.6888760273878172e+18,16.40681730143229,4.081929763158162,-8.631218274434408,2.1965070565541587,1.6888760273834929e+18,16.402493082682295,0.7334455574552218,-1.0407616794109344,3.848247448603312,1.6888760273878172e+18,16.40681730143229,0.8388197918732961,-0.8492554078499476,3.867133299509684,,,,,,,,,,,,1.6888760273777403e+18,16.396740087890624,-35.35803909301758,37.72483825683594,-7.456639957427979,1.6888760273777403e+18,16.396740087890624,-290.98463134765626,132.5798370361328,-140.58303833007812,1.6888760273791665e+18,16.39816666666667,0.8304787675539652,-0.5386120279630026,0.0278113850702841,0.1364514976739883,-0.4394589165846507,1.0914201339085896,-2.543856938680013
1.45,1.6888760274310636e+18,16.450063598632813,-11.233890056610107,7.0507965087890625,-4.218872785568237,1.6888760274310618e+18,16.450061767578124,-5.404389381408691,-1.043470064798991,-2.022533377011617,1.6888760274310636e+18,16.450063598632813,5.186260223388672,-8.052898168563843,2.1088942289352417,1.6888760274353897e+18,16.45438972981771,0.6400849570830663,-2.690810521443685,3.110373020172119,1.6888760274310636e+18,16.450063598632813,0.7634288370609283,-2.557998239994049,3.1810808181762695,,,,,,,,,,,,1.6888760274277353e+18,16.446735302734375,-41.75815963745117,31.456478881835935,-7.900719833374024,1.6888760274277353e+18,16.446735302734375,-297.38474731445314,126.31147613525393,-141.0271209716797,1.6888760274310618e+18,16.450061767578124,0.87689741452535,-0.4671915471553802,0.0559076828261216,0.0937569414575894,-0.3230397005875905,0.9435290892918904,-2.76252818107605
1.5,1.6888760274743194e+18,16.493319254557292,-8.205732186635336,8.92913325627645,-3.238526264826457,1.6888760274829704e+18,16.501970377604167,-1.270190040270487,0.8534401257832845,0.8452645589907964,1.6888760274743194e+18,16.493319254557292,5.658103783925374,-7.487265586853027,2.838020086288452,1.6888760274872932e+18,16.506293212890625,-0.1476257741451263,-2.548224369684855,1.4454598625500996,1.6888760274743194e+18,16.493319254557292,-0.2005165194471677,-3.024342934290568,2.013157327969869,1.6888760274743196e+18,16.493319580078126,0.0,0.0,1.1853687763214111,14.0,1.097183108329773,181.0508728027344,22.899999618530273,-122.749996,49.1925606,1.6888760274777382e+18,16.496738330078124,-43.75408020019531,26.64235916137695,-13.85431957244873,1.6888760274777382e+18,16.496738330078124,-299.38067016601565,121.49735565185549,-146.9807159423828,1.6888760274829704e+18,16.501970377604167,0.8966187238693237,-0.419437974691391,0.1303638766209284,0.0518767200410365,-0.4240953226884206,0.8315973281860352,-2.8367828528086343
1.55,1.6888760275262216e+18,16.545221435546875,0.9603960514068604,4.479589144388835,2.6420265833536782,1.6888760275348677e+18,16.55386767578125,7.471788247426351,-3.1595229307810464,5.955336729685466,1.6888760275262216e+18,16.545221435546875,5.549407800038655,-7.407215277353923,3.242814064025879,1.6888760275305487e+18,16.549548706054686,1.2919036149978638,-0.2725222557783127,-1.2067643404006958,1.6888760275262216e+18,16.545221435546875,1.115185409784317,-0.5756386816501616,-0.9241373042265574,,,,,,,,,,,,1.6888760275277368e+18,16.54673671875,-43.270957946777344,25.89571952819824,-17.101959228515625,1.6888760275277368e+18,16.54673671875,-298.8975524902344,120.75071716308594,-150.22835998535157,1.6888760275348677e+18,16.55386767578125,0.891074021657308,-0.4253523051738739,0.155243103702863,0.0254078675061464,-0.4678587714831034,0.8486173550287882,-2.8703417778015137
1.6,1.6888760275781235e+18,16.59712369791667,5.984913984934489,2.464413324991862,1.5849847793579102,1.688876027586773e+18,16.605772867838542,11.148359934488932,-9.890931447347006,4.50947364171346,1.6888760275781235e+18,16.59712369791667,4.510534763336182,-8.297324975331625,2.618498961130778,1.6888760275738002e+18,16.592800048828124,1.265610968073209,0.2471458924313385,-3.2256739139556885,1.6888760275781235e+18,16.59712369791667,1.0470230678717296,0.2164499225715796,-3.091792583465576,,,,,,,,,,,,1.6888760275777403e+18,16.59674033203125,-38.69839935302734,32.19091949462891,-14.99623966217041,1.6888760275777403e+18,16.59674033203125,-294.325,127.04591827392578,-148.1226348876953,1.688876027586773e+18,16.605772867838542,0.8598198692003886,-0.4920758406321208,0.134939173857371,0.0078703546896576,-0.4652053018411,1.0051713585853577,-2.8638405799865723
1.65,1.6888760276300247e+18,16.649024576822917,9.017019112904867,-14.36910629272461,2.484437624613444,1.6888760276386747e+18,16.65767472330729,12.565309842427572,-19.359530448913578,6.0229339599609375,1.6888760276300247e+18,16.649024576822917,4.172149817148845,-8.312267303466797,3.1064847310384116,1.6888760276256993e+18,16.644699137369795,-0.6155485355605682,-2.8613436619440713,1.2318097551663716,1.6888760276300247e+18,16.649024576822917,-0.5334380815426508,-2.9797496795654297,1.365436573823293,,,,,,,,,,,,1.6888760276277414e+18,16.64674140625,-35.741119384765625,33.557318115234374,-17.450879859924317,1.6888760276277414e+18,16.64674140625,-291.3677124023437,128.41231536865234,-150.57727661132813,1.6888760276386747e+18,16.65767472330729,-0.285039206345876,0.1543605923652649,-0.0793597201506296,0.0131602724237988,-0.5891182820002238,0.978007157643636,-2.8494184017181396
1.7,1.6888760276819238e+18,16.700923828125,-9.97996473312378,-1.9750843048095703,7.336627960205078,1.6888760276819277e+18,16.70092761230469,-8.751748502254486,-11.152647018432615,12.252448558807377,1.6888760276819238e+18,16.700923828125,3.8640398184458418,-8.340381622314453,3.421395222345988,1.6888760276776038e+18,16.696603678385415,-0.4564181392391522,1.1459322969118757,-1.6030122538407643,1.6888760276819238e+18,16.700923828125,-0.4953608016173045,1.450754093627135,-1.678759515285492,,,,,,,,,,,,1.688876027677743e+18,16.696743017578125,-34.99936065673828,33.059560012817386,-20.82539939880371,1.688876027677743e+18,16.696743017578125,-290.6259521484375,127.91455993652345,-153.95179748535156,1.6888760276819277e+18,16.70092761230469,-0.0038073360919952,-0.0092106461524963,-0.0066902637481689,0.0112945898436009,-0.6534239649772644,0.9965953230857848,-2.782940149307251
1.75,1.6888760277338276e+18,16.752827718098956,-5.222985704739888,3.492089589436849,-5.016284306844075,1.6888760277251717e+18,16.74417171223958,-5.009573519229889,-5.830910046895345,-0.9391828378041586,1.6888760277338276e+18,16.752827718098956,3.6314896742502847,-8.657203992207846,2.8203635215759277,1.6888760277295053e+18,16.74850520833333,1.1340203980604808,2.06380828221639,-1.092736134926478,1.6888760277338276e+18,16.752827718098956,1.2953397830327351,2.113237420717875,-1.330871770779292,,,,,,,,,,,,1.6888760277277343e+18,16.746734521484377,-35.26531982421875,34.65775909423828,-17.23372001647949,1.6888760277277343e+18,16.746734521484377,-290.8919189453125,129.51275939941405,-150.36011962890626,1.6888760277251717e+18,16.74417171223958,0.8401584625244141,-0.518640379110972,0.1559817443291345,0.0201478172093629,-0.5994949738184611,1.0460015932718914,-2.741451104482015
1.8,1.6888760277857303e+18,16.804730468749998,-0.1352341175079345,4.2744377454121905,-0.3711634079615275,1.688876027777076e+18,16.796075846354167,3.5130625565846763,-4.283950090408325,0.7507480581601461,1.6888760277857303e+18,16.804730468749998,2.2197117805480957,-9.333271026611328,1.9796311060587568,1.6888760277814024e+18,16.80040226236979,-0.0482583517829577,4.59492842356364,-4.827413558959961,1.6888760277857303e+18,16.804730468749998,-0.3428481121857961,5.01403284072876,-4.85612424214681,,,,,,,,,,,,1.6888760277777403e+18,16.796740283203125,-31.109999465942384,39.9061996459961,-11.119079780578613,1.6888760277777403e+18,16.796740283203125,-286.73659057617186,134.76119689941407,-144.24547729492187,1.688876027777076e+18,16.796075846354167,0.8017252882321676,-0.5887466470400492,0.0781691384812196,0.0456427726894616,-0.5631622870763143,1.219365477561951,-2.625584602355957
1.85,1.6888760278376294e+18,16.856629475911458,-11.926485697428385,-5.014556248982747,-0.3017560640970866,1.6888760278289828e+18,16.84798291015625,-10.767702102661133,-13.22732416788737,2.9902307987213135,1.6888760278376294e+18,16.856629475911458,1.0031809210777285,-9.475388209025065,2.322786331176758,1.6888760278333084e+18,16.85230859375,-1.728697737058004,4.112243056297302,-2.3832907676696777,1.6888760278376294e+18,16.856629475911458,-1.605913778146108,3.5133406122525535,-2.1203641494115195,,,,,,,,,,,,1.688876027827737e+18,16.84673701171875,-23.858319091796876,45.030199432373045,-6.392799949645996,1.688876027827737e+18,16.84673701171875,-279.484912109375,139.88519592285155,-139.51919555664062,1.6888760278289828e+18,16.84798291015625,0.7358020146687826,-0.6554012099901835,-0.0175982792861759,0.1654217193524042,-0.9410370190938314,1.3295976320902507,-1.9389477570851643
1.9,1.6888760278808837e+18,16.899883544921877,2.1143264770507812,-0.478557586669922,-6.232614517211914,1.6888760278808812e+18,16.899881184895833,1.8552350997924805,-10.618948300679524,-3.067997376124064,1.6888760278808837e+18,16.899883544921877,0.2000616155564785,-9.49124526977539,2.4569321870803833,1.6888760278852047e+18,16.904204833984377,0.3583742749566833,-1.7228944698969524,-2.5422174533208213,1.6888760278808837e+18,16.899883544921877,0.3479641079902648,-2.3716843128204346,-2.3616814017295837,,,,,,,,,,,,1.6888760278777423e+18,16.896742431640625,-19.6224796295166,46.7455192565918,-6.36107988357544,1.6888760278777423e+18,16.896742431640625,-275.24907836914065,141.60051574707032,-139.4874755859375,1.6888760278808812e+18,16.899881184895833,0.6985382636388143,-0.6914782325426737,-0.0253341626375912,0.1806842635075251,-1.3887704610824585,1.347137411435445,-1.4585162003835042
1.95,1.688876027924131e+18,16.943131103515626,4.8978657722473145,2.0200656255086265,-2.6006908416748047,1.6888760279327877e+18,16.95178743489583,2.734398106733958,-7.231309572855632,0.5828517476717631,1.688876027924131e+18,16.943131103515626,-0.9487809340159098,-9.515390714009603,2.174461762110392,1.6888760279371128e+18,16.956112711588542,0.8280278245608012,2.0153971115748086,-1.9230547348658245,1.688876027924131e+18,16.943131103515626,0.8246680895487467,1.4443399459123611,-2.4972170988718667,,,,,,,,,,,,1.6888760279277396e+18,16.9467396484375,-12.727039527893066,49.10743942260742,-5.843799877166748,1.6888760279277396e+18,16.9467396484375,-268.3536376953125,143.96243591308593,-138.97019653320314,1.6888760279327877e+18,16.95178743489583,0.6531925797462463,-0.7353364626566569,-0.0543641795714696,0.1709123154481251,-2.024260679880778,1.3673464457194011,-0.7956551512082418
2.0,1.6888760279760346e+18,16.995034749348957,2.682704289754232,1.9312381744384768,0.0958835283915201,1.688876027984684e+18,17.003684000651045,0.895115077495575,-7.844470342000325,1.8424734473228457,1.6888760279760346e+18,16.995034749348957,-1.509692668914795,-9.48199717203776,2.004708011945089,1.6888760279803569e+18,16.999356811523437,0.1469894512556493,1.2261592745780945,-1.5916094183921814,1.6888760279760346e+18,16.995034749348957,0.2417499211927255,1.4149674971898396,-1.47844660282135,1.688876027993342e+18,17.012342041015625,0.0,0.0,1.232580542564392,13.581000328063965,1.1819634437561035,182.29896545410156,25.78483669068267,-122.7500042,49.1925604,1.6888760279777362e+18,16.996736181640625,-8.13739995956421,50.25423889160156,-3.2744799137115477,1.6888760279777362e+18,16.996736181640625,-263.7639953613281,145.10923461914064,-136.4008758544922,1.688876027984684e+18,17.003684000651045,0.623952309290568,-0.75064750512441,-0.0979289934039115,0.1934152146180471,-2.2825237115224204,1.3454545736312866,-0.4413370688756307
2.05,1.688876028027932e+18,17.04693204752604,-0.885593056678772,-0.247802734375,-0.6605859597524008,1.68887602803658e+18,17.055579915364586,-2.8151559034983316,-10.237691561381022,2.0003997683525085,1.688876028027932e+18,17.04693204752604,-2.0109883546829224,-9.336656252543133,2.234158436457316,1.688876028023608e+18,17.042608154296875,-0.4275547613700231,1.168839721630017,-1.0430524150530498,1.688876028027932e+18,17.04693204752604,-0.4918483297030131,0.9290751616160074,-1.0018190145492554,,,,,,,,,,,,1.688876028027734e+18,17.046734130859374,-4.870239925384522,50.73735885620117,-3.442840003967285,1.688876028027734e+18,17.046734130859374,-260.49684448242186,145.5923614501953,-136.5692352294922,1.68887602803658e+18,17.055579915364586,0.5951175093650818,-0.764440675576528,-0.1168683096766471,0.218445062637329,-2.3588080406188965,1.2906102339426675,-0.2991701960563659
2.1,1.6888760280798318e+18,17.09883154296875,5.114107847213745,-6.002513567606608,-3.8233180046081543,1.688876028088484e+18,17.107484212239584,2.6500510573387146,-16.091333707173664,-2.5768706798553467,1.6888760280798318e+18,17.09883154296875,-2.530128320058187,-9.135287920633951,2.522113482157389,1.6888760280755077e+18,17.094507486979168,-0.8842783371607462,-0.8194757302602133,-0.8939503928025564,1.6888760280798318e+18,17.09883154296875,-0.8539387186368307,-0.5728388627370199,-0.7655668519437313,,,,,,,,,,,,1.6888760280777313e+18,17.096731249999998,-1.8177999019622804,50.54459915161133,-5.385079860687256,1.6888760280777313e+18,17.096731249999998,-257.44439086914065,145.39959716796875,-138.5114776611328,1.688876028088484e+18,17.107484212239584,0.5752187172571818,-0.7834296822547913,-0.0957889606555302,0.2148047735293705,-2.397869825363159,1.2299207051595051,-0.2942356367905934
2.15,1.6888760281317348e+18,17.150734863281247,-0.2579001983006795,-8.847423871358236,-6.634713331858317,1.688876028131733e+18,17.15073303222656,-3.776472330093384,-18.309879302978516,-4.061517357826233,1.6888760281317348e+18,17.150734863281247,-2.3545335133870444,-9.145014762878418,2.654743909835815,1.688876028127411e+18,17.146410644531247,0.0976875275373459,0.221540480852127,0.623947948217392,1.6888760281317348e+18,17.150734863281247,0.1719076583782831,-0.0533488939205806,0.7382306456565857,,,,,,,,,,,,1.6888760281277325e+18,17.146732568359376,-2.5107599973678587,50.385999298095705,-6.190279960632324,1.6888760281277325e+18,17.146732568359376,-258.137353515625,145.24099731445312,-139.31667785644532,1.688876028131733e+18,17.15073303222656,0.5790141522884369,-0.7766198813915253,-0.1003753170371055,0.2269636243581771,-2.3348519802093506,1.2373690009117126,-0.3328776508569717
2.2,1.6888760281836367e+18,17.202636555989585,4.448809703191121,-3.6042378743489585,-2.2613321940104165,1.688876028174986e+18,17.193986002604166,2.8173492749532065,-14.31167189280192,-0.7302097032467524,1.6888760281836367e+18,17.202636555989585,-1.4409017364184062,-9.428676923116049,2.240287701288859,1.688876028179312e+18,17.198312011718752,0.7784459590911865,-0.7405214013221363,2.9607620239257812,1.6888760281836367e+18,17.202636555989585,0.8094982504844666,-0.582358185997388,3.185000499089559,,,,,,,,,,,,1.6888760281777329e+18,17.196732763671875,-6.248839807510376,49.94435806274414,-5.24355993270874,1.6888760281777329e+18,17.196732763671875,-261.87543334960935,144.7993591308594,-138.36995544433594,1.688876028174986e+18,17.193986002604166,0.6160033543904623,-0.7553085684776306,-0.0876672913630803,0.204515462120374,-2.219289541244507,1.3115851481755574,-0.5024168491363525
2.25,1.6888760282355372e+18,17.25453702799479,-2.9304264783859253,-3.2438281377156577,1.574044108390808,1.688876028226888e+18,17.24588810221354,-1.9655044078826904,-11.922836939493816,2.6662026246388755,1.6888760282355372e+18,17.25453702799479,0.3869857142368953,-9.625975926717125,1.7929489215215046,1.6888760282312143e+18,17.250214518229168,0.8609636624654134,-0.203774464627107,3.646610895792643,1.6888760282355372e+18,17.25453702799479,0.8460992773373922,-0.1540907522042592,3.570812781651815,,,,,,,,,,,,1.6888760282277322e+18,17.246732373046875,-15.835599517822263,48.33151931762696,-3.2866799354553224,1.6888760282277322e+18,17.246732373046875,-271.4621887207031,143.18651733398437,-136.41307983398437,1.688876028226888e+18,17.24588810221354,0.6906638145446777,-0.6922041177749634,-0.080164407690366,0.19169782102108,-1.3841118415196736,1.4049986600875854,-1.3692450920740764
2.3,1.6888760282874406e+18,17.306440592447917,-4.655844529469808,-5.673655827840169,8.831168174743652,1.688876028278789e+18,17.297789225260416,-2.721835732460022,-15.838691393534342,10.053045590718588,1.6888760282874406e+18,17.306440592447917,2.0826929410298667,-9.42725626627604,1.6720196803410847,1.6888760282831158e+18,17.302115966796876,0.0696386347214381,-0.8850928246974945,3.6918150583902993,1.6888760282874406e+18,17.306440592447917,0.0038179084658622,-1.1409435470898943,3.680513938268026,,,,,,,,,,,,1.6888760282777324e+18,17.296732421875,-24.11451988220215,45.208319091796874,-2.2228399515151978,1.6888760282777324e+18,17.296732421875,-279.7411193847656,140.06331481933594,-135.3492401123047,1.688876028278789e+18,17.297789225260416,0.7526465257008871,-0.6272006432215372,-0.0677484919627507,0.1865626374880472,-0.5957900683085123,1.3243656555811565,-2.1813319524129233
2.35,1.6888760283306916e+18,17.349691406250003,-2.4730687141418457,-0.9901123046875,1.0576797127723694,1.6888760283306906e+18,17.34969051106771,0.3872384230295817,-10.316256205240888,3.718845029671987,1.6888760283306916e+18,17.349691406250003,3.16781485080719,-9.053867816925049,2.04331111907959,1.6888760283350162e+18,17.354016357421873,0.1965459009322027,-2.423964202404022,3.301573912302653,1.6888760283306916e+18,17.349691406250003,0.0461966851726173,-3.1412218809127808,3.135265827178955,,,,,,,,,,,,1.6888760283277358e+18,17.346735742187498,-31.756598663330077,40.70895919799805,-4.921479892730713,1.6888760283277358e+18,17.346735742187498,-287.38319091796876,135.56395568847657,-138.0478759765625,1.6888760283306906e+18,17.34969051106771,0.8063018123308817,-0.5699471831321716,-0.0027158182735244,0.1552992711464563,-0.4624247749646504,1.1699276367823284,-2.4507081508636475
2.4,1.6888760283739446e+18,17.39294449869792,-7.931854248046875,2.88692855834961,-3.2146766980489097,1.688876028382596e+18,17.40159611002604,-4.7706901629765825,-4.140181382497151,-1.412961761156718,1.6888760283739446e+18,17.39294449869792,4.394594271977742,-8.550946553548178,1.901508053143819,1.6888760283869233e+18,17.405923095703127,1.190169135729472,-1.544827327132225,3.5172093709309897,1.6888760283739446e+18,17.39294449869792,1.1495465834935503,-0.8823439081509908,3.593618392944336,,,,,,,,,,,,1.688876028377734e+18,17.396733837890626,-38.17379913330078,34.88955993652344,-6.136599922180176,1.688876028377734e+18,17.396733837890626,-293.800390625,129.74455871582032,-139.26299743652345,1.688876028382596e+18,17.40159611002604,0.8565107583999634,-0.5012523730595907,0.024280230825146,0.1173503721753755,-0.3141929904619853,1.0223969618479412,-2.69069504737854
2.45,1.688876028425849e+18,17.444849283854168,-9.62159792582194,9.37747891743978,-4.29234504699707,1.6888760284345016e+18,17.45350146484375,-3.3030922015508017,2.100499471028646,-1.6572291453679402,1.688876028425849e+18,17.444849283854168,5.526810805002849,-7.785262266794841,2.2128748893737793,1.6888760284301798e+18,17.449180053710936,-0.1001055389642715,-3.2771393060684204,3.149773955345154,1.688876028425849e+18,17.444849283854168,0.0769690126180648,-3.2051590283711753,3.178535540898641,,,,,,,,,,,,1.688876028427741e+18,17.446740966796874,-42.895199584960935,28.694399642944337,-9.218319702148438,1.688876028427741e+18,17.446740966796874,-298.5218017578125,123.54939727783204,-142.34472045898437,1.6888760284345016e+18,17.45350146484375,0.8927843968073527,-0.4355319043000539,0.0877510731418926,0.0679612072805563,-0.3426770865917206,0.8734496037165324,-2.8290586471557617
2.5,1.6888760284777562e+18,17.49675602213542,-4.989382982254028,7.338920434315999,0.4006903171539306,1.6888760284864064e+18,17.505406494140626,1.3896317780017853,-0.5674977898597717,4.570490678151448,1.6888760284777562e+18,17.49675602213542,5.913341681162517,-7.128957907358806,3.225525220235189,1.688876028473433e+18,17.49243318684896,-0.4116722717881202,-2.1368065675099692,1.10485161592563,1.6888760284777562e+18,17.49675602213542,-0.3313434968392054,-1.927585244178772,0.8415687084197998,,,,,,,,,,,,1.6888760284777423e+18,17.496742333984376,-44.38603973388672,23.7314395904541,-15.452519798278807,1.6888760284777423e+18,17.496742333984376,-300.01263427734375,118.58643798828123,-148.57891540527345,1.6888760284864064e+18,17.505406494140626,0.9011758963267008,-0.4022095998128255,0.1537417272726694,0.0486520292858282,-0.4657870431741078,0.7895400126775106,-2.836721340815226
2.55,1.688876028529657e+18,17.548657307942708,1.0254716873168943,3.3187999725341797,1.0998926957448325,1.6888760285383086e+18,17.557308430989583,8.497112592061361,-4.927818854649861,4.061616977055867,1.688876028529657e+18,17.548657307942708,5.385229428609212,-7.4988694190979,3.293022950490316,1.6888760285253345e+18,17.544334147135416,1.0686069428920746,-0.2623157153526942,-2.0636554956436157,1.688876028529657e+18,17.548657307942708,1.213636537392934,-0.2206750636299451,-2.292882720629374,1.6888760285123576e+18,17.531357666015627,0.0,0.0,1.232580542564392,13.32699966430664,1.205002784729004,182.91683959960935,25.78483669068267,-122.7500087,49.1925563,1.6888760285277412e+18,17.54674111328125,-42.211998748779294,25.346719360351564,-17.241039276123047,1.6888760285277412e+18,17.54674111328125,-297.8385925292969,120.20171661376952,-150.36743774414063,1.6888760285383086e+18,17.557308430989583,0.8827590942382812,-0.4410841067632039,0.1567020614941914,0.0325670937697092,-0.4983615080515544,0.8772297104199728,-2.830195347468058
2.6,1.6888760285815606e+18,17.600560709635417,10.235202153523764,-12.451780954996744,3.350705941518148,1.6888760285815583e+18,17.60055859375,14.61207103729248,-20.39851427078247,6.9699931144714355,1.6888760285815606e+18,17.600560709635417,4.336419264475505,-8.300179481506348,2.9147929350535073,1.6888760285772326e+18,17.59623250325521,0.4842634399731954,-0.7741698523362478,-1.6963218450546265,1.6888760285815606e+18,17.600560709635417,0.2520328064759572,-1.0021753211816151,-1.2592477798461914,,,,,,,,,,,,1.6888760285777423e+18,17.596742431640628,-37.50767974853515,31.43207893371582,-16.421199798583984,1.6888760285777423e+18,17.596742431640628,-293.1342712402344,126.28707733154296,-149.54759826660157,1.6888760285815583e+18,17.60055859375,0.8564763963222504,-0.4944146573543548,0.147317849099636,0.0168718490749597,-0.522053062915802,1.0008554756641388,-2.8120672702789307
2.65,1.6888760286334566e+18,17.652456705729165,6.294532934824626,-3.577723821004232,1.5720131397247314,1.688876028624806e+18,17.64380623372396,10.439087549845375,-17.43171302477519,5.664209842681885,1.6888760286334566e+18,17.652456705729165,4.332919915517171,-8.073136329650879,3.5044522285461426,1.6888760286291364e+18,17.648136474609373,0.0484619836012522,-2.1428643663724265,1.134122242530187,1.6888760286334566e+18,17.652456705729165,0.1370883584022521,-1.7983872443437576,0.9022988428672156,,,,,,,,,,,,1.688876028627737e+18,17.646736962890625,-35.575199890136716,30.783039093017575,-20.60823974609375,1.688876028627737e+18,17.646736962890625,-291.2017883300781,125.6380386352539,-153.7346405029297,1.688876028624806e+18,17.64380623372396,-0.287141482035319,0.1510777374108632,-0.0774800231059392,0.0106423896116514,-0.6154196461041769,0.952628215154012,-2.828157901763916
2.7,1.688876028685364e+18,17.704364013671874,-10.04203732808431,0.7709058125813802,3.5566614468892417,1.6888760286767135e+18,17.69571337890625,-4.712464650472005,-6.052644968032837,8.002795378367106,1.688876028685364e+18,17.704364013671874,3.8698811531066895,-8.320667584737143,3.4581898053487143,1.688876028681041e+18,17.700040934244793,-0.1544470948477586,0.8996008882919947,-2.078519900639852,1.688876028685364e+18,17.704364013671874,-0.0957531283299128,0.977893441915512,-2.0129537185033164,,,,,,,,,,,,1.6888760286777372e+18,17.696737255859375,-34.123399353027345,32.10307922363281,-20.51063995361328,1.6888760286777372e+18,17.696737255859375,-289.7499938964844,126.9580795288086,-153.6370391845703,1.6888760286767135e+18,17.69571337890625,0.276919960975647,-0.1755189597606659,0.0621296266714731,0.0071506713078027,-0.6552148660024008,0.9816089471181236,-2.788081089655558
2.75,1.6888760287372657e+18,17.756265625,-3.7945273717244463,4.756017843882243,-1.3913900057474773,1.6888760287286118e+18,17.747611816406252,-0.0422732234001159,-4.947559754053752,0.6261218984921774,1.6888760287372657e+18,17.756265625,3.457667907079061,-8.753833770751953,2.7360490957895913,1.688876028732942e+18,17.75194189453125,0.9311113754908243,3.546123743057251,-1.940057138601939,1.6888760287372657e+18,17.756265625,0.9022988478342692,3.758755604426066,-2.257757941881815,,,,,,,,,,,,1.6888760287277368e+18,17.74673671875,-33.108358764648436,34.6284797668457,-16.704239654541016,1.6888760287277368e+18,17.74673671875,-288.7349548339844,129.4834747314453,-149.83063354492188,1.6888760287286118e+18,17.747611816406252,0.8344247937202454,-0.5279333194096884,0.1537158638238906,0.019919251402219,-0.6123290061950684,1.0671552817026777,-2.725279966990153
2.8,1.688876028780521e+18,17.799521118164066,-3.595349669456482,2.018831253051758,0.4234045743942261,1.6888760287805184e+18,17.799518310546876,-2.0027926166852317,-6.766503810882568,2.858426094055176,1.688876028780521e+18,17.799521118164066,2.1114308834075928,-9.313458442687988,2.204106569290161,1.688876028784848e+18,17.803848388671877,-0.6344853614767393,3.6572503248850503,-5.357950051625569,1.688876028780521e+18,17.799521118164066,-0.5443572849035263,3.4710127115249634,-5.574908971786499,,,,,,,,,,,,1.6888760287777395e+18,17.79673955078125,-28.62119941711426,40.58939895629883,-10.245559883117677,1.6888760287777395e+18,17.79673955078125,-284.2477966308594,135.44439392089845,-143.37195739746093,1.6888760287805184e+18,17.799518310546876,0.7836952010790507,-0.6106504599253336,0.0654965179661909,0.0797274261713027,-0.7157301108042399,1.245536168416341,-2.4057172934214273
2.85,1.6888760288237683e+18,17.8427685546875,-9.846207777659098,-3.438735326131184,-1.5720078945159912,1.6888760288324114e+18,17.851411295572916,-10.070393880208334,-14.435300509134928,0.0295114715894063,1.6888760288237683e+18,17.8427685546875,0.7310791611671448,-9.452803611755373,2.5068960984547934,1.6888760288367452e+18,17.855745279947914,-1.0886636972427366,2.502664029598236,-1.4725415805975597,1.6888760288237683e+18,17.8427685546875,-1.384271542231242,3.4873788356781006,-2.692846755186717,,,,,,,,,,,,1.6888760288277386e+18,17.846738720703126,-20.600919723510746,45.283958435058594,-8.225239658355713,1.6888760288277386e+18,17.846738720703126,-276.2275146484375,140.13895568847656,-141.3516357421875,1.6888760288324114e+18,17.851411295572916,0.7181001901626587,-0.6752335031827291,0.005914603670438,0.1667961527903874,-1.209715445836385,1.3176884651184082,-1.7019424835840862
2.9,1.6888760288756708e+18,17.894670735677085,2.372764746348063,-1.4281479517618816,-5.910958607991536,1.6888760288843205e+18,17.903320068359374,4.809573431809743,-9.53759177525838,-3.164906740188598,1.6888760288756708e+18,17.894670735677085,0.1039366026719411,-9.456211725870768,2.576054493586222,1.6888760288886464e+18,17.907646240234374,0.8567894101142883,-1.129642526308695,-2.877480705579122,1.6888760288756708e+18,17.894670735677085,0.5901467204093933,-1.179886215676864,-2.0225239197413125,,,,,,,,,,,,1.6888760288777395e+18,17.896739404296873,-17.855919647216798,46.36731872558594,-7.895839977264404,1.6888760288777395e+18,17.896739404296873,-273.4825134277344,141.222314453125,-141.0222381591797,1.6888760288843205e+18,17.903320068359374,0.6908833781878153,-0.7038434942563375,-0.0024436594685539,0.1631917059421539,-1.544859528541565,1.3376115163167317,-1.3603101174036665
2.95,1.68887602892757e+18,17.946570068359375,2.685369531313578,1.9537045160929365,-2.425236384073893,1.6888760289362235e+18,17.9552236328125,0.5465606053670248,-7.153143882751465,0.4504488706588745,1.68887602892757e+18,17.946570068359375,-1.2391772468884783,-9.492698669433594,2.1322077910105386,1.6888760289318994e+18,17.950899291992187,1.012738198041916,2.3959662914276123,-1.9186514019966123,1.68887602892757e+18,17.946570068359375,1.007876733938853,1.9535979827245076,-2.2616776625315347,,,,,,,,,,,,1.688876028927737e+18,17.946737060546873,-10.377319717407229,48.49255981445312,-6.1780797958374025,1.688876028927737e+18,17.946737060546873,-266.0039123535156,143.34755859375,-139.30447692871093,1.6888760289362235e+18,17.9552236328125,0.6442617376645406,-0.7455694874127706,-0.0472628983358541,0.1623185674349467,-2.1433351834615073,1.3526405493418376,-0.6989222566286722
3.0,1.6888760289794752e+18,17.99847509765625,2.228075305620829,0.9947935740152994,0.6534730195999146,1.6888760289881234e+18,18.007123453776043,0.3898306886355082,-8.665607134501139,2.6584259668986,1.6888760289794752e+18,17.99847509765625,-1.735024134318034,-9.456619580586752,1.9390430053075152,1.6888760289751437e+18,17.994143473307293,0.3675372488796711,1.1579968929290771,-1.4099788268407183,1.6888760289794752e+18,17.99847509765625,0.2751438915729522,1.0374019145965576,-1.4476997057596843,,,,,,,,,,,,1.6888760289777413e+18,17.99674140625,-7.37855978012085,49.43683853149414,-3.635599946975708,1.6888760289777413e+18,17.99674140625,-263.0051574707031,144.29183654785157,-136.76199645996093,1.6888760289881234e+18,18.007123453776043,0.6175622145334879,-0.7600501577059428,-0.0884493788083393,0.1815815220276514,-2.3653626441955566,1.3290754556655884,-0.3891000747680663
3.05,1.6888760290313748e+18,18.05037491861979,0.614771286646525,-0.5069398880004883,0.2144999504089355,1.6888760290313764e+18,18.050376220703125,-2.2259232997894287,-9.714560985565186,2.8097718954086304,1.6888760290313748e+18,18.05037491861979,-2.2230171362559,-9.309223810831703,2.1479063034057617,1.6888760290270515e+18,18.046051513671873,-0.518879105647405,0.3983859618504842,-0.8882489601771036,1.6888760290313748e+18,18.05037491861979,-0.5797620217005411,0.2039780616760254,-0.8492045005162557,1.688876029031377e+18,18.050376953125,0.0,0.0,1.252100706100464,12.887999534606934,1.2220573425292969,183.9976806640625,25.78483669068267,-122.7500169,49.1925541,1.6888760290277376e+18,18.0467375,-3.9405999183654785,49.62227935791016,-3.7429598808288578,1.6888760290277376e+18,18.0467375,-259.56719360351565,144.47727661132814,-136.86935729980468,1.6888760290313764e+18,18.050376220703125,0.5965734720230103,-0.7719209790229797,-0.0973911248147487,0.1968126744031905,-2.4140145778656006,1.284753143787384,-0.304057702422142
3.1,1.6888760290832737e+18,18.10227351888021,4.169145107269287,-6.922600746154785,-5.587119420369466,1.6888760290746278e+18,18.0936279296875,1.7942181825637815,-15.132409731547035,-1.9615163604418435,1.6888760290832737e+18,18.10227351888021,-2.5767913659413657,-9.14102300008138,2.4554055531819663,1.6888760290789553e+18,18.097955322265623,-0.7607817451159158,-0.10557788113753,-0.4749477207660675,1.6888760290832737e+18,18.10227351888021,-0.6903286079565683,0.1117374350627263,-0.3611231644948323,,,,,,,,,,,,1.6888760290777362e+18,18.09673623046875,-1.6518799781799316,49.690599060058595,-5.582719898223877,1.6888760290777362e+18,18.09673623046875,-257.2784729003906,144.54559631347655,-138.70911865234376,1.6888760290746278e+18,18.0936279296875,0.5823250015576681,-0.7853256066640218,-0.0784877215822537,0.1948187897602716,-2.4242995580037436,1.2383575439453125,-0.322819819053014
3.15,1.6888760291351798e+18,18.15417976888021,2.62057097752889,-5.304978052775065,-4.042883396148682,1.6888760291265262e+18,18.1455263671875,-1.0358927845954895,-15.31984774271647,-2.7160531381766,1.6888760291351798e+18,18.15417976888021,-2.428217808405558,-9.18177572886149,2.454739491144816,1.6888760291308562e+18,18.149856038411457,0.2071851293245951,-0.4318308134873708,0.4377358462661505,1.6888760291351798e+18,18.15417976888021,0.2241875479618708,-0.629089375336965,0.6027712648113569,,,,,,,,,,,,1.6888760291277402e+18,18.146740185546875,-1.8958799600601195,49.61983947753906,-6.217119884490967,1.6888760291277402e+18,18.146740185546875,-257.52247314453126,144.47483825683594,-139.34351806640626,1.6888760291265262e+18,18.1455263671875,0.5832117001215616,-0.7823822100957235,-0.0805640369653701,0.2030251324176788,-2.3856964906056723,1.2386083602905271,-0.3463791211446125
3.2,1.6888760291870866e+18,18.206086588541663,4.326948006947835,-3.8635775248209634,-1.3342742919921875,1.6888760291784282e+18,18.19742830403646,4.627320210138957,-12.743176460266112,1.295713484287262,1.6888760291870866e+18,18.206086588541663,-1.207773824532827,-9.440922737121582,2.2974775632222495,1.688876029182762e+18,18.20176212565104,0.2159917714695135,0.5274312297503153,3.6678385734558105,1.6888760291870866e+18,18.206086588541663,0.2789108951886495,0.7403177718321482,3.8396443525950112,,,,,,,,,,,,1.6888760291777329e+18,18.19673291015625,-6.0902399063110355,49.30263977050781,-6.158559894561767,1.6888760291777329e+18,18.19673291015625,-261.7168395996094,144.1576354980469,-139.2849578857422,1.6888760291784282e+18,18.19742830403646,0.6258420546849569,-0.7523983716964722,-0.066271257897218,0.1924560666084289,-2.1492687861124673,1.3132681449254353,-0.6212077140808105
3.25,1.688876029230334e+18,18.249333740234377,-6.161457538604736,-5.051062107086182,-2.726740598678589,1.688876029230334e+18,18.249334065755207,-5.099503914515178,-14.87597910563151,0.0458624164263407,1.688876029230334e+18,18.249333740234377,0.4811261892318725,-9.593119621276855,1.97409063577652,1.6888760292346593e+18,18.25365926106771,1.1339186429977417,0.1688533325990041,3.433877150217692,1.688876029230334e+18,18.249333740234377,1.1603385210037231,0.3343723528087139,3.442072868347168,,,,,,,,,,,,1.688876029227738e+18,18.246737841796875,-17.414279747009278,47.06027908325195,-3.4867599964141847,1.688876029227738e+18,18.246737841796875,-273.04087524414064,141.91527709960937,-136.6131561279297,1.688876029230334e+18,18.249334065755207,0.7003573576609293,-0.6802308956782023,-0.0740805094440777,0.2017383823792139,-1.2163052956263225,1.381402611732483,-1.5309144258499146
3.3,1.6888760292735844e+18,18.292584309895833,-5.363146464029948,-4.689634958902995,5.272694110870361,1.6888760292822336e+18,18.30123380533854,-3.0031917889912925,-13.980863889058432,8.59481954574585,1.6888760292735844e+18,18.292584309895833,1.712427298227946,-9.496620496114096,1.719225804011027,1.688876029286562e+18,18.305562174479167,-0.227292776107788,-2.1304434339205423,3.2022573947906494,1.6888760292735844e+18,18.292584309895833,0.169362373650074,-1.2292135953903198,3.177670160929362,,,,,,,,,,,,1.6888760292777416e+18,18.29674169921875,-24.77331924438477,44.0737190246582,-3.1231998920440676,1.6888760292777416e+18,18.29674169921875,-280.39991455078126,138.92871704101563,-136.24960021972657,1.6888760292822336e+18,18.30123380533854,0.7570688724517822,-0.6238009134928385,-0.0530221375326315,0.1848233044147491,-0.6180951595306396,1.304426670074463,-2.1824498971303306
3.35,1.688876029325488e+18,18.34448828125,-0.8976662953694662,-1.4891492525736492,3.7892871300379434,1.6888760293341376e+18,18.3531376953125,1.9359928965568545,-9.404191811879477,3.972883313894272,1.688876029325488e+18,18.34448828125,3.0116554896036782,-9.06559912363688,2.1908675034840903,1.688876029338464e+18,18.3574638671875,0.4417064723869164,-1.5401440511147182,3.602017800013224,1.688876029325488e+18,18.34448828125,0.0872010191281636,-2.5393667817115784,3.515376726786295,,,,,,,,,,,,1.6888760293277384e+18,18.346738427734373,-31.59311866760254,39.70611953735352,-7.324879932403564,1.6888760293277384e+18,18.346738427734373,-287.21971435546874,134.56112060546874,-140.45127563476564,1.6888760293341376e+18,18.3531376953125,0.8090519905090332,-0.5680239399274191,0.0191622559602061,0.1471070200204849,-0.5176172653834025,1.1527174711227417,-2.438795566558838
3.4,1.6888760293773873e+18,18.39638720703125,-7.893448670705159,4.188404719034831,-2.5318380991617837,1.6888760293860383e+18,18.405038492838543,-4.628715952237447,-3.417349616686503,-0.7178468008836111,1.6888760293773873e+18,18.39638720703125,4.441732247670491,-8.513838132222494,1.9730066855748496,1.688876029381716e+18,18.400716064453125,1.1714868545532229,-0.7785477638244629,2.9891927242279053,1.6888760293773873e+18,18.39638720703125,1.1041898330052693,-0.7193447103103002,3.118925174077352,,,,,,,,,,,,1.6888760293777395e+18,18.396739697265623,-37.44423904418945,34.199040222167966,-7.056479740142822,1.6888760293777395e+18,18.396739697265623,-293.0708251953125,129.05404052734374,-140.1828826904297,1.6888760293860383e+18,18.405038492838543,0.8563334345817566,-0.5020754436651865,0.0337341191867987,0.1138250902295112,-0.3379081388314565,1.0206988851229348,-2.68601926167806
3.45,1.6888760294292913e+18,18.448291341145833,-9.038536071777344,8.206222852071127,-3.436798413594564,1.6888760294379418e+18,18.45694189453125,-2.733799854914347,0.2085743546485901,-0.5040879646937052,1.6888760294292913e+18,18.448291341145833,5.307657400767009,-7.927865346272786,2.258624871571859,1.6888760294249664e+18,18.443966308593755,0.1446223432819048,-2.7149396737416587,2.580243905385335,1.6888760294292913e+18,18.448291341145833,0.025707251081864,-2.7490971883138022,2.5112670262654624,,,,,,,,,,,,1.6888760294277417e+18,18.446741650390624,-41.36775894165039,29.336119842529296,-9.955199813842771,1.6888760294277417e+18,18.446741650390624,-296.9943542480469,124.19111785888671,-143.08159484863282,1.6888760294379418e+18,18.45694189453125,0.8842233618100485,-0.4522804717222849,0.0887228647867838,0.0714953914284705,-0.3677744070688883,0.907043715318044,-2.7998053232828775
3.5,1.6888760294811886e+18,18.500188720703125,-4.102759043375651,6.129710992177327,0.7382335662841797,1.6888760294811855e+18,18.500185546875,1.0977074056863785,-1.4922239780426023,4.0576289892196655,1.6888760294811886e+18,18.500188720703125,5.4514438311258955,-7.576578617095947,3.0146021048227944,1.6888760294768689e+18,18.49586865234375,0.0853684147198994,-1.968004147211711,0.3311907947063446,1.6888760294811886e+18,18.500188720703125,0.1921680370966593,-1.8025106191635132,0.0789034110493957,,,,,,,,,,,,1.68887602947774e+18,18.496740283203124,-42.077799224853514,25.82739982604981,-15.07919979095459,1.68887602947774e+18,18.496740283203124,-297.70439453125,120.6823974609375,-148.20559997558593,1.6888760294811855e+18,18.500185546875,0.8882615566253662,-0.4349636435508727,0.1384473517537116,0.0506706424057483,-0.4615108966827392,0.8613807857036591,-2.812550187110901
3.55,1.688876029533092e+18,18.55209212239583,4.141395250956218,3.7255654335021977,0.8925615151723226,1.6888760295244454e+18,18.543445556640624,7.455437183380127,-3.466601769129435,4.072185357411702,1.688876029533092e+18,18.55209212239583,4.732716719309489,-8.080310821533203,2.894770622253418,1.6888760295287708e+18,18.54777099609375,1.2956451574961343,-0.4530074894428253,-2.2668190797170005,1.688876029533092e+18,18.55209212239583,1.3330097993214924,-0.4600324332714081,-2.4168374141057334,1.6888760295503987e+18,18.569398681640624,0.0,0.0,1.2647981643676758,12.593000411987305,1.225322127342224,184.4996795654297,25.985164625712574,-122.7500215,49.19255,1.6888760295277396e+18,18.546739501953123,-39.962319946289064,28.6553596496582,-16.394359588623047,1.6888760295277396e+18,18.546739501953123,-295.5889099121094,123.51035766601562,-149.5207550048828,1.6888760295244454e+18,18.543445556640624,0.8731682896614075,-0.4635650813579559,0.1462268282969792,0.0309416595846414,-0.4942601521809895,0.9285783370335896,-2.8193636735280356
3.6,1.6888760295849953e+18,18.603995198567706,10.064319610595703,-18.178771654764812,3.0354371070861816,1.6888760295763466e+18,18.595346516927084,14.360724449157717,-23.64507548014323,5.959923108418782,1.6888760295849953e+18,18.603995198567706,4.091150442759196,-8.40310255686442,2.9626635710398355,1.6888760295806692e+18,18.599669352213542,-0.3259474833806355,-2.04334423939387,0.4956153233846028,1.6888760295849953e+18,18.603995198567706,-0.4548909763495127,-2.251852889855703,0.9170104662577312,,,,,,,,,,,,1.6888760295777393e+18,18.596739208984378,-36.05587921142578,33.2523193359375,-16.42363929748535,1.6888760295777393e+18,18.596739208984378,-291.68248291015624,128.10731811523436,-149.55003967285157,1.6888760295763466e+18,18.595346516927084,0.849579930305481,-0.5035674770673116,0.1557003160317738,0.0087148716362813,-0.551567792892456,1.0220929980278015,-2.8065056006113687
3.65,1.6888760296368988e+18,18.65589884440104,2.633526563644409,3.1557725270589194,2.2448904514312744,1.6888760296282488e+18,18.64724861653646,10.028319517771402,-8.14516814549764,5.00020170211792,1.6888760296368988e+18,18.65589884440104,4.339487870534261,-8.07981046040853,3.480628172556559,1.6888760296325722e+18,18.65157194010417,0.4124867469072342,-1.508786251147588,0.5464189648628235,1.6888760296368988e+18,18.65589884440104,0.4560109078884125,-1.1956160242358844,0.1797470847765604,,,,,,,,,,,,1.688876029627738e+18,18.646738232421875,-36.060759735107425,30.277959060668945,-21.43051948547363,1.688876029627738e+18,18.646738232421875,-291.6873474121094,125.1329559326172,-154.55691833496093,1.6888760296282488e+18,18.64724861653646,-0.8578706979751587,0.4674126406510671,-0.2116853843132654,0.024817833987375,-0.623060425122579,0.9486081997553508,-2.871744235356649
3.7,1.6888760296801477e+18,18.699147338867192,-10.92299509048462,-1.9322857856750488,-0.858092188835144,1.6888760296801472e+18,18.699147135416663,-6.438088734944661,-8.515058994293213,3.293720324834188,1.6888760296801477e+18,18.699147338867192,3.783041715621948,-8.398833274841309,3.3710469007492065,1.688876029684478e+18,18.703477783203127,0.4585561652978261,1.380300949017207,-1.7771596908569336,1.6888760296801477e+18,18.699147338867192,0.3056616932153702,1.0144180953502655,-1.933541178703308,,,,,,,,,,,,1.6888760296777388e+18,18.696738720703127,-34.58211898803711,31.846878814697263,-21.945359420776366,1.6888760296777388e+18,18.696738720703127,-290.2087158203125,126.70187683105468,-155.0717559814453,1.6888760296801472e+18,18.699147135416663,-0.8419380784034729,0.4961027900377909,-0.2099323521057764,0.0258553301294643,-0.6641355752944946,1.009290297826131,-2.8263869285583496
3.75,1.688876029723403e+18,18.742402994791664,-4.874499519666036,4.178346951802571,1.3495632807413738,1.6888760297320492e+18,18.75104931640625,-0.0468594431877135,-4.822534561157227,4.761517683664958,1.688876029723403e+18,18.742402994791664,3.439932664235433,-8.788924853006998,2.648736079533895,1.6888760297363766e+18,18.755376627604168,0.8638143440087637,3.2952107588450112,-2.8549296458562217,1.688876029723403e+18,18.742402994791664,1.037809133529663,3.287778615951538,-2.0893627405166626,,,,,,,,,,,,1.68887602972774e+18,18.746739892578127,-33.506080627441406,35.44587936401367,-17.067799758911132,1.68887602972774e+18,18.746739892578127,-289.132666015625,130.30087585449218,-150.19419555664064,1.6888760297320492e+18,18.75104931640625,-0.2820733785629272,0.1665834585825602,-0.0664205898841222,0.0096152912980566,-0.574674387772878,1.1196608940760295,-2.776315927505493
3.8,1.6888760297753006e+18,18.79430069986979,-3.269140442212423,1.9720037778218584,1.6954078674316406,1.6888760297839547e+18,18.80295467122396,-2.7026930848757424,-7.525028387705485,3.2135608196258545,1.6888760297753006e+18,18.79430069986979,1.9087509711583457,-9.378595034281412,2.0500499407450357,1.688876029788281e+18,18.80728116861979,-0.6564765224854151,3.9058214028676352,-5.051855564117432,1.6888760297753006e+18,18.79430069986979,-0.2582432876030604,3.358282486597697,-5.111669540405273,,,,,,,,,,,,1.688876029777733e+18,18.796733251953125,-28.30399932861328,41.33847885131836,-10.93363971710205,1.688876029777733e+18,18.796733251953125,-283.93059692382815,136.1934783935547,-144.06004028320314,1.6888760297839547e+18,18.80295467122396,0.7659768859545389,-0.6342513759930929,0.0715895680089791,0.0599224145213762,-0.8284674485524496,1.3009618520736694,-2.329986492792765
3.85,1.688876029827206e+18,18.84620589192708,-11.003327051798502,-2.016032854715983,-2.4274938106536865,1.6888760298358556e+18,18.85485555013021,-10.660622914632162,-12.727224349975586,-1.064207911491394,1.688876029827206e+18,18.84620589192708,0.4513083895047505,-9.509005228678385,2.361982583999634,1.688876029831533e+18,18.850532958984378,-1.2966378331184387,3.414889335632324,-1.4317918121814728,1.688876029827206e+18,18.84620589192708,-1.22279949982961,3.549534281094869,-1.9632700284322104,,,,,,,,,,,,1.6888760298277404e+18,18.846740527343748,-20.835159301757812,46.17455978393555,-7.839719772338867,1.6888760298277404e+18,18.846740527343748,-276.4617553710938,141.02955627441406,-140.96611938476562,1.6888760298358556e+18,18.85485555013021,0.7118749022483826,-0.6854401628176371,0.010360513969014,0.151440292596817,-1.306269288063049,1.3379911581675212,-1.634061336517334
3.9,1.6888760298791084e+18,18.898108154296875,3.484437942504883,-0.779414176940918,-5.977464516957601,1.6888760298877594e+18,18.90675935872396,5.639883100986481,-9.65503946940104,-3.0951161781946817,1.6888760298791084e+18,18.898108154296875,-0.2117239932219187,-9.499162673950195,2.406468311945597,1.6888760298747812e+18,18.89378125,0.2801835238933563,-1.3150401910146077,-1.889813462893168,1.6888760298791084e+18,18.898108154296875,0.3491603930791218,-1.3693053126335144,-2.163735568523407,,,,,,,,,,,,1.6888760298777403e+18,18.896740576171872,-17.260559272766113,47.360399627685545,-7.837279987335205,1.6888760298777403e+18,18.896740576171872,-272.88715209960935,142.21539916992188,-140.96367797851562,1.6888760298877594e+18,18.90675935872396,0.682989776134491,-0.7158950567245483,0.0090768400890131,0.1425941089789072,-1.6904432773590088,1.3459748427073162,-1.2608340581258135
3.95,1.688876029931006e+18,18.950006103515623,3.4128924210866294,1.6452048619588215,-2.014560262362162,1.6888760299310088e+18,18.9500087890625,1.2837493009865284,-7.492525815963745,0.2042872458696365,1.688876029931006e+18,18.950006103515623,-1.477567474047343,-9.456382433573404,2.1458588441212973,1.688876029926686e+18,18.94568611653646,0.7116070985794067,1.858455737431844,-2.337221344312032,1.688876029931006e+18,18.950006103515623,0.7202101151148478,2.0829996267954507,-2.1025981108347573,,,,,,,,,,,,1.6888760299277404e+18,18.9467404296875,-10.19431972503662,49.48075866699219,-6.702679920196533,1.6888760299277404e+18,18.9467404296875,-265.8209228515625,144.33575744628905,-139.8290771484375,1.6888760299310088e+18,18.9500087890625,0.6409967243671417,-0.7531804740428925,-0.0206162189133465,0.1456979513168334,-2.1825807094573975,1.3323256373405457,-0.721546471118927
4.0,1.6888760299829133e+18,19.00191300455729,2.561957319577535,1.6046470006306963,-0.7586098909378052,1.688876029974256e+18,18.99325594075521,0.8677970071633657,-7.655436992645264,1.4857434233029685,1.6888760299829133e+18,19.00191300455729,-2.0084874629974365,-9.372355143229166,2.0779449144999185,1.6888760299785882e+18,18.997588216145832,0.2090177337328592,1.2018773754437764,-1.6090699831644697,1.6888760299829133e+18,19.00191300455729,0.1317432696620623,1.1343767444292705,-1.6313156286875408,,,,,,,,,,,,1.6888760299777344e+18,18.996734375,-6.7221999168396,50.38111953735351,-4.399319839477539,1.6888760299777344e+18,18.996734375,-262.3487915039062,145.23611450195312,-137.52571716308594,1.688876029974256e+18,18.99325594075521,0.6183166901270548,-0.7650526364644369,-0.0600077311197916,0.1690832277139027,-2.3346609274546304,1.3109416166941326,-0.4786889155705769
4.05,1.68887603003481e+18,19.053810302734377,-0.2125233809153238,-1.987317721048991,0.4923379818598429,1.6888760300261637e+18,19.04516357421875,-3.014956474304199,-10.243673960367838,2.2484556635220847,1.68887603003481e+18,19.053810302734377,-2.4880459308624268,-9.209305127461752,2.283229033152262,1.688876030030489e+18,19.0494892578125,-0.4858414828777313,0.0608319938182831,-0.8509862025578817,1.68887603003481e+18,19.053810302734377,-0.5399539768695831,-0.2519309818744659,-0.8445720871289571,,,,,,,,,,,,1.6888760300277402e+18,19.046740087890623,-3.611199951171875,50.58851928710938,-4.811679935455322,1.6888760300277402e+18,19.046740087890623,-259.2377990722656,145.44351806640626,-137.93807678222657,1.6888760300261637e+18,19.04516357421875,0.5902896324793497,-0.7812305291493734,-0.0770011494557062,0.1877511392037073,-2.4251578648885093,1.2573400338490803,-0.3350524107615153
4.1,1.6888760300867162e+18,19.10571614583333,4.53428300221761,-7.925848007202148,-5.45581583182017,1.6888760300780654e+18,19.097065348307293,2.410370022058487,-16.13041623433431,-1.3968102931976318,1.6888760300867162e+18,19.10571614583333,-2.869546175003052,-9.037277857462565,2.5123373667399087,1.688876030082389e+18,19.10138916015625,-0.7083491484324137,0.0255545179049175,-0.3237585624059041,1.6888760300867162e+18,19.10571614583333,-0.6407467325528463,0.3436116973559062,-0.1440114913566504,1.6888760300694157e+18,19.088415771484375,0.0,0.0,1.2647981643676758,12.039999961853027,1.2544410228729248,185.025634765625,25.985164625712574,-122.7500277,49.192545,1.6888760300777403e+18,19.09674033203125,-0.941839998960495,50.73979873657227,-6.568479919433594,1.6888760300777403e+18,19.09674033203125,-256.5684356689453,145.5947998046875,-139.69487915039062,1.6888760300780654e+18,19.097065348307293,0.5728506247202555,-0.797845462958018,-0.0537747740745543,0.1798376043637593,-2.462323268254598,1.203941543896993,-0.3416491548220317
4.15,1.688876030138618e+18,19.15761808268229,0.8584659099578857,-8.977181752522787,-5.365818421045939,1.688876030129964e+18,19.148964192708338,-2.8815567195415497,-18.801006317138672,-3.599204142888387,1.688876030138618e+18,19.15761808268229,-2.4914376735687256,-9.163611412048342,2.454244295756022,1.6888760301342904e+18,19.15329060872396,0.4225151240825653,-0.9009753266970316,1.0150543848673503,1.688876030138618e+18,19.15761808268229,0.4723006288210551,-1.1676689237356186,1.1416053374608357,,,,,,,,,,,,1.6888760301277384e+18,19.146738378906253,-2.203319954872131,50.56899871826172,-7.0564799308776855,1.6888760301277384e+18,19.146738378906253,-257.8299194335938,145.4239959716797,-140.18287658691406,1.688876030129964e+18,19.148964192708338,0.5837913354237875,-0.7877005338668823,-0.0554952012995878,0.1884050021568933,-2.387929916381836,1.2248422702153523,-0.401648352543513
4.2,1.6888760301818644e+18,19.200864257812505,3.7349276542663574,-3.560949325561523,-1.4908320903778076,1.6888760301818696e+18,19.200869384765625,2.1194427013397217,-12.860424677530924,0.638086050748825,1.6888760301818644e+18,19.200864257812505,-1.6711878180503843,-9.44265365600586,2.04526150226593,1.688876030186193e+18,19.205192708333335,0.6456336577733358,-0.6747515896956126,3.4968981742858887,1.6888760301818644e+18,19.200864257812505,0.6827946305274963,-0.7318165302276611,3.377779483795166,,,,,,,,,,,,1.68887603017774e+18,19.1967400390625,-6.151239824295044,50.28351974487305,-5.912119960784912,1.68887603017774e+18,19.1967400390625,-261.77783203125,145.13852233886718,-139.03851623535155,1.6888760301818696e+18,19.200869384765625,0.632858951886495,-0.7573562463124593,-0.0384258901079495,0.15398570895195,-2.232433001200358,1.3275593121846516,-0.6340704361597697
4.25,1.688876030225118e+18,19.244117757161455,-0.858598788579305,-0.9723507563273112,0.7760438521703086,1.688876030233768e+18,19.252768066406247,-1.433500111103058,-11.208180745442707,3.468994617462158,1.688876030225118e+18,19.244117757161455,-0.0635052484770615,-9.633643786112469,1.780579964319865,1.6888760302380982e+18,19.257098144531252,0.5712098876635233,0.7841473619143168,3.5179220835367837,1.688876030225118e+18,19.244117757161455,0.5970698793729147,0.5018767217795054,3.712227980295817,,,,,,,,,,,,1.6888760302277384e+18,19.246738476562506,-15.523279762268066,48.46815948486328,-4.784839916229248,1.6888760302277384e+18,19.246738476562506,-271.1498718261719,143.32315979003906,-137.91123657226564,1.688876030233768e+18,19.252768066406247,0.7058361371358236,-0.690938393274943,-0.038339419911305,0.1493364224831262,-1.311409771442413,1.4048533042271931,-1.5630548397699993
4.3,1.6888760302770196e+18,19.29601953125,-6.756194114685059,-4.690601348876953,9.200098037719728,1.6888760302856696e+18,19.30466959635417,-6.08056116104126,-14.103296597798666,10.962916056315104,1.6888760302770196e+18,19.29601953125,1.652433196703593,-9.52795696258545,1.5980053742726643,1.6888760302813384e+18,19.30033837890625,0.1979203335940837,-0.7576255947351455,3.2500321865081787,1.6888760302770196e+18,19.29601953125,0.2821688403685887,-0.5694282501935959,3.231426239013672,,,,,,,,,,,,1.6888760302777382e+18,19.29673828125,-24.51223945617676,45.13999938964844,-3.2915599822998045,1.6888760302777382e+18,19.29673828125,-280.1388366699219,139.9949951171875,-136.41795654296874,1.6888760302856696e+18,19.30466959635417,0.762573262055715,-0.6285375555356344,-0.0300771280502279,0.1478595385948816,-0.6038975119590759,1.3169341882069905,-2.283323049545288
4.35,1.688876030328922e+18,19.347921793619793,-1.442186991373698,0.8305792808532715,0.8297231594721478,1.6888760303375757e+18,19.356575602213542,2.4624139865239463,-8.110073407491049,1.3200405438741047,1.688876030328922e+18,19.347921793619793,2.695358117421468,-9.22361183166504,1.9306893746058147,1.6888760303246016e+18,19.343601318359376,0.0066686098774274,-3.567351222038269,2.8874072233835855,1.688876030328922e+18,19.347921793619793,-0.0208712319533029,-3.2908838391304016,3.0197614828745523,,,,,,,,,,,,1.6888760303277376e+18,19.346737451171876,-29.687479400634764,41.90211868286133,-6.568479919433594,1.6888760303277376e+18,19.346737451171876,-285.3140808105469,136.75711364746093,-139.69487915039062,1.6888760303375757e+18,19.356575602213542,0.8064160545667013,-0.5815407633781433,0.0451186609764893,0.0931682661175727,-0.5230717062950134,1.1946233908335369,-2.5494224230448403
4.4,1.6888760303808264e+18,19.399826171875,-5.737281719843547,3.2698203722635903,-3.718550523122152,1.688876030380832e+18,19.39983203125,-1.950449585914612,-5.630311727523804,-1.8185452222824097,1.6888760303808264e+18,19.399826171875,4.201617956161499,-8.651485443115234,1.8855411609013877,1.6888760303765043e+18,19.395504150390625,0.7878125409285227,-0.5612833549578985,3.4993415673573813,1.6888760303808264e+18,19.399826171875,0.8403469522794088,-0.5997678637504578,3.439171314239502,,,,,,,,,,,,1.6888760303777426e+18,19.396742529296876,-35.97779846191406,36.1559196472168,-8.195959854125977,1.6888760303777426e+18,19.396742529296876,-291.60439453125,131.01091613769532,-141.32235717773438,1.688876030380832e+18,19.39983203125,0.84861621260643,-0.5209002494812012,0.0573424827307462,0.0707364603877067,-0.3643317818641662,1.0675723552703855,-2.757728099822998
4.45,1.688876030432734e+18,19.451733805338534,-8.120174725850424,8.590871493021647,-3.287856419881185,1.688876030424078e+18,19.44307796223958,-3.3988051414489746,-0.080558364590009,-1.4554343620936077,1.688876030432734e+18,19.451733805338534,5.196275234222412,-8.038535753885904,2.124239087104798,1.6888760304284024e+18,19.44740218098958,0.0293215240041415,-2.485356171925863,2.4788402716318765,1.688876030432734e+18,19.451733805338534,-0.0802778700987497,-2.5388577779134116,2.357023557027181,,,,,,,,,,,,1.6888760304277366e+18,19.446736669921876,-41.23843841552734,30.487799835205077,-9.96983985900879,1.6888760304277366e+18,19.446736669921876,-296.8650390625,125.3427947998047,-143.0962341308594,1.688876030424078e+18,19.44307796223958,0.8765480717023214,-0.4714227616786957,0.0861414050062497,0.0369583778083323,-0.3315219680468241,0.9625852704048156,-2.8832154273986816
4.5,1.6888760304846344e+18,19.503634440104168,-3.838152964909872,6.697822093963623,1.393371343612671,1.688876030475978e+18,19.49497794596354,0.9463613530000052,-0.3748755256334939,3.551547090212504,1.6888760304846344e+18,19.503634440104168,5.427316347757976,-7.680282751719157,2.7901723384857178,1.6888760304803072e+18,19.499307291666668,-0.0532979915539423,-1.2628111839294434,0.4155919849872589,1.6888760304846344e+18,19.503634440104168,0.0342593578000863,-1.0774644712607069,0.2060652027527491,,,,,,,,,,,,1.6888760304777416e+18,19.49674150390625,-42.05827941894531,26.89123954772949,-15.247559547424316,1.6888760304777416e+18,19.49674150390625,-297.68487548828125,121.7462371826172,-148.37395629882812,1.688876030475978e+18,19.49497794596354,0.8879123528798422,-0.4376027981440226,0.1407430668671925,0.0141484364867209,-0.4264218707879384,0.8838786085446676,-2.905628522237142
4.55,1.6888760305365297e+18,19.55552962239583,3.509334087371826,2.819855213165283,1.53398331006368,1.688876030527883e+18,19.54688289388021,6.856433868408203,-4.504089832305908,4.352943102518718,1.6888760305365297e+18,19.55552962239583,4.8712584177653,-8.093245029449463,2.6200488408406577,1.6888760305322094e+18,19.551209391276043,0.945517599582672,0.0353283733129501,-2.153452674547831,1.6888760305365297e+18,19.55552962239583,0.976264476776123,0.001018114387989,-2.294766147931417,,,,,,,,,,,,1.6888760305277384e+18,19.54673828125,-40.55523910522461,29.133599853515623,-15.279279518127442,1.6888760305277384e+18,19.54673828125,-296.1818359375,123.9885971069336,-148.40567626953126,1.688876030527883e+18,19.54688289388021,0.2982051173845927,-0.1404826045036316,0.0515219668547312,0.0043907674068274,-0.4500160912672679,0.9332263668378196,-2.9024195671081543
4.6,1.688876030588428e+18,19.60742789713542,10.005895932515465,-16.6578582127889,0.8484052022298177,1.6888760305797814e+18,19.59878133138021,14.021342595418297,-22.523440996805828,3.904887199401855,1.688876030588428e+18,19.60742789713542,4.327839374542236,-8.386028925577799,2.6671422322591147,1.6888760305841103e+18,19.603110432942707,-0.1221221387386322,-1.8895589311917624,0.405156413714091,1.688876030588428e+18,19.60742789713542,-0.2182316184043884,-2.1245893836021423,0.7451028823852539,1.6888760305884247e+18,19.6074248046875,0.0,0.0,1.2647981643676758,11.711000442504885,1.2802139520645142,185.32969665527344,25.985164625712574,-122.7500325,49.1925392,1.68887603057774e+18,19.5967400390625,-37.67360000610351,32.90339889526367,-15.057239723205566,1.68887603057774e+18,19.5967400390625,-293.3001953125,127.7583984375,-148.1836364746094,1.6888760305797814e+18,19.59878133138021,-0.8555882771809896,0.4945386946201324,-0.1517271796862283,0.0117618022486567,-0.4901933670043945,1.01605220635732,-2.892468293507894
4.65,1.688876030631681e+18,19.65068078613281,4.932958364486694,4.955588340759277,-0.3617464303970337,1.6888760306316818e+18,19.650681803385417,10.745967229207356,-5.9312089284261065,3.606183171272278,1.688876030631681e+18,19.65068078613281,4.526697158813477,-8.11870813369751,3.135219693183899,1.688876030636006e+18,19.655005940755206,0.3967060844103495,-1.1323405106862383,0.4378885825475057,1.688876030631681e+18,19.65068078613281,0.4366159290075302,-1.6230689883232117,0.9001099467277527,,,,,,,,,,,,1.6888760306277345e+18,19.646734375,-36.92451934814453,30.790359497070312,-19.829879760742188,1.6888760306277345e+18,19.646734375,-292.5511169433594,125.6453582763672,-152.9562774658203,1.6888760306316818e+18,19.650681803385417,-0.8604552944501241,0.4654608468214671,-0.2020593384901682,0.0449068235854307,-0.5629052122433981,0.9601271152496338,-2.9470088481903076
4.7,1.6888760306749366e+18,19.693936442057293,-9.025057792663574,2.136626720428467,6.447387218475342,1.6888760306835835e+18,19.70258341471354,-6.129215041796367,-8.895318190256754,9.395218849182127,1.6888760306749366e+18,19.693936442057293,4.030967791875203,-8.39227040608724,3.0637762546539307,1.6888760306879153e+18,19.706915364583335,-0.2865976095199585,1.790955106417338,-2.757954756418864,1.6888760306749366e+18,19.693936442057293,-0.3130175371964772,1.30440092086792,-2.8373162746429443,,,,,,,,,,,,1.688876030677738e+18,19.696738037109377,-35.53127822875977,32.89851951599121,-19.53951950073242,1.688876030677738e+18,19.696738037109377,-291.1578735351562,127.7535186767578,-152.66591796875,1.6888760306835835e+18,19.70258341471354,-0.8412028948465983,0.5038769741853079,-0.1926081677277882,0.0260690354431668,-0.6231309374173483,1.031413972377777,-2.840936024983724
4.75,1.688876030726837e+18,19.74583675130208,-4.632825613021851,0.3357159296671549,0.4773863951365153,1.688876030735489e+18,19.754489095052083,-0.7104688882827759,-6.8221367200215655,2.2779672145843506,1.688876030726837e+18,19.74583675130208,3.4445199966430664,-8.812297821044922,2.577542702356974,1.6888760307311606e+18,19.75016064453125,0.6245333552360535,2.888705372810364,-1.3447434604167938,1.688876030726837e+18,19.74583675130208,0.5717698733011881,2.7128525575002036,-1.4067208568255107,,,,,,,,,,,,1.688876030727739e+18,19.746738818359376,-33.61831893920898,36.17299957275391,-15.26951961517334,1.688876030727739e+18,19.746738818359376,-289.2449096679687,131.0279968261719,-148.3959167480469,1.688876030735489e+18,19.754489095052083,0.8257527947425842,-0.5467212994893392,0.1363081162174542,0.0103875406202859,-0.5768160422643026,1.1210252443949382,-2.747870365778605
4.8,1.6888760307787436e+18,19.79774365234375,-2.5794149239857993,3.242915948232015,-1.663210391998291,1.6888760307873894e+18,19.80638956705729,-3.25663169225057,-6.673383076985677,0.2705883619685967,1.6888760307787436e+18,19.79774365234375,1.841159423192342,-9.358379999796549,2.205276886622111,1.6888760307744192e+18,19.793419189453125,-0.2115629961093267,2.825760761896769,-5.166291077931722,1.6888760307787436e+18,19.79774365234375,-0.3237076724569003,3.223841428756714,-5.200092315673828,,,,,,,,,,,,1.688876030777741e+18,19.796741162109377,-28.19907989501953,41.62639999389648,-11.3947998046875,1.688876030777741e+18,19.796741162109377,-283.8256774902344,136.4813995361328,-144.5211944580078,1.6888760307873894e+18,19.80638956705729,0.7631416122118632,-0.6360989610354105,0.0805291707317034,0.0641163463393846,-0.8882980744043986,1.2925921281178792,-2.276949683825175
4.85,1.6888760308306363e+18,19.849636474609373,-12.278579711914062,-4.799236297607422,-3.941513458887736,1.688876030830637e+18,19.84963720703125,-12.87727403640747,-15.66311740875244,-1.4608182311058044,1.6888760308306363e+18,19.849636474609373,0.6832900643348694,-9.469970703125,2.4640375773111978,1.6888760308263232e+18,19.845323404947916,-1.1748465696970622,2.941061665614446,-1.541569362084071,1.6888760308306363e+18,19.849636474609373,-1.09080171585083,2.3871087034543357,-1.2115493714809418,,,,,,,,,,,,1.68887603082774e+18,19.84673994140625,-21.79651985168457,45.6231201171875,-8.598559951782226,1.68887603082774e+18,19.84673994140625,-277.4231201171875,140.47811584472657,-141.72495727539064,1.688876030830637e+18,19.84963720703125,0.7230807542800903,-0.6751303970813751,0.0266102468594908,0.14337919652462,-1.21183043718338,1.3202715516090393,-1.7631157636642456
4.9,1.688876030882549e+18,19.901548990885416,8.235691865285238,0.3557526270548503,-3.1967939535776773,1.6888760308738982e+18,19.892898518880205,5.273980299631755,-10.077572186787924,-1.041675480703513,1.688876030882549e+18,19.901548990885416,-0.2710521717866261,-9.48816712697347,2.416028340657552,1.688876030878222e+18,19.89722200520833,0.666403075059255,-2.2481876810391745,-2.645301043987274,1.688876030882549e+18,19.901548990885416,0.7605781555175781,-2.0261382224659124,-2.9321022828420005,,,,,,,,,,,,1.6888760308777385e+18,19.896738427734373,-18.600119972229,46.56251831054688,-9.242719841003415,1.6888760308777385e+18,19.896738427734373,-274.2267150878906,141.41751708984376,-142.3691192626953,1.6888760308738982e+18,19.892898518880205,0.702904482682546,-0.6983988086382548,0.0430318688352902,0.1242804105083147,-1.4963149229685466,1.3293449481328328,-1.529417832692464
4.95,1.6888760309344448e+18,19.953444824218753,1.7376067241032918,2.1070804595947266,-0.5594904820124308,1.688876030925798e+18,19.944798095703124,2.0023937424023948,-7.755537033081055,0.9730812162160872,1.6888760309344448e+18,19.953444824218753,-1.340069055557251,-9.501907030741371,2.0367517471313477,1.6888760309301238e+18,19.949123779296876,1.0237083236376443,3.2808554967244468,-1.6992234985033672,1.6888760309344448e+18,19.953444824218753,0.992757817109426,3.353853782018026,-1.4776830673217771,,,,,,,,,,,,1.6888760309277412e+18,19.946741064453125,-10.628639793395996,49.33191909790039,-7.33707971572876,1.6888760309277412e+18,19.946741064453125,-266.25523681640624,144.1869140625,-140.4634796142578,1.688876030925798e+18,19.944798095703124,0.6540394425392151,-0.7457204262415568,0.0055164437120159,0.123407003780206,-2.1057647864023843,1.3456830183664958,-0.8677889704704285
5.0,1.6888760309863506e+18,20.00535066731771,2.4033964474995932,1.351825714111328,-0.1413139104843139,1.6888760309777032e+18,19.996703206380207,0.7702895204226176,-8.02632506688436,2.3260230223337808,1.6888760309863506e+18,20.00535066731771,-1.7458386818567913,-9.456323623657228,1.9322344462076824,1.688876030982022e+18,20.001022216796873,0.2223549410700798,1.0900890330473585,-1.4433218638102214,1.6888760309863506e+18,20.00535066731771,0.1527672161658604,1.106786012649536,-1.4561500151952107,,,,,,,,,,,,1.6888760309777382e+18,19.996738330078124,-8.25207986831665,50.159078979492186,-4.409079933166504,1.6888760309777382e+18,19.996738330078124,-263.8786682128906,145.01407470703126,-137.5354736328125,1.6888760309777032e+18,19.996703206380207,0.6314341823259989,-0.7577976981798807,-0.0496582202613353,0.1562789926926295,-2.2898760636647544,1.335851550102234,-0.5573746562004089
5.05,1.688876031038256e+18,20.05725602213542,-1.2489742835362752,-0.1374988555908203,-0.3304877281188964,1.6888760310296005e+18,20.04860017903646,-3.486542065938314,-8.912067731221518,1.5908282995224,1.688876031038256e+18,20.05725602213542,-2.1110170682271323,-9.33250331878662,2.15889581044515,1.688876031033927e+18,20.0529267578125,-0.4258748739957809,0.6825400590896606,-0.8095491925875345,1.688876031038256e+18,20.05725602213542,-0.4871650437513987,0.3193807005882263,-0.8486445347468058,,,,,,,,,,,,1.6888760310277394e+18,20.046739501953123,-5.4411999702453615,50.749559020996095,-3.630719947814941,1.6888760310277394e+18,20.046739501953123,-261.0677917480469,145.60455932617188,-136.75711975097656,1.6888760310296005e+18,20.04860017903646,0.6067893703778585,-0.769785205523173,-0.0739125733574231,0.1835370461146036,-2.3644237518310547,1.292088508605957,-0.4073887169361114
5.1,1.6888760310815045e+18,20.100504272460935,6.050950050354004,-5.778197765350342,-4.675216197967529,1.688876031081504e+18,20.100504069010416,2.4813570777575173,-14.661821365356444,-2.2165513833363852,1.6888760310815045e+18,20.100504272460935,-2.676242470741272,-9.144150257110596,2.33462905883789,1.68887603108583e+18,20.10482999674479,-0.8626944224039713,-0.8784242471059164,-0.7057529836893082,1.6888760310815045e+18,20.100504272460935,-0.947986513376236,-1.3289373219013214,-0.9625709056854248,,,,,,,,,,,,1.6888760310777403e+18,20.09674033203125,-2.627879858016968,50.83739776611328,-5.970679855346679,1.6888760310777403e+18,20.09674033203125,-258.2544677734375,145.69239501953126,-139.09707641601562,1.688876031081504e+18,20.100504069010416,0.5847626725832621,-0.7906816601753235,-0.0498064359029133,0.1740093479553858,-2.437530120213826,1.2290271123250325,-0.3814647992451985
5.15,1.6888760311247526e+18,20.143752685546875,1.263362169265747,-8.725224812825521,-6.487069447835286,1.6888760311334075e+18,20.152407470703125,-1.7166508833567302,-17.763118743896484,-2.706083059310913,1.6888760311247526e+18,20.143752685546875,-2.5836716492970786,-9.1332155863444,2.477389097213745,1.6888760311377293e+18,20.156729085286457,0.2961169332265854,-0.3743585844834645,0.6600908041000366,1.6888760311247526e+18,20.143752685546875,-0.016035221517086,0.2615521550178528,0.4296418925126393,1.6888760311074552e+18,20.126455322265624,0.0,0.0,1.2710775136947632,11.232000350952148,1.2920573949813845,185.47560119628903,26.17883655453297,-122.7500386,49.1925336,1.6888760311277386e+18,20.146738525390624,-2.103279948234558,50.67879867553711,-7.071119785308838,1.6888760311277386e+18,20.146738525390624,-257.72987670898436,145.53379821777344,-140.1975128173828,1.6888760311334075e+18,20.152407470703125,0.5875672896703085,-0.7880876859029134,-0.0443141050636768,0.1779768268267313,-2.3934524854024253,1.2283129692077637,-0.4277257919311523
5.2,1.6888760311766548e+18,20.195654947916665,5.447140534718831,-4.691867510477702,-1.1067288319269817,1.6888760311853056e+18,20.20430558268229,3.2951162606477737,-13.538789749145508,0.9555338323116302,1.6888760311766548e+18,20.195654947916665,-1.9439186652501423,-9.370360056559244,2.1138004859288535,1.688876031180985e+18,20.19998510742187,0.7452556192874908,-0.2224313020706176,2.905122399330139,1.6888760311766548e+18,20.195654947916665,0.7256569862365723,-0.5023857752482096,2.578564008076986,,,,,,,,,,,,1.6888760311777403e+18,20.196740576171873,-6.143919944763184,50.298159790039065,-6.0585198402404785,1.6888760311777403e+18,20.196740576171873,-261.7705139160156,145.1531555175781,-139.1849151611328,1.6888760311853056e+18,20.20430558268229,0.6297448873519897,-0.7595776716868082,-0.0391340156396229,0.155715545018514,-2.2485496203104653,1.321243445078532,-0.6143700083096822
5.25,1.68887603122856e+18,20.24756013997396,-2.5746895472208657,-2.7781906127929688,0.1627663572629293,1.68887603123721e+18,20.256210286458337,-2.830709139506022,-12.831710815429688,2.874378283818563,1.68887603122856e+18,20.24756013997396,-0.0806155800819396,-9.653926531473797,1.6664392948150637,1.688876031224236e+18,20.243236165364586,0.9190976818402607,0.3386229748527209,3.815057039260864,1.68887603122856e+18,20.24756013997396,0.8674286603927612,0.2707660247882207,3.735135555267334,,,,,,,,,,,,1.688876031227737e+18,20.24673701171875,-15.413480186462404,48.44619903564453,-3.489199924468994,1.688876031227737e+18,20.24673701171875,-271.0400756835937,143.30120239257812,-136.6156005859375,1.68887603123721e+18,20.256210286458337,0.7035594383875529,-0.6924192110697428,-0.0471981080869833,0.1508627583583195,-1.326663335164388,1.4157873789469402,-1.533052961031596
5.3,1.6888760312804626e+18,20.299462565104168,-4.760388692220052,-5.206971486409505,9.07653299967448,1.6888760312804618e+18,20.29946203613281,-3.3113675117492676,-15.298212051391602,11.553444862365724,1.6888760312804626e+18,20.299462565104168,1.571484088897705,-9.542394638061523,1.5843815803527832,1.6888760312761344e+18,20.295134521484375,-0.0269289774199326,-0.7139487564563751,3.3911166191101074,1.6888760312804626e+18,20.299462565104168,-0.035022941728433,-0.9321803798278172,3.403995672861735,,,,,,,,,,,,1.6888760312777403e+18,20.296740380859376,-23.7119197845459,45.527958679199216,-2.622999930381775,1.6888760312777403e+18,20.296740380859376,-279.33851318359376,140.3829559326172,-135.74939880371093,1.6888760312804618e+18,20.29946203613281,0.7519846856594086,-0.6408021450042725,-0.0345073845237492,0.1498074904084205,-0.6795662343502045,1.3432582020759585,-2.1989035606384277
5.35,1.68887603133236e+18,20.35135986328125,-2.7937279542287192,0.4492977460225423,1.4883536497751872,1.6888760313237169e+18,20.342716878255207,0.3509472807248433,-9.339386145273844,5.418546795845032,1.68887603133236e+18,20.35135986328125,2.941813866297404,-9.160974502563477,1.8686692317326865,1.68887603132804e+18,20.347039876302084,-0.0234674091140429,-2.100511074066162,3.1966068744659424,1.68887603133236e+18,20.35135986328125,-0.0376700262228647,-1.947845657666524,3.2195653120676675,,,,,,,,,,,,1.6888760313277404e+18,20.346740380859377,-30.861119079589844,41.140838623046875,-5.548559856414795,1.6888760313277404e+18,20.346740380859377,-286.4877197265625,135.99583740234374,-138.67496032714843,1.6888760313237169e+18,20.342716878255207,0.7947651346524557,-0.5936553676923116,0.0125541264812151,0.1224705601731935,-0.5170830090840658,1.2261539697647097,-2.46662974357605
5.4,1.688876031384266e+18,20.40326603190104,-7.988001982371013,2.7765979766845703,-3.395969788233439,1.6888760313756147e+18,20.394614501953125,-3.3483564456303916,-7.321837902069092,-1.2927224238713582,1.688876031384266e+18,20.40326603190104,4.32890788714091,-8.60292943318685,1.8253732522328696,1.6888760313799373e+18,20.39893709309896,0.8336274524529775,-0.8329147696495056,3.3070717652638755,1.688876031384266e+18,20.40326603190104,0.8873326579729716,-0.9514735241731008,3.3216306368509927,,,,,,,,,,,,1.688876031377738e+18,20.396737988281252,-37.12459869384766,35.70207901000977,-6.548959827423095,1.688876031377738e+18,20.396737988281252,-292.7511962890625,130.55707702636718,-139.67536010742188,1.6888760313756147e+18,20.394614501953125,0.8416062394777933,-0.52926637729009,0.0408748363455135,0.0967140495777129,-0.3781157632668813,1.0825124581654866,-2.682131131490072
5.45,1.6888760314361638e+18,20.455163574218748,-7.830041885375977,9.757081349690756,-4.31914210319519,1.6888760314275154e+18,20.446515299479163,-3.0646076997121177,1.3441681166489918,-2.265803575515747,1.6888760314361638e+18,20.455163574218748,5.458086808522542,-7.852800687154134,2.1495423316955566,1.6888760314318408e+18,20.450840901692708,-0.0153225486477215,-2.5983661810557046,3.0411417484283447,1.6888760314361638e+18,20.455163574218748,-0.1372410655021667,-2.6164376735687256,2.9004390239715576,,,,,,,,,,,,1.688876031427738e+18,20.44673828125,-41.79719924926758,29.81923942565918,-8.505840015411376,1.688876031427738e+18,20.44673828125,-297.4237915039063,124.67423706054689,-141.63223876953126,1.6888760314275154e+18,20.446515299479163,0.8810858130455017,-0.4622696538766225,0.0792658726374307,0.0536570586264133,-0.3266910513242085,0.9387794137001038,-2.8533087571461997
5.5,1.6888760314880655e+18,20.507065673828123,-3.0817526976267495,6.454394817352295,0.416604995727539,1.688876031479412e+18,20.498411865234377,2.089731772740682,-0.5040879845619202,2.409373035033544,1.6888760314880655e+18,20.507065673828123,5.7221628824869795,-7.444831530253093,2.837327162424723,1.6888760314837445e+18,20.50274422200521,0.1195259789625803,-1.480737308661143,0.1889609893163044,1.6888760314880655e+18,20.507065673828123,0.2425644099712371,-1.3066407640775044,-0.0923424810171127,,,,,,,,,,,,1.6888760314777385e+18,20.49673857421875,-43.36123962402344,25.258879470825196,-13.751839637756348,1.6888760314777385e+18,20.49673857421875,-298.9878356933594,120.11387786865234,-146.87823791503905,1.688876031479412e+18,20.498411865234377,0.8955227136611938,-0.4224551220734914,0.1362241158882776,0.0295675688733657,-0.4177944163481394,0.8460858265558878,-2.8853073914845786
5.55,1.688876031531311e+18,20.550311157226563,0.2541313171386718,5.1173505783081055,1.1857258081436155,1.6888760315313183e+18,20.55031827799479,5.881956895192464,-2.824527661005656,3.844468275705973,1.688876031531311e+18,20.550311157226563,5.2148942947387695,-7.858735084533691,2.69203519821167,1.6888760315356403e+18,20.554640299479168,1.1569279034932454,-0.0858265683054924,-2.8117109537124634,1.688876031531311e+18,20.550311157226563,1.197295904159546,0.0676533263176679,-2.6358834505081177,,,,,,,,,,,,1.688876031527734e+18,20.54673408203125,-41.1310791015625,27.357279205322264,-15.071879768371582,1.688876031527734e+18,20.54673408203125,-296.75767211914064,122.21227722167968,-148.19827575683593,1.6888760315313183e+18,20.55031827799479,0.8779690663019816,-0.4567416807015736,0.141197939713796,0.0124411041227479,-0.4461884299914042,0.9254064957300822,-2.887747605641683
5.6,1.6888760315745646e+18,20.59356453450521,7.768208026885986,-7.920886357625324,2.3302783171335855,1.6888760315832138e+18,20.60221394856771,13.092129866282145,-22.093131224314373,5.580261786778768,1.6888760315745646e+18,20.59356453450521,4.209593931833903,-8.507842699686686,2.466824928919474,1.6888760315875402e+18,20.60654052734375,-0.2897028326988219,-1.4251995086669922,0.3088432153065999,1.6888760315745646e+18,20.59356453450521,0.2392555773258209,-0.4903211792310079,-1.2336423397064211,,,,,,,,,,,,1.6888760315777334e+18,20.59673330078125,-36.980638885498045,33.269398880004886,-14.20079975128174,1.6888760315777334e+18,20.59673330078125,-292.60723876953125,128.12439727783203,-147.327197265625,1.6888760315832138e+18,20.60221394856771,0.2799520095189412,-0.1768647829691569,0.0400391022364298,0.0026846960342178,-0.5009482602278391,1.036850889523824,-2.8489487965901694
5.65,1.688876031626466e+18,20.6454658203125,7.655109405517578,-5.958032608032227,0.796125570933024,1.688876031635121e+18,20.654121012369792,11.038888454437256,-6.424130996068318,3.213560740152994,1.688876031626466e+18,20.6454658203125,4.404248078664144,-8.172190030415853,3.1654838720957437,1.6888760316307927e+18,20.649792724609377,0.3029891699552536,-3.2233831882476807,1.0922270715236664,1.688876031626466e+18,20.6454658203125,0.0553341998408237,-3.3978870709737143,1.3619240820407867,1.688876031626466e+18,20.645466064453124,0.0,0.0,1.2710775136947632,10.782999992370604,1.2856173515319824,185.37437438964844,26.17883655453297,-122.7500414,49.1925275,1.6888760316277325e+18,20.6467326171875,-36.92939987182617,31.19783935546875,-18.63183917999267,1.6888760316277325e+18,20.6467326171875,-292.556005859375,126.05283813476562,-151.75823364257812,1.688876031635121e+18,20.654121012369792,-0.8561817010243734,0.4715441366036733,-0.2072594265143076,0.0351630418250957,-0.601326584815979,0.9656693935394288,-2.9014804363250732
5.7,1.6888760316783675e+18,20.69736783854167,-7.407584508260091,5.56748104095459,3.4664496580759683,1.6888760316870175e+18,20.70601765950521,-5.835496266682942,-5.619743347167969,7.869196097056071,1.6888760316783675e+18,20.69736783854167,3.8150906562805176,-8.362305323282877,3.3990493615468345,1.688876031674045e+18,20.693044677734378,-0.0273871132715916,-0.5821545670429865,-2.285195976495743,1.6888760316783675e+18,20.69736783854167,-0.169718732436498,-0.3533346205949783,-2.576629559199015,,,,,,,,,,,,1.6888760316777324e+18,20.69673251953125,-34.16243896484375,32.88875846862793,-21.9648796081543,1.6888760316777324e+18,20.69673251953125,-289.78904418945314,127.74375762939454,-155.09127807617188,1.6888760316870175e+18,20.70601765950521,-0.8319283723831177,0.5020491182804108,-0.2308363219102223,0.0427614040672778,-0.7249059677124023,1.0254274606704712,-2.8213392893473306
5.75,1.6888760317302692e+18,20.74926912434896,-6.482824802398682,0.1255011558532714,2.0595335960388184,1.6888760317302712e+18,20.74927111816406,-2.3506491780281067,-8.386843204498291,4.395316123962402,1.6888760317302692e+18,20.74926912434896,2.962713638941447,-8.753229459126791,3.2879188855489097,1.6888760317259438e+18,20.74494384765625,0.2101376404364903,2.270891547203064,-1.4178691506385803,1.6888760317302692e+18,20.74926912434896,0.2677116890748341,2.4998642206192017,-1.3356059789657593,,,,,,,,,,,,1.688876031727733e+18,20.746732910156247,-31.637039184570312,36.19252014160156,-20.85223960876465,1.688876031727733e+18,20.746732910156247,-287.2636413574219,131.04751892089843,-153.9786346435547,1.6888760317302712e+18,20.74927111816406,-0.8136072158813477,0.5422659814357758,-0.2089152336120605,0.0128801779355853,-0.7876804769039154,1.0928323864936829,-2.6782227754592896
5.8,1.6888760317821724e+18,20.801172444661457,-1.218966801961263,-4.516464869181315,-0.3291682799657185,1.688876031773524e+18,20.792524088541665,2.224726756413778,-14.329617500305176,3.470789233843486,1.6888760317821724e+18,20.801172444661457,2.066953420639038,-9.18245283762614,2.7101190090179443,1.688876031777853e+18,20.79685262044271,0.6319400916496912,2.732807477315267,-3.950872818628947,1.6888760317821724e+18,20.801172444661457,0.6479753057161967,2.850755373636882,-4.2204679648081465,,,,,,,,,,,,1.6888760317777344e+18,20.79673442382812,-29.416639709472655,39.701239013671874,-15.984439659118651,1.6888760317777344e+18,20.79673442382812,-285.0432373046875,134.55623779296874,-149.1108367919922,1.688876031773524e+18,20.792524088541665,0.7931268811225891,-0.5871860186258951,0.1567215373118718,0.0217937969913084,-0.8209605614344279,1.1817148526509602,-2.515693108240763
5.85,1.6888760318340751e+18,20.853075032552084,-9.990100224812826,0.7354016304016113,-4.207335948944092,1.688876031825424e+18,20.84442390950521,-8.204191525777182,-8.332606156667074,-1.7399808963139851,1.6888760318340751e+18,20.853075032552084,0.688530812660853,-9.497726122538248,2.350198984146118,1.688876031829751e+18,20.84875113932292,-0.2729040533304214,4.431623776753743,-2.924721042315165,1.6888760318340751e+18,20.853075032552084,-0.313373863697052,4.1480294068654375,-2.596737345059713,,,,,,,,,,,,1.6888760318277332e+18,20.8467333984375,-22.694439697265626,45.000919342041016,-10.435879707336426,1.6888760318277332e+18,20.8467333984375,-278.32102661132814,139.85591735839844,-143.5622772216797,1.688876031825424e+18,20.84442390950521,0.736073911190033,-0.6659181515375773,0.0677083221574623,0.0928324063618977,-1.1475248734156291,1.3203107515970869,-1.9582929213841755
5.9,1.6888760318859756e+18,20.90497566731771,2.023458957672119,1.2127612431844077,-4.7212605476379395,1.6888760318773276e+18,20.896327473958333,-1.326620618502299,-8.36151917775472,-2.711068073908488,1.6888760318859756e+18,20.90497566731771,-0.1433682839075724,-9.547568003336588,2.2140734990437827,1.6888760318816535e+18,20.900653645833337,0.340760995944341,-1.4044810036818187,-1.9686150550842283,1.6888760318859756e+18,20.90497566731771,0.3667736848195393,-1.5829554597536724,-2.125607411066691,,,,,,,,,,,,1.688876031877737e+18,20.89673701171875,-19.405319213867188,46.62351989746094,-8.42043981552124,1.688876031877737e+18,20.89673701171875,-275.03191528320315,141.478515625,-141.54683837890624,1.6888760318773276e+18,20.896327473958333,0.7047872940699259,-0.6981595555941263,0.032247599835197,0.1200499534606933,-1.4706861178080242,1.352750579516093,-1.5458896160125732
5.95,1.6888760319378842e+18,20.956884033203124,3.009418765703837,1.612761656443278,-1.1640151739120483,1.6888760319292342e+18,20.94823388671875,3.377867956956228,-8.985447724660238,0.3589233954747517,1.6888760319378842e+18,20.956884033203124,-1.3989193439483645,-9.510479927062988,1.9427716732025144,1.688876031933558e+18,20.952558024088543,0.9999863902727762,2.764216184616089,-2.681596597035726,1.6888760319378842e+18,20.956884033203124,1.0750719110171,3.1901928186416626,-2.5830437342325845,,,,,,,,,,,,1.6888760319277343e+18,20.946734521484373,-11.912079811096191,48.948838806152345,-8.025160121917725,1.6888760319277343e+18,20.946734521484373,-267.538671875,143.8038360595703,-141.15155334472655,1.6888760319292342e+18,20.94823388671875,0.6571570038795471,-0.7448299328486124,0.0159870898351073,0.1103822241226831,-2.1054592529932656,1.3500885566075642,-0.9016581376393636
6.0,1.6888760319811343e+18,21.000134277343747,-0.9749262928962708,3.2687995433807373,1.393418371677399,1.6888760319811356e+18,21.000135416666662,-2.4153550465901694,-6.348956108093262,3.084946552912394,1.6888760319811343e+18,21.000134277343747,-2.013479769229889,-9.442688465118408,1.7300052642822266,1.6888760319854623e+18,21.00446240234375,0.6369288388329247,1.2430089314778645,-1.8952603340148928,1.6888760319811343e+18,21.000134277343747,0.8306240141391754,1.9094883501529696,-1.9890536069869995,,,,,,,,,,,,1.6888760319777408e+18,20.996740625,-7.59327974319458,50.26399917602539,-3.63071985244751,1.6888760319777408e+18,20.996740625,-263.219873046875,145.118994140625,-136.75711669921876,1.6888760319811356e+18,21.000135416666662,0.6157315174738566,-0.7700692216555277,-0.0640712603926658,0.153089016675949,-2.4573281606038413,1.317139744758606,-0.3733670214811961
6.05,1.6888760320243914e+18,21.043391276041664,5.727632443110148,0.3014752070109049,0.448008934656779,1.6888760320330417e+18,21.052041748046875,3.207379380861918,-9.519845008850098,1.3513465722401936,1.6888760320243914e+18,21.043391276041664,-2.600881020228068,-9.292713165283203,1.7594620784123738,1.6888760320373678e+18,21.056368001302083,-0.6726135412851969,0.680911103884379,-0.999070127805074,1.6888760320243914e+18,21.043391276041664,-0.5094616065422694,-0.0218892991542816,-1.1107057332992554,,,,,,,,,,,,1.6888760320277394e+18,21.046739453125,-3.2793599128723145,50.79835891723633,-3.503839921951294,1.6888760320277394e+18,21.046739453125,-258.90595703125,145.65335693359376,-136.63023681640624,1.6888760320330417e+18,21.052041748046875,0.5882149338722229,-0.7909804582595825,-0.0660601680477459,0.1544932524363199,-2.5723930199941,1.256626844406128,-0.2520379324754079
6.1,1.6888760320762952e+18,21.095295247395836,2.7585813999176025,-5.329947789510091,-5.149618784586589,1.6888760320849398e+18,21.103939697265627,-0.3140579809745152,-15.405390739440918,-3.604787230491638,1.6888760320762952e+18,21.095295247395836,-2.9562583764394126,-9.098979949951172,2.1652628580729165,1.68887603208062e+18,21.0996201171875,-0.5523748844861984,0.2226603776216506,-0.882700264453888,1.6888760320762952e+18,21.095295247395836,-0.5957463284333547,0.5288566052913665,-0.8927795886993408,,,,,,,,,,,,1.6888760320777388e+18,21.096738818359377,-0.97843998670578,50.66903915405273,-4.792159843444824,1.6888760320777388e+18,21.096738818359377,-256.60503845214845,145.52403564453124,-137.9185577392578,1.6888760320849398e+18,21.103939697265627,0.5662373105684916,-0.8018686374028524,-0.069658912718296,0.1774951964616775,-2.5336875915527344,1.2022355397542317,-0.2504497418800989
6.15,1.688876032128195e+18,21.147195393880207,0.7816828886667887,-9.184576034545898,-5.07042932510376,1.6888760321368456e+18,21.155845703125,-2.0333010156949363,-18.354943593343098,-1.612762490908305,1.688876032128195e+18,21.147195393880207,-2.983946959177653,-9.07326634724935,2.2362231413523355,1.6888760321238671e+18,21.14286726888021,0.1728748679161071,0.1473203301429748,0.1592322078843911,1.688876032128195e+18,21.147195393880207,0.2523382554451625,-0.0176133016745249,0.2617048484583695,1.688876032145499e+18,21.16449877929687,0.0,0.0,1.2585713863372805,10.501999855041504,1.3043859004974363,185.22230529785156,26.14092159482759,-122.7500451,49.1925208,1.6888760321277404e+18,21.1467404296875,-0.2781599909067154,50.568999481201175,-5.616879844665528,1.6888760321277404e+18,21.1467404296875,-255.90475463867188,145.4239990234375,-138.74327697753907,1.6888760321368456e+18,21.155845703125,0.5678011377652487,-0.7998795708020529,-0.0735914160807927,0.1797399719556172,-2.5297694206237793,1.2078734636306765,-0.2455086410045623
6.2,1.6888760321800955e+18,21.199095784505207,5.008894761403401,-5.848755836486816,-0.4339864253997803,1.6888760321800973e+18,21.199097290039063,3.727718591690063,-15.197115898132324,1.2987045049667358,1.6888760321800955e+18,21.199095784505207,-2.254027803738912,-9.356841723124186,1.8466415007909136,1.688876032175773e+18,21.194773193359374,0.6270022789637247,-0.4695517619450887,2.5217026472091675,1.6888760321800955e+18,21.199095784505207,0.6522513628005981,-0.2253583967685699,2.748537302017212,,,,,,,,,,,,1.6888760321777403e+18,21.196740234375,-3.096360003948212,50.55923919677734,-4.457879877090454,1.6888760321777403e+18,21.196740234375,-258.72295532226565,145.41423950195312,-137.5842742919922,1.6888760321800973e+18,21.199097290039063,0.60259610414505,-0.7788977324962616,-0.0665383040904998,0.1599291563034057,-2.4882254600524902,1.2874213457107544,-0.3283993899822235
6.25,1.6888760322319987e+18,21.250998860677083,-0.9486091136932372,-3.4806833267211914,1.937710444132487,1.6888760322233454e+18,21.242345377604167,-0.5264209806919098,-12.720444679260254,3.005385239919027,1.6888760322319987e+18,21.250998860677083,-0.3623285790284474,-9.669280370076498,1.521007418632507,1.6888760322276754e+18,21.246675455729164,0.8139779369036356,1.1506156126658122,3.807573954264323,1.6888760322319987e+18,21.250998860677083,0.8487972418467203,1.1617639064788818,3.793116887410482,,,,,,,,,,,,1.6888760322277396e+18,21.246739697265625,-11.68515968322754,49.33923950195312,-2.6522799491882325,1.6888760322277396e+18,21.246739697265625,-267.31174926757814,144.19424133300782,-135.77867736816407,1.6888760322233454e+18,21.242345377604167,0.6636595328648885,-0.7234223484992981,-0.0786523049076398,0.1708810826142628,-1.9126895666122437,1.407884995142619,-0.8729298909505209
6.3,1.688876032283902e+18,21.302902099609373,-7.480649312337239,-5.976253191630046,7.424909273783366,1.688876032275248e+18,21.294247721354168,-4.370889345804851,-15.319648424784342,7.621738274892171,1.688876032283902e+18,21.302902099609373,1.4753921627998352,-9.614389737447103,1.19074018796285,1.6888760322795745e+18,21.29857421875,0.4120286007722218,-0.2396118839581807,3.548719803492228,1.688876032283902e+18,21.302902099609373,0.2712750931580861,-0.7691302647193273,3.411071538925171,,,,,,,,,,,,1.6888760322777354e+18,21.296735400390624,-22.111279296875,46.43075790405273,0.1024799853563308,1.6888760322777354e+18,21.296735400390624,-277.7378723144531,141.28575439453124,-133.02391662597657,1.688876032275248e+18,21.294247721354168,0.7304779092470804,-0.6514967878659567,-0.092023767530918,0.1811223179101943,-0.6960567732652029,1.3982340494791667,-2.055274804433187
6.35,1.6888760323357965e+18,21.354796549479165,-0.553870677947998,-3.381720542907715,0.3640586137771606,1.6888760323271496e+18,21.3461494140625,2.3427726427714037,-13.752747853597006,4.0323048035303755,1.6888760323357965e+18,21.354796549479165,2.63555645942688,-9.31779416402181,1.492265701293945,1.6888760323314798e+18,21.35047957356771,0.2056070615847904,-2.5728625059127808,2.9724193016688027,1.6888760323357965e+18,21.354796549479165,0.293775275349617,-2.182112455368042,3.1582751671473184,,,,,,,,,,,,1.6888760323277396e+18,21.346739550781248,-29.96319923400879,42.41695938110352,-3.025599956512451,1.6888760323277396e+18,21.346739550781248,-285.58978881835935,137.27196044921874,-136.1519989013672,1.6888760323271496e+18,21.3461494140625,0.78036896387736,-0.60789555311203,-0.0249157551055152,0.1411100775003433,-0.4811983009179433,1.2750092347462971,-2.422433296839396
6.4,1.6888760323877056e+18,21.40670548502604,-7.108676751454671,4.210106531778972,-1.828407645225525,1.688876032379055e+18,21.39805525716146,-3.0530423323313394,-5.780461311340332,-0.4177469462156296,1.6888760323877056e+18,21.40670548502604,4.34589409828186,-8.689079284667969,1.29649555683136,1.6888760323833818e+18,21.4023818359375,0.7583383123079935,-0.8700757076342901,3.6568429470062256,1.6888760323877056e+18,21.40670548502604,0.776511530081431,-1.0570514102776845,3.5486179987589517,,,,,,,,,,,,1.6888760323777436e+18,21.396743554687497,-37.224639129638675,36.468238830566406,-2.803559970855713,1.6888760323777436e+18,21.396743554687497,-292.8512390136719,131.32323608398437,-135.9299530029297,1.688876032379055e+18,21.39805525716146,0.8369728724161783,-0.5327944358189901,-0.0079348742777559,0.1219003796577453,-0.2681320259968439,1.106724699338277,-2.684555451075236
6.45,1.6888760324309504e+18,21.4499501953125,-11.91509246826172,9.611158847808838,-2.4125473499298096,1.6888760324309563e+18,21.449956217447916,-5.477769374847412,1.2540384531021118,-0.9409775137901306,1.6888760324309504e+18,21.4499501953125,5.302457809448242,-8.120238542556763,1.456507444381714,1.6888760324352758e+18,21.454275634765622,0.26399560769399,-2.877786159515381,3.0088676611582437,1.6888760324309504e+18,21.4499501953125,0.4483750835061073,-2.800282597541809,3.034549355506897,,,,,,,,,,,,1.6888760324277407e+18,21.446740917968743,-42.460879516601565,30.863559341430665,-4.84095983505249,1.6888760324277407e+18,21.446740917968743,-298.0874755859375,125.71855773925782,-137.9673583984375,1.6888760324309563e+18,21.449956217447916,0.8776200811068217,-0.4703675905863444,0.0343842972069978,0.080378621816635,-0.2407700469096501,0.962985078493754,-2.832899332046509
6.5,1.6888760324742085e+18,21.493208089192706,-5.901785135269165,8.702086925506592,0.0148239930470784,1.6888760324828603e+18,21.50186027018229,0.972482979297638,0.3702893356482187,3.31027082602183,1.6888760324742085e+18,21.493208089192706,5.8825728098551435,-7.479561646779378,2.3579511642456055,1.688876032487183e+18,21.506182779947917,-0.3543018475174904,-2.3992751042048135,0.9204721252123514,1.6888760324742085e+18,21.493208089192706,-0.4908811350663503,-2.837672710418701,1.796554704507192,,,,,,,,,,,,1.6888760324777403e+18,21.49674072265625,-45.03751907348633,25.607799530029297,-11.070279693603515,1.6888760324777403e+18,21.49674072265625,-300.6641052246094,120.46279907226562,-144.1966796875,1.6888760324828603e+18,21.50186027018229,0.8979729016621908,-0.4220873812834422,0.1121756980816523,0.0502474767466385,-0.3754145900408427,0.8435771862665812,-2.8600359757741294
6.55,1.6888760325261115e+18,21.54511173502604,-0.1279184023539225,2.6877614657084146,0.3544192314147949,1.6888760325347607e+18,21.553760986328125,7.062615315119426,-6.047659794489543,3.1104700565338135,1.6888760325261115e+18,21.54511173502604,5.553374608357747,-7.518878142038981,2.964916706085205,1.6888760325304325e+18,21.549432495117188,0.4905247837305069,-1.1297188997268677,-1.6274977326393127,1.6888760325261115e+18,21.54511173502604,0.4451680580774943,-1.2333878477414448,-1.4051428039868672,,,,,,,,,,,,1.6888760325277417e+18,21.546741796875,-43.52227935791016,25.707839584350587,-15.476919746398924,1.6888760325277417e+18,21.546741796875,-299.148876953125,120.5628387451172,-148.6033172607422,1.6888760325347607e+18,21.553760986328125,0.8849717179934183,-0.4398381114006042,0.1485173006852467,0.0325993181516726,-0.4741161068280538,0.8772367835044861,-2.841965357462565
6.6,1.688876032578012e+18,21.59701171875,8.283710797627768,-7.823046684265137,3.327056884765625,1.6888760325866637e+18,21.60566357421875,13.808181762695312,-18.799011548360188,6.963113943735759,1.688876032578012e+18,21.59701171875,4.848229726155599,-7.983349323272705,2.9960691134134927,1.688876032573688e+18,21.592688232421875,0.2625702420870463,-0.9728029171625772,-0.8537859916687012,1.688876032578012e+18,21.59701171875,0.1040507058302561,-1.1434888641039531,-0.5192354321479796,,,,,,,,,,,,1.6888760325777382e+18,21.596738427734373,-39.872039031982425,29.523999404907222,-16.743279647827148,1.6888760325777382e+18,21.596738427734373,-295.4986328125,124.37899780273438,-149.8696746826172,1.6888760325866637e+18,21.60566357421875,0.8685122132301331,-0.4668193658192952,0.1651990811030069,0.016307462627689,-0.5352239012718201,0.9367834329605104,-2.828512668609619
