seconds_elapsed_rounded,accelerometer_time,accelerometer_seconds_elapsed,accelerometer_z,accelerometer_y,accelerometer_x,accelerometeruncalibrated_time,accelerometeruncalibrated_seconds_elapsed,accelerometeruncalibrated_z,accelerometeruncalibrated_y,accelerometeruncalibrated_x,gravity_time,gravity_seconds_elapsed,gravity_z,gravity_y,gravity_x,gyroscope_time,gyroscope_seconds_elapsed,gyroscope_z,gyroscope_y,gyroscope_x,gyroscopeuncalibrated_time,gyroscopeuncalibrated_seconds_elapsed,gyroscopeuncalibrated_z,gyroscopeuncalibrated_y,gyroscopeuncalibrated_x,location_time,location_seconds_elapsed,location_bearingAccuracy,location_speedAccuracy,location_verticalAccuracy,location_horizontalAccuracy,location_speed,location_bearing,location_altitude,location_longitude,location_latitude,magnetometer_time,magnetometer_seconds_elapsed,magnetometer_z,magnetometer_y,magnetometer_x,magnetometeruncalibrated_time,magnetometeruncalibrated_seconds_elapsed,magnetometeruncalibrated_z,magnetometeruncalibrated_y,magnetometeruncalibrated_x,orientation_time,orientation_seconds_elapsed,orientation_qz,orientation_qy,orientation_qx,orientation_qw,orientation_roll,orientation_pitch,orientation_yaw
0.0,1.6888756926642122e+18,14.994212239583334,-5.2839845816294355,3.3382792472839355,0.7237993081410726,1.6888756926642122e+18,14.994212239583334,-2.9246274630228677,-5.672784248987834,-2.2953151067097983,1.6888756926642122e+18,14.994212239583334,2.3365556796391806,-8.995318412780762,-3.0838278929392495,1.6888756926642122e+18,14.994212239583334,0.0504472802082697,4.906062602996826,-2.320931593577067,1.6888756926642122e+18,14.994212239583334,0.0494800756374994,4.910593032836914,-2.318793535232544,,,,,,,,,,,,1.6888756926659863e+18,14.995986279296876,-10.560319709777833,46.46491928100586,-0.2976799726486206,1.6888756926659863e+18,14.995986279296876,-265.9551147460937,141.6981201171875,-133.65587768554687,1.6888756926642122e+18,14.994212239583334,-0.3919436037540436,0.4570090770721435,-0.4176944990952809,0.679129163424174,0.9091295997301736,1.185183882713318,0.4080838660399119
0.05,1.688875692716112e+18,15.04611181640625,-4.325177898009618,-3.0129531224568686,-5.251650174458821,1.688875692716112e+18,15.04611181640625,-3.804189185301462,-12.439088503519692,-7.860621770222981,1.688875692716112e+18,15.04611181640625,0.4981872774660587,-9.41039021809896,-2.6736852327982583,1.688875692716112e+18,15.04611181640625,-2.2343414227167764,3.3338988622029624,-2.334523359934489,1.688875692716112e+18,15.04611181640625,-2.235257705052694,3.338327646255493,-2.332385222117106,,,,,,,,,,,,1.6888756927159877e+18,15.045987353515624,-5.111799907684326,47.1676383972168,-1.4835199981927871,1.6888756927159877e+18,15.045987353515624,-260.5065979003906,142.40083923339844,-134.8417175292969,1.688875692716112e+18,15.04611181640625,-0.4341630538304646,0.5387539466222128,-0.4308470288912455,0.578311542669932,1.402530272801717,1.3124114672342937,0.1315830680541694
0.1,1.688875692768011e+18,15.098011067708336,1.1668686668078103,2.9938538869222007,-2.929165522257487,1.688875692768011e+18,15.098011067708336,0.2279163201649983,-6.529614130655925,-5.054239590962728,1.688875692768011e+18,15.098011067708336,-0.9617537856101988,-9.507722854614258,-2.18978746732076,1.688875692768011e+18,15.098011067708336,0.0225002045432726,2.3793201049168906,-2.1282036304473877,1.688875692768011e+18,15.098011067708336,0.0215839023391405,2.383748928705851,-2.1260655721028647,,,,,,,,,,,,1.6888756927659863e+18,15.095986376953125,0.0073200196027755,47.02611846923829,-4.091879892349243,1.6888756927659863e+18,15.095986376953125,-255.38747863769532,142.2593200683594,-137.4500762939453,1.688875692768011e+18,15.098011067708336,-0.453618049621582,0.598967989285787,-0.4358425140380859,0.4950246810913086,2.0219024419784546,1.3467050790786743,-0.3284998536109924
0.15,1.6888756928199089e+18,15.149908854166666,4.418661594390869,2.478233973185221,1.8996206521987915,1.6888756928199089e+18,15.149908854166666,2.648056983947754,-6.894918441772461,-0.3704887159789602,1.6888756928199089e+18,15.149908854166666,-1.7934062083562214,-9.357407251993816,-2.3348228931427,1.6888756928199089e+18,15.149908854166666,0.6163630286852518,2.080657958984375,-0.4456261992454529,1.6888756928199089e+18,15.149908854166666,0.6154467264811198,2.0850866635640464,-0.4434881707032521,,,,,,,,,,,,1.6888756928159882e+18,15.1459880859375,4.1333598613739015,47.375038146972656,-3.2476399421691893,1.6888756928159882e+18,15.1459880859375,-251.26143798828124,142.6082336425781,-136.6058380126953,1.6888756928199089e+18,15.149908854166666,-0.4495613773663838,0.6449428796768188,-0.4173240959644317,0.4555600384871165,2.275101979573568,1.2883021831512451,-0.4799440304438273
0.2,1.688875692871808e+18,15.20180802408854,-0.4260220527648926,3.644917647043864,-1.301282008488973,1.688875692871808e+18,15.20180802408854,-2.318046967188517,-5.732405503590901,-3.456232945124308,1.688875692871808e+18,15.20180802408854,-1.9148263931274416,-9.361577987670898,-2.2196644147237143,1.688875692871808e+18,15.20180802408854,-0.1430442792673906,1.5392276644706726,0.2049452935655911,1.688875692871808e+18,15.20180802408854,-0.1439605777462323,1.5437073707580566,0.207083319624265,,,,,,,,,,,,1.688875692865986e+18,15.195986181640626,3.03779993057251,47.177399444580075,-2.8401599407196043,1.688875692865986e+18,15.195986181640626,-252.35699462890625,142.4105987548828,-136.19835815429687,1.688875692871808e+18,15.20180802408854,-0.4724419116973877,0.666485071182251,-0.3884307543436686,0.4261804223060608,2.3286448319753013,1.2902967532475789,-0.4288232823212941
0.25,1.6888756929237135e+18,15.253713541666668,3.404911835988363,-1.0331522623697915,-2.8485331535339355,1.6888756929237135e+18,15.253713541666668,1.168495073914528,-10.399406750996908,-4.69471804300944,1.6888756929237135e+18,15.253713541666668,-2.259218215942383,-9.35050932566325,-1.9108983675638835,1.6888756929237135e+18,15.253713541666668,-0.3576616048812866,2.133599559466044,-0.8598946233590444,1.6888756929237135e+18,15.253713541666668,-0.3585779070854187,2.138028383255005,-0.8577566047509512,,,,,,,,,,,,1.6888756929159905e+18,15.245990283203124,3.423319911956787,47.02123870849609,-3.3549999237060546,1.6888756929159905e+18,15.245990283203124,-251.97147521972656,142.2544372558594,-136.71319580078125,1.6888756929237135e+18,15.253713541666668,-0.4843318164348602,0.6843370596567789,-0.3784674108028412,0.3918434878190358,2.490499178568522,1.2859105269114175,-0.5144283870855967
0.3,1.6888756929756155e+18,15.305615559895834,0.4738675753275553,-0.4783064524332681,-6.519509156545003,1.6888756929756155e+18,15.305615559895834,-2.1896320482095084,-9.802796363830566,-7.9900336265563965,1.6888756929756155e+18,15.305615559895834,-2.686301072438558,-9.308744748433432,-1.5352379083633425,1.6888756929756155e+18,15.305615559895834,-0.2583450948198636,0.9903143843015036,0.2167044480641683,1.6888756929756155e+18,15.305615559895834,-0.2593123018741607,0.9947940309842428,0.2188424666722616,,,,,,,,,,,,1.6888756929659922e+18,15.295992333984376,4.355399799346924,46.452719116210936,-4.37003984451294,1.6888756929659922e+18,15.295992333984376,-251.03939208984377,141.6859161376953,-137.72823791503907,1.6888756929756155e+18,15.305615559895834,-0.4979020158449809,0.7084470788637797,-0.3607764939467112,0.3463911314805348,2.6795174280802407,1.2712040344874065,-0.5983561078707377
0.35,1.6888756930275103e+18,15.357510335286458,1.054334322611491,-1.3991212844848633,-9.9879519144694,1.6888756930275103e+18,15.357510335286458,-1.270987610022227,-10.732806523640951,-11.881760279337565,1.6888756930275103e+18,15.357510335286458,-2.34812339146932,-9.31794007619222,-1.9585222403208415,1.6888756930275103e+18,15.357510335286458,1.2249375383059184,-1.1088222066561382,0.5655594070752462,1.6888756930275103e+18,15.357510335286458,1.2240212361017864,-1.1043425500392914,0.5676974455515543,1.6888756930275046e+18,15.357504638671877,0.0,0.0,1.009886384010315,19.142000198364254,0.1052199751138687,90.11138153076172,41.0,-122.7529786,49.1905208,1.6888756930159908e+18,15.345990771484376,4.326119899749756,46.52104034423828,-3.594119930267334,1.6888756930159908e+18,15.345990771484376,-251.0686767578125,141.75423889160157,-136.9523162841797,1.6888756930275103e+18,15.357510335286458,-0.4959993362426758,0.7008891701698303,-0.3516725401083628,0.3726885914802551,2.496805985768636,1.2775518496831255,-0.4436914424101512
0.4,1.6888756930707628e+18,15.4007626953125,2.7638494968414307,-4.390006065368652,-1.1386044025421145,1.6888756930707628e+18,15.4007626953125,1.2921242415905,-13.685749530792236,-3.862614035606384,1.6888756930707628e+18,15.4007626953125,-1.494526743888855,-9.27999830245972,-2.788723111152649,1.6888756930707628e+18,15.4007626953125,1.6933948397636414,-3.000875473022461,2.2666155099868774,1.6888756930707628e+18,15.4007626953125,1.69232577085495,-2.99644672870636,2.2687535285949707,,,,,,,,,,,,1.6888756930659912e+18,15.39599111328125,1.1321599721908568,46.45515899658203,-0.3489199995994567,1.6888756930659912e+18,15.39599111328125,-254.26263427734375,141.6883544921875,-133.70711669921874,1.6888756930707628e+18,15.4007626953125,-0.4870423674583435,0.6757150888442993,-0.3402985036373138,0.435975894331932,2.0847166776657104,1.268937110900879,-0.1204464798793196
0.45,1.6888756931140116e+18,15.444011555989585,-3.4627950191497803,-8.59182325998942,-0.4901114304860433,1.6888756931140116e+18,15.444011555989585,-3.693122386932373,-17.769699096679688,-3.89152717590332,1.6888756931140116e+18,15.444011555989585,-0.2531287173430125,-9.1621306737264,-3.466129223505656,1.6888756931140116e+18,15.444011555989585,1.3120876550674438,-2.400547742843628,2.3882285753885903,1.6888756931140116e+18,15.444011555989585,1.311171332995097,-2.3960679372151694,2.3903156916300454,,,,,,,,,,,,1.6888756931159918e+18,15.445991845703125,-4.345639896392822,46.159918212890624,2.988999938964844,1.6888756931159918e+18,15.445991845703125,-259.7404296875,141.393115234375,-130.36919860839845,1.6888756931140116e+18,15.444011555989585,-0.4884509046872456,0.6385307510693868,-0.319607804218928,0.5008772810300192,1.6383464336395264,1.23403795560201,0.2446146830916404
0.5,1.6888756931659098e+18,15.49590974934896,-3.1131322582562766,-10.7218599319458,2.602555751800537,1.6888756931659098e+18,15.49590974934896,-1.5680964787801106,-19.684555689493816,-1.0301101406415305,1.6888756931659098e+18,15.49590974934896,1.5222343405087788,-8.946950594584147,-3.697379350662231,1.6888756931659098e+18,15.49590974934896,0.2615012228488921,-2.857118527094523,2.4947226842244468,1.6888756931659098e+18,15.49590974934896,0.2605849243700504,-2.8526388804117837,2.496860782305399,,,,,,,,,,,,1.6888756931659935e+18,15.495993798828124,-11.040999794006348,44.791079711914065,3.8039599418640138,1.6888756931659935e+18,15.495993798828124,-266.435791015625,140.02427978515624,-129.55423583984376,1.6888756931659098e+18,15.49590974934896,-0.5022656818230947,0.5733774105707804,-0.3025543292363484,0.5716135501861572,1.1498292684555054,1.1728363831837971,0.6268539428710938
0.55,1.688875693217808e+18,15.547807942708332,-2.525530417760214,-0.8263432184855143,0.616320013999939,1.688875693217808e+18,15.547807942708332,0.4566303491592407,-9.548758188883465,-2.7070800065994263,1.688875693217808e+18,15.547807942708332,2.9593592484792075,-8.706669807434082,-3.388113498687744,1.688875693217808e+18,15.547807942708332,0.9361001054445902,-4.716846942901611,1.459153433640798,1.688875693217808e+18,15.547807942708332,0.93513290087382,-4.712418079376221,1.461291491985321,,,,,,,,,,,,1.6888756932159923e+18,15.545992333984373,-14.737599754333496,44.0956787109375,1.742159914970398,1.6888756932159923e+18,15.545992333984373,-270.13239135742185,139.32887573242186,-131.6160400390625,1.688875693217808e+18,15.547807942708332,-0.479428877433141,0.4912308255831401,-0.328689177831014,0.6477118929227194,0.8219113945960999,1.1148759126663208,0.742791493733724
0.6,1.6888756932697096e+18,15.599709635416668,-7.245797793070476,5.814550558725993,1.3308040301005046,1.6888756932697096e+18,15.599709635416668,-2.892922560373942,-2.432503581047058,-1.7024933497111003,1.6888756932697096e+18,15.599709635416668,4.330073753992717,-8.231308937072754,-3.098010857899984,1.6888756932697096e+18,15.599709635416668,0.9372709194819132,-3.922060251235962,1.5490524371465046,1.6888756932697096e+18,15.599709635416668,0.936303714911143,-3.9176315466562905,1.5511904954910278,,,,,,,,,,,,1.6888756932659942e+18,15.595994091796875,-18.37319984436035,42.81223907470703,0.4221199803054333,1.6888756932659942e+18,15.595994091796875,-273.76799926757815,138.04543762207032,-132.9360778808594,1.6888756932697096e+18,15.599709635416668,-0.4421772162119547,0.4094642003377278,-0.3378354807694753,0.7223673860232035,0.5928306579589844,1.017780840396881,0.7604696154594421
0.65,1.6888756933216072e+18,15.651607096354168,-7.599794387817383,10.148903210957846,2.20635978380839,1.6888756933216072e+18,15.651607096354168,-2.2681964635849,2.235893408457438,-0.0929212768872578,1.6888756933216072e+18,15.651607096354168,5.308796564737956,-7.897264798482259,-2.363994598388672,1.6888756933216072e+18,15.651607096354168,-0.0937169045209884,-3.217529058456421,0.7269805359343687,1.6888756933216072e+18,15.651607096354168,-0.0946332067251205,-3.213049332300822,0.7291185582677523,,,,,,,,,,,,1.688875693315988e+18,15.64598779296875,-21.19627914428711,41.59955978393555,-1.9861599445343017,1.688875693315988e+18,15.64598779296875,-276.59107666015626,136.83275756835937,-135.3443603515625,1.6888756933216072e+18,15.651607096354168,-0.4146378437678019,0.3314253389835357,-0.3520484964052836,0.7705731789271036,0.3905933598677317,0.9574560523033142,0.7824663321177164
0.7,1.6888756933734991e+18,15.703498942057289,-3.625151872634888,6.616338888804118,5.3467427889506025,1.6888756933734991e+18,15.703498942057289,1.7114664514859517,-1.4333007310827572,3.561317761739095,1.6888756933734991e+18,15.703498942057289,5.313816865285237,-8.033894220987955,-1.850138545036316,1.6888756933734991e+18,15.703498942057289,0.6573419074217478,-0.7736099163691202,-1.2939143975575764,1.6888756933734991e+18,15.703498942057289,0.6563747227191925,-0.7691811422506968,-1.2917763789494832,,,,,,,,,,,,1.6888756933659942e+18,15.695994189453126,-20.12267951965332,41.94359893798829,-4.726279830932617,1.6888756933659942e+18,15.695994189453126,-275.51746826171876,137.1768005371094,-138.0844757080078,1.6888756933734991e+18,15.703498942057289,-0.3907686670621236,0.2981840074062347,-0.382121205329895,0.782446026802063,0.3075061937173207,0.9810484250386556,0.7609593868255615
0.75,1.688875693425405e+18,15.755404703776042,3.891803582509359,4.295401891072591,2.043726126352946,1.688875693425405e+18,15.755404703776042,8.159724871317545,-4.198007901509603,-0.357527603705724,1.688875693425405e+18,15.755404703776042,4.2451198895772295,-8.477664629618326,-2.4659671783447266,1.688875693425405e+18,15.755404703776042,1.1317805647850037,1.5093462069829304,-3.0138563315073648,1.688875693425405e+18,15.755404703776042,1.130813399950663,1.5137749910354614,-3.0117692152659097,,,,,,,,,,,,1.688875693415996e+18,15.745995947265625,-16.064959907531737,43.55156021118164,-2.6132399082183837,1.688875693415996e+18,15.745995947265625,-271.4597473144531,138.78475646972657,-135.971435546875,1.688875693425405e+18,15.755404703776042,-0.3576203286647796,0.3451727628707886,-0.4123949110507965,0.7630236546198527,0.5082132319609324,1.067695140838623,0.5694871445496877
0.8,1.6888756934773036e+18,15.807303548177083,11.042500813802084,-17.362083117167156,-6.042791684468587,1.6888756934773036e+18,15.807303548177083,14.816556930541992,-26.088546752929688,-8.470592180887857,1.6888756934773036e+18,15.807303548177083,3.7512542406717935,-8.71071751912435,-2.492513736089071,1.6888756934773036e+18,15.807303548177083,-0.1957823087771733,-2.315891921520233,0.1843794882297516,1.6888756934773036e+18,15.807303548177083,-0.1967495133479435,-2.311463256676992,0.1865175118048986,,,,,,,,,,,,1.688875693465994e+18,15.795993994140623,-9.564799880981443,44.9643196105957,-0.1610399987548589,1.688875693465994e+18,15.795993994140623,-264.9595947265625,140.19751892089843,-133.51923828125,1.6888756934773036e+18,15.807303548177083,-0.3369079828262329,0.3508206307888031,-0.4382419784863789,0.755535364151001,0.5669809381167094,1.1174383163452148,0.4783033430576324
0.85,1.6888756935205545e+18,15.850554443359377,2.806739568710327,4.0877838134765625,6.55106258392334,1.6888756935205545e+18,15.850554443359377,7.008577585220337,-4.502095699310303,4.326223433017731,1.6888756935205545e+18,15.850554443359377,4.179036617279053,-8.574134349822998,-2.2895528078079224,1.6888756935205545e+18,15.850554443359377,0.6042221039533615,0.4059199392795561,0.8558985888957977,1.6888756935205545e+18,15.850554443359377,0.6031530499458313,0.4103487432003021,0.858036607503891,,,,,,,,,,,,1.6888756935159926e+18,15.845992578124998,-9.745359992980957,44.83987884521484,-1.0247999668121337,1.6888756935159926e+18,15.845992578124998,-265.14015502929686,140.0730773925781,-134.38299865722655,1.6888756935205545e+18,15.850554443359377,-0.3242158591747284,0.3213964849710464,-0.4368437379598617,0.7750545740127563,0.4810037016868591,1.0877773761749268,0.4979785531759262
0.9,1.6888756935637985e+18,15.893798177083331,-13.923226674397789,-7.028299331665039,3.755558411280314,1.6888756935637985e+18,15.893798177083331,-10.0031951268514,-15.747564951578775,1.5328022936979933,1.6888756935637985e+18,15.893798177083331,3.8972304662068686,-8.70352045694987,-2.2874697049458823,1.6888756935637985e+18,15.893798177083331,-2.1778873205184937,3.1661145289738974,-0.229787141084671,1.6888756935637985e+18,15.893798177083331,-2.178854505221049,3.170543352762858,-0.2276491199930508,1.6888756935464888e+18,15.87648876953125,0.0,0.0,1.009886384010315,18.895999908447266,0.1096290796995163,90.10226440429688,41.0,-122.7529703,49.1905201,1.688875693565991e+18,15.895990625,-11.955999755859375,44.69835891723633,-2.052039957046509,1.688875693565991e+18,15.895990625,-267.3507934570313,139.93155822753906,-135.41023864746094,1.6888756935637985e+18,15.893798177083331,-0.3723573486010234,0.3561615844567616,-0.4243649045626322,0.7439820567766825,0.5045855542023977,1.113757809003194,0.6103749672571818
0.95,1.6888756936157002e+18,15.945700195312504,-7.339409828186035,1.760891596476237,-0.3519675731658935,1.6888756936157002e+18,15.945700195312504,-4.454239288965861,-7.248059272766113,-2.9034908612569175,1.6888756936157002e+18,15.945700195312504,2.8623692194620767,-8.993205706278482,-2.616236766179403,1.6888756936157002e+18,15.945700195312504,0.9600765605767568,3.948734760284424,-1.9339993794759112,1.6888756936157002e+18,15.945700195312504,0.9591093560059866,3.953214406967163,-1.931861400604248,,,,,,,,,,,,1.6888756936159923e+18,15.945992333984377,-10.369999885559082,45.29859924316406,-1.6030799865722656,1.6888756936159923e+18,15.945992333984377,-265.764794921875,140.53179931640625,-134.961279296875,1.6888756936157002e+18,15.945700195312504,-0.403116375207901,0.4238364001115163,-0.4213507274786631,0.6920971870422363,0.7182391285896301,1.1815797885258992,0.5593260129292806
1.0,1.6888756936675945e+18,15.997594482421874,-8.60448964436849,1.921953519185384,-4.276592413584392,1.6888756936675945e+18,15.997594482421874,-7.503293514251709,-7.372286478678386,-7.156334400177002,1.6888756936675945e+18,15.997594482421874,1.078394611676534,-9.278494834899902,-2.944455544153849,1.6888756936675945e+18,15.997594482421874,-2.041104386250178,3.988288243611654,-2.154979864756266,1.6888756936675945e+18,15.997594482421874,-2.0420716305573783,3.992717027664185,-2.152841846148173,,,,,,,,,,,,1.6888756936659922e+18,15.9959923828125,-4.955639934539795,46.176998901367185,-0.6661200046539306,1.6888756936659922e+18,15.9959923828125,-260.3504333496094,141.4101989746094,-134.02431640625,1.6888756936675945e+18,15.997594482421874,-0.4257393876711526,0.5215110580126444,-0.4181845684846242,0.6087323824564616,1.2234810988108318,1.266849120457967,0.2664717187484105
1.05,1.6888756937194977e+18,16.04949739583333,0.1552163163820902,-1.8023001352945964,-4.100598255793254,1.6888756937194977e+18,16.04949739583333,-0.2939183712005615,-11.377273877461752,-6.145167350769043,1.6888756937194977e+18,16.04949739583333,-0.4719361973305543,-9.559228579203287,-2.1092825730641684,1.6888756937194977e+18,16.04949739583333,-0.642273873090744,3.2564717133839927,-2.3452643553415933,1.6888756937194977e+18,16.04949739583333,-0.6432919998963674,3.2610023816426597,-2.34312637646993,,,,,,,,,,,,1.688875693715994e+18,16.04599404296875,-0.5099599838256836,46.42587814331055,-4.631119918823242,1.688875693715994e+18,16.04599404296875,-255.90475158691407,141.65907592773436,-137.98931884765625,1.6888756937194977e+18,16.04949739583333,-0.4606703122456868,0.5783039927482605,-0.4354154467582702,0.5127635300159454,1.813368280728658,1.3677842219670613,-0.1512368495265642
1.1,1.688875693771397e+18,16.101397135416665,5.791666348775228,2.832393169403076,1.1126169363657634,1.688875693771397e+18,16.101397135416665,4.188237269719441,-6.591229279836019,-1.0699905355771382,1.688875693771397e+18,16.101397135416665,-1.6262304385503132,-9.407877286275228,-2.2473209698994956,1.688875693771397e+18,16.101397135416665,0.7846563855806986,2.332843462626139,-1.0247773826122284,1.688875693771397e+18,16.101397135416665,0.7837401231129965,2.337424914042155,-1.0226393217841785,,,,,,,,,,,,1.688875693765996e+18,16.09599619140625,3.5257998943328857,46.61619873046875,-4.5286399841308596,1.688875693765996e+18,16.09599619140625,-251.8689971923828,141.84939575195312,-137.8868408203125,1.688875693771397e+18,16.101397135416665,-0.4548778633276621,0.6377548376719157,-0.4182408452033996,0.4594368239243825,2.242149511973063,1.3048365513483684,-0.4539858003457387
1.15,1.688875693823287e+18,16.153286865234374,-0.1979181369145711,3.0782272020975747,-2.1270788510640464,1.688875693823287e+18,16.153286865234374,-1.9030916293462117,-6.331010023752849,-4.300699949264526,1.688875693823287e+18,16.153286865234374,-1.7279748916625977,-9.393492062886557,-2.238334576288859,1.688875693823287e+18,16.153286865234374,0.0541124745892981,1.994322379430135,0.6955209970474243,1.688875693823287e+18,16.153286865234374,0.0531452808063477,1.9988528887430828,0.6976081132888794,,,,,,,,,,,,1.6888756938159923e+18,16.1459923828125,3.5233598232269285,46.72599868774414,-3.372079944610596,1.6888756938159923e+18,16.1459923828125,-251.871435546875,141.95919799804688,-136.73027648925782,1.688875693823287e+18,16.153286865234374,-0.4801791508992513,0.6643480261166891,-0.3796916405359904,0.4286080996195475,2.2667946020762124,1.3004605770111084,-0.3550025125344594
1.2,1.6888756938751946e+18,16.205194498697917,2.6531930565834045,1.2409954071044922,-3.197082042694092,1.6888756938751946e+18,16.205194498697917,0.8257232308387756,-8.185048739115397,-5.189832846323649,1.6888756938751946e+18,16.205194498697917,-1.8502713441848757,-9.410298983256022,-2.057464321454366,1.6888756938751946e+18,16.205194498697917,-0.2660827140013376,1.7808758616447449,-0.4947499260306358,1.6888756938751946e+18,16.205194498697917,-0.2669990162054697,1.7854064305623372,-0.4926119049390157,,,,,,,,,,,,1.6888756938659922e+18,16.19599208984375,2.044719934463501,46.59179840087891,-3.5599599361419676,1.6888756938659922e+18,16.19599208984375,-253.3500762939453,141.8249938964844,-136.91815490722655,1.6888756938751946e+18,16.205194498697917,-0.4971436858177185,0.6783843239148458,-0.3613468011220296,0.4023051559925079,2.3425520261128745,1.3069938023885093,-0.3531742294629414
1.25,1.6888756939270894e+18,16.257089680989584,2.8233150243759155,-0.0662593841552734,-4.357678254445394,1.6888756939270894e+18,16.257089680989584,0.363709032535553,-9.438688278198242,-5.870790402094523,1.6888756939270894e+18,16.257089680989584,-2.482407490412394,-9.356683731079102,-1.577825625737508,1.6888756939270894e+18,16.257089680989584,-0.8126544157663981,1.5256359626849492,-0.7253515645861626,1.6888756939270894e+18,16.257089680989584,-0.8136216004689535,1.530064677198728,-0.7232135410110155,,,,,,,,,,,,1.6888756939159905e+18,16.245990478515626,3.6063199043273926,46.42587890625,-4.704319953918457,1.6888756939159905e+18,16.245990478515626,-251.78847961425785,141.65907592773436,-138.06251831054686,1.6888756939270894e+18,16.257089680989584,-0.5063357949256897,0.7065711816151937,-0.3501609265804291,0.3487433493137359,2.6255195140838623,1.2861542304356892,-0.529428611199061
1.3,1.688875693970347e+18,16.300347045898437,1.79445618391037,-1.6099867820739746,-9.857027530670166,1.688875693970347e+18,16.300347045898437,-0.6412764433771373,-11.02223825454712,-11.169097900390623,1.688875693970347e+18,16.300347045898437,-2.4585341215133667,-9.396506309509276,-1.3767836093902588,1.688875693970347e+18,16.300347045898437,-0.2643519379198551,-1.1049025058746338,0.2439643070101738,1.688875693970347e+18,16.300347045898437,-0.2653445936739445,-1.1004737615585327,0.2461023405194282,,,,,,,,,,,,1.6888756939659932e+18,16.2959931640625,4.821439933776856,46.20871963500976,-5.97555980682373,1.6888756939659932e+18,16.2959931640625,-250.57335815429687,141.4419189453125,-139.33375549316406,1.688875693970347e+18,16.300347045898437,-0.5086869597434998,0.6995126008987427,-0.3624649345874786,0.3471445590257644,2.690603494644165,1.2992162108421326,-0.6111092865467072
1.35,1.6888756940135813e+18,16.343581461588542,1.1261079708735149,-1.294099489847819,-6.82338809967041,1.6888756940135813e+18,16.343581461588542,-0.8993024428685507,-10.706685066223145,-8.650452613830566,1.6888756940135813e+18,16.343581461588542,-2.048211932182312,-9.39684041341146,-1.8917780717213948,1.6888756940135813e+18,16.343581461588542,1.2844968835512798,-1.99447504679362,1.4017321368058522,1.6888756940135813e+18,16.343581461588542,1.2835806210835774,-1.9900462130705516,1.4038701156775155,,,,,,,,,,,,1.6888756940159882e+18,16.345988134765626,3.755159950256348,46.30143814086914,-4.172399854660034,1.6888756940159882e+18,16.345988134765626,-251.63963317871097,141.53463439941407,-137.5305969238281,1.6888756940135813e+18,16.343581461588542,-0.5027339855829874,0.6881358027458191,-0.355829656124115,0.3827878435452779,2.4394219716389975,1.30258313814799,-0.4081482887268066
1.4,1.68887569406549e+18,16.395490071614585,-3.0529096921284995,-6.415866851806641,-1.9288937250773113,1.68887569406549e+18,16.395490071614585,-3.674976865450541,-15.779069900512695,-4.73858642578125,1.68887569406549e+18,16.395490071614585,-0.6448685626188914,-9.34745788574219,-2.874406178792318,1.68887569406549e+18,16.395490071614585,1.7339409987131755,-2.0666079918543496,2.254601836204529,1.68887569406549e+18,16.395490071614585,1.732922871907552,-2.062077442804972,2.256739854812622,1.6888756940654902e+18,16.395490234375,0.0,0.0,1.0194982290267944,18.66900062561035,0.1158252879977226,90.07760620117188,41.0,-122.7529561,49.1905194,1.6888756940659953e+18,16.395995458984373,-1.2468400031328202,46.813839721679685,-0.5514400243759155,1.6888756940659953e+18,16.395995458984373,-256.6416320800781,142.0470397949219,-133.90964050292968,1.68887569406549e+18,16.395490071614585,-0.5021663308143616,0.6469521721204122,-0.3333477477232615,0.4665035704771678,1.7978192965189617,1.2891945838928225,0.1275983856370051
1.45,1.6888756941173862e+18,16.44738614908854,-1.0917577743530271,-12.002798716227211,0.9969066778818766,1.6888756941173862e+18,16.44738614908854,-0.159920314947764,-21.06800587972005,-2.574078917503357,1.6888756941173862e+18,16.44738614908854,0.9090360601743064,-9.04946200052897,-3.6356991132100425,1.6888756941173862e+18,16.44738614908854,1.270446966091792,-3.059213161468506,2.6495261987050376,1.6888756941173862e+18,16.44738614908854,1.269479771455129,-3.054784377415975,2.6516133149464927,,,,,,,,,,,,1.688875694115993e+18,16.44599326171875,-6.919839859008789,46.618639373779295,2.7767199516296386,1.688875694115993e+18,16.44599326171875,-262.31463012695315,141.85183715820312,-130.58147888183595,1.6888756941173862e+18,16.44738614908854,-0.492646187543869,0.5943443973859152,-0.3135505616664886,0.5520901679992676,1.3093871275583904,1.1994081735610962,0.4870788355668385
1.5,1.688875694169286e+18,16.499285888671874,-4.467532992362976,-6.382945378621418,2.048851410547892,1.688875694169286e+18,16.499285888671874,-2.057029883066813,-15.254642804463703,-1.3451651235421498,1.688875694169286e+18,16.499285888671874,2.387701670328776,-8.855952262878418,-3.4587300618489585,1.688875694169286e+18,16.499285888671874,0.450411299864451,-4.688798030217488,1.0816896160443623,1.688875694169286e+18,16.499285888671874,0.4494950175285339,-4.684369166692098,1.0838276346524556,,,,,,,,,,,,1.6888756941659948e+18,16.495994677734377,-12.358599662780762,45.88419799804687,2.1618399620056152,1.6888756941659948e+18,16.495994677734377,-267.7533935546875,141.11739501953124,-131.19635925292968,1.688875694169286e+18,16.499285888671874,-0.4845812221368153,0.5203627645969391,-0.3268671333789825,0.6213497320810953,0.9367104768753052,1.1476680835088091,0.6920448939005533
1.55,1.6888756942211878e+18,16.551187662760416,-5.116882960001628,2.6845146814982095,0.4924184481302897,1.6888756942211878e+18,16.551187662760416,-1.2221341729164124,-5.774479309717814,-2.5732813676198325,1.6888756942211878e+18,16.551187662760416,3.871947447458903,-8.443248748779297,-3.130413293838501,1.6888756942211878e+18,16.551187662760416,1.175355593363444,-4.518926461537679,1.6267341375350952,1.6888756942211878e+18,16.551187662760416,1.1744393507639568,-4.5144468943278,1.6288212537765503,,,,,,,,,,,,1.688875694215992e+18,16.54599208984375,-16.011279296875,45.17415924072266,0.2025199934840202,1.688875694215992e+18,16.54599208984375,-271.4060852050781,140.40736083984376,-133.15567626953126,1.6888756942211878e+18,16.551187662760416,-0.4400291442871094,0.4276899993419646,-0.3490738769372304,0.70745450258255,0.6544980406761169,1.0578080018361409,0.7204743027687073
1.6,1.688875694273081e+18,16.603080891927082,-8.80326557159424,10.231258710225424,1.352055509885152,1.688875694273081e+18,16.603080891927082,-3.7812580267588296,2.1744776169459024,-1.1230313976605732,1.688875694273081e+18,16.603080891927082,4.999206066131592,-8.041035970052084,-2.5398004055023193,1.688875694273081e+18,16.603080891927082,0.3144937853018443,-4.045506000518799,1.0706940690676372,1.688875694273081e+18,16.603080891927082,0.3135775029659271,-4.040975411732991,1.0728320876757305,,,,,,,,,,,,1.6888756942659927e+18,16.595992724609374,-19.568799591064455,44.137158966064455,-2.003239965438843,1.6888756942659927e+18,16.595992724609374,-274.9635986328125,139.3703582763672,-135.36143798828124,1.688875694273081e+18,16.603080891927082,-0.3957217931747436,0.3421884477138519,-0.3635774552822113,0.7702794472376505,0.4467822511990865,0.9818424979845682,0.7069756388664246
1.65,1.6888756943249838e+18,16.654983642578127,-7.312674840291341,8.614117304484049,3.476965308189392,1.6888756943249838e+18,16.654983642578127,-1.8727825085322063,0.5629115502039591,2.0392830669879913,1.6888756943249838e+18,16.654983642578127,5.417090733846028,-8.035460313161215,-1.502395749092102,1.6888756943249838e+18,16.654983642578127,-0.2205732663472493,-2.8165469964345298,-0.5597052872180938,1.6888756943249838e+18,16.654983642578127,-0.2215404659509658,-2.812118172645569,-0.5575672661264738,,,,,,,,,,,,1.6888756943159916e+18,16.645991357421874,-19.471199417114256,43.566199493408206,-5.572959995269775,1.6888756943159916e+18,16.645991357421874,-274.8659912109375,138.7993957519531,-138.9311553955078,1.6888756943249838e+18,16.654983642578127,-0.369376003742218,0.2689111729462941,-0.3969034949938456,0.7958051164944967,0.2442998886108398,0.9803672035535176,0.7385217547416687
1.7,1.688875694376883e+18,16.706882975260417,1.5844934781392417,5.11740239461263,4.308859189351399,1.688875694376883e+18,16.706882975260417,6.40159813563029,-3.3160533905029297,2.889931599299113,1.688875694376883e+18,16.706882975260417,4.794303258260091,-8.417710622151693,-1.483640988667806,1.688875694376883e+18,16.706882975260417,1.3492486278216045,0.8520552118619283,-2.3805928230285645,1.688875694376883e+18,16.706882975260417,1.348230481147766,0.8565349181493124,-2.3784547249476113,,,,,,,,,,,,1.688875694365993e+18,16.69599287109375,-16.960439491271973,44.73495941162109,-6.866159915924072,1.688875694365993e+18,16.69599287109375,-272.35523681640626,139.96815185546876,-140.22435913085937,1.688875694376883e+18,16.706882975260417,-0.3389742473761241,0.2717369298140208,-0.434024711449941,0.7889084021250407,0.279359221458435,1.053067922592163,0.6469121972719828
1.75,1.6888756944201267e+18,16.750126586914064,6.387708425521851,-2.7474939823150635,1.580493688583374,1.6888756944201267e+18,16.750126586914064,10.00528860092163,-11.576775312423706,-0.7166503667831422,1.6888756944201267e+18,16.750126586914064,3.594778895378113,-8.813536167144775,-2.3618574142456055,1.6888756944201267e+18,16.750126586914064,0.9002626687288284,1.9119319319725037,-2.5703682899475098,1.6888756944201267e+18,16.750126586914064,0.899346336722374,1.91636061668396,-2.5682302117347717,,,,,,,,,,,,1.6888756944159944e+18,16.745994189453125,-10.596920013427734,46.9138786315918,-2.3204399585723876,1.6888756944159944e+18,16.745994189453125,-265.99171752929686,142.14707641601564,-135.6786346435547,1.6888756944201267e+18,16.750126586914064,-0.3168548941612243,0.3381652384996414,-0.4573414623737335,0.7589000165462494,0.5659132301807404,1.1395633220672607,0.422106459736824
1.8,1.6888756944633787e+18,16.79337890625,9.01147476832072,-13.982267697652182,-3.114840348561605,1.6888756944633787e+18,16.79337890625,12.928221066792808,-22.78525447845459,-4.979065020879109,1.6888756944633787e+18,16.79337890625,3.8939449787139897,-8.787241299947103,-1.928938070933024,1.6888756944633787e+18,16.79337890625,-0.3679954136411349,-3.1509447495142617,1.214501937230428,1.6888756944633787e+18,16.79337890625,-0.3689626194536686,-3.1464651425679526,1.2166399558385212,,,,,,,,,,,,1.6888756944659896e+18,16.7959896484375,-8.649800014495849,47.18471832275391,-3.081719970703125,1.6888756944659896e+18,16.7959896484375,-264.0445983886719,142.41791687011718,-136.4399169921875,1.6888756944633787e+18,16.79337890625,-0.2994390825430552,0.2978816827138265,-0.4688105384508769,0.7753119071324667,0.4443553487459818,1.1331525643666585,0.4507973293463388
1.85,1.6888756945152796e+18,16.845279541015625,-5.238758405049642,5.873812675476074,4.414419412612915,1.6888756945152796e+18,16.845279541015625,-0.8997014363606771,-2.718445951739947,2.4789643237988153,1.6888756945152796e+18,16.845279541015625,4.3162557284037275,-8.576513290405273,-2.000168522198995,1.6888756945152796e+18,16.845279541015625,-0.0259108940760294,2.7160596450169883,0.172111302614212,1.6888756945152796e+18,16.845279541015625,-0.0268271565437316,2.720488329728445,0.1742493212223053,,,,,,,,,,,,1.688875694515992e+18,16.8459919921875,-11.389919662475586,47.026119232177734,-2.454639959335327,1.688875694515992e+18,16.8459919921875,-266.7847106933594,142.25931396484376,-135.81283569335938,1.6888756945152796e+18,16.845279541015625,-0.3035095830758412,0.2923758725325266,-0.4488823612531025,0.7876119017601013,0.4162775178750356,1.0866715908050537,0.4818503856658935
1.9,1.688875694567175e+18,16.897174886067706,-7.83318026860555,-9.70017464955648,-0.8086572090784708,1.688875694567175e+18,16.897174886067706,-3.8281174898147583,-18.472989718119305,-2.6606194178263345,1.688875694567175e+18,16.897174886067706,3.9822610219319663,-8.757070223490397,-1.916675686836243,1.688875694567175e+18,16.897174886067706,-1.169043352206548,1.4535538752873738,-0.1363247533639272,1.688875694567175e+18,16.897174886067706,-1.1700614690780642,1.4579826593399048,-0.1342376321554184,1.6888756945844795e+18,16.9144794921875,0.0,0.0,1.0194982290267944,18.51300048828125,0.1202704086899757,90.05825805664062,41.0,-122.752947,49.1905193,1.688875694565991e+18,16.895991015625,-12.187799835205078,46.8699592590332,-3.867399883270264,1.688875694565991e+18,16.895991015625,-267.5825927734375,142.10315856933593,-137.22559509277343,1.688875694567175e+18,16.897174886067706,-0.3578389187653859,0.327668140331904,-0.4423721830050151,0.754163901011149,0.4237170020739237,1.1239415804545083,0.6167903542518616
1.95,1.6888756946190766e+18,16.94907657877604,-8.566337903340658,2.3771554629007974,-0.8573554356892904,1.6888756946190766e+18,16.94907657877604,-5.653840939203898,-6.580062707265218,-3.5569307804107666,1.6888756946190766e+18,16.94907657877604,2.889695485432943,-8.941473007202148,-2.764288822809855,1.6888756946190766e+18,16.94907657877604,0.7436266355216504,4.497342665990193,-1.9823595682779949,1.6888756946190766e+18,16.94907657877604,0.7427102948228518,4.501822312672933,-1.9802215099334717,,,,,,,,,,,,1.688875694615994e+18,16.945994140625,-10.623759841918943,47.37991790771484,-1.5835599899291992,1.688875694615994e+18,16.945994140625,-266.0185485839844,142.6131164550781,-134.94176025390624,1.6888756946190766e+18,16.94907657877604,-0.3746060927708943,0.4135822157065074,-0.430461327234904,0.7085122068723043,0.7483577728271484,1.1688659191131592,0.4622476597627004
2.0,1.6888756946709732e+18,17.000973388671877,-5.120197455088298,-3.102980613708496,-5.675650437672933,1.6888756946709732e+18,17.000973388671877,-3.9822551806767783,-12.487144470214844,-8.237291971842447,1.6888756946709732e+18,17.000973388671877,1.1151408553123474,-9.36841869354248,-2.6263551712036133,1.6888756946709732e+18,17.000973388671877,-2.141846259435018,3.314503828684489,-2.711172660191854,1.6888756946709732e+18,17.000973388671877,-2.1427625815073648,3.3189836343129477,-2.7090346018473306,,,,,,,,,,,,1.6888756946659912e+18,16.9959912109375,-5.080079889297485,48.34127960205078,-1.1785199970006943,1.6888756946659912e+18,16.9959912109375,-260.47487182617186,143.57448120117186,-134.53671569824218,1.6888756946709732e+18,17.000973388671877,-0.4023400843143463,0.4901194274425506,-0.453735888004303,0.6251044273376465,1.1820616324742634,1.296069622039795,0.2000534360607464
2.05,1.6888756947228713e+18,17.05287117513021,2.4474388708670936,2.921485265096029,-1.306988795598348,1.6888756947228713e+18,17.05287117513021,1.9014964252710345,-6.576274236043294,-3.654837210973104,1.6888756947228713e+18,17.05287117513021,-0.5687438808381557,-9.482014338175455,-2.4125618934631348,1.6888756947228713e+18,17.05287117513021,0.5658139338095983,4.002236366271973,-2.26208488146464,1.6888756947228713e+18,17.05287117513021,0.5648976365725199,4.006665070851644,-2.259946902592977,,,,,,,,,,,,1.6888756947159936e+18,17.045993652343746,0.6343999743461609,48.250999450683594,-4.001599979400635,1.6888756947159936e+18,17.045993652343746,-254.76039428710936,143.48419799804688,-137.35979919433595,1.6888756947228713e+18,17.05287117513021,-0.4243313173453013,0.5679478645324707,-0.4552090366681416,0.5376454591751099,1.8243324359258015,1.33384370803833,-0.2540549015005429
2.1,1.6888756947747738e+18,17.10477384440104,2.445213516553243,2.0568408966064453,2.4849701722462973,1.6888756947747738e+18,17.10477384440104,0.8295118312040964,-7.296713193257649,0.031306100388368,1.6888756947747738e+18,17.10477384440104,-1.6385031541188555,-9.337808926900228,-2.5183774630228677,1.6888756947747738e+18,17.10477384440104,0.2728022411465645,1.8633935451507568,-0.7790568321943283,1.6888756947747738e+18,17.10477384440104,0.2718859414259593,1.867873191833496,-0.7769187887509664,,,,,,,,,,,,1.6888756947659924e+18,17.09599228515625,4.638439893722534,48.47303848266601,-3.203719902038574,1.6888756947659924e+18,17.09599228515625,-250.75635375976563,143.70624084472655,-136.56191711425782,1.6888756947747738e+18,17.10477384440104,-0.4282503624757131,0.6282726923624674,-0.4344119727611542,0.482740451892217,2.189117749532064,1.2786490122477214,-0.4773178497950236
2.15,1.688875694826675e+18,17.1566748046875,2.063730756441752,3.7041627566019697,-0.2598686218261719,1.688875694826675e+18,17.1566748046875,0.0835493703683217,-5.662415345509847,-2.3748765190442405,1.688875694826675e+18,17.1566748046875,-2.00298289457957,-9.35083293914795,-2.1797213554382324,1.688875694826675e+18,17.1566748046875,-0.4957171479860942,2.6376143296559653,-0.2820161208510399,1.688875694826675e+18,17.1566748046875,-0.4966843525568644,2.642094055811564,-0.2798780985176562,,,,,,,,,,,,1.688875694815993e+18,17.14599345703125,6.02923994064331,48.38763961791992,-3.35743989944458,1.688875694815993e+18,17.14599345703125,-249.3655578613281,143.62083740234374,-136.71563720703125,1.688875694826675e+18,17.1566748046875,-0.4526751041412353,0.6544305284818014,-0.4152879416942596,0.4404145578543345,2.359962542851766,1.281957745552063,-0.534391979376475
2.2,1.6888756948699195e+18,17.19991943359375,3.00076562166214,0.1838979721069336,-3.898500800132751,1.6888756948699195e+18,17.19991943359375,0.5871388912200928,-9.172885417938232,-5.573781251907349,1.6888756948699195e+18,17.19991943359375,-2.436428189277649,-9.3410382270813,-1.7399938702583313,1.6888756948699195e+18,17.19991943359375,-0.7670940160751343,1.7369953393936155,-0.8871290683746338,1.6888756948699195e+18,17.19991943359375,-0.7680866718292236,1.7414240837097168,-0.8850674033164978,,,,,,,,,,,,1.6888756948659904e+18,17.195990576171873,6.502599906921387,47.94599838256836,-5.397279834747314,1.6888756948659904e+18,17.195990576171873,-248.89219360351564,143.1791961669922,-138.75547790527344,1.6888756948699195e+18,17.19991943359375,-0.4678167104721069,0.6744022965431213,-0.4088406562805176,0.3988785594701767,2.5739033222198486,1.2770320773124697,-0.663323849439621
2.25,1.6888756949131717e+18,17.24317138671875,1.0262798468271892,-0.4165226618448893,-6.075776259104411,1.6888756949131717e+18,17.24317138671875,-1.647259036699931,-9.756734212239584,-7.430711269378662,1.6888756949131717e+18,17.24317138671875,-2.696340322494507,-9.324466387430826,-1.41964852809906,1.6888756949131717e+18,17.24317138671875,-0.3314962039391199,0.8043059203773737,0.044542262951533,1.6888756949131717e+18,17.24317138671875,-0.3324634184439977,0.8087855962415538,0.0466802914937337,,,,,,,,,,,,1.688875694915992e+18,17.24599208984375,7.551799774169922,47.57999954223633,-7.217519950866699,1.688875694915992e+18,17.24599208984375,-247.8429962158203,142.81319885253907,-140.57571716308593,1.6888756949131717e+18,17.24317138671875,-0.4771120647589366,0.6859824856122335,-0.4050018489360809,0.371138721704483,2.713911692301432,1.27040692170461,-0.7492120464642843
2.3,1.6888756949650596e+18,17.295059407552085,2.58946144580841,-1.9478613535563152,-8.110738754272461,1.6888756949650596e+18,17.295059407552085,0.1595215400060018,-11.320444107055664,-9.672985394795736,1.6888756949650596e+18,17.295059407552085,-2.4527413845062256,-9.356837590535482,-1.626960039138794,1.6888756949650596e+18,17.295059407552085,0.9533061186472574,0.4715879609187444,0.6191628277301788,1.6888756949650596e+18,17.295059407552085,0.9523898164431254,0.4760167549053828,0.6213008662064871,,,,,,,,,,,,1.6888756949659876e+18,17.295987548828126,5.69739990234375,47.965519714355466,-5.892599868774414,1.6888756949659876e+18,17.295987548828126,-249.69739685058593,143.19871826171874,-139.25079956054688,1.6888756949650596e+18,17.295059407552085,-0.4847815831502278,0.6866384347279867,-0.3876949449380238,0.3782666126887004,2.609564701716105,1.2834938367207844,-0.6261583169301351
2.35,1.688875695016957e+18,17.346956868489585,-0.3872992992401123,-2.7135445276896157,-4.5766927401224775,1.688875695016957e+18,17.346956868489585,-1.880160391330719,-12.126825014750162,-6.836094856262207,1.688875695016957e+18,17.346956868489585,-1.5156625111897786,-9.39753532409668,-2.324115435282389,1.688875695016957e+18,17.346956868489585,1.1108584602673848,-2.7835601965586343,2.230116287867228,1.688875695016957e+18,17.346956868489585,1.109942118326823,-2.779080549875895,2.2322543064753213,,,,,,,,,,,,1.6888756950159877e+18,17.345987548828127,2.4107200026512148,48.75119857788086,-3.3696399688720704,1.6888756950159877e+18,17.345987548828127,-252.9840759277344,143.9843994140625,-136.72783508300782,1.688875695016957e+18,17.346956868489585,-0.4880918363730113,0.6633143424987793,-0.3666363457838694,0.4319119354089101,2.1756423314412436,1.3021413882573445,-0.2467931235829989
2.4,1.6888756950688666e+18,17.398866455078124,-1.6193129817644756,-8.600848833719889,-1.023825724919637,1.6888756950688666e+18,17.398866455078124,-1.6755740344524384,-17.891334533691406,-4.1212382316589355,1.6888756950688666e+18,17.398866455078124,-0.0790625462929407,-9.27474053700765,-3.1621259848276773,1.6888756950688666e+18,17.398866455078124,1.7199929157892864,-3.1352149645487466,1.921171228090922,1.6888756950688666e+18,17.398866455078124,1.7190766334533691,-3.1306843757629395,1.9233092466990152,,,,,,,,,,,,1.6888756950659927e+18,17.395992773437502,-2.7010799169540407,49.05863876342774,-0.2659600138664245,1.6888756950659927e+18,17.395992773437502,-258.0958740234375,144.29183959960938,-133.62415771484376,1.6888756950688666e+18,17.398866455078124,-0.4746208190917969,0.6130624810854594,-0.3561219771703084,0.5208004613717397,1.59998881816864,1.2635181347529094,0.1844699482123057
2.45,1.6888756951207557e+18,17.450755615234375,-3.7908206582069393,-11.583569208780924,2.995391925175985,1.6888756951207557e+18,17.450755615234375,-2.3054845730463662,-20.60040791829427,-0.5337988138198853,1.6888756951207557e+18,17.450755615234375,1.4625346461931863,-9.001093546549479,-3.5939043362935386,1.6888756951207557e+18,17.450755615234375,0.2640973934903741,-1.932675798734029,2.4510968128840127,1.6888756951207557e+18,17.450755615234375,0.2631302101848026,-1.9281961520512896,2.4532347520192466,1.6888756951034568e+18,17.433456787109375,0.0,0.0,1.0298664569854736,18.152999877929688,0.1259020417928695,90.03168487548828,41.0,-122.7529319,49.1905195,1.6888756951159916e+18,17.445991455078126,-8.830359745025635,48.42179946899414,2.386319971084595,1.6888756951159916e+18,17.445991455078126,-264.22515869140625,143.65499572753907,-130.9718780517578,1.6888756951207557e+18,17.450755615234375,-0.4769824941953023,0.561095674832662,-0.3316365579764048,0.589261790116628,1.1635918219884236,1.1833799680074055,0.5266785224278768
2.5,1.6888756951726646e+18,17.502664713541666,-2.514500141143799,-0.5939526557922363,1.5466295878092449,1.6888756951726646e+18,17.502664713541666,0.3355933825174967,-9.436096032460531,-1.5702898701032002,1.6888756951726646e+18,17.502664713541666,2.827292044957479,-8.826398213704428,-3.181632916132609,1.6888756951726646e+18,17.502664713541666,0.7095708946386973,-5.353521188100179,1.3273593286673229,1.6888756951726646e+18,17.502664713541666,0.708603690067927,-5.34904146194458,1.329497307538986,,,,,,,,,,,,1.6888756951659935e+18,17.49599326171875,-12.992999649047851,47.92647933959961,0.5904799997806549,1.6888756951659935e+18,17.49599326171875,-268.38779296875,143.15967712402343,-132.76771545410156,1.6888756951726646e+18,17.502664713541666,-0.4519839684168498,0.4765568574269612,-0.3601479828357696,0.6613128185272217,0.8222400943438212,1.1394265890121458,0.6531365911165873
2.55,1.6888756952245637e+18,17.5545634765625,-7.38262406984965,5.97136910756429,1.45837398370107,1.6888756952245637e+18,17.5545634765625,-3.2027930542826653,-2.422533631324768,-1.420140226682027,1.6888756952245637e+18,17.5545634765625,4.157029390335083,-8.378157615661621,-2.943227688471476,1.6888756952245637e+18,17.5545634765625,1.0890199939409893,-3.486157019933065,1.4850134054819744,1.6888756952245637e+18,17.5545634765625,1.0881037314732869,-3.4816264311472573,1.4871514240900676,,,,,,,,,,,,1.6888756952159944e+18,17.545994384765628,-16.872599411010743,46.61131896972656,-0.1683600068092346,1.6888756952159944e+18,17.545994384765628,-272.26739501953125,141.84451599121093,-133.52655944824218,1.6888756952245637e+18,17.5545634765625,-0.4136687219142914,0.3978720804055531,-0.3645091156164805,0.7328009406725565,0.5945649941762289,1.0432711839675903,0.6788695851961771
2.6,1.688875695276462e+18,17.606462239583333,-8.71136967341105,10.408438682556152,1.0652846495310466,1.688875695276462e+18,17.606462239583333,-3.565903902053833,2.349751830101013,-1.1477572719256084,1.688875695276462e+18,17.606462239583333,5.122664292653401,-8.04294204711914,-2.2777554194132485,1.688875695276462e+18,17.606462239583333,-0.1631010274092356,-3.5730525652567544,0.8635598570108414,1.688875695276462e+18,17.606462239583333,-0.164017324646314,-3.5686238606770835,0.8656978805859884,,,,,,,,,,,,1.68887569526599e+18,17.5959900390625,-20.003120040893556,45.93055953979492,-1.4347199618816375,1.68887569526599e+18,17.5959900390625,-275.3979187011719,141.16375427246095,-134.792919921875,1.688875695276462e+18,17.606462239583333,-0.3816591997941335,0.3206158777077992,-0.3746796349684397,0.781356414159139,0.3973296085993449,0.9802989363670348,0.6944283246994019
2.65,1.6888756953197115e+18,17.64971142578125,-4.132660269737244,7.203371047973633,4.1590811014175415,1.6888756953197115e+18,17.64971142578125,1.1913265585899353,-0.9119645357131958,2.635694146156311,1.6888756953197115e+18,17.64971142578125,5.301185369491577,-8.099590301513672,-1.5881004929542542,1.6888756953197115e+18,17.64971142578125,0.2870302954688669,-1.850616276264191,-0.9298896491527556,1.6888756953197115e+18,17.64971142578125,0.2859612833708525,-1.8461110591888428,-0.92775160074234,,,,,,,,,,,,1.688875695315994e+18,17.645994189453127,-19.8664794921875,45.51575927734375,-5.0971598625183105,1.688875695315994e+18,17.645994189453127,-275.2612670898437,140.74895324707032,-138.45535583496093,1.6888756953197115e+18,17.64971142578125,-0.3606714159250259,0.2731433808803558,-0.4011852592229843,0.7964187264442444,0.2688494920730591,0.9901828169822694,0.7046940326690674
2.7,1.688875695362956e+18,17.6929560546875,1.4851919809977214,6.4660725593566895,3.8589020570119223,1.688875695362956e+18,17.6929560546875,6.2041904131571455,-1.9489540656407671,2.061815559864044,1.688875695362956e+18,17.6929560546875,4.696197032928467,-8.39928150177002,-1.861799995104472,1.688875695362956e+18,17.6929560546875,1.4181236426035564,0.7364998757839203,-2.326531211535136,1.688875695362956e+18,17.6929560546875,1.417207400004069,0.7410304347674052,-2.3243931929270425,,,,,,,,,,,,1.6888756953659904e+18,17.695990429687498,-16.194279670715332,47.21643829345703,-4.043079900741577,1.6888756953659904e+18,17.695990429687498,-271.5890686035156,142.44963684082032,-137.40127868652343,1.688875695362956e+18,17.6929560546875,-0.3313610156377156,0.2898336549599965,-0.4272513190905253,0.7894379099210104,0.3608146508534749,1.0481600761413574,0.5832855105400085
2.75,1.688875695414858e+18,17.74485799153646,10.207682291666666,-12.795950730641684,-2.359739621480306,1.688875695414858e+18,17.74485799153646,13.860225677490234,-21.5663104057312,-4.820939262708028,1.688875695414858e+18,17.74485799153646,3.6297420660654702,-8.754613558451334,-2.5259130795796714,1.688875695414858e+18,17.74485799153646,0.3792964071035385,-0.9106473873058956,-1.3985250294208529,1.688875695414858e+18,17.74485799153646,0.3783292323350906,-0.9062185535828272,-1.396387046823899,,,,,,,,,,,,1.6888756954159944e+18,17.74599423828125,-9.24027976989746,48.8634391784668,-0.1537200018763542,1.6888756954159944e+18,17.74599423828125,-264.63507080078125,144.09664001464844,-133.5119201660156,1.688875695414858e+18,17.74485799153646,-0.3022937873999278,0.3375722269217172,-0.4552699824174245,0.766207238038381,0.5958576798439026,1.1243760983149211,0.3692404826482137
2.8,1.688875695466758e+18,17.7967578125,5.820492744445801,-2.7362182935078945,-0.072089950243632,1.688875695466758e+18,17.7967578125,9.848658561706545,-11.466206391652426,-2.0648065408070884,1.688875695466758e+18,17.7967578125,4.005364418029785,-8.714242935180664,-2.0574299891789756,1.688875695466758e+18,17.7967578125,0.401491188754638,-1.3008375962575276,0.5927938123544058,1.688875695466758e+18,17.7967578125,0.4005748890340328,-1.2963578701019287,0.5949318508307139,,,,,,,,,,,,1.6888756954659912e+18,17.795991113281254,-8.710799884796142,48.651158905029305,-1.1955999612808228,1.6888756954659912e+18,17.795991113281254,-264.1055969238281,143.8843566894531,-134.55379638671874,1.688875695466758e+18,17.7967578125,-0.2688296536604563,0.2846133708953857,-0.4713833729426065,0.7902098298072815,0.4628756244977315,1.115411917368571,0.3639194269975026
2.85,1.6888756955186568e+18,17.848656982421875,-15.402515093485514,-6.8066708246866865,4.679247776667277,1.6888756955186568e+18,17.848656982421875,-11.544172604878744,-15.533805847167969,2.379462699095408,1.6888756955186568e+18,17.848656982421875,3.835541407267253,-8.711389859517416,-2.3644984563191733,1.6888756955186568e+18,17.848656982421875,-1.3041463991006217,3.4223217169443765,-0.053297996520996,1.6888756955186568e+18,17.848656982421875,-1.3050626615683238,3.4268012841542563,-0.0511599779129028,,,,,,,,,,,,1.6888756955159916e+18,17.845991455078128,-10.477359771728516,48.88051910400391,-0.8393599778413773,1.6888756955159916e+18,17.845991455078128,-265.8721496582031,144.11371459960938,-134.19755859375,1.6888756955186568e+18,17.848656982421875,-0.3078691263993581,0.3271821836630503,-0.4510694940884908,0.7706215778986613,0.5389405687650045,1.1139996846516926,0.4196803867816925
2.9,1.688875695570552e+18,17.900552327473957,-4.745858987172444,2.615079720815023,1.4535735448201497,1.688875695570552e+18,17.900552327473957,-1.5886348088582356,-6.275376796722412,-1.2099706654747326,1.688875695570552e+18,17.900552327473957,3.134422699610392,-8.874711354573568,-2.728257735570272,1.688875695570552e+18,17.900552327473957,1.011745552221934,2.94381054242452,-1.2569570740063984,1.688875695570552e+18,17.900552327473957,1.010829250017802,2.948341170946757,-1.2548190553983052,,,,,,,,,,,,1.68887569556599e+18,17.89598994140625,-9.45011978149414,49.083039093017575,-0.3489199876785278,1.68887569556599e+18,17.89598994140625,-264.84491577148435,144.3162353515625,-133.70711669921874,1.688875695570552e+18,17.900552327473957,-0.3338168660799662,0.3807887236277262,-0.4469793935616811,0.7368683616320292,0.7047721346219381,1.1506953239440918,0.3813750644524892
2.95,1.6888756956224543e+18,17.95245418294271,-8.350383122762043,1.553087870279948,-4.569152911504109,1.6888756956224543e+18,17.95245418294271,-6.875576575597127,-7.621140162150065,-7.65723180770874,1.6888756956224543e+18,17.95245418294271,1.4520052472750349,-9.158482869466146,-3.1527923742930093,1.6888756956224543e+18,17.95245418294271,-1.6974417863724132,3.734270175298055,-2.4030420780181885,1.6888756956224543e+18,17.95245418294271,-1.6984089895461996,3.738698879877726,-2.4009040196736655,1.688875695622452e+18,17.952451904296876,0.0,0.0,0.9812779426574708,17.628000259399414,0.1449003666639328,90.10871124267578,41.0,-122.7529089,49.1905174,1.6888756956159946e+18,17.94599462890625,-4.089439821243286,49.839437866210936,1.6884799748659134,1.6888756956159946e+18,17.94599462890625,-259.48423461914064,145.07263793945313,-131.66971740722656,1.6888756956224543e+18,17.95245418294271,-0.3543486595153808,0.4711865186691284,-0.4555680155754089,0.6660948991775513,1.1515013774236045,1.2273542086283369,0.1172775886952877
3.0,1.6888756956743534e+18,18.004353352864584,-1.1172589858373003,-1.2751750946044922,-3.5175857543945312,1.6888756956743534e+18,18.004353352864584,-1.4867404301961262,-10.772686958312988,-5.893123308817546,1.6888756956743534e+18,18.004353352864584,-0.3922828882932663,-9.481766700744627,-2.440251032511393,1.6888756956743534e+18,18.004353352864584,-0.7267260104417801,5.069774309794108,-2.258165200551351,1.6888756956743534e+18,18.004353352864584,-0.7276423325141271,5.074254035949707,-2.2560271422068277,,,,,,,,,,,,1.6888756956659948e+18,17.995994775390624,1.3834799766540526,49.400238800048825,-2.5546799659729005,1.6888756956659948e+18,17.995994775390624,-254.01131286621097,144.63343505859376,-135.91287841796876,1.6888756956743534e+18,18.004353352864584,-0.4074687163035075,0.549034039179484,-0.4689018229643504,0.557795782883962,1.7583201726277669,1.33063542842865,-0.2582770163814227
3.05,1.688875695726252e+18,18.056251953125003,3.6967353026072183,2.665761629740397,0.3926018873850505,1.688875695726252e+18,18.056251953125003,2.1511475642522178,-6.725227355957031,-1.9615163803100584,1.688875695726252e+18,18.056251953125003,-1.5683891773223877,-9.37524382273356,-2.418831745783488,1.688875695726252e+18,18.056251953125003,0.4236859480539958,2.1680116256078086,-1.0131709476312,1.688875695726252e+18,18.056251953125003,0.4227187434832255,2.1724913120269775,-1.0110328892866771,,,,,,,,,,,,1.688875695715993e+18,18.045993066406247,5.204519891738892,49.13671798706055,-3.95767993927002,1.688875695715993e+18,18.045993066406247,-250.19027404785157,144.3699157714844,-137.31587829589844,1.688875695726252e+18,18.056251953125003,-0.4191458721955617,0.613215704758962,-0.4519865115483601,0.493719607591629,2.186828136444092,1.288983424504598,-0.5284493962923685
3.1,1.6888756957695073e+18,18.09950720214844,1.81313294172287,3.0533018112182617,-0.4877561330795288,1.6888756957695073e+18,18.09950720214844,0.0083748996257781,-6.297909259796143,-2.8196423053741455,1.6888756957695073e+18,18.09950720214844,-1.8275595903396609,-9.335465908050535,-2.3965996503829956,1.6888756957695073e+18,18.09950720214844,0.1033889462996739,2.2653173208236694,0.2267837300896644,1.6888756957695073e+18,18.09950720214844,0.102319927100325,2.269822597503662,0.2289217486977577,,,,,,,,,,,,1.6888756957659927e+18,18.095992529296876,6.4464798927307125,49.30263900756836,-3.6380399227142335,1.6888756957659927e+18,18.095992529296876,-248.9483154296875,144.53583679199218,-136.996240234375,1.6888756957695073e+18,18.09950720214844,-0.4330016821622848,0.637799084186554,-0.4312726706266403,0.4686283618211746,2.262283205986023,1.27531635761261,-0.5184811055660248
3.15,1.68887569581275e+18,18.14275,1.4520658651987712,2.5837759971618652,-2.391958316167196,1.68887569581275e+18,18.14275,-0.5940182060003281,-6.767101764678955,-4.517449696858724,1.68887569581275e+18,18.14275,-2.068885525067647,-9.335132598876951,-2.1902048587799072,1.68887569581275e+18,18.14275,-0.1280780807137489,2.267989953358968,-0.1999056488275527,1.68887569581275e+18,18.14275,-0.128994376088182,2.272418737411499,-0.1977676277359326,,,,,,,,,,,,1.6888756958159956e+18,18.145995605468748,5.882839870452881,49.37339859008789,-3.801519918441772,1.6888756958159956e+18,18.145995605468748,-249.51195373535157,144.60659790039062,-137.159716796875,1.68887569581275e+18,18.14275,-0.4544252852598826,0.6609265208244324,-0.4088791410128274,0.4350221455097198,2.3677812417348227,1.2752704222997029,-0.5216375192006429
3.2,1.6888756958646436e+18,18.194643554687502,4.013556798299153,-0.7893107732137045,-3.7504472732543945,1.6888756958646436e+18,18.194643554687502,1.4929219881693525,-10.081560134887695,-5.605785051981608,1.6888756958646436e+18,18.194643554687502,-2.5434362093607583,-9.276504198710125,-1.9200512965520224,1.6888756958646436e+18,18.194643554687502,0.0019853102664152,2.313702980677286,-0.5717189560333887,1.6888756958646436e+18,18.194643554687502,0.0010181119044621,2.318182667096456,-0.5695809324582418,,,,,,,,,,,,1.6888756958659986e+18,18.195998681640624,6.627039909362793,49.236759185791016,-4.753119850158692,1.6888756958659986e+18,18.195998681640624,-248.76775817871095,144.46995544433594,-138.11131591796874,1.6888756958646436e+18,18.194643554687502,-0.4704702496528625,0.6920559406280518,-0.3847830196221669,0.3890305360158284,2.5344487031300864,1.2559397617975872,-0.5674065748850504
3.25,1.688875695916548e+18,18.246547932942708,2.6612569093704224,-1.6131598154703777,-8.760052045186361,1.688875695916548e+18,18.246547932942708,0.1696910063425699,-10.91545867919922,-10.607781410217283,1.688875695916548e+18,18.246547932942708,-2.5143673419952393,-9.286553700764976,-1.9124430020650227,1.688875695916548e+18,18.246547932942708,0.3432553509871165,-0.2883792941768964,0.4929173390070597,1.688875695916548e+18,18.246547932942708,0.3423390686511993,-0.2838996239006519,0.4950553874174754,,,,,,,,,,,,1.6888756959159944e+18,18.24599423828125,6.336679935455322,48.995199584960936,-5.121559906005859,1.6888756959159944e+18,18.24599423828125,-249.05811462402343,144.22839965820313,-138.47975463867186,1.688875695916548e+18,18.246547932942708,-0.4779561559359233,0.6967577536900839,-0.3739253481229146,0.382389893134435,2.530769427617391,1.2596336205800374,-0.5332262019316355
3.3,1.6888756959684493e+18,18.298449055989582,1.7468993266423545,-2.6992759704589844,-4.52834423383077,1.6888756959684493e+18,18.298449055989582,-0.0255235036214192,-12.040284474690756,-6.881957530975342,1.6888756959684493e+18,18.298449055989582,-1.7952243089675903,-9.325263341267904,-2.4183267752329507,1.6888756959684493e+18,18.298449055989582,0.985987424850464,-1.72197828690211,2.037490129470825,1.6888756959684493e+18,18.298449055989582,0.9850202004114786,-1.7175494531790416,2.0396281480789185,,,,,,,,,,,,1.688875695965991e+18,18.295990673828125,4.043079853057861,49.4539192199707,-2.9328799724578856,1.688875695965991e+18,18.295990673828125,-251.35171508789065,144.68711853027344,-136.29107971191405,1.6888756959684493e+18,18.298449055989582,-0.4844387968381246,0.6804096500078837,-0.35453000664711,0.4195286234219869,2.230719010035197,1.2749027808507285,-0.2621294409036636
3.35,1.6888756960203428e+18,18.350342854817708,-3.2619062264760337,-7.171612739562988,-2.1672181288401284,1.6888756960203428e+18,18.350342854817708,-3.539184093475342,-16.44427490234375,-5.297509829203288,1.6888756960203428e+18,18.350342854817708,-0.3000793258349101,-9.256916999816893,-3.195005178451538,1.6888756960203428e+18,18.350342854817708,1.5325591166814168,-2.495130022366842,2.4150048096974692,1.6888756960203428e+18,18.350342854817708,1.5315918922424316,-2.4906503359476724,2.417142868041992,,,,,,,,,,,,1.6888756960159944e+18,18.34599423828125,-2.0837599635124207,49.932158660888675,-0.253760016709566,1.6888756960159944e+18,18.34599423828125,-257.4785583496094,145.1653564453125,-133.6119598388672,1.6888756960203428e+18,18.350342854817708,-0.4891638656457265,0.6350917418797811,-0.3313763240973155,0.4967407782872517,1.6667659282684326,1.2547859748204548,0.20504525800546
3.4,1.688875696072237e+18,18.402236816406248,-0.9419722557067872,-11.93729559580485,1.7622423171997073,1.688875696072237e+18,18.402236816406248,0.486141840616862,-20.939191818237305,-1.823729654153188,1.688875696072237e+18,18.402236816406248,1.4053126374880474,-8.986151059468588,-3.650685469309489,1.688875696072237e+18,18.402236816406248,0.5109887917836508,-2.0933842261632285,2.472375194231669,1.688875696072237e+18,18.402236816406248,0.5100724721948305,-2.088955521583557,2.474513292312622,,,,,,,,,,,,1.6888756960659894e+18,18.395989453125,-8.901119804382324,49.34411849975586,2.40339994430542,1.6888756960659894e+18,18.395989453125,-264.29591674804686,144.5773162841797,-130.95479736328124,1.688875696072237e+18,18.402236816406248,-0.4927710394064585,0.5746853550275167,-0.3111843864123026,0.5740993420282999,1.184536059697469,1.1769566138585408,0.5722777744134268
3.45,1.6888756961241326e+18,18.45413289388021,-3.924910386403402,-3.3779913584391275,1.2557843526204426,1.6888756961241326e+18,18.45413289388021,-1.2376875480016072,-12.179866154988607,-2.1102701226870217,1.6888756961241326e+18,18.45413289388021,2.664421319961548,-8.786129633585611,-3.4307679335276284,1.6888756961241326e+18,18.45413289388021,0.9531533817450204,-4.955389817555745,1.0791952808698018,1.6888756961241326e+18,18.45413289388021,0.9521862169106802,-4.950910250345866,1.081333299477895,1.688875696141431e+18,18.47143115234375,0.0,0.0,0.9886841177940368,17.417999267578125,0.2085484713315963,88.66631317138672,41.0,-122.7528847,49.1905145,1.688875696115986e+18,18.4459861328125,-14.58631992340088,48.0777587890625,1.817799997329712,1.688875696115986e+18,18.4459861328125,-269.9811157226562,143.3109588623047,-131.54039916992187,1.6888756961241326e+18,18.45413289388021,-0.4751130143801371,0.5049795111020406,-0.3301281630992889,0.6393027305603027,0.8891108234723409,1.1274906396865845,0.6924364765485128
3.5,1.68887569617603e+18,18.50602994791667,-7.452701727549235,5.582906405131022,0.989117423693339,1.68887569617603e+18,18.50602994791667,-3.430310626824697,-2.7742785016695657,-2.19182554880778,1.68887569617603e+18,18.50602994791667,3.9995896021525064,-8.341439565022787,-3.2456564903259277,1.68887569617603e+18,18.50602994791667,1.0020735263824463,-3.859344800313314,1.4388421773910522,1.68887569617603e+18,18.50602994791667,1.0010554194450378,-3.8549160162607823,1.4410310983657837,,,,,,,,,,,,1.6888756961659889e+18,18.49598901367187,-17.980359649658205,47.135919189453126,0.871079957485199,1.6888756961659889e+18,18.49598901367187,-273.3751586914062,142.3691162109375,-132.48711547851562,1.68887569617603e+18,18.50602994791667,-0.4323003689448039,0.4252224266529083,-0.3422732452551524,0.7171635230382284,0.6625772913297018,1.033873716990153,0.6981714367866516
3.55,1.6888756962192814e+18,18.549281372070315,-9.900049209594728,10.31284236907959,0.4372146725654602,1.6888756962192814e+18,18.549281372070315,-4.922335386276245,2.241177499294281,-2.0892332196235657,1.6888756962192814e+18,18.549281372070315,4.954912424087524,-8.055919647216797,-2.591161370277405,1.6888756962192814e+18,18.549281372070315,-0.1047633960843086,-4.54827356338501,1.1805734634399414,1.6888756962192814e+18,18.549281372070315,-0.1056796833872795,-4.543844699859619,1.182711482048035,,,,,,,,,,,,1.6888756962159887e+18,18.54598862304687,-21.264599609375,46.10135955810547,-1.5859999626874923,1.6888756962159887e+18,18.54598862304687,-276.6593933105469,141.33455505371094,-134.94419860839844,1.6888756962192814e+18,18.549281372070315,-0.403360053896904,0.3503756523132324,-0.3577272444963455,0.7656177878379822,0.4621204435825348,0.9803324341773988,0.7197960615158081
3.6,1.6888756962625364e+18,18.592536702473957,-5.9523061116536455,8.803616364796957,3.239705959955851,1.6888756962625364e+18,18.592536702473957,-0.5449653665224711,0.7515456875165304,1.6955142617225647,1.6888756962625364e+18,18.592536702473957,5.384539286295573,-8.036325295766195,-1.60890527566274,1.6888756962625364e+18,18.592536702473957,-0.1881464918454488,-3.1549662748972573,-0.3592396676540375,1.6888756962625364e+18,18.592536702473957,-0.1890627940495809,-3.1504865487416587,-0.3570507367451985,,,,,,,,,,,,1.688875696265993e+18,18.595993017578124,-21.31583938598633,45.79391860961914,-6.326919841766357,1.688875696265993e+18,18.595993017578124,-276.71062622070315,141.02711486816406,-139.68511657714845,1.6888756962625364e+18,18.592536702473957,-0.3812144696712494,0.2814404865105946,-0.3883224825064341,0.7900529702504476,0.2685439735651016,0.9765285054842632,0.7560617725054423
3.65,1.6888756963144374e+18,18.64443741861979,1.2220306396484375,5.668657302856445,4.995719909667969,1.6888756963144374e+18,18.64443741861979,6.075376669565837,-2.7152554988861084,3.4233315785725913,1.6888756963144374e+18,18.64443741861979,4.830544630686442,-8.368167877197266,-1.6371018091837566,1.6888756963144374e+18,18.64443741861979,1.5669711828231812,0.8310821652412415,-2.2838215033213296,1.6888756963144374e+18,18.64443741861979,1.566003918647766,0.8355618516604105,-2.281683564186096,,,,,,,,,,,,1.688875696315994e+18,18.645994140625,-17.24835948944092,47.377479553222656,-5.82427978515625,1.688875696315994e+18,18.645994140625,-272.6431579589844,142.61068115234374,-139.1824737548828,1.6888756963144374e+18,18.64443741861979,-0.3457755148410797,0.2826184034347534,-0.4231390555699666,0.7880403796831766,0.3103779653708139,1.039535721143087,0.6467819809913635
3.7,1.688875696366338e+18,18.696337890625,7.178869883219401,-6.334070523579915,-0.3961685498555501,1.688875696366338e+18,18.696337890625,10.809377034505207,-15.121243158976236,-2.826920668284098,1.688875696366338e+18,18.696337890625,3.60770575205485,-8.771427154541016,-2.495465675989786,1.688875696366338e+18,18.696337890625,0.682794620593389,-0.3067052563031516,-1.8735745660960672,1.688875696366338e+18,18.696337890625,0.6817765335241953,-0.3022255698839823,-1.8714366238564253,,,,,,,,,,,,1.688875696365993e+18,18.69599291992187,-9.74535961151123,49.344119262695315,-1.546959924697876,1.688875696365993e+18,18.69599291992187,-265.14015502929686,144.5773193359375,-134.90515747070313,1.688875696366338e+18,18.696337890625,-0.3137144247690836,0.3435900807380676,-0.4511499802271525,0.7614109913508097,0.5940713087717692,1.125948707262675,0.3994279106458028
3.75,1.6888756964182336e+18,18.74823347981771,7.409424543380737,-8.067517598470053,-0.3990621169408162,1.6888756964182336e+18,18.74823347981771,11.287542661031088,-16.90110492706299,-2.2293129762013755,1.6888756964182336e+18,18.74823347981771,3.855316480000814,-8.817842165629068,-1.8949644168217976,1.6888756964182336e+18,18.74823347981771,-0.4203261882066726,-1.6501505970954895,0.5818491478761038,1.6888756964182336e+18,18.74823347981771,-0.4212424904108047,-1.6457219223181407,0.583987166484197,,,,,,,,,,,,1.688875696415997e+18,18.745996826171876,-8.430199909210206,49.549078369140624,-2.813320016860962,1.688875696415997e+18,18.745996826171876,-263.82500610351565,144.782275390625,-136.17151794433593,1.6888756964182336e+18,18.74823347981771,-0.2902899483839671,0.2925906081994374,-0.4735589424769084,0.7783162395159403,0.4437134861946105,1.1361750364303589,0.4277929663658142
3.8,1.688875696470134e+18,18.80013387044271,-12.1648956934611,-4.5143764813741045,3.450348695119222,1.688875696470134e+18,18.80013387044271,-8.302895148595175,-13.339388052622477,1.5511472821235657,1.688875696470134e+18,18.80013387044271,3.8391992251078286,-8.809266408284506,-1.9639149109522505,1.688875696470134e+18,18.80013387044271,-1.243925228714943,2.9256882667541504,-0.1370883335669835,1.688875696470134e+18,18.80013387044271,-1.2448925127585728,2.930116891860962,-0.1349503124753634,,,,,,,,,,,,1.688875696465991e+18,18.795990625,-10.316319847106934,49.083039093017575,-3.2915598869323732,1.688875696465991e+18,18.795990625,-265.71111450195315,144.3162353515625,-136.6497589111328,1.688875696470134e+18,18.80013387044271,-0.3223920464515685,0.315436432758967,-0.4585511386394501,0.7651981910069784,0.4568256636460622,1.1334204276402793,0.5040152569611868
3.85,1.6888756965220293e+18,18.852029459635418,-8.195693651835123,-1.1370162963867188,-1.3883184989293416,1.6888756965220293e+18,18.852029459635418,-5.166103998819987,-10.22512944539388,-3.490928808848063,1.6888756965220293e+18,18.852029459635418,3.0067883332570395,-9.072367986043297,-2.167323788007101,1.6888756965220293e+18,18.852029459635418,0.9418523808320364,2.2686517238616943,-1.58371905485789,1.6888756965220293e+18,18.852029459635418,0.940885215997696,2.2730804284413657,-1.5815810362497966,,,,,,,,,,,,1.6888756965159926e+18,18.845992529296876,-9.271999931335449,49.02935943603516,-4.074799823760986,1.6888756965159926e+18,18.845992529296876,-264.666796875,144.26256103515624,-137.43299560546876,1.6888756965220293e+18,18.852029459635418,-0.3501704931259155,0.3672038316726684,-0.4650259812672933,0.7250430981318156,0.6103449066480001,1.1981464227040608,0.474582701921463
3.9,1.6888756965739295e+18,18.90392952473958,-4.46728773911794,3.5043625831604004,-4.208504756291707,1.6888756965739295e+18,18.90392952473958,-2.856033285458883,-5.78205664952596,-6.886942227681478,1.6888756965739295e+18,18.90392952473958,1.5884530941645305,-9.270674069722494,-2.7431509494781494,1.6888756965739295e+18,18.90392952473958,-1.1295407613118489,4.028249104817708,-2.1412863731384277,1.6888756965739295e+18,18.90392952473958,-1.130457063515981,4.032728672027588,-2.139148235321045,,,,,,,,,,,,1.688875696565991e+18,18.895990966796873,-4.89463996887207,49.93459854125977,-1.019919991493225,1.688875696565991e+18,18.895990966796873,-260.2894348144531,145.1677978515625,-134.37811889648438,1.6888756965739295e+18,18.90392952473958,-0.3591308891773224,0.4499855637550354,-0.4690410594145457,0.6687436699867249,1.054570496082306,1.258170525232951,0.1815843457976976
3.95,1.6888756966258363e+18,18.95583642578125,-4.096937497456868,-1.3223360379536946,-1.9750958283742268,1.6888756966258363e+18,18.95583642578125,-4.238885402679443,-10.867402871449787,-4.1984067757924395,1.6888756966258363e+18,18.95583642578125,-0.164749393860499,-9.529321670532228,-2.288024425506592,1.6888756966258363e+18,18.95583642578125,-0.4293873459100723,3.8545596599578857,-2.236835797627767,1.6888756966258363e+18,18.95583642578125,-0.4303036630153656,3.859039465586344,-2.2346977392832437,,,,,,,,,,,,1.688875696615993e+18,18.94599340820313,-0.3440399765968322,49.91019897460937,-4.150439834594726,1.688875696615993e+18,18.94599340820313,-255.73882751464845,145.14339904785157,-137.50863647460938,1.6888756966258363e+18,18.95583642578125,-0.4079891741275787,0.5324412782986959,-0.4760641654332478,0.5679579973220825,1.665429989496867,1.348703344662984,-0.1989368976404269
4.0,1.6888756966690806e+18,18.99908068847656,6.055114269256592,3.03401517868042,1.1764505505561829,1.6888756966690806e+18,18.99908068847656,4.817948341369629,-6.401997089385986,-1.1814561784267426,1.6888756966690806e+18,18.99908068847656,-1.2599673867225647,-9.42026710510254,-2.422620177268982,1.6888756966690806e+18,18.99908068847656,0.7514406144618988,2.9552133083343506,-1.7618117332458496,1.6888756966690806e+18,18.99908068847656,0.7504479587078094,2.9597184658050537,-1.7596737146377563,1.6888756966604308e+18,18.990430908203123,0.0,0.0,0.9886841177940368,17.344999313354492,0.2570715546607971,87.56674194335938,41.0,-122.7528705,49.1905137,1.6888756966659945e+18,18.9959943359375,4.51887993812561,49.8565185546875,-4.5188798904418945,1.6888756966659945e+18,18.9959943359375,-250.87591857910155,145.0897186279297,-137.8770782470703,1.6888756966690806e+18,18.99908068847656,-0.406027615070343,0.5875809192657471,-0.4691193997859954,0.5191830098628998,2.0878615379333496,1.3034132719039917,-0.5116871446371078
4.05,1.68887569671233e+18,19.042329833984375,2.146055022875468,2.537980079650879,0.1231477657953898,1.68887569671233e+18,19.042329833984375,0.4697908535599708,-6.825925509134929,-2.2534406582514444,1.68887569671233e+18,19.042329833984375,-1.6990656852722168,-9.34816042582194,-2.441301902135214,1.68887569671233e+18,19.042329833984375,0.3374521493290861,2.7821348508199057,0.2583959996700287,1.68887569671233e+18,19.042329833984375,0.336434043943882,2.7865636348724365,0.2605340182781219,,,,,,,,,,,,1.6888756967159923e+18,19.045992236328125,6.104879760742188,49.61007843017578,-3.6843999862670898,1.6888756967159923e+18,19.045992236328125,-249.2899169921875,144.84328002929686,-137.0426025390625,1.68887569671233e+18,19.042329833984375,-0.4275246957937876,0.6292600631713867,-0.436475763718287,0.4799915154774983,2.21468981107076,1.2778770526250205,-0.5019165873527527
4.1,1.6888756967642289e+18,19.09422884114583,1.991451422373454,2.3403285344441733,-3.16418464978536,1.6888756967642289e+18,19.09422884114583,0.1371885019664964,-7.03489875793457,-5.357729276021321,1.6888756967642289e+18,19.09422884114583,-1.8770644664764404,-9.359482129414875,-2.2582581837972007,1.6888756967642289e+18,19.09422884114583,-0.1748092708488305,2.128610889116923,-0.1467094669739405,1.6888756967642289e+18,19.09422884114583,-0.1758273765444755,2.133039633433024,-0.1445714409152666,,,,,,,,,,,,1.6888756967659917e+18,19.095991845703125,4.753119945526123,49.85163879394531,-4.187039947509765,1.6888756967659917e+18,19.095991845703125,-250.6416778564453,145.0848388671875,-137.54523620605468,1.6888756967642289e+18,19.09422884114583,-0.4549845159053802,0.6547576189041138,-0.4072486559549967,0.4451882044474284,2.2988298734029136,1.2821385065714517,-0.4672545095284779
4.15,1.6888756968161275e+18,19.146127604166665,4.22221827507019,-0.8904924392700195,-3.416075388590494,1.6888756968161275e+18,19.146127604166665,1.91465695699056,-10.239685694376629,-5.264209747314453,1.6888756968161275e+18,19.146127604166665,-2.330362876256307,-9.33344809214274,-1.9128478368123372,1.6888756968161275e+18,19.146127604166665,-0.454534649848938,1.671123703320821,-0.7397069036960602,1.6888756968161275e+18,19.146127604166665,-0.4554509421189626,1.675552487373352,-0.7375688850879669,,,,,,,,,,,,1.6888756968159923e+18,19.145992138671875,5.726679897308349,49.66863784790039,-5.204519939422608,1.6888756968159923e+18,19.145992138671875,-249.668115234375,144.90183715820314,-138.56271362304688,1.6888756968161275e+18,19.146127604166665,-0.4683193564414978,0.6781328717867533,-0.3962879180908203,0.4044535756111145,2.492100636164347,1.2724085251490276,-0.5698703726132711
4.2,1.6888756968680148e+18,19.19801481119792,0.5430945158004761,-0.1443494160970052,-8.888781547546387,1.6888756968680148e+18,19.19801481119792,-1.7665013074874878,-9.541978518168133,-10.48833990097046,1.6888756968680148e+18,19.19801481119792,-2.3323973019917807,-9.38188393910726,-1.6642717917760212,1.6888756968680148e+18,19.19801481119792,-0.2713259657224019,-0.3984368493159612,0.4381939986099799,1.6888756968680148e+18,19.19801481119792,-0.2722931702931722,-0.393957182765007,0.4403320401906967,,,,,,,,,,,,1.6888756968659973e+18,19.195997314453127,5.407039833068848,49.40755920410156,-6.663639831542969,1.6888756968659973e+18,19.195997314453127,-249.98775329589844,144.64075927734376,-140.02183837890624,1.6888756968680148e+18,19.19801481119792,-0.4796879788239797,0.6785611510276794,-0.3953588406244914,0.3912968834241231,2.5652164618174234,1.2885254224141438,-0.6168480118115743
4.25,1.688875696919926e+18,19.24992618815104,2.990589698155721,-0.8234408696492513,-8.290645758310953,1.688875696919926e+18,19.24992618815104,1.1798609991868336,-10.22532876332601,-10.374282042185463,1.688875696919926e+18,19.24992618815104,-1.8335301478703816,-9.38614273071289,-2.1483496824900308,1.688875696919926e+18,19.24992618815104,1.0899872382481892,-2.0311269561449685,1.4581353267033894,1.688875696919926e+18,19.24992618815104,1.089020013809204,-2.026647210121155,1.4602733850479126,,,,,,,,,,,,1.6888756969159946e+18,19.245994628906253,4.07236008644104,49.600318908691406,-5.477799987792968,1.6888756969159946e+18,19.245994628906253,-251.3224334716797,144.8335174560547,-138.83599548339845,1.688875696919926e+18,19.24992618815104,-0.4717810551325479,0.6623987356821696,-0.3910665810108185,0.4303105870882669,2.309634208679199,1.2922824621200562,-0.4216049214204152
4.3,1.6888756969718244e+18,19.301824300130207,-4.226019660631816,-7.497481981913249,-0.5261518557866415,1.6888756969718244e+18,19.301824300130207,-4.841079076131185,-16.818153381347656,-3.4807594219843545,1.6888756969718244e+18,19.301824300130207,-0.6378608842690786,-9.30492623647054,-3.0193210442860923,1.6888756969718244e+18,19.301824300130207,1.5933401981989543,-2.061517516771952,1.703906774520874,1.6888756969718244e+18,19.301824300130207,1.5923220713933308,-2.057037830352783,1.7060448328653972,,,,,,,,,,,,1.6888756969659924e+18,19.295992333984373,-0.0976000010967254,50.15175857543945,-2.005679965019226,1.6888756969659924e+18,19.295992333984373,-255.49239807128907,145.38495788574218,-135.36387634277344,1.6888756969718244e+18,19.301824300130207,-0.4646860460440318,0.6293303569157919,-0.3680276970068614,0.5021145045757294,1.791387716929118,1.267895023028056,0.0063567611699302
4.35,1.6888756970237248e+18,19.35372469075521,-0.3452925284703572,-12.582950274149576,2.2763840754826865,1.6888756970237248e+18,19.35372469075521,0.6007979512214661,-21.631914138793945,-1.3320046067237854,1.6888756970237248e+18,19.35372469075521,0.923289050658544,-9.033218701680502,-3.673102219899496,1.6888756970237248e+18,19.35372469075521,1.0491101716955502,-3.598454554875692,2.528625726699829,1.6888756970237248e+18,19.35372469075521,1.0481429646412532,-3.5939748287200928,2.530763864517212,,,,,,,,,,,,1.6888756970159944e+18,19.345994287109377,-5.387519884109497,49.95167999267578,1.3834799349308011,1.6888756970159944e+18,19.345994287109377,-260.7823181152344,145.18487854003905,-131.97471923828124,1.6888756970237248e+18,19.35372469075521,-0.4439708093802133,0.5707951188087463,-0.3563825090726216,0.5908022920290629,1.3220593134562175,1.1890738407770791,0.31751382847627
4.4,1.688875697075622e+18,19.40562182617187,-4.015958150227864,-7.073192596435547,2.9630093574523926,1.688875697075622e+18,19.40562182617187,-1.5509478847185771,-15.944972038269045,-0.395812729994456,1.688875697075622e+18,19.40562182617187,2.442208766937256,-8.856034278869629,-3.4235356648763022,1.688875697075622e+18,19.40562182617187,0.298153152068456,-4.031507094701131,1.25649889310201,1.688875697075622e+18,19.40562182617187,0.297236829996109,-4.027027368545532,1.2586369117101033,,,,,,,,,,,,1.6888756970659896e+18,19.395989501953125,-11.687599754333496,49.222119140625,1.524999976158142,1.6888756970659896e+18,19.395989501953125,-267.0823974609375,144.45531616210937,-131.83319702148438,1.688875697075622e+18,19.40562182617187,-0.4387522538503011,0.4957399864991506,-0.361359844605128,0.655765175819397,0.9354857206344604,1.1430184443791709,0.5505905747413635
4.45,1.688875697127519e+18,19.457518880208337,-5.630551338195801,3.3632961908976235,0.0009603897730509,1.688875697127519e+18,19.457518880208337,-1.786840319633484,-5.073182841142018,-3.185843904813131,1.688875697127519e+18,19.457518880208337,3.8209096590677896,-8.420733769734701,-3.2515177726745605,1.688875697127519e+18,19.457518880208337,1.241685430208842,-3.700061639149984,1.8484273354212444,1.688875697127519e+18,19.457518880208337,1.2407691081364949,-3.695632934570313,1.8506162961324055,,,,,,,,,,,,1.6888756971159944e+18,19.445994287109375,-14.5716796875,48.39739837646484,0.3513599872589111,1.6888756971159944e+18,19.445994287109375,-269.9664733886719,143.63059692382814,-133.0068359375,1.688875697127519e+18,19.457518880208337,-0.3959847688674927,0.4157439072926839,-0.3672351241111755,0.7312217553456625,0.6921140352884928,1.04913330078125,0.5805065234502157
4.5,1.6888756971707643e+18,19.500764404296874,-10.207794666290283,12.375091552734377,1.4515381455421448,1.6888756971707643e+18,19.500764404296874,-5.328815937042236,4.304986953735352,-1.2601202130317688,1.6888756971707643e+18,19.500764404296874,4.85617733001709,-8.054359912872314,-2.7763718366622925,1.6888756971707643e+18,19.500764404296874,0.0610101670026779,-4.299498796463013,1.3624585270881653,1.6888756971707643e+18,19.500764404296874,0.060093879699707,-4.29499363899231,1.364596605300903,,,,,,,,,,,,1.6888756971659894e+18,19.4959892578125,-18.888039779663085,47.17251968383789,-0.2147199988365173,1.6888756971659894e+18,19.4959892578125,-274.2828369140625,142.4057189941406,-133.57291564941406,1.6888756971707643e+18,19.500764404296874,-0.3653052002191543,0.3454191535711288,-0.3697262555360793,0.7811426222324371,0.5053534507751465,0.979469507932663,0.6010511815547943
4.55,1.6888756972140188e+18,19.54401912434896,-7.216748237609863,10.221906026204428,2.082962473233541,1.6888756972140188e+18,19.54401912434896,-1.7619150678316753,2.2428724567095437,0.3525425791740417,1.6888756972140188e+18,19.54401912434896,5.432031949361165,-7.963288307189941,-1.795133392016093,1.6888756972140188e+18,19.54401912434896,-0.4959207574526469,-3.216052770614624,0.0133372154086828,1.6888756972140188e+18,19.54401912434896,-0.496837059656779,-3.211522181828817,0.0154752569893996,,,,,,,,,,,,1.6888756972159954e+18,19.545995263671877,-20.495999908447267,46.377079772949216,-4.582320022583008,1.6888756972159954e+18,19.545995263671877,-275.8907897949219,141.6102783203125,-137.94051818847657,1.6888756972140188e+18,19.54401912434896,-0.3467260996500651,0.273336003224055,-0.3908638258775075,0.8073447148005167,0.3028835008541743,0.9631133476893108,0.6522343556086222
4.6,1.6888756972659177e+18,19.59591756184896,-2.688155730565389,5.695366382598877,4.0973381996154785,1.6888756972659177e+18,19.59591756184896,2.446461786826452,-2.585644284884135,2.8450660705566406,1.6888756972659177e+18,19.59591756184896,5.1118160883585615,-8.265265464782715,-1.3169856071472168,1.6888756972659177e+18,19.59591756184896,0.8023205796877543,-0.6989316791296005,-1.70986274878184,1.6888756972659177e+18,19.59591756184896,0.801353394985199,-0.6944010555744171,-1.707724690437317,,,,,,,,,,,,1.6888756972659953e+18,19.5959951171875,-17.975479507446288,47.240840148925784,-7.066239833831787,1.6888756972659953e+18,19.5959951171875,-273.3702697753906,142.47403869628906,-140.4244384765625,1.6888756972659177e+18,19.59591756184896,-0.3193356295426686,0.2456249097983042,-0.4295706252257028,0.8080552419026693,0.2369282096624374,1.018240511417389,0.6195805867513021
4.65,1.6888756973178125e+18,19.6478125,6.528571764628093,-1.149392445882162,1.8979459206263225,1.6888756973178125e+18,19.6478125,10.542577107747396,-9.870592514673868,-0.1186441481113433,1.6888756973178125e+18,19.6478125,3.991203943888346,-8.70545482635498,-2.081303517023722,1.6888756973178125e+18,19.6478125,1.398525059223175,1.216436316569646,-2.360026995340983,1.6888756973178125e+18,19.6478125,1.3975578546524048,1.2208651105562849,-2.3578888972600303,,,,,,,,,,,,1.688875697315994e+18,19.645994238281247,-11.619279670715333,49.280679321289064,-3.657559847831726,1.688875697315994e+18,19.645994238281247,-267.0140686035156,144.51387634277344,-137.01575622558593,1.6888756973178125e+18,19.6478125,-0.2880272070566813,0.2979393601417541,-0.4617850879828134,0.7839127779006958,0.4740982949733734,1.109547734260559,0.4052204092343648
4.7,1.688875697369715e+18,19.699715087890624,11.309365590413412,-13.319572448730469,-2.2169295152028403,1.688875697369715e+18,19.699715087890624,15.412967999776203,-22.03630193074544,-4.111666917800903,1.688875697369715e+18,19.699715087890624,4.080800294876099,-8.700984319051107,-1.959450880686442,1.688875697369715e+18,19.699715087890624,-0.2541199401021003,-2.041358927885691,0.640950342019399,1.688875697369715e+18,19.699715087890624,-0.2550362360974152,-2.0368792613347373,0.6430884003639221,,,,,,,,,,,,1.6888756973659922e+18,19.695992236328124,-8.901119804382324,49.8589599609375,-2.2472399950027464,1.6888756973659922e+18,19.695992236328124,-264.29591064453126,145.09215698242187,-135.60543823242188,1.688875697369715e+18,19.699715087890624,-0.269277681907018,0.2787144482135772,-0.4693678617477417,0.793281614780426,0.4387361407279968,1.1082026958465576,0.3801984886328379
4.75,1.6888756974216102e+18,19.751610514322916,-7.745970249176025,0.9123845100402832,5.825197537740071,1.6888756974216102e+18,19.751610514322916,-3.5300114949544272,-7.756334702173869,3.9483567078908286,1.6888756974216102e+18,19.751610514322916,4.193157196044922,-8.652974128723145,-1.941554307937622,1.6888756974216102e+18,19.751610514322916,-0.5277875661849976,1.9841412007808683,0.1552106775343417,1.6888756974216102e+18,19.751610514322916,-0.5287547806898752,1.9885699947675068,0.1573487035930156,,,,,,,,,,,,1.68887569741599e+18,19.745989990234374,-10.0649995803833,49.69059829711914,-2.7791598796844483,1.68887569741599e+18,19.745989990234374,-265.4598022460938,144.92379760742188,-136.13735961914062,1.6888756974216102e+18,19.751610514322916,-0.2767266035079956,0.2793029844760895,-0.4626678725083669,0.7943440079689026,0.4240501523017883,1.0972741444905598,0.4088542560736338
4.8,1.6888756974735053e+18,19.803505126953123,-10.2637988726298,-7.9965769449869795,0.5276781717936198,1.6888756974735053e+18,19.803505126953123,-6.6518473625183105,-16.900107701619465,-1.4624135096867878,1.6888756974735053e+18,19.803505126953123,3.5891500314076743,-8.88778559366862,-2.054805119832357,1.6888756974735053e+18,19.803505126953123,0.0751873254776002,3.089247385660807,-1.07395201921463,1.6888756974735053e+18,19.803505126953123,0.0742201209068297,3.0936761697133384,-1.071813980738322,,,,,,,,,,,,1.68887569746599e+18,19.795990185546877,-10.421239852905272,49.41487884521485,-3.879599952697754,1.68887569746599e+18,19.795990185546877,-265.8160400390625,144.64807739257813,-137.2377960205078,1.6888756974735053e+18,19.803505126953123,-0.3265572090943654,0.3302220602830251,-0.4609711070855458,0.755776564280192,0.5090335309505463,1.1497881809870405,0.4808479646841685
4.85,1.6888756975254044e+18,19.855404541015627,-8.397253036499023,3.994519392649333,-1.9647401968638103,1.6888756975254044e+18,19.855404541015627,-6.087340831756592,-4.9515477021535235,-5.221537748972575,1.6888756975254044e+18,19.855404541015627,2.287110606829325,-8.93032201131185,-3.3215110301971436,1.6888756975254044e+18,19.855404541015627,0.5248859723409017,5.175759474436442,-1.1376347144444785,1.6888756975254044e+18,19.855404541015627,0.5239697098731995,5.180290063222249,-1.135496695836385,,,,,,,,,,,,1.6888756975159862e+18,19.8459861328125,-7.798239994049072,49.93703918457031,0.8686399579048156,1.6888756975159862e+18,19.8459861328125,-263.1930358886719,145.1702392578125,-132.48955993652345,1.6888756975254044e+18,19.855404541015627,-0.340091198682785,0.4422856569290161,-0.4364468852678935,0.7047541538874308,0.966149886449178,1.160593589146932,0.2357473919788996
4.9,1.6888756975773007e+18,19.90730078125,-2.707895517349243,-1.150729497273763,-4.279478391011556,1.6888756975773007e+18,19.90730078125,-2.1483558813730874,-10.534002939860024,-7.008577664693196,1.6888756975773007e+18,19.90730078125,0.536738375822703,-9.367528279622396,-2.793812910715739,1.6888756975773007e+18,19.90730078125,-2.9049187501271567,5.74783452351888,-1.872301975886027,1.6888756975773007e+18,19.90730078125,-2.9059367974599204,5.7522633870442705,-1.870163917541504,,,,,,,,,,,,1.6888756975659863e+18,19.895986181640627,-3.781999921798706,50.127359008789064,-0.0951600253582,1.6888756975659863e+18,19.895986181640627,-259.1767944335937,145.3605529785156,-133.45335693359374,1.6888756975773007e+18,19.90730078125,-0.4165987173716227,0.5344844857851664,-0.4338693022727966,0.5916897257169088,1.4080293575922649,1.289307713508606,0.0871728233372171
4.95,1.688875697620551e+18,19.950550659179687,-1.4646778851747513,3.3541054725646973,-2.9786534309387207,1.688875697620551e+18,19.950550659179687,-2.0165513306856155,-6.193522334098816,-5.152345418930054,1.688875697620551e+18,19.950550659179687,-0.5746749192476273,-9.531882762908936,-2.238405466079712,1.688875697620551e+18,19.950550659179687,-0.2596940975636244,2.011655628681183,-1.7297412753105164,1.688875697620551e+18,19.950550659179687,-0.2606867514550686,2.0160844326019287,-1.727603316307068,,,,,,,,,,,,1.6888756976159867e+18,19.945986669921876,-0.2879199892282486,50.0687973022461,-4.831199836730957,1.6888756976159867e+18,19.945986669921876,-255.68271179199215,145.30199584960937,-138.18939819335938,1.688875697620551e+18,19.950550659179687,-0.4484579563140869,0.582216203212738,-0.4369264990091324,0.5185289680957794,1.844188213348389,1.3480555415153503,-0.1976794973015785
5.0,1.6888756976637983e+18,19.993798665364583,4.32709264755249,2.511333624521891,-0.4159882068634033,1.6888756976637983e+18,19.993798665364583,2.82672111193339,-6.925426959991455,-2.6117659409840903,1.6888756976637983e+18,19.993798665364583,-1.5231730540593464,-9.42101542154948,-2.260491212209066,1.6888756976637983e+18,19.993798665364583,0.287768433491389,2.080861528714498,-1.4697926938533783,1.6888756976637983e+18,19.993798665364583,0.2868012338876724,2.0852903525034585,-1.4676546255747478,,,,,,,,,,,,1.6888756976659863e+18,19.995986376953123,3.9186399459838865,49.915079498291014,-5.0800799369812015,1.6888756976659863e+18,19.995986376953123,-251.4761535644531,145.14827880859374,-138.4382751464844,1.6888756976637983e+18,19.993798665364583,-0.4394630392392476,0.6232208808263143,-0.4349576234817505,0.4785171051820119,2.1960620085398355,1.3025105396906536,-0.4745173851648966
5.05,1.6888756977157048e+18,20.045704752604166,2.619174003601074,2.885873794555664,-1.902546564737956,1.6888756977157048e+18,20.045704752604166,0.742971400419871,-6.51884651184082,-3.952145338058472,1.6888756977157048e+18,20.045704752604166,-1.8990040222803752,-9.388975143432615,-2.114312251408895,1.6888756977157048e+18,20.045704752604166,-0.1077668058375517,2.127643664677938,0.023161972562472,1.6888756977157048e+18,20.045704752604166,-0.1087849177420139,2.132123351097107,0.0253000023464361,1.6888756976984e+18,20.02839990234375,0.0,0.0,0.9988563060760498,17.165000915527344,0.3782790303230285,85.47655487060547,41.0,-122.7528375,49.1905123,1.6888756977159905e+18,20.045990478515627,4.53595986366272,49.88091888427734,-4.999559783935547,1.6888756977159905e+18,20.045990478515627,-250.858837890625,145.11411743164064,-138.35775756835938,1.6888756977157048e+18,20.045704752604166,-0.4585916797320048,0.6539053718249003,-0.4102423687775929,0.4399795830249786,2.338012377421061,1.290453553199768,-0.5015364785989126
5.1,1.6888756977676014e+18,20.097601643880207,2.486486434936523,-0.0608261426289876,-2.277573744455973,1.6888756977676014e+18,20.097601643880207,0.3226322730382283,-9.453244686126707,-4.085744698842366,1.6888756977676014e+18,20.097601643880207,-2.1866555213928223,-9.376673380533854,-1.872884432474772,1.6888756977676014e+18,20.097601643880207,-0.3531310111284256,0.927140732606252,-0.8011497656504313,1.6888756977676014e+18,20.097601643880207,-0.3540982156991958,0.931569516658783,-0.799011747042338,,,,,,,,,,,,1.688875697765994e+18,20.095993798828125,4.304159927368164,49.80039901733399,-6.156119918823242,1.688875697765994e+18,20.095993798828125,-251.09063415527345,145.03359680175782,-139.51431884765626,1.6888756977676014e+18,20.097601643880207,-0.4677900870641072,0.6683707237243652,-0.4042351146539052,0.4134746491909026,2.470597267150879,1.2855856815973918,-0.5766664942105612
5.15,1.688875697819506e+18,20.14950618489583,1.766656756401062,-1.0973345438639324,-4.9143416086832685,1.688875697819506e+18,20.14950618489583,-0.8598209222157794,-10.43609650929769,-6.361518224080403,1.688875697819506e+18,20.14950618489583,-2.6492791970570884,-9.323016802469889,-1.511890133221944,1.688875697819506e+18,20.14950618489583,-0.4751513600349426,1.2187779943148296,-0.088320920864741,1.688875697819506e+18,20.14950618489583,-0.4761185546716054,1.2232067088286085,-0.086182897289594,,,,,,,,,,,,1.688875697815993e+18,20.14599326171875,6.05851993560791,49.219679260253905,-7.156519889831543,1.688875697815993e+18,20.14599326171875,-249.336279296875,144.45287475585937,-140.51471557617188,1.688875697819506e+18,20.14950618489583,-0.4752777218818664,0.6885412136713663,-0.3988073368867238,0.375369648138682,2.6644004185994468,1.2661279439926147,-0.6967912117640177
5.2,1.6888756978714007e+18,20.201400716145834,2.612512310345968,-0.8490896224975586,-9.075016975402832,1.6888756978714007e+18,20.201400716145834,0.2350948353608449,-10.240483283996582,-10.606385866800943,1.6888756978714007e+18,20.201400716145834,-2.400218963623047,-9.375648498535156,-1.5960824489593506,1.6888756978714007e+18,20.201400716145834,0.5025893847147623,-0.6809620236357053,0.6142759124437968,1.6888756978714007e+18,20.201400716145834,0.5016221751769384,-0.6765332520008087,0.6164139360189438,,,,,,,,,,,,1.6888756978659973e+18,20.19599736328125,5.060559940338135,49.14647903442383,-7.781159782409668,1.6888756978659973e+18,20.19599736328125,-250.33423461914063,144.37967834472656,-141.1393585205078,1.6888756978714007e+18,20.201400716145834,-0.4811947246392568,0.6822861830393473,-0.3935602605342865,0.3846780260403951,2.5957988103230796,1.2847732702891033,-0.6332823832829794
5.25,1.6888756979232983e+18,20.25329833984375,0.0363838672637939,-2.9825525283813477,-2.9875237941741943,1.6888756979232983e+18,20.25329833984375,-1.2947164972623189,-12.429118156433104,-5.215356508890788,1.6888756979232983e+18,20.25329833984375,-1.3539018034934998,-9.43082046508789,-2.292546192804972,1.6888756979232983e+18,20.25329833984375,1.2137383619944255,-2.4498750368754068,2.2861123085021973,1.6888756979232983e+18,20.25329833984375,1.2127710978190105,-2.445446252822876,2.288250287373861,,,,,,,,,,,,1.6888756979159936e+18,20.245993554687495,1.947119974717498,49.91507797241211,-5.763279819488526,1.6888756979159936e+18,20.245993554687495,-253.4476745605469,145.14827575683594,-139.1214813232422,1.6888756979232983e+18,20.25329833984375,-0.4802340467770894,0.6500566403071085,-0.3807528913021087,0.4485264619191487,2.1270732084910073,1.3079702059427898,-0.2514317060510317
5.3,1.688875697975201e+18,20.305200927734376,-3.461536725362142,-10.08413314819336,0.373684008916219,1.688875697975201e+18,20.305200927734376,-3.400001565615336,-19.368902842203777,-2.736790895462036,1.688875697975201e+18,20.305200927734376,0.0387337151914835,-9.269024531046549,-3.1751883824666343,1.688875697975201e+18,20.305200927734376,1.8532124360402424,-3.547141710917155,1.934152046839396,1.688875697975201e+18,20.305200927734376,1.8522452513376872,-3.5426620642344155,1.9362901051839192,,,,,,,,,,,,1.6888756979659922e+18,20.29599213867187,-2.486359965801239,50.18347930908203,-2.0178799271583556,1.6888756979659922e+18,20.29599213867187,-257.8811553955078,145.41668090820312,-135.3760772705078,1.688875697975201e+18,20.305200927734376,-0.4636397659778595,0.6037399172782898,-0.3647050261497497,0.5352356235186259,1.5672648350397749,1.2554916540781658,0.1732383742928505
5.35,1.688875698027099e+18,20.357098795572917,-2.6886273622512817,-10.694799105326334,4.299005111058553,1.688875698027099e+18,20.357098795572917,-0.9730812509854636,-19.766509373982743,1.0171490361293156,1.688875698027099e+18,20.357098795572917,1.6927448511123655,-9.055965105692543,-3.346569538116455,1.688875698027099e+18,20.357098795572917,-0.2666935920715332,-2.9345457553863525,2.129221717516581,1.688875698027099e+18,20.357098795572917,-0.2676098942756653,-2.9300660292307534,2.1313597361246743,,,,,,,,,,,,1.6888756980159946e+18,20.34599462890625,-9.228079700469973,49.73939971923828,0.0658799793571234,1.6888756980159946e+18,20.34599462890625,-264.62286987304685,144.97259826660155,-133.2923156738281,1.688875698027099e+18,20.357098795572917,-0.4588872889677683,0.5345919926961263,-0.3581686417261759,0.612215518951416,1.0875889261563618,1.191962440808614,0.5067184865474701
5.4,1.6888756980703496e+18,20.400349609375,-1.8598411083221436,-2.54849624633789,0.3686071634292602,1.6888756980703496e+18,20.400349609375,0.9523434340953828,-11.47956657409668,-2.5507490634918213,1.6888756980703496e+18,20.400349609375,2.789383053779602,-8.915325164794922,-2.9840697050094604,1.6888756980703496e+18,20.400349609375,1.0972667336463928,-4.9148688316345215,1.444390833377838,1.6888756980703496e+18,20.400349609375,1.096274048089981,-4.910440444946289,1.4465289115905762,,,,,,,,,,,,1.6888756980659942e+18,20.395994335937495,-13.263839530944823,48.84391860961914,-2.088639926910401,1.6888756980659942e+18,20.395994335937495,-268.658642578125,144.07711791992188,-135.44683837890625,1.6888756980703496e+18,20.400349609375,-0.4392498582601547,0.4651719182729721,-0.3783192187547683,0.6686033606529236,0.8026050627231598,1.155518352985382,0.6223163306713104
5.45,1.6888756981135951e+18,20.443594970703124,-5.902784029642741,4.914568583170573,0.4343937635421753,1.6888756981135951e+18,20.443594970703124,-2.02991129954656,-3.592823151499033,-2.533201575279236,1.6888756981135951e+18,20.443594970703124,3.85007119178772,-8.491646766662598,-3.03230881690979,1.6888756981135951e+18,20.443594970703124,1.5300138394037883,-3.6899824142456055,1.4397584597269697,1.6888756981135951e+18,20.443594970703124,1.529046614964803,-3.6855536301930742,1.4418964783350627,,,,,,,,,,,,1.688875698115988e+18,20.445987988281253,-16.811599349975587,48.055799102783205,-1.271239995956421,1.688875698115988e+18,20.445987988281253,-272.206396484375,143.28899841308595,-134.6294372558594,1.6888756981135951e+18,20.443594970703124,-0.3970820506413777,0.4063802858193715,-0.3757145504156748,0.7315526405970255,0.6543774008750916,1.061833739280701,0.6008726159731547
5.5,1.6888756981654976e+18,20.49549755859375,-8.9942258199056,10.859846433003744,0.861637552579244,1.6888756981654976e+18,20.49549755859375,-4.13479749361674,2.70369021097819,-1.6169499158859253,1.6888756981654976e+18,20.49549755859375,4.836626688639323,-8.140411376953125,-2.5433009465535483,1.6888756981654976e+18,20.49549755859375,-0.0286597659190495,-3.5556938648223877,0.8727737168471018,1.6888756981654976e+18,20.49549755859375,-0.0296269506216049,-3.5512651602427163,0.8749117354551951,,,,,,,,,,,,1.6888756981659968e+18,20.495996728515625,-18.683079147338866,47.49947967529297,-2.530280017852783,1.6888756981659968e+18,20.495996728515625,-274.07786865234374,142.73267822265626,-135.88847961425782,1.6888756981654976e+18,20.49549755859375,-0.3576620916525522,0.3323858578999837,-0.3826296130816141,0.7839507063229879,0.4717062811056773,0.9937852223714192,0.5965506831804911
5.55,1.688875698217398e+18,20.54739803059896,-5.869081338246663,8.292411009470621,3.2731457153956094,1.688875698217398e+18,20.54739803059896,-0.7455636560916901,0.0596211353937784,1.706281969944636,1.688875698217398e+18,20.54739803059896,5.100716431935628,-8.217044512430826,-1.6315771738688152,1.688875698217398e+18,20.54739803059896,0.0095702136556307,-2.3633867104848227,-0.7848091125488281,1.688875698217398e+18,20.54739803059896,0.0086030103266239,-2.358907103538513,-0.7826710889736811,,,,,,,,,,,,1.688875698215991e+18,20.545991015625,-18.18287925720215,47.28719863891602,-6.251279830932617,1.688875698215991e+18,20.545991015625,-273.5776794433594,142.52039794921876,-139.60947875976564,1.688875698217398e+18,20.54739803059896,-0.3315929373105367,0.268217275540034,-0.4155358771483103,0.8032115499178568,0.2951533794403075,1.0078091025352478,0.619608203570048
5.6,1.6888756982692943e+18,20.599294270833333,2.9843386014302573,5.746607303619385,4.339480082194011,1.6888756982692943e+18,20.599294270833333,7.426324685414632,-2.8071797291437783,2.5096721251805625,1.6888756982692943e+18,20.599294270833333,4.419184684753418,-8.538041750590006,-1.8945215543111165,1.6888756982692943e+18,20.599294270833333,1.7520633141199748,1.0055351456006367,-2.370666186014811,1.6888756982692943e+18,20.599294270833333,1.7511470317840576,1.0099638601144154,-2.368528167406718,,,,,,,,,,,,1.6888756982659963e+18,20.59599638671875,-13.900679779052734,48.4583984375,-5.499759864807129,1.6888756982659963e+18,20.59599638671875,-269.29547729492185,143.69159545898438,-138.8579559326172,1.6888756982692943e+18,20.599294270833333,-0.2957418362299601,0.2816144824028014,-0.4474997818470001,0.7952359120051066,0.397815336783727,1.0717004140218098,0.4719862739245097
5.65,1.6888756983211912e+18,20.65119124348958,8.84592310587565,-15.767377217610678,-2.8478562037150064,1.6888756983211912e+18,20.65119124348958,12.5655091603597,-24.489543279012043,-5.3748778104782104,1.6888756983211912e+18,20.65119124348958,3.696784655253092,-8.706419944763184,-2.5917351245880127,1.6888756983211912e+18,20.65119124348958,0.4536692599455516,-1.5398895343144734,-0.2472477555274963,1.6888756983211912e+18,20.65119124348958,0.4527020355065663,-1.5354098081588743,-0.2451096524794896,,,,,,,,,,,,1.6888756983159913e+18,20.645991210937503,-8.237439823150634,50.132239532470706,-1.041879987716675,1.6888756983159913e+18,20.645991210937503,-263.6322387695312,145.3654357910156,-134.40007934570312,1.6888756983211912e+18,20.65119124348958,-0.2661124567190806,0.3200997014840444,-0.4627825518449147,0.7823888063430786,0.607688327630361,1.1081060965855916,0.2722921172777812
5.7,1.6888756983730893e+18,20.70308927408854,4.33415937423706,-3.3924376169840493,3.4999495347340903,1.6888756983730893e+18,20.70308927408854,8.515457709630331,-12.031311670939129,1.4259228706359863,1.6888756983730893e+18,20.70308927408854,4.158496856689453,-8.623128890991211,-2.138740062713623,1.6888756983730893e+18,20.70308927408854,-0.0090611726045608,-0.0794634024302164,0.4979569911956787,1.6888756983730893e+18,20.70308927408854,-0.0099774748086929,-0.0749837060769399,0.500095009803772,,,,,,,,,,,,1.688875698365995e+18,20.695994921875,-8.708359909057616,49.702798461914064,-1.776319932937622,1.688875698365995e+18,20.695994921875,-264.1031494140625,144.93599548339844,-135.13451538085937,1.6888756983730893e+18,20.70308927408854,-0.2497568825880686,0.2756162385145823,-0.466588298479716,0.8024390935897827,0.4693810244401296,1.0897815227508545,0.3156557579835256
5.75,1.6888756984249915e+18,20.75499178059896,-14.31602382659912,-6.903112729390462,1.8059027989705403,1.6888756984249915e+18,20.75499178059896,-10.217352708180746,-15.570695241292318,-0.3118645536402861,1.6888756984249915e+18,20.75499178059896,4.075870037078857,-8.651837348937988,-2.182480812072754,1.6888756984249915e+18,20.75499178059896,-1.0384200165669124,2.4921774864196777,0.3934481292963028,1.6888756984249915e+18,20.75499178059896,-1.0393362790346146,2.496708075205485,0.3955861528714497,,,,,,,,,,,,1.6888756984159903e+18,20.745990380859375,-10.54323959350586,49.58811950683594,-3.0548799514770506,1.6888756984159903e+18,20.745990380859375,-265.9380310058594,144.82131652832032,-136.41307983398437,1.6888756984249915e+18,20.75499178059896,-0.291589597860972,0.3033983906110127,-0.4528132677078247,0.7858240604400635,0.4831007917722066,1.0949883858362834,0.4125100572903951
5.8,1.6888756984768868e+18,20.80688663736979,-5.8291847705841064,5.074452082316081,1.0990970134735107,1.6888756984768868e+18,20.80688663736979,-2.368694926301638,-3.648057540257772,-1.7337994575500488,1.6888756984768868e+18,20.80688663736979,3.4376885890960693,-8.706764539082846,-2.8976099491119385,1.6888756984768868e+18,20.80688663736979,0.6367761095364889,3.829514185587565,-1.2203560570875804,1.6888756984768868e+18,20.80688663736979,0.6358598172664642,3.833993911743164,-1.2182180285453796,,,,,,,,,,,,1.6888756984659922e+18,20.79599213867187,-11.88279972076416,49.27335891723633,-1.8787999749183657,1.6888756984659922e+18,20.79599213867187,-267.2775939941406,144.50655517578124,-135.23699951171875,1.6888756984768868e+18,20.80688663736979,-0.3173633118470509,0.3720501561959584,-0.4355194369951884,0.7550851305325826,0.6959218581517538,1.1068607171376543,0.353752742211024
5.85,1.6888756985201367e+18,20.85013671875,-9.527489185333252,1.011425971984863,-3.682469367980957,1.6888756985201367e+18,20.85013671875,-7.679166078567505,-8.012665748596191,-7.020541667938233,1.6888756985201367e+18,20.85013671875,1.8255218863487244,-9.008346557617188,-3.4027857780456543,1.6888756985201367e+18,20.85013671875,-1.3526847660541534,5.218392610549927,-2.9212340116500854,1.6888756985201367e+18,20.85013671875,-1.3536774516105652,5.22289776802063,-2.919095873832702,,,,,,,,,,,,1.6888756985159905e+18,20.845990576171875,-7.832399845123291,49.98827896118164,0.7881199985742569,1.6888756985159905e+18,20.845990576171875,-263.227197265625,145.2214782714844,-132.57007751464843,1.6888756985201367e+18,20.85013671875,-0.3494709134101867,0.4684294611215591,-0.4363178163766861,0.6835477352142334,1.0834293067455292,1.1794492602348328,0.1780738830566405
5.9,1.6888756985633823e+18,20.893382486979167,-3.266901135444641,-3.4895852406819663,-4.795473098754883,1.6888756985633823e+18,20.893382486979167,-3.330011566480001,-12.98265806833903,-7.174479802449544,1.6888756985633823e+18,20.893382486979167,-0.0859117756287256,-9.477327664693195,-2.4437201817830405,1.6888756985633823e+18,20.893382486979167,-2.5841636061668396,4.866916020711263,-2.9443705081939697,1.6888756985633823e+18,20.893382486979167,-2.58513081073761,4.871344884236653,-2.9422324498494468,,,,,,,,,,,,1.6888756985659922e+18,20.89599228515625,-0.7881200313568115,50.2151985168457,-3.816159856319428,1.6888756985659922e+18,20.89599228515625,-256.18291625976565,145.44839782714843,-137.1743591308594,1.6888756985633823e+18,20.893382486979167,-0.4069545765717824,0.5383126934369405,-0.4649443527062734,0.5712749361991882,1.6557337045669556,1.325968821843465,-0.1768128257244825
5.95,1.6888756986152817e+18,20.94528165690104,4.535492221514384,2.989750862121582,-0.8769573370615643,1.6888756986152817e+18,20.94528165690104,2.9316065460443497,-6.461019833882649,-2.9276185035705566,1.6888756986152817e+18,20.94528165690104,-1.6266871293385825,-9.435025533040363,-2.1153746445973716,1.6888756986152817e+18,20.94528165690104,0.6743952333927155,3.845498561859131,-1.6016886830329895,1.6888756986152817e+18,20.94528165690104,0.6734280288219452,3.8499781290690103,-1.5995506445566814,,,,,,,,,,,,1.688875698615993e+18,20.945993310546875,4.36759991645813,50.01999969482422,-6.705119895935058,1.688875698615993e+18,20.945993310546875,-251.027197265625,145.2531982421875,-140.06331787109374,1.6888756986152817e+18,20.94528165690104,-0.434393713871638,0.618553360303243,-0.447719931602478,0.4768716593583424,2.2592619260152182,1.3058620691299438,-0.558760424455007
6.0,1.6888756986671862e+18,20.997186197916665,2.3899126450220742,3.629890282948812,-0.1776260137557983,1.6888756986671862e+18,20.997186197916665,0.3046861092249552,-5.739384492238362,-2.187039901812871,1.6888756986671862e+18,20.997186197916665,-2.108028014500936,-9.353529612223308,-2.0741273562113443,1.6888756986671862e+18,20.997186197916665,0.2005165194471677,2.255772670110067,0.1977167228857675,1.6888756986671862e+18,20.997186197916665,0.1995493123928705,2.260201414426168,0.1998547464609145,,,,,,,,,,,,1.6888756986659948e+18,20.995994677734377,4.64087986946106,50.10783920288086,-6.02923994064331,1.6888756986659948e+18,20.995994677734377,-250.7539184570313,145.34103698730468,-139.38743591308594,1.6888756986671862e+18,20.997186197916665,-0.456392506758372,0.6629157463709513,-0.4091174403826396,0.4297180771827698,2.3990182876586914,1.276211698849996,-0.5436941583951315
6.05,1.6888756987190843e+18,21.049084391276043,1.8382222652435305,2.298771540323893,-3.5389389991760254,1.6888756987190843e+18,21.049084391276043,-0.4502495527267456,-7.068796793619792,-5.324827988942464,1.6888756987190843e+18,21.049084391276043,-2.3112732569376626,-9.351823170979818,-1.8506025473276777,1.6888756987190843e+18,21.049084391276043,-0.3017674311995506,1.238223870595296,-0.4421646396319071,1.6888756987190843e+18,21.049084391276043,-0.302734633286794,1.2426526149113972,-0.4400265862544377,1.688875698730433e+18,21.06043310546875,0.0,0.0,1.0092569589614868,16.90399932861328,0.4753479063510895,83.68779754638672,41.0,-122.7528052,49.1905122,1.688875698715994e+18,21.045993896484372,4.245599937438965,49.99803924560547,-6.685599994659424,1.688875698715994e+18,21.045993896484372,-251.1491943359375,145.23123474121093,-140.04379577636718,1.6888756987190843e+18,21.049084391276043,-0.4714849591255188,0.6790703336397806,-0.3943089743455251,0.4012665450572967,2.502782424290975,1.2758578459421794,-0.5711439251899719
6.1,1.688875698770983e+18,21.100982666015625,3.762888749440511,-0.5256983439127604,-4.010862986246745,1.688875698770983e+18,21.100982666015625,0.917448103427887,-9.787043253580729,-5.524628798166911,1.688875698770983e+18,21.100982666015625,-2.868242104848226,-9.245599746704102,-1.578479250272115,1.688875698770983e+18,21.100982666015625,-0.2528982162475586,1.7920241753260295,-0.90464053551356,1.688875698770983e+18,21.100982666015625,-0.2538145184516906,1.7965037922064464,-0.9025024771690368,,,,,,,,,,,,1.6888756987659924e+18,21.09599223632812,5.812079906463623,49.69791870117187,-7.417599964141845,1.6888756987659924e+18,21.09599223632812,-249.58271179199215,144.93111267089844,-140.7757995605469,1.688875698770983e+18,21.100982666015625,-0.4755235115687051,0.7063318490982056,-0.3812678257624308,0.3597258230050404,2.6735754013061523,1.2412030299504595,-0.6520014405250549
6.15,1.6888756988228813e+18,21.152881510416663,2.191052277882894,-2.3118537267049155,-8.23993190129598,1.6888756988228813e+18,21.152881510416663,-0.705085039138794,-11.576874732971191,-9.644470850626629,1.6888756988228813e+18,21.152881510416663,-2.918938716252645,-9.249275843302408,-1.4692524671554563,1.6888756988228813e+18,21.152881510416663,0.1125519225994746,-0.5859724879264832,0.1910990054408708,1.6888756988228813e+18,21.152881510416663,0.1116356216371059,-0.5815437336762747,0.193237043917179,,,,,,,,,,,,1.6888756988159898e+18,21.1459896484375,6.08779993057251,49.21479873657226,-8.535119819641114,1.6888756988159898e+18,21.1459896484375,-249.30699157714844,144.447998046875,-141.89331970214843,1.6888756988228813e+18,21.152881510416663,-0.4762106736501058,0.7055456638336182,-0.3860518435637156,0.3554698526859283,2.7137590249379477,1.242027759552002,-0.692918598651886
6.2,1.6888756988747817e+18,21.204781738281252,0.9152229229609172,-1.5010541280110676,-5.6273899873097735,1.6888756988747817e+18,21.204781738281252,-1.416551023721695,-10.794621149698893,-7.670192877451579,1.6888756988747817e+18,21.204781738281252,-2.3545753558476767,-9.27782185872396,-2.1075162490208945,1.6888756988747817e+18,21.204781738281252,1.232878804206848,-1.8969910740852356,1.6507106224695842,1.6888756988747817e+18,21.204781738281252,1.2319624821345012,-1.8924096028010051,1.6528486808141072,,,,,,,,,,,,1.6888756988659924e+18,21.195992529296877,5.1825599193573,49.78087844848633,-6.553839874267578,1.6888756988659924e+18,21.195992529296877,-250.2122375488281,145.01407775878906,-139.9120361328125,1.6888756988747817e+18,21.204781738281252,-0.4723600248495738,0.6925261815388998,-0.3723443945248921,0.3975771168867747,2.439869165420532,1.2539352575937908,-0.4663102626800537
6.25,1.688875698926676e+18,21.256675944010414,-4.704301357269287,-8.082626024881998,-0.3516900142033894,1.688875698926676e+18,21.256675944010414,-5.737589995066325,-17.33360703786214,-3.3838499784469604,1.688875698926676e+18,21.256675944010414,-1.056090195973714,-9.235235850016275,-3.0968734423319497,1.688875698926676e+18,21.256675944010414,1.8050049543380735,-2.887254556020101,2.028887152671814,1.688875698926676e+18,21.256675944010414,1.8040887117385864,-2.882774829864502,2.0310250918070474,,,,,,,,,,,,1.6888756989159905e+18,21.245990478515623,0.6148799777030944,50.50555953979492,-2.842599940299988,1.6888756989159905e+18,21.245990478515623,-254.77991333007813,145.73875427246094,-136.20079956054687,1.688875698926676e+18,21.256675944010414,-0.4648182988166809,0.6544477542241415,-0.3528392016887665,0.4798970023790995,1.9173583189646404,1.243824481964111,-0.0551150639851887
6.3,1.6888756989699297e+18,21.29992956542969,-1.551637977361679,-13.052929401397703,3.257638931274414,1.6888756989699297e+18,21.29992956542969,-1.0704890489578247,-22.10160541534424,-0.4564309120178222,1.6888756989699297e+18,21.29992956542969,0.4583474695682525,-9.032930850982666,-3.778783440589905,1.6888756989699297e+18,21.29992956542969,1.2114985287189484,-3.897473096847534,3.0533335208892822,1.6888756989699297e+18,21.29992956542969,1.210582196712494,-3.893044233322144,3.055471658706665,,,,,,,,,,,,1.6888756989659948e+18,21.295994580078123,-5.07763991355896,50.40795822143555,1.1199599623680114,1.6888756989659948e+18,21.295994580078123,-260.4724426269531,145.6411560058594,-132.2382385253906,1.6888756989699297e+18,21.29992956542969,-0.4531913995742798,0.6012113988399506,-0.3392302840948105,0.5635454058647156,1.448624551296234,1.1869296431541445,0.2767752856016159
6.35,1.6888756990131786e+18,21.34317862955729,-3.0245705445607505,-10.61790370941162,4.593013763427734,1.6888756990131786e+18,21.34317862955729,-0.9956135749816896,-19.585652351379395,1.2095718185106914,1.6888756990131786e+18,21.34317862955729,2.006155570348104,-8.952003479003906,-3.448155323664347,1.6888756990131786e+18,21.34317862955729,-0.554716537396113,-3.5521814028422036,2.045024116834005,1.6888756990131786e+18,21.34317862955729,-0.5556837618350982,-3.547752618789673,2.047162175178528,,,,,,,,,,,,1.6888756990159903e+18,21.345990380859377,-12.578199768066408,49.45391845703124,-0.3611199855804444,1.6888756990159903e+18,21.345990380859377,-267.972998046875,144.68711547851564,-133.7193176269531,1.6888756990131786e+18,21.34317862955729,-0.4680818617343902,0.5308640201886495,-0.3407446940739949,0.6181384921073914,1.028652807076772,1.164348045984904,0.583051860332489
6.4,1.6888756990650778e+18,21.395077718098957,-2.6270578702290854,1.35127592086792,-0.9659287929534912,1.6888756990650778e+18,21.395077718098957,0.8648059368133545,-7.278368234634399,-4.035894234975179,1.6888756990650778e+18,21.395077718098957,3.469062407811483,-8.613898913065592,-3.134678920110067,1.6888756990650778e+18,21.395077718098957,1.4371622800827026,-4.140088319778442,1.7783814271291096,1.6888756990650778e+18,21.395077718098957,1.436246037483215,-4.135608593622844,1.7805195252100627,,,,,,,,,,,,1.6888756990659945e+18,21.395994335937495,-16.150359916687012,48.28027877807617,-2.305799961090088,1.6888756990659945e+18,21.395994335937495,-271.54515380859374,143.5134765625,-135.66399841308595,1.6888756990650778e+18,21.395077718098957,-0.4329678714275359,0.4427917997042338,-0.3591147164503732,0.6975298921267191,0.7227977315584818,1.087071418762207,0.6611117323239645
6.45,1.6888756991169772e+18,21.44697721354167,-10.023219426472982,11.443172454833984,0.2530482610066731,1.6888756991169772e+18,21.44697721354167,-5.290530840555827,3.247459093729655,-2.3152552445729575,1.6888756991169772e+18,21.44697721354167,4.709887186686198,-8.179968198140463,-2.6330169836680093,1.6888756991169772e+18,21.44697721354167,-0.3107267916202545,-4.061388572057088,1.4543683528900146,1.6888756991169772e+18,21.44697721354167,-0.3117448786894481,-4.056959708531697,1.456506371498108,,,,,,,,,,,,1.6888756991159887e+18,21.445988769531247,-19.519999694824214,47.1237190246582,-3.559959888458252,1.6888756991159887e+18,21.445988769531247,-274.914794921875,142.35691833496094,-136.91815795898438,1.6888756991169772e+18,21.44697721354167,-0.4019104142983754,0.3614298899968465,-0.3630754550298055,0.7583417495091757,0.4968342582384745,1.0003182888031006,0.6983574430147806
6.5,1.6888756991688735e+18,21.498873779296876,-8.014310201009115,10.704288800557457,2.4611135125160217,1.6888756991688735e+18,21.498873779296876,-2.5760730107625327,2.6207390228907266,1.2121641039848328,1.6888756991688735e+18,21.498873779296876,5.415435949961345,-8.067804336547852,-1.313662886619568,1.6888756991688735e+18,21.498873779296876,-0.7447974383831024,-3.0526463985443115,0.0714712316791216,1.6888756991688735e+18,21.498873779296876,-0.7457646628220876,-3.0481666723887124,0.0736092540125052,,,,,,,,,,,,1.6888756991659955e+18,21.4959953125,-21.05719985961914,45.99399871826172,-8.996280002593995,1.6888756991659955e+18,21.4959953125,-276.4519958496094,141.2271942138672,-142.35447998046874,1.6888756991688735e+18,21.498873779296876,-0.3913881580034892,0.2726258635520934,-0.3918512562910716,0.7864456176757812,0.2205903033415476,0.9790632724761964,0.805791179339091
6.55,1.6888756992207757e+18,21.550775634765625,0.7019564310709635,6.07512887318929,4.479248046875,1.6888756992207757e+18,21.550775634765625,5.707679470380147,-2.32263320684433,3.5367913246154785,1.6888756992207757e+18,21.550775634765625,4.982921600341797,-8.382016817728678,-1.0071701804796855,1.6888756992207757e+18,21.550775634765625,1.358462502559026,-0.0077376166979471,-2.086817463239034,1.6888756992207757e+18,21.550775634765625,1.3574952681859334,-0.0032579551140467,-2.0846794843673706,,,,,,,,,,,,1.6888756992159913e+18,21.54599140625,-17.83395938873291,46.313639068603514,-11.843759536743164,1.6888756992159913e+18,21.54599140625,-273.228759765625,141.54683837890624,-145.20195617675782,1.6888756992207757e+18,21.550775634765625,-0.3628887832164764,0.2570185363292694,-0.4296206335226695,0.7856930692990621,0.1851154118776321,1.0384575923283894,0.7582361102104187
6.6,1.6888756992726712e+18,21.602671223958335,5.102231661478679,-4.407426993052165,1.5493496259053547,1.6888756992726712e+18,21.602671223958335,8.930213451385498,-13.172688325246176,-0.6386842330296832,1.6888756992726712e+18,21.602671223958335,3.805180231730143,-8.749516169230143,-2.252747376759847,1.6888756992726712e+18,21.602671223958335,1.9295705954233808,0.7900015115737915,-1.772985508044561,1.6888756992726712e+18,21.602671223958335,1.92860343058904,0.7944302161534628,-1.770847404996554,1.6888756992553697e+18,21.58536962890625,0.0,0.0,1.0189762115478516,16.402999877929688,0.545617938041687,82.19568634033203,41.0,-122.7527753,49.190513,1.688875699265997e+18,21.595996972656252,-10.665239906311037,49.40755920410156,-5.675439834594727,1.688875699265997e+18,21.595996972656252,-266.0600341796875,144.64075622558593,-139.033642578125,1.6888756992726712e+18,21.602671223958335,-0.3199562629063923,0.3306283454100291,-0.4488328198591868,0.7658408880233765,0.5266390740871429,1.116929252942403,0.4568022390206654
