seconds_elapsed_rounded,accelerometer_time,accelerometer_seconds_elapsed,accelerometer_z,accelerometer_y,accelerometer_x,accelerometeruncalibrated_time,accelerometeruncalibrated_seconds_elapsed,accelerometeruncalibrated_z,accelerometeruncalibrated_y,accelerometeruncalibrated_x,gravity_time,gravity_seconds_elapsed,gravity_z,gravity_y,gravity_x,gyroscope_time,gyroscope_seconds_elapsed,gyroscope_z,gyroscope_y,gyroscope_x,gyroscopeuncalibrated_time,gyroscopeuncalibrated_seconds_elapsed,gyroscopeuncalibrated_z,gyroscopeuncalibrated_y,gyroscopeuncalibrated_x,location_time,location_seconds_elapsed,location_altitude,location_speedAccuracy,location_bearingAccuracy,location_latitude,location_altitudeAboveMeanSeaLevel,location_bearing,location_horizontalAccuracy,location_verticalAccuracy,location_longitude,location_speed,magnetometer_time,magnetometer_seconds_elapsed,magnetometer_z,magnetometer_y,magnetometer_x,magnetometeruncalibrated_time,magnetometeruncalibrated_seconds_elapsed,magnetometeruncalibrated_z,magnetometeruncalibrated_y,magnetometeruncalibrated_x,orientation_time,orientation_seconds_elapsed,orientation_yaw,orientation_qx,orientation_qz,orientation_roll,orientation_qw,orientation_qy,orientation_pitch
0.0,1.6897265720115238e+18,60.00052392578125,4.771892856564223,2.9330841976004836,-0.649634734814316,1.68972657200902e+18,59.998019970703126,0.23582763671875,1.261199951171875,-0.142852783203125,1.6897265720115238e+18,60.00052392578125,-2.6804080103617904,9.405194637848734,-0.7198783815722912,1.6897265720115238e+18,60.00052392578125,-0.4659068822860718,0.4513485312461853,-0.6703587438911199,1.6897265720140303e+18,60.00303046875,-0.477040684223175,0.4470183014869689,-0.7728629902005195,,,,,,,,,,,,,1.6897265720115238e+18,60.00052392578125,-6.266736602783203,31.42168731689453,19.294187927246092,1.6897265720095736e+18,59.99857368164063,23.962762451171876,43.29779968261719,98.56031494140623,1.6897265720115238e+18,60.00052392578125,0.2552922987192784,-0.5753695336054359,0.1790153520956071,-0.2629963133650485,0.7775516244379544,-0.1796487768963696,-1.2837669257352804
0.05,1.689726572061629e+18,60.05062856445312,10.659950485942364,2.199428912736177,-1.599651966189891,1.6897265720591245e+18,60.048124511718754,0.904302978515625,1.216485595703125,-0.2720001220703125,1.689726572061629e+18,60.05062856445312,-1.6243830142772944,9.607337037253975,-0.9552306697879732,1.689726572061629e+18,60.05062856445312,-0.6347680687904358,-0.3068893611431121,-3.796876335144043,1.689726572064135e+18,60.05313486328125,-0.6573038339614868,-0.3410412698984146,-3.894219875335694,,,,,,,,,,,,,1.689726572061629e+18,60.05062856445312,-2.153450775146484,30.869239044189452,17.540058898925782,1.6897265720615808e+18,60.05058076171875,28.34736328125,42.60803833007813,96.77479858398438,1.689726572061629e+18,60.05062856445312,-0.0738630776653095,-0.6157478686371041,0.1559997843266616,-0.5763428380813246,0.7470833836690292,-0.1937912788305169,-1.373385586996599
0.1,1.6897265721117327e+18,60.10073271484375,-5.295555423075184,4.769206569315791,-1.178077974343598,1.6897265721092288e+18,60.09822880859375,-0.5769683837890625,1.4751312255859377,-0.248992919921875,1.6897265721117327e+18,60.10073271484375,0.192164927668753,9.691411860161423,-1.4218454634615778,1.6897265721117327e+18,60.10073271484375,-1.19569993019104,0.5269098401069641,-2.9803019523620606,1.6897265721142392e+18,60.103239257812504,-1.213302969932556,0.6254111081361771,-2.882493782043457,,,,,,,,,,,,,1.6897265721117327e+18,60.10073271484375,2.4731815338134764,28.879414367675786,15.538336181640624,1.6897265721135895e+18,60.102589550781246,33.850094604492185,40.062869262695315,93.99404296875,1.6897265721117327e+18,60.10073271484375,-1.1721383391283418,-0.6773912577309513,0.1222696204397778,-1.6701651715763923,0.6891477116314398,-0.2252358090094983,-1.418729910154206
0.15,1.6897265721618376e+18,60.15083735351563,-7.735529019651412,1.9895164638513323,0.8375088672140241,1.689726572159333e+18,60.148333300781246,-0.6407958984375,1.14979248046875,-0.1416107177734375,1.6897265721618376e+18,60.15083735351563,1.1290287990447134,9.504328615104557,-2.11786791389361,1.6897265721618376e+18,60.15083735351563,-1.4462293624877929,1.393811011314392,-1.489636492729187,1.6897265721643436e+18,60.15334360351562,-1.4513211727142334,1.364529478549957,-1.4276739835739136,,,,,,,,,,,,,1.6897265721618376e+18,60.15083735351563,6.115502166748047,27.131800842285156,11.67220458984375,1.689726572160395e+18,60.14939508056641,36.74018859863281,38.68923568725586,90.30860137939452,1.6897265721618376e+18,60.15083735351563,-1.6258042477786847,-0.7088715180864322,0.0667326371342157,-2.0586287174461475,0.6615815377244942,-0.2345953875018854,-1.3234072162074595
0.2,1.6897265722119416e+18,60.20094150390626,-1.1066077230131626,1.7004240952676533,-0.7865436437737942,1.6897265722094374e+18,60.198437548828124,0.063958740234375,1.122637939453125,-0.3649566650390625,1.6897265722119416e+18,60.20094150390626,1.5417840360760686,9.25023519609213,-2.8583290501543877,1.6897265722119416e+18,60.20094150390626,-1.5333361387252809,-0.4498238563537597,-0.7359739184379578,1.689726572214448e+18,60.20344804687499,-1.527169418334961,-0.5552552342414856,-0.7285486698150635,,,,,,,,,,,,,1.6897265722119416e+18,60.20094150390626,7.708881378173828,26.733026123046876,7.6807098388671875,1.6897265722071982e+18,60.19619809570313,37.845053100585936,38.577328491210935,86.79012451171874,1.6897265722119416e+18,60.20094150390626,-1.6645415141550344,-0.7174900384225823,0.025010975229581,-2.06525811555062,0.6486207618946067,-0.2524127096126983,-1.2331504954395485
0.25,1.6897265722620462e+18,60.251046191406246,-3.0860243792630726,-0.5583177733719349,1.931907564612925,1.689726572259542e+18,60.248542041015625,-0.127642822265625,0.8373809814453125,-0.14124755859375,1.6897265722620462e+18,60.251046191406246,1.9950169025115667,8.969447948325872,-3.4209812871471046,1.6897265722620462e+18,60.251046191406246,-1.2708744525909423,-1.0022611260414125,-0.4897529900074005,1.6897265722645527e+18,60.253552587890624,-1.248458170890808,-0.9710127115249634,-0.4623208791017532,,,,,,,,,,,,,1.6897265722620462e+18,60.251046191406246,8.018905639648438,26.60037841796875,5.029298400878906,1.6897265722592015e+18,60.248201464843746,38.134274291992185,38.44444885253906,84.23373718261719,1.6897265722620462e+18,60.251046191406246,-1.6473126862735252,-0.717725136605943,0.0153938537804863,-2.0984508828576347,0.6308903275984296,-0.294058517958001,-1.1550064243882754
0.3,1.6897265723121505e+18,60.3011505859375,-4.431409264987111,-2.493153500391245,4.766663080765008,1.6897265723096466e+18,60.298646533203126,-0.2201751708984375,0.636688232421875,0.105914306640625,1.6897265723121505e+18,60.3011505859375,2.2325441820657255,8.772515509427786,-3.7714832916525,1.6897265723121505e+18,60.3011505859375,-0.717483502626419,-1.049679207801819,0.2320688650012016,1.6897265723146568e+18,60.303656738281255,-0.6828851044178009,-1.0603363871574405,0.2692331627011299,,,,,,,,,,,,,1.6897265723121505e+18,60.3011505859375,8.65099868774414,27.018309783935543,3.604801940917969,1.6897265723112038e+18,60.30020390625,38.73336181640625,38.92204895019531,82.92131958007812,1.6897265723121505e+18,60.3011505859375,-1.6024986209884784,-0.7118817860326786,0.0153048223746592,-2.1052983709468176,0.6212315742648078,-0.3270738290775738,-1.1074695152023053
0.35,1.6897265723622548e+18,60.35125483398438,-3.057027972655296,-2.765276146377921,5.175512177203297,1.689726572359751e+18,60.34875068359374,-0.076226806640625,0.6105316162109375,0.1466217041015625,1.6897265723622548e+18,60.35125483398438,2.253084982695579,8.765743823335766,-3.7750835373276472,1.6897265723622548e+18,60.35125483398438,0.0722257271409034,-1.5439612865447998,0.7189018249511718,1.6897265723647616e+18,60.353761621093746,0.1178127102553844,-1.5563640117645263,0.7406213998794555,,,,,,,,,,,,,1.6897265723622548e+18,60.35125483398438,8.738671875,27.633080291748048,3.945635986328125,1.6897265723632092e+18,60.35220903320312,38.81249084472656,39.700836181640625,83.69493713378907,1.6897265723622548e+18,60.35125483398438,-1.5343864205635087,-0.7002849832088737,0.0371823313927592,-2.108957244887544,0.619390518291599,-0.3527398099496113,-1.1059146388530263
0.4,1.6897265724123594e+18,60.401359521484366,-2.469244041658938,-2.7784385271942615,5.125643283019363,1.6897265724098555e+18,60.39885561523438,-0.0349578857421875,0.637139892578125,0.1763427734375,1.6897265724123594e+18,60.401359521484366,2.094402224179953,8.961165740766523,-3.3823952436432245,1.6897265724123594e+18,60.401359521484366,0.9552400231361388,-1.1495291233062743,1.1961707592010498,1.6897265724148654e+18,60.40386547851563,1.0006916761398317,-1.0909435391426086,1.2146095752716064,,,,,,,,,,,,,1.6897265724123594e+18,60.401359521484366,8.306114959716798,28.277590942382812,6.313027954101562,1.6897265724100132e+18,60.39901306152344,38.22610092163086,40.06406021118164,86.3548355102539,1.6897265724123594e+18,60.401359521484366,-1.4707201682403046,-0.6880480794350241,0.079483724100881,-2.1251967850048414,0.6218713421308475,-0.3651862647805989,-1.152982775676569
0.45,1.6897265724624635e+18,60.45146352539062,1.1138512351745369,-0.1129979012441634,2.0263825809209046,1.6897265724599596e+18,60.44895947265625,0.327679443359375,0.9598114013671876,-0.10738525390625,1.6897265724624635e+18,60.45146352539062,1.6227809712950887,9.280994140779972,-2.706126184403449,1.6897265724624635e+18,60.45146352539062,1.5354955911636352,-0.570531016588211,1.202669095993042,1.6897265724649702e+18,60.45397016601562,1.5235047101974488,-0.6091755241155624,1.1739253997802734,,,,,,,,,,,,,1.6897265724624635e+18,60.45146352539062,7.5861961364746096,28.36112594604492,10.12790069580078,1.6897265724568156e+18,60.44581567382812,37.61007995605469,40.202642822265624,89.83501892089843,1.6897265724624635e+18,60.45146352539062,-1.417261422253833,-0.6782636165559306,0.1238585171324185,-2.11066922752289,0.6338397627239647,-0.350213987746664,-1.243067435961732
0.5,1.689726572512568e+18,60.50156811523438,9.352407985748052,4.760035771579743,-8.64293092278093,1.689726572510064e+18,60.499064257812506,1.07867431640625,1.4548614501953123,-1.1168701171875,1.689726572512568e+18,60.50156811523438,1.36107576210469,9.472624264712334,-2.140493499521315,1.689726572512568e+18,60.50156811523438,0.2649182602763176,-1.3187055230140683,0.4584202378988266,1.6897265725150746e+18,60.50407446289063,0.1768963694572448,-1.2635088801383971,0.420159937441349,,,,,,,,,,,,,1.689726572512568e+18,60.50156811523438,7.123850250244141,28.015231323242187,14.521279907226562,1.68972657250882e+18,60.49781982421875,37.17178955078125,39.87460021972656,94.23307800292967,1.689726572512568e+18,60.50156811523438,-1.3857865972007644,-0.6696008009031464,0.1667178502274067,-2.137366553683486,0.6346040088480887,-0.3478494468419205,-1.3091461364913282
0.55,1.6897265725626724e+18,60.55167255859375,4.75625672065854,0.2191081472533941,-3.1229084996068477,1.6897265725601684e+18,60.54916850585937,0.6073577880859375,0.9538238525390624,-0.51829833984375,1.6897265725626724e+18,60.55167255859375,1.388581345632821,9.420965739858746,-2.3371879795581103,1.6897265725626724e+18,60.55167255859375,-1.0939562797546387,-0.1273190725594759,-0.1373441413044929,1.689726572565179e+18,60.554179003906256,-1.115442943572998,-0.0935269176959991,-0.1290150292217731,,,,,,,,,,,,,1.6897265725626724e+18,60.55167255859375,6.617471313476562,29.62806091308594,17.57554473876953,1.6897265725608236e+18,60.54982353515625,36.650115966796875,41.679998779296874,97.16595153808592,1.6897265725626724e+18,60.55167255859375,-1.3207240723888618,-0.6606324032138049,0.1705176546135265,-2.107932327650596,0.6325335967539523,-0.3664992127480311,-1.2898073130771752
0.6,1.6897265726127767e+18,60.60177670898438,-0.9277136588568984,1.6694624383884666,2.828843077237904,1.6897265726102728e+18,60.59927275390625,0.0344085693359375,1.16339111328125,0.003619384765625,1.6897265726127767e+18,60.60177670898438,1.418704476635158,9.291731340276002,-2.795114761350453,1.6897265726127767e+18,60.60177670898438,-0.5901626348495483,0.4509170711040496,-0.3824989378452301,1.6897265726152837e+18,60.60428354492187,-0.5620037317276001,0.433687150478363,-0.4226600736379623,,,,,,,,,,,,,1.6897265726127767e+18,60.60177670898438,5.954486083984375,32.940331268310544,20.450717163085937,1.6897265726128276e+18,60.601827734375,35.88015441894531,45.2423828125,100.21129760742188,1.6897265726127767e+18,60.60177670898438,-1.2625994870684072,-0.6548676575935447,0.1504855978156139,-2.0406032391900064,0.6363816659587311,-0.378787637943338,-1.2454252463903266
0.65,1.6897265726628815e+18,60.65188159179687,-4.770164717597365,3.158590872171521,0.3885602831950783,1.6897265726603776e+18,60.649377539062506,-0.3596160888671875,1.217041015625,-0.2517425537109375,1.6897265726628815e+18,60.65188159179687,1.5111177965599298,9.212878519026637,-3.000724018535614,1.6897265726628815e+18,60.65188159179687,-0.3142671450972557,-0.3970716744661331,0.4939457595348358,1.6897265726653875e+18,60.654387548828126,-0.2807022921741008,-0.3528289347887039,0.5740033596754074,,,,,,,,,,,,,1.6897265726628815e+18,60.65188159179687,3.625967025756836,35.787164306640626,22.906210327148436,1.6897265726648325e+18,60.65383251953125,32.2064208984375,48.59656982421875,102.80748901367188,1.6897265726628815e+18,60.65188159179687,-1.2567855615025731,-0.6533309993133806,0.1422581056762532,-2.037287882153662,0.6345918985519183,-0.3875268164748983,-1.2210342297663723
0.7,1.6897265727129856e+18,60.70198554687501,-4.467137464067936,-2.3110453549462555,6.6509857120257605,1.6897265727104814e+18,60.69948149414063,-0.3291534423828125,0.72625732421875,0.3911712646484375,1.6897265727129856e+18,60.70198554687501,1.103703116838932,9.289723624489309,-2.936262067758143,1.6897265727129856e+18,60.70198554687501,0.7342383056879044,0.4528450019657611,0.9211251735687256,1.6897265727154924e+18,60.704492333984376,0.794693773984909,0.4263260126113891,0.9221205353736878,,,,,,,,,,,,,1.6897265727129856e+18,60.70198554687501,-2.0950763702392576,38.46192398071289,24.358114624023436,1.6897265727116372e+18,60.7006371459961,27.051361083984375,50.50088119506836,104.0572624206543,1.6897265727129856e+18,60.70198554687501,-1.1496320700726848,-0.641965638814958,0.1504565102927367,-1.9289179663531972,0.6488850087954257,-0.3796099731423163,-1.2449760213273091
0.75,1.6897265727630902e+18,60.7520900390625,-1.531039603121653,1.50313498111248,1.7996619712893664,1.6897265727605862e+18,60.749586132812496,-0.070379638671875,1.121392822265625,-0.099822998046875,1.6897265727630902e+18,60.7520900390625,0.7476269654630124,9.484873388528229,-2.366608807509988,1.6897265727630902e+18,60.7520900390625,1.417027187347412,-0.9929905295372008,0.6265461444854736,1.6897265727655964e+18,60.75459643554687,1.411356806755066,-1.0363949298858643,0.6121671438217163,,,,,,,,,,,,,1.6897265727630902e+18,60.7520900390625,-7.228795242309571,38.57446517944336,27.2278076171875,1.6897265727584435e+18,60.747443359375005,22.41419982910156,50.364865112304685,106.88595275878906,1.6897265727630902e+18,60.7520900390625,-1.083348005952686,-0.6385658028339737,0.1813000460434735,-1.8773930597367348,0.6548581585064072,-0.3610331705211008,-1.3148583691364912
0.8,1.6897265728131945e+18,60.802194531249995,-1.8490349278759952,-0.699636344693303,-2.9823853456729648,1.6897265728106906e+18,60.79969052734375,-0.1304168701171875,0.901641845703125,-0.488140869140625,1.6897265728131945e+18,60.802194531249995,0.5719678354138881,9.63213456009328,-1.743349629280567,1.6897265728131945e+18,60.802194531249995,0.9150249004364014,-1.7520906686782838,0.8067400336265564,1.689726572815701e+18,60.80470092773437,0.8723649740219116,-1.7715033292770386,0.8209035992622375,,,,,,,,,,,,,1.6897265728131945e+18,60.802194531249995,-13.503529167175293,37.46046676635742,29.113993835449214,1.6897265728104492e+18,60.799449023437504,16.017572021484376,49.21968078613281,108.52857971191406,1.6897265728131945e+18,60.802194531249995,-1.0247489974208022,-0.6320406667239382,0.2280642258180577,-1.8867316741964308,0.6470066984327312,-0.3600837792037609,-1.3825491224005748
0.85,1.6897265728632988e+18,60.852298828125,-3.472592407275438,-1.3673524166083335,-2.465352704082727,1.689726572860795e+18,60.84979497070312,-0.34678955078125,0.852886962890625,-0.3747039794921875,1.6897265728632988e+18,60.852298828125,0.2719037955112848,9.68845990771413,-1.489389627389461,1.6897265728632988e+18,60.852298828125,0.0300548747181892,-0.838107705116272,0.940476894378662,1.6897265728658056e+18,60.85480551757812,0.0119512535631656,-0.7874754309654236,0.9720537424087524,,,,,,,,,,,,,1.6897265728632988e+18,60.852298828125,-19.60244026184082,37.20286636352539,27.12062225341797,1.6897265728624576e+18,60.851457714843754,10.084393310546876,49.07518310546875,106.26343994140623,1.6897265728632988e+18,60.852298828125,-0.8110417666592209,-0.6130220629245489,0.2666165425512963,-1.7504232537719973,0.644218886575312,-0.3715307079716784,-1.4154028446186278
0.9,1.6897265729134034e+18,60.90240346679688,-1.5595895080709457,0.3223216196817159,2.2943865395423773,1.6897265729108997e+18,60.89989951171875,-0.1621337890625,1.028564453125,0.085040283203125,1.6897265729134034e+18,60.90240346679688,-0.28906323382074,9.686787941300867,-1.488976954935342,1.6897265729134034e+18,60.90240346679688,0.1081428818404674,-1.522914743423462,1.5923386573791505,1.6897265729159094e+18,60.90490952148438,0.1236295858398079,-1.5164710760116578,1.5924620389938355,,,,,,,,,,,,,1.6897265729134034e+18,60.90240346679688,-23.796299743652344,36.96880340576172,24.261688232421875,1.6897265729144645e+18,60.90346430664063,5.188507080078125,48.5701171875,103.02408447265626,1.6897265729134034e+18,60.90240346679688,-0.3814766307283775,-0.5836969613652019,0.2957029208335534,-1.3812579229455353,0.6535730202658773,-0.3800427032561072,-1.4143138917025015
0.95,1.6897265729635077e+18,60.95250751953125,2.509119832712412,0.6898126360064745,0.6402481023705004,1.6897265729610035e+18,60.950003515625,0.176043701171875,1.0529022216796875,-0.0917572021484375,1.6897265729635077e+18,60.95250751953125,-0.8707676366674899,9.66208686457336,-1.4284789393527806,1.6897265729635077e+18,60.95250751953125,0.1319562043994664,-0.1253549218177795,0.8989856839179993,1.689726572961004e+18,60.95000396728515,0.1518948543816804,-0.1895464273402467,0.9699508994817734,,,,,,,,,,,,,1.6897265729635077e+18,60.95250751953125,-28.066731262207032,35.83292236328125,21.89055938720703,1.6897265729612692e+18,60.95026928710937,1.4265632629394531,47.44135665893555,100.96452713012695,1.6897265729635077e+18,60.95250751953125,0.0294182474364349,-0.5555344856611019,0.3257478103920398,-1.0253423339566246,0.6620134461509339,-0.3833556014444338,-1.3989488116854405
1.0,1.689726573013612e+18,61.002612109375,0.8552329153096675,0.5689364318287372,-0.2762838280932604,1.689726573011108e+18,61.0001080078125,-0.048333740234375,1.037445068359375,-0.16839599609375,1.689726573013612e+18,61.002612109375,-1.0915705028486995,9.6443687201488,-1.4016325503857434,1.689726573013612e+18,61.002612109375,-0.1115842290222644,1.0623838782310486,0.0209434051066637,1.6897265730060977e+18,60.99509755859375,-0.0944169953465461,0.959273076057434,0.0722231155261397,,,,,,,,,,,,,1.689726573013612e+18,61.002612109375,-29.45255126953125,35.93465118408203,20.705471801757813,1.6897265730080737e+18,60.99707348632812,0.619805908203125,47.84012145996094,100.02385864257812,1.689726573013612e+18,61.002612109375,0.1193525780436122,-0.5537046297260496,0.3216302091423287,-0.909192609210043,0.672439625450358,-0.3711193449283283,-1.3886257356714966
1.05,1.6897265730637164e+18,61.052716503906254,-1.6728723052841423,0.0174789580672979,0.2700627616213262,1.6897265730612127e+18,61.05021254882813,-0.296044921875,0.986566162109375,-0.11595458984375,1.6897265730637164e+18,61.052716503906254,-1.2211187614601104,9.629716276131273,-1.3941704854898154,1.6897265730637164e+18,61.052716503906254,-0.0701270632445811,0.4491750493645667,0.3953768104314804,1.689726573056202e+18,61.04520200195312,-0.0736822098493575,0.680943340063095,0.2938493091613053,,,,,,,,,,,,,1.6897265730637164e+18,61.052716503906254,-29.236792373657227,36.704345703125,19.989488220214845,1.6897265730600806e+18,61.0490806640625,0.8130828857421875,48.60091857910156,99.29715881347656,1.6897265730637164e+18,61.052716503906254,0.1287066316372253,-0.5581593431932966,0.3077921640017584,-0.8520469630849355,0.6837495600882033,-0.3552296618525931,-1.3806025100708486
1.1,1.689726573113821e+18,61.10282089843749,-0.0165414726345241,0.6308620836746692,1.022940721028149,1.689726573111317e+18,61.10031684570313,-0.146051025390625,1.03800048828125,-0.029229736328125,1.689726573113821e+18,61.10282089843749,-1.5230499341550467,9.579450316227677,-1.4403396191468834,1.689726573113821e+18,61.10282089843749,-0.1614759474992752,0.3745636050589382,0.6529699325561523,1.6897265731063066e+18,61.09530659179687,-0.1580350667238235,0.1956329852342605,0.6814865589141845,,,,,,,,,,,,,1.689726573113821e+18,61.10282089843749,-30.302720260620116,36.74731674194336,18.45850830078125,1.689726573112085e+18,61.10108491210938,-0.334881591796875,48.58500061035157,97.71320495605468,1.689726573113821e+18,61.10282089843749,0.2167555021403335,-0.547783091560448,0.3091178687046574,-0.7585423790997757,0.6943225240339833,-0.3496618131420052,-1.3552903345818217
1.15,1.6897265731639255e+18,61.152925488281255,1.0945326405899227,-0.339832025026679,2.261974099332988,1.6897265731614216e+18,61.15042153320312,-0.0789398193359375,0.938116455078125,0.0815185546875,1.6897265731639255e+18,61.152925488281255,-1.7866662961159647,9.54152758816421,-1.390574243789613,1.6897265731639255e+18,61.152925488281255,0.0812626399099826,1.2944124221801758,0.1355664812959731,1.6897265731564106e+18,61.145410595703126,0.0450031608343124,1.2154865026474,0.2110080609098076,,,,,,,,,,,,,1.6897265731639255e+18,61.152925488281255,-30.266926574707032,36.67375030517578,18.426145935058592,1.6897265731640904e+18,61.153090429687495,-0.1547821044921875,48.58726806640625,97.88099060058592,1.6897265731639255e+18,61.152925488281255,0.2695511580682597,-0.5469358940561974,0.2992281827594426,-0.6614298459752427,0.7081869989175971,-0.3312274058910173,-1.3377423929791203
1.2,1.6897265732140296e+18,61.20302958984375,-0.7286040805023908,-0.3142490216720103,0.1188896480834484,1.6897265732115256e+18,61.20052543945312,-0.27293701171875,0.9382476806640624,-0.115911865234375,1.6897265732140296e+18,61.20302958984375,-1.9102850770001112,9.54491395727992,-1.187691109019667,1.6897265732140296e+18,61.20302958984375,0.1064444422721862,1.677926516532898,0.0914278471842407,1.6897265732065152e+18,61.195515332031256,0.1238402381539344,1.6660738229751586,0.0591724022408015,,,,,,,,,,,,,1.6897265732140296e+18,61.20302958984375,-29.546710586547853,36.95130233764648,19.456370544433593,1.6897265732108948e+18,61.199895019531255,0.8013076782226562,48.771820068359375,99.18257522583008,1.6897265732140296e+18,61.20302958984375,0.2987362299820109,-0.5581247103593506,0.2806991725551214,-0.5562749479901031,0.7201088365631125,-0.3016709717808842,-1.3392405111253654
1.25,1.689726573264134e+18,61.25313408203125,-0.0868222511455416,-0.638708588617444,-0.6016703736905008,1.68972657326163e+18,61.250630078125006,-0.21563720703125,0.907464599609375,-0.162286376953125,1.689726573264134e+18,61.25313408203125,-2.0876814791706204,9.52972597430706,-0.995681045859009,1.689726573264134e+18,61.25313408203125,0.0484810985624789,1.434959101676941,0.212016612291336,1.6897265732566195e+18,61.24561953125,0.0439525440335273,1.5331150770187378,0.2240474224090575,,,,,,,,,,,,,1.689726573264134e+18,61.25313408203125,-28.38497734069824,37.00239028930664,20.937907409667968,1.6897265732577004e+18,61.24670039062501,1.76153564453125,48.862396240234375,100.42288513183594,1.689726573264134e+18,61.25313408203125,0.3291839127622262,-0.5662114264293978,0.260270659179179,-0.4453160056793191,0.7339358943642296,-0.2699886330206494,-1.332597911433058
1.3,1.6897265733142385e+18,61.303238525390626,0.1130361874279379,-0.2718236045879125,-0.8061804374621063,1.6897265733117343e+18,61.30073452148438,-0.220135498046875,0.9421295166015624,-0.1690521240234375,1.6897265733142385e+18,61.303238525390626,-2.2394165520532425,9.51032978444159,-0.8397132453905046,1.6897265733142385e+18,61.303238525390626,0.0947342708706855,0.966629445552826,0.2471821755170821,1.689726573306724e+18,61.29572412109375,0.0937603667378425,0.9490934371948242,0.2332540303468703,,,,,,,,,,,,,1.6897265733142385e+18,61.303238525390626,-27.757107162475585,37.19628982543945,21.839152526855468,1.6897265733097083e+18,61.29870854492187,2.3479644775390627,49.05827941894531,101.26616821289062,1.6897265733142385e+18,61.303238525390626,0.3605768231742393,-0.5699018871792249,0.2471545561956162,-0.3590177826368521,0.7436931350682464,-0.2469839698706271,-1.3243604790868502
1.35,1.6897265733643428e+18,61.35334287109375,0.0106698333482444,-0.0189090493226051,-0.9982002767513692,1.6897265733618388e+18,61.35083896484375,-0.2453369140625,0.9662750244140624,-0.1637939453125,1.6897265733643428e+18,61.35334287109375,-2.4136403155370054,9.481811545965671,-0.6588565101656689,1.6897265733643428e+18,61.35334287109375,0.1154834836721419,1.190058171749115,0.3067233979701995,1.6897265733568284e+18,61.345828466796874,0.1016813024878501,1.252802634239197,0.2902145147323608,,,,,,,,,,,,,1.6897265733643428e+18,61.35334287109375,-26.93935775756836,37.36209259033203,22.567350769042967,1.6897265733617137e+18,61.350713671875,3.19486083984375,49.21701354980469,102.01849365234376,1.6897265733643428e+18,61.35334287109375,0.3958498503894354,-0.5722726824907669,0.2340070516477756,-0.266860427038008,0.7538421967242422,-0.2222320075835371,-1.312718866573665
1.4,1.6897265734144476e+18,61.40344750976563,0.3708160690942406,-0.3636940790337323,-0.2857652261484414,1.6897265734119434e+18,61.40094345703125,-0.22608642578125,0.9243377685546876,-0.0750732421875,1.6897265734144476e+18,61.40344750976563,-2.6283985970178243,9.437060199378132,-0.4394084780464693,1.6897265734144476e+18,61.40344750976563,0.315823096036911,0.8649004817008972,0.4711160540580749,1.6897265734069327e+18,61.39593271484375,0.290157088637352,0.8494762539863586,0.4612249255180359,,,,,,,,,,,,,1.6897265734144476e+18,61.40344750976563,-26.691200256347656,37.39999618530273,23.0834716796875,1.689726573413721e+18,61.402721337890625,3.365533447265625,49.242626953125,102.5179443359375,1.6897265734144476e+18,61.40344750976563,0.4509712682989192,-0.5712819775581253,0.2265774880058155,-0.1663233403278407,0.7633253264414187,-0.198947690940489,-1.2954445862654422
1.45,1.6897265734645514e+18,61.45355151367187,1.2286007147133349,0.057740358211398,-1.2563473258426785,1.6897265734620475e+18,61.45104755859374,-0.165667724609375,0.9644622802734376,-0.146026611328125,1.6897265734645514e+18,61.45355151367187,-2.844537022358477,9.383583928352,-0.1180441741592925,1.6897265734645514e+18,61.45355151367187,0.4630318999290466,1.0422423124313354,0.3496893107891082,1.6897265734570376e+18,61.446037451171875,0.449167788028717,1.045007848739624,0.3752277851104736,,,,,,,,,,,,,1.6897265734645514e+18,61.45355151367187,-26.529302978515624,37.24620513916015,23.724652099609376,1.6897265734605297e+18,61.44952972412109,3.594287872314453,49.07089614868164,103.2670669555664,1.6897265734645514e+18,61.45355151367187,0.5293466033731307,-0.5703580595735733,0.2222025285149609,-0.0420424393026434,0.7717847591680844,-0.172028450905713,-1.276027863410271
1.5,1.6897265735146565e+18,61.50365615234375,1.142006602461338,0.0332422274839877,-3.068732672783136,1.689726573512152e+18,61.50115205078125,-0.1853973388671875,0.9546966552734376,-0.2948394775390625,1.6897265735146565e+18,61.50365615234375,-2.997213438518345,9.33353283869505,0.2470462057412881,1.6897265735146565e+18,61.50365615234375,0.4230397164821625,0.9304346442222596,0.3341428756713867,1.6897265735071416e+18,61.49614155273438,0.4434254288673401,0.9628700017929076,0.3382537364959717,,,,,,,,,,,,,1.6897265735146565e+18,61.50365615234375,-26.161849212646484,37.2384033203125,24.648585510253906,1.6897265735073377e+18,61.496337744140625,3.944677734375,49.077169799804686,104.09842224121094,1.6897265735146565e+18,61.50365615234375,0.6058791443757434,-0.5713268009264374,0.2180212818392169,0.0817288568690602,0.777996216939896,-0.1439313130119771,-1.258951777293238
1.55,1.6897265735647606e+18,61.55376040039063,2.6490955234444136,0.4982378078448771,-4.439543880769312,1.6897265735622566e+18,61.551256542968744,-0.0381195068359375,1.0051055908203126,-0.40252685546875,1.6897265735647606e+18,61.55376040039063,-3.088730803290605,9.291861922466158,0.5358876299445703,1.6897265735647606e+18,61.55376040039063,0.2055642772465943,0.7923555135726928,0.0617704125121235,1.6897265735572462e+18,61.54624614257813,0.2611882954835891,0.8319614052772522,0.1325504288077354,,,,,,,,,,,,,1.6897265735647606e+18,61.55376040039063,-25.909761047363283,37.61097259521485,24.87331237792969,1.6897265735593428e+18,61.54834296875,4.175494384765625,49.527679443359375,104.24059753417968,1.6897265735647606e+18,61.55376040039063,0.6553615113463879,-0.5725646022938893,0.2131389447004795,0.1716890851450127,0.7823353745293552,-0.121066852394521,-1.2453488592477255
1.6,1.689726573614865e+18,61.60386484375,3.11629936905235,2.348668106375933,-4.873906539361775,1.6897265736123607e+18,61.60136069335938,0.0167694091796875,1.2054473876953125,-0.439935302734375,1.689726573614865e+18,61.60386484375,-2.9390685327070947,9.338686918909548,0.5502476668867841,1.689726573614865e+18,61.60386484375,-0.6715437695384026,0.0849358409643173,-0.7123313069343566,1.6897265736073503e+18,61.59635053710938,-0.4576928919181228,0.2277918837033212,-0.579091489315033,,,,,,,,,,,,,1.689726573614865e+18,61.60386484375,-25.377063369750974,39.5438949584961,23.616807556152345,1.6897265736113492e+18,61.60034916992188,4.747463989257812,51.6314453125,102.80192565917967,1.689726573614865e+18,61.60386484375,0.6424303790488383,-0.5804802986737065,0.2025747646473374,0.1842264363762739,0.7802499911473626,-0.1147412539255045,-1.2608437618490145
1.65,1.6897265736649697e+18,61.65396938476563,5.327554387112856,3.5757553770124906,0.516863159468323,1.6897265736624655e+18,61.651465527343746,0.3299224853515625,1.3306365966796876,0.080712890625,1.6897265736649697e+18,61.65396938476563,-2.333276154489666,9.518103925574422,-0.0657654336781567,1.6897265736649697e+18,61.65396938476563,-1.6234344244003296,0.1823918253183364,-2.035251593589783,1.6897265736574546e+18,61.64645463867188,-1.5924805879592896,0.0072864636778831,-1.7672608852386475,,,,,,,,,,,,,1.6897265736649697e+18,61.65396938476563,-23.21918601989746,44.222669219970705,18.587039184570312,1.6897265736633572e+18,61.652357128906246,7.148468017578125,56.4993896484375,97.51126708984376,1.6897265736649697e+18,61.65396938476563,0.4138725332719434,-0.6008212824703498,0.1745104137593532,-0.0395212848920241,0.7670284475193394,-0.1409941129644771,-1.3292122322669433
1.7,1.689726573715073e+18,61.70407314453125,2.4715701319058985,4.365091632566452,1.70659841460146,1.689726573712569e+18,61.70156904296876,0.1036834716796875,1.451397705078125,0.0891998291015625,1.689726573715073e+18,61.70407314453125,-1.0609663030246272,9.704015788764355,-0.8191573714024202,1.689726573715073e+18,61.70407314453125,-1.892518734931946,2.153917145729065,-2.9574961185455324,1.6897265737075592e+18,61.69655903320313,-1.8351474285125733,1.8852014064788816,-3.000373697280884,,,,,,,,,,,,,1.689726573715073e+18,61.70407314453125,-16.505717849731447,49.27864303588867,13.532275390625,1.6897265737101642e+18,61.699164123535155,13.71890640258789,61.23031234741211,92.83879852294922,1.689726573715073e+18,61.70407314453125,-0.3059031391414309,-0.6490026648359275,0.113401712440189,-0.6909359596733378,0.7352456487084587,-0.1564166777927115,-1.4270407492273596
1.75,1.6897265737651776e+18,61.754177587890624,-2.077228890689202,4.182905862614513,6.1901770035085075,1.6897265737626737e+18,61.751673681640625,-0.1946380615234375,1.3878326416015625,0.4716156005859375,1.6897265737651776e+18,61.754177587890624,-0.0543887106092506,9.653484689731595,-1.6962603412647546,1.6897265737651776e+18,61.754177587890624,-1.8504627227783204,2.6323285579681395,-1.8683225154876708,1.689726573757663e+18,61.7466630859375,-1.8989399433135987,2.7344622135162355,-1.9824142456054688,,,,,,,,,,,,,1.6897265737651776e+18,61.754177587890624,-9.60179443359375,52.4120231628418,8.783160400390624,1.6897265737569705e+18,61.74597055664062,21.04656066894531,64.48219604492188,87.71564331054688,1.6897265737651776e+18,61.754177587890624,-1.2774037823974556,-0.6897043646563402,0.0253235252194748,-1.5219562381904577,0.7081701046545942,-0.1464917628295882,-1.3956186331683376
1.8,1.6897265738152822e+18,61.80428212890625,-0.1693731889539584,1.0821894379758834,5.61895035646379,1.689726573812778e+18,61.80177802734376,0.0172576904296875,1.066180419921875,0.3017669677734375,1.6897265738152822e+18,61.80428212890625,0.5643864257611334,9.467530156443717,-2.481049717943221,1.6897265738152822e+18,61.80428212890625,-1.2291303515434264,2.014942765235901,-1.6939389944076535,1.6897265738077676e+18,61.79676752929687,-1.3430153369903564,2.094996118545532,-1.767048454284668,,,,,,,,,,,,,1.6897265738152822e+18,61.80428212890625,-3.873397064208985,53.76031875610352,3.4546524047851563,1.6897265738089782e+18,61.797978125,26.623321533203125,65.66292724609374,82.45318298339843,1.6897265738152822e+18,61.80428212890625,-1.6708647505253569,-0.7148320553157278,-0.0492741437423909,-1.7905482063679892,0.6844056113720189,-0.1331403428220976,-1.3079749147037136
1.85,1.6897265738653862e+18,61.854386230468755,-2.218711413094103,-0.906502733106613,3.938906610567272,1.6897265738628823e+18,61.851882226562495,-0.1100311279296875,0.84578857421875,0.086260986328125,1.6897265738653862e+18,61.854386230468755,0.9689679278828204,9.294079247802497,-2.9718583402484655,1.6897265738653862e+18,61.854386230468755,-0.6474110662937165,1.253658002614975,-1.1123525619506835,1.689726573857872e+18,61.84687202148437,-0.688125878572464,1.472782301902771,-1.1392120122909546,,,,,,,,,,,,,1.6897265738653862e+18,61.854386230468755,0.5096893310546875,53.8624153137207,-0.0403091430664062,1.6897265738609856e+18,61.84998569335937,30.858453369140623,65.69900817871094,79.1241241455078,1.6897265738653862e+18,61.854386230468755,-1.8628414468651708,-0.7319394148608904,-0.1010748171890606,-1.8853214753881835,0.6634996031083861,-0.1167763661227854,-1.2463114972363425
1.9,1.6897265739154908e+18,61.90449086914062,-0.6629013358835876,-1.7740092052471634,-0.4770570726501941,1.689726573912987e+18,61.90198681640625,0.0741363525390625,0.7492767333984375,-0.396929931640625,1.6897265739154908e+18,61.90449086914062,1.366796799326092,9.113494483306408,-3.3486078325927258,1.6897265739154908e+18,61.90449086914062,-0.8696459650993347,0.4228963613510131,-1.056339228153229,1.6897265739079762e+18,61.89697626953125,-0.851137375831604,0.4430968433618545,-1.0821797728538514,,,,,,,,,,,,,1.6897265739154908e+18,61.90449086914062,3.4452133178710938,53.76410140991211,-2.662455749511719,1.689726573912995e+18,61.90199506835937,33.751153564453126,65.60796508789062,76.49832458496094,1.6897265739154908e+18,61.90449086914062,-1.976360179187005,-0.7458103722225098,-0.1289318485062613,-1.9576157657140023,0.6431106684065768,-0.1159250613678125,-1.1929538393622043
1.95,1.6897265739655951e+18,61.954595019531254,-1.313049134786576,-2.146775414721966,1.581789298728108,1.6897265739630912e+18,61.952091162109376,0.03916015625,0.682861328125,-0.212994384765625,1.6897265739655951e+18,61.954595019531254,1.752654662468582,8.926855474885702,-3.6601359048682447,1.6897265739655951e+18,61.954595019531254,-0.4822364509105682,-0.6342618525028229,-0.4851456262171268,1.689726573958081e+18,61.94708081054688,-0.5453980743885041,-0.4719180569052696,-0.615363997220993,,,,,,,,,,,,,1.6897265739655951e+18,61.954595019531254,5.638926696777344,53.31021347045898,-5.0361175537109375,1.689726573965002e+18,61.95400200195312,35.836663818359376,65.11091613769531,74.22550659179687,1.6897265739655951e+18,61.954595019531254,-2.038999891611256,-0.757146109833997,-0.1419127708020215,-2.0170267071924317,0.6248869713659545,-0.1267225015989763,-1.144069747540199
2.0,1.6897265740156997e+18,62.00469975585937,-2.473907269616574,-3.7573565081703664,1.3555864001342657,1.6897265740131958e+18,62.00219560546875,-0.057196044921875,0.51712646484375,-0.235101318359375,1.6897265740156997e+18,62.00469975585937,1.8976231053735315,8.882983015411495,-3.6960381161156297,1.6897265740156997e+18,62.00469975585937,-0.0509439259767532,-1.1000301599502564,0.5982826262712478,1.689726574008185e+18,61.99718505859376,-0.1223279871046543,-1.0591230034828183,0.448415495082736,,,,,,,,,,,,,1.6897265740156997e+18,62.00469975585937,5.788423156738281,53.318433380126955,-5.852365112304687,1.6897265740118075e+18,62.000807617187505,35.677337646484375,65.21588516235352,73.45470428466797,1.6897265740156997e+18,62.00469975585937,-2.018463301488194,-0.7584319596422722,-0.1282168869813409,-2.0451074295743865,0.62190137730378,-0.1466114000995747,-1.1333066512548249
2.05,1.689726574065804e+18,62.05480395507813,-0.3859304607611894,-3.247564806845188,0.946552127161324,1.6897265740633e+18,62.05230009765624,0.149267578125,0.5985748291015625,-0.2695953369140625,1.689726574065804e+18,62.05480395507813,1.6301373254072664,9.0029554318434,-3.5263042406231166,1.689726574065804e+18,62.05480395507813,0.3253508478403091,-0.9293829679489136,1.4159696578979493,1.6897265740582894e+18,62.04728940429688,0.2840985089540481,-1.005463469028473,1.3253243684768676,,,,,,,,,,,,,1.689726574065804e+18,62.05480395507813,3.2464412689208983,54.02467269897461,-6.0697998046875,1.6897265740586135e+18,62.04761342773438,33.0478515625,65.93275451660156,73.30778198242187,1.689726574065804e+18,62.05480395507813,-1.910061382277782,-0.7456314470703429,-0.1002238597391352,-2.003073175791976,0.6377485080508596,-0.1646218312260415,-1.163308461050904
2.1,1.6897265741159084e+18,62.104908349609374,8.982695318624973,0.9359963048076628,-2.3502367293190956,1.6897265741134042e+18,62.102404199218746,1.0616790771484377,1.06370849609375,-0.6038116455078125,1.6897265741159084e+18,62.104908349609374,1.152050237509161,9.158227709715366,-3.310344328267574,1.6897265741159084e+18,62.104908349609374,0.3318817168474197,-0.0367772817611694,0.7655753433704376,1.689726574108394e+18,62.097394042968745,0.3915217459201812,-0.153223642706871,0.9418209195137024,,,,,,,,,,,,,1.6897265741159084e+18,62.104908349609374,-0.398733139038086,54.7252082824707,-5.830424499511719,1.689726574110619e+18,62.0996189453125,29.429171752929687,66.61961975097657,73.581494140625,1.6897265741159084e+18,62.104908349609374,-1.77253098145249,-0.727890072863866,-0.077785920545634,-1.9052640477979237,0.6596857641366238,-0.1700117317726409,-1.205199019011072
2.15,1.6897265741610025e+18,62.15000244140624,5.914367836415767,3.754254479727894,-3.1791083211518822,1.6897265741635087e+18,62.15250893554687,0.6659393310546875,1.274365234375,-0.5995025634765625,1.6897265741610025e+18,62.15000244140624,0.9718050510048865,9.17993439770639,-3.3094774530790745,1.6897265741610025e+18,62.15000244140624,-0.3932678736746311,-0.2122521586716174,0.087202375754714,1.689726574158498e+18,62.147498046875,-0.3333281084895134,-0.1534121356904506,0.102347308397293,,,,,,,,,,,,,1.6897265741610025e+18,62.15000244140624,-1.9860820770263672,54.842960357666016,-6.33155632019043,1.689726574162624e+18,62.15162387695312,28.02569580078125,66.65722045898437,72.707275390625,1.6897265741610025e+18,62.15000244140624,-1.717631754733176,-0.721152754351303,-0.0751967686954901,-1.856447445494706,0.6669307665238653,-0.1716948074719511,-1.2113773845560298
2.2,1.689726574206096e+18,62.195096044921875,-0.5031665110317618,5.520371675003171,-0.6700384942871332,1.689726574213613e+18,62.20261303710937,-0.10582275390625,1.4896209716796875,-0.2520294189453125,1.689726574206096e+18,62.195096044921875,1.1028840263149142,9.086323217073083,-3.51942529476434,1.689726574206096e+18,62.195096044921875,-0.4704860687255859,0.1999659676104783,-0.2489636182785034,1.6897265742086026e+18,62.19760263671875,-0.443927600979805,0.2606956128962338,-0.2473843932151794,,,,,,,,,,,,,1.689726574206096e+18,62.195096044921875,-1.5678714752197265,54.28386764526367,-8.338328552246093,1.689726574214629e+18,62.203629199218746,28.614651489257813,65.91662292480468,70.4880859375,1.689726574206096e+18,62.195096044921875,-1.7275675750238766,-0.7230423377434454,-0.0809657817497166,-1.87450532586843,0.6612136556699738,-0.1828489822555122,-1.1851964882364645
2.25,1.6897265742562004e+18,62.2452005859375,-2.9472477475094796,-1.6577938617134091,8.294352988979815,1.6897265742637174e+18,62.25271748046875,-0.248968505859375,0.600579833984375,0.5458221435546875,1.6897265742562004e+18,62.2452005859375,1.016114732852578,9.077604956184029,-3.566732287957966,1.6897265742562004e+18,62.2452005859375,0.5371527288109064,1.147915709018707,0.1802445083856582,1.689726574258707e+18,62.24770708007812,0.6036564245820045,1.205399227142334,0.2338694745674729,,,,,,,,,,,,,1.6897265742562004e+18,62.2452005859375,-1.6248001098632812,53.7210334777832,-9.389146423339843,1.689726574261434e+18,62.250433776855466,28.420703887939453,65.4015884399414,70.13664627075195,1.6897265742562004e+18,62.2452005859375,-1.7277885174947951,-0.7219632744529445,-0.0914424681700528,-1.8478769444779073,0.6631849853543096,-0.1747048753390958,-1.1828651435115876
2.3,1.689726574306305e+18,62.29530498046874,-3.408385951015949,-1.3465253171569107,6.543427663747965,1.689726574313822e+18,62.302822021484374,-0.2655364990234375,0.9720123291015624,0.2312530517578125,1.689726574306305e+18,62.29530498046874,0.6661574150700866,9.28815242964983,-3.0637247814932467,1.689726574306305e+18,62.29530498046874,1.933799386024475,1.4108105063438416,-0.1554983804002404,1.6897265743088115e+18,62.297811474609375,1.99222571849823,1.3359646379947665,-0.2048012882471084,,,,,,,,,,,,,1.689726574306305e+18,62.29530498046874,-2.2616336822509764,53.699825286865234,-7.606861877441406,1.689726574308239e+18,62.29723916015625,27.86417236328125,65.74345092773437,73.00297546386719,1.689726574306305e+18,62.29530498046874,-1.731236452445188,-0.7186232617081759,-0.093746734788619,-1.7853062605039702,0.6761901252513551,-0.131434415117163,-1.2452298880001542
2.35,1.689726574356409e+18,62.345409326171875,-3.10952037643671,3.38196357422769,-0.576792172217369,1.689726574363926e+18,62.3529259765625,-0.2875,1.3413909912109374,-0.435296630859375,1.689726574356409e+18,62.345409326171875,0.8421816374915092,9.543194293880465,-2.0743969625054297,1.689726574356409e+18,62.345409326171875,1.818787598609924,-1.5922010958194732,-0.293337681889534,1.689726574358916e+18,62.347916015625,1.7595194339752198,-1.7118669152259829,-0.1982811352238059,1.6897265743507052e+18,62.339705078125,338.8675346374512,-1.0,-1.0,49.2779960545326,358.04896354675293,-1.0,35.0,21.13982391357422,-122.90983809869888,-1.0,1.689726574356409e+18,62.345409326171875,-0.770428466796875,54.15077438354492,-2.304704284667969,1.6897265743602424e+18,62.3492423828125,29.778280639648436,65.99182739257813,78.51561279296875,1.689726574356409e+18,62.345409326171875,-1.910814678789619,-0.7306709465847144,-0.057227135710982,-1.9646650308897051,0.6733941702333534,-0.0950616624660913,-1.3394837223926523
2.4,1.689726574406514e+18,62.3955138671875,-2.605961548925638,0.2506719785833358,-4.000374435643106,1.6897265744140306e+18,62.40303061523438,-0.1079559326171875,0.892022705078125,-0.4494537353515625,1.689726574406514e+18,62.3955138671875,0.5728951428592577,9.68062544392228,-1.4370371581484378,1.689726574406514e+18,62.3955138671875,0.4697112411260605,-1.5346843123435974,1.8779155015945437,1.68972657440902e+18,62.3980201171875,0.4118910923600197,-1.415458655357361,1.9014360904693604,,,,,,,,,,,,,1.689726574406514e+18,62.3955138671875,-1.9026702880859376,54.06931838989258,1.4109512329101563,1.6897265744122465e+18,62.401246484374994,26.837445068359376,65.85017395019531,81.18631896972656,1.689726574406514e+18,62.3955138671875,-1.7775272248418457,-0.7190373807949433,0.0031588420712017,-1.9380743653003116,0.6859653903378802,-0.1098809419045432,-1.411117680528574
2.45,1.6897265744566182e+18,62.44561806640625,0.4132203867647517,-1.885947952827215,0.2263750695164501,1.689726574464135e+18,62.45313505859375,0.027215576171875,0.813128662109375,-0.089874267578125,1.6897265744566182e+18,62.44561806640625,-0.2075584522842289,9.708822429167627,-1.3538344419004025,1.6897265744566182e+18,62.44561806640625,0.0177144929766654,0.5266882464289665,1.25123291015625,1.6897265744591245e+18,62.44812465820313,0.0187107846140861,0.5768102735280991,1.212103497982025,,,,,,,,,,,,,1.6897265744566182e+18,62.44561806640625,-6.251118850708008,53.79165267944336,1.7934677124023437,1.6897265744642486e+18,62.453248583984376,22.92302551269531,65.57980346679688,81.10825805664062,1.6897265744566182e+18,62.44561806640625,-1.2298412853772995,-0.6900014845809459,0.0191566238243497,-1.4205926168071603,0.7142623711875133,-0.1151838957153951,-1.4294443471970468
2.5,1.6897265745067226e+18,62.49572241210937,-0.1705319232285022,-1.2603286797899007,0.2123552827662229,1.6897265745142392e+18,62.50323920898437,-0.13372802734375,0.896923828125,-0.1132568359375,1.6897265745067226e+18,62.49572241210937,-0.7787989406246318,9.686841366601586,-1.3033029921545087,1.6897265745067226e+18,62.49572241210937,0.0568757470697164,1.9971698999404908,0.9594547390937804,1.689726574509229e+18,62.49822905273438,0.0689524361863732,2.1017709493637087,0.9636269569396972,,,,,,,,,,,,,1.6897265745067226e+18,62.49572241210937,-8.745167541503907,53.59430465698242,1.7771331787109377,1.6897265745110508e+18,62.500050598144526,21.01131820678711,65.35577392578125,81.2228775024414,1.6897265745067226e+18,62.49572241210937,-0.8941952601742493,-0.6716296476653323,0.0050222792753158,-1.0364921626626469,0.7345555576837872,-0.0951999039709787,-1.4144515232340371
2.55,1.6897265745568271e+18,62.54582705078125,0.2174788217119872,0.2411053426235914,-0.2515489367744326,1.6897265745643438e+18,62.55334384765625,-0.101373291015625,0.9905120849609376,-0.1246185302734375,1.6897265745568271e+18,62.54582705078125,-1.4045538300468772,9.642009005280135,-1.0908499627152832,1.6897265745568271e+18,62.54582705078125,0.3592824578285217,1.590462577342987,1.1617674827575684,1.689726574559333e+18,62.548333251953125,0.3752053678035735,1.4928619980812072,1.1897273540496829,,,,,,,,,,,,,1.6897265745568271e+18,62.54582705078125,-10.561680221557618,53.28940658569336,2.5585403442382812,1.6897265745578552e+18,62.54685517578125,19.01177062988281,64.96270141601562,82.16273498535156,1.6897265745568271e+18,62.54582705078125,-0.6264194199947828,-0.6523173613613343,-0.0248005934414615,-0.6654855383253301,0.7556041120664744,-0.0523113719485397,-1.3875585920777742
2.6,1.6897265746069312e+18,62.595931054687505,2.0855400247755647,-0.0155852240490913,-0.2235177365500479,1.689726574614448e+18,62.60344809570313,0.0460357666015625,0.9920166015625,-0.124530029296875,1.6897265746069312e+18,62.595931054687505,-2.0930517448060213,9.545525133367777,-0.791683563945517,1.6897265746069312e+18,62.595931054687505,0.6520901083946228,0.0346042960882187,1.4057312488555909,1.689726574609438e+18,62.59843779296875,0.6644926786422729,-0.0035335347056388,1.392981481552124,,,,,,,,,,,,,1.6897265746069312e+18,62.595931054687505,-13.444594955444336,52.4717903137207,3.585981750488281,1.6897265746098609e+18,62.59886088867188,15.599786376953125,64.05619506835937,83.27540283203125,1.6897265746069312e+18,62.595931054687505,-0.3562229986813334,-0.6262643920484923,-0.0248895501606978,-0.3660746540852272,0.7784843959291975,-0.0318076774344837,-1.3400188201720928
2.65,1.6897265746570358e+18,62.646035888671875,3.8786285505717992,0.4793460603702068,-1.5728590317496658,1.6897265746645527e+18,62.65355258789062,0.1152801513671875,1.0220306396484375,-0.2197723388671875,1.6897265746570358e+18,62.646035888671875,-2.6437290864273906,9.431182130351065,-0.4586210184407234,1.6897265746570358e+18,62.646035888671875,0.7384209752082824,0.0436428498476743,0.8346931099891662,1.689726574659542e+18,62.64854208984375,0.7361850738525391,0.0777597740292549,0.7966911971569062,,,,,,,,,,,,,1.6897265746570358e+18,62.646035888671875,-16.584710693359376,51.335968780517575,4.735260009765625,1.6897265746618668e+18,62.65086669921875,12.903359985351562,62.88155212402344,84.59266967773438,1.6897265746570358e+18,62.646035888671875,-0.1503386348094401,-0.6038354558534214,-0.0075395918797705,-0.1733094437202828,0.7966827196979919,-0.0236249455337815,-1.29335976366018
2.7,1.6897265747071404e+18,62.696140380859376,2.848004406208098,1.2702017221242188,-2.4488977699139713,1.6897265747146575e+18,62.70365756835938,-0.0537078857421875,1.10009765625,-0.2843231201171875,1.6897265747071404e+18,62.696140380859376,-2.8721856676191093,9.375466205252408,-0.1219360104057401,1.6897265747071404e+18,62.696140380859376,0.5281278192996979,0.1697234839200973,0.2008089445531367,1.6897265747096468e+18,62.698646777343754,0.5124585509300232,0.1617706313729285,0.1803739316761493,,,,,,,,,,,,,1.6897265747071404e+18,62.696140380859376,-17.956325149536134,50.36172790527344,6.2963409423828125,1.6897265747138714e+18,62.702871386718755,12.016976928710935,61.97248840332031,86.03733520507812,1.6897265747071404e+18,62.696140380859376,-0.0219712054063438,-0.5945055299386734,0.003870531365166,-0.0426563769581316,0.8040015215676745,-0.0105942481384604,-1.273167973034352
2.75,1.689726574757245e+18,62.74624501953125,0.9142983846449853,1.3602526968318225,-4.113741667043269,1.689726574764762e+18,62.75376186523438,-0.2301727294921875,1.0819366455078123,-0.441448974609375,1.689726574757245e+18,62.74624501953125,-2.895679706644416,9.369242449979785,0.0476690478787291,1.689726574757245e+18,62.74624501953125,0.0147589653730392,0.2818275615572929,0.0577066794037819,1.6897265747597517e+18,62.748751660156245,-0.024017509445548,0.3142152935266494,0.0892473757266998,,,,,,,,,,,,,1.689726574757245e+18,62.74624501953125,-17.778750228881837,49.756255340576175,7.102227783203125,1.6897265747606756e+18,62.74967565917969,12.434463500976562,61.484588623046875,86.48965454101562,1.689726574757245e+18,62.74624501953125,0.0342052626456345,-0.5935877538382833,0.0088734752606836,0.0164710894179728,0.8047099117502095,-0.0035257712529553,-1.271002211041075
2.8,1.6897265748073498e+18,62.796349755859374,2.62009470369637,1.935978818026781,-2.102666055832393,1.6897265748148664e+18,62.80386645507813,0.1704345703125,1.21412353515625,-0.145404052734375,1.6897265748073498e+18,62.796349755859374,-3.060807315837443,9.316499753925203,-0.0058174865298042,1.6897265748073498e+18,62.796349755859374,-0.3870336949825287,0.7067768692970275,0.3194323390722274,1.6897265748098555e+18,62.79885571289062,-0.3865488827228546,0.738702940940857,0.2360691577196121,,,,,,,,,,,,,1.6897265748073498e+18,62.796349755859374,-18.21188430786133,49.08442001342773,6.668730163574219,1.6897265748074803e+18,62.79648037109375,11.938943481445312,60.81846618652344,85.95738525390625,1.6897265748073498e+18,62.796349755859374,-0.0095639054627527,-0.5864519427029153,-0.0033834250222355,-0.0017558248014814,0.8099502735038691,0.0020649772087142,-1.2533612440227515
2.85,1.6897265748574536e+18,62.84645361328124,8.171764603282808,2.820622069120407,-3.0564738605169204,1.6897265748649708e+18,62.853970703125,0.4955047607421875,1.198809814453125,-0.3738037109375,1.6897265748574536e+18,62.84645361328124,-2.595638833901584,9.449391506971716,-0.1420001608340186,1.6897265748574536e+18,62.84645361328124,-0.7753533720970154,0.3885193437337875,-2.3680501699447634,1.6897265748599603e+18,62.84896030273437,-0.8010643124580383,0.3198090545833111,-2.473408603668213,,,,,,,,,,,,,1.6897265748574536e+18,62.84645361328124,-16.488292694091797,48.98616409301758,6.155827331542969,1.689726574859487e+18,62.84848706054687,15.028985595703125,61.094659423828126,85.1658203125,1.6897265748574536e+18,62.84645361328124,-0.1077667230799451,-0.6061210613587946,-0.0240587642520843,-0.0601346968883353,0.7947430042090126,0.0093208942750348,-1.302094143876733
2.9,1.6897265749075584e+18,62.89655830078125,3.0933521502548453,2.645099614902138,-2.3113214246347544,1.689726574915075e+18,62.904075,-0.0016693115234375,1.3640228271484376,-0.2432037353515625,1.6897265749075584e+18,62.89655830078125,-1.1019151812827586,9.706406834006309,-0.6714348732424528,1.6897265749075584e+18,62.89655830078125,-1.372725296020508,-0.7564000964164734,-3.4741405963897707,1.6897265749100646e+18,62.89906469726562,-1.3937012195587155,-0.7133808493614197,-3.468387079238892,,,,,,,,,,,,,1.6897265749075584e+18,62.89655830078125,-9.493435287475586,49.97706527709961,3.9341354370117183,1.689726574911493e+18,62.90049306640625,22.918484497070313,62.00504150390625,82.49338989257812,1.6897265749075584e+18,62.89655830078125,-0.6565861867604766,-0.6657314589082722,-0.0377504220648826,-0.6206101877464091,0.7446150108407842,-0.0123863964734011,-1.4309042144173796
2.95,1.6897265749576627e+18,62.94666259765624,-6.35958331293404,5.851357779560089,1.8498189763127264,1.6897265749651796e+18,62.9541796875,-0.6085205078125,1.4997100830078125,0.0863616943359375,1.6897265749576627e+18,62.94666259765624,0.3652205250692926,9.694971130852103,-1.38387744956471,1.6897265749576627e+18,62.94666259765624,-1.3501203536987303,1.8346474885940551,-2.467134189605713,1.6897265749601687e+18,62.949168798828126,-1.3516152858734132,1.9172855377197269,-2.398185586929322,,,,,,,,,,,,,1.6897265749576627e+18,62.94666259765624,-2.0009822845458984,49.860224914550784,0.9193023681640624,1.6897265749635016e+18,62.95250166015624,29.602862548828124,61.503109741210935,79.46624145507812,1.6897265749576627e+18,62.94666259765624,-1.8620004515398747,-0.7195585452244635,-0.0720095597963769,-1.7978733363714403,0.6897308177203351,-0.0268290153547434,-1.4219958890926938
3.0,1.689726575007767e+18,62.996766943359376,-3.442669767281264,0.7930299662792681,1.5598654608550668,1.6897265750152837e+18,63.00428369140625,-0.128851318359375,1.000384521484375,-0.138702392578125,1.689726575007767e+18,62.996766943359376,1.1431587681711464,9.500600417587757,-2.1270219066253304,1.689726575007767e+18,62.996766943359376,-1.46727294921875,0.7335291355848312,-1.438061261177063,1.6897265750102735e+18,62.99927348632813,-1.4668376684188842,0.6201683402061462,-1.3980030059814452,,,,,,,,,,,,,1.689726575007767e+18,62.996766943359376,2.381069564819336,49.117164611816406,-2.3543472290039062,1.6897265750103076e+18,62.999307739257816,33.04194641113281,60.76486587524414,76.40916442871094,1.689726575007767e+18,62.996766943359376,-2.2118360382707247,-0.7468536737173455,-0.1266179618816489,-2.0614484364138463,0.6522915959553937,-0.0212261865061893,-1.3218381052407608
3.05,1.6897265750578714e+18,63.04687138671875,-3.1344208628068864,0.2995827829378843,-1.132892561800778,1.6897265750653883e+18,63.05438837890625,-0.1876983642578125,0.9145111083984376,-0.467535400390625,1.6897265750578714e+18,63.04687138671875,1.6641714339213074,9.237299609768986,-2.8304089529281855,1.6897265750578714e+18,63.04687138671875,-1.697334313392639,-0.8753145456314086,-0.6123905897140502,1.6897265750603776e+18,63.04937768554687,-1.7063092231750487,-0.8779031038284302,-0.581601083278656,,,,,,,,,,,,,1.6897265750578714e+18,63.04687138671875,4.341511535644531,48.286767578125,-5.28525390625,1.6897265750571128e+18,63.046112890625,34.51788330078125,60.06851806640625,73.87921447753907,1.6897265750578714e+18,63.04687138671875,-2.238751783837863,-0.7628862535512965,-0.1466880109018138,-2.102414831481167,0.6273727000749582,-0.0517475185193114,-1.2292732792391083
3.1,1.6897265751079757e+18,63.09697568359375,-4.537546282098889,-1.8953472986221311,-0.0374341846680641,1.6897265751154926e+18,63.10449262695313,-0.2958282470703125,0.68663330078125,-0.2621307373046875,1.6897265751079757e+18,63.09697568359375,1.983771022841036,8.941691341872215,-3.4993402458518736,1.6897265751079757e+18,63.09697568359375,-1.5786317586898804,-1.6114251375198363,0.0508251577615737,1.6897265751104822e+18,63.09948212890625,-1.561075258255005,-1.6903136253356934,0.0961079396307468,,,,,,,,,,,,,1.6897265751079757e+18,63.09697568359375,4.96783447265625,47.49633255004883,-7.644024658203125,1.6897265751091192e+18,63.09811928710938,34.95631713867188,59.16682739257813,71.08735961914063,1.6897265751079757e+18,63.09697568359375,-2.1650781299216506,-0.768827169384991,-0.1532278824930431,-2.0866591592051216,0.6126695617809916,-0.0989961071189929,-1.1480547268493762
3.15,1.68972657515808e+18,63.14708002929687,-5.251239443004131,-2.766040934818387,3.5302445026814935,1.689726575165597e+18,63.15459692382812,-0.270697021484375,0.594970703125,0.029107666015625,1.68972657515808e+18,63.14708002929687,2.229098367073834,8.741788245826363,-3.8440044548884034,1.68972657515808e+18,63.14708002929687,-0.9634644985198976,-2.586396598815918,0.6584297716617584,1.6897265751605868e+18,63.149586621093746,-0.9187477827072144,-2.586142110824585,0.6762590527534484,,,,,,,,,,,,,1.68972657515808e+18,63.14708002929687,4.421392822265625,47.00981521606445,-9.667984008789062,1.689726575161127e+18,63.15012685546875,34.28306274414062,58.78531188964844,69.397509765625,1.68972657515808e+18,63.14708002929687,-2.0511134567884044,-0.7666877122585918,-0.128867428438254,-2.096197939145058,0.6079684457656155,-0.1598366535235755,-1.1005097104123325
3.2,1.6897265752081846e+18,63.197184765625,-4.101046786834299,-2.7959882124102116,5.318546437175273,1.6897265752157015e+18,63.204701318359376,-0.180487060546875,0.6251373291015625,0.1626007080078125,1.6897265752081846e+18,63.197184765625,2.3511549839816985,8.73336972776234,-3.790327517497539,1.6897265752081846e+18,63.197184765625,-0.1703337080776691,-2.2942861557006835,1.0486507773399354,1.6897265752106908e+18,63.19969077148437,-0.1378830898553132,-2.240374779701233,1.08312486410141,,,,,,,,,,,,,1.6897265752081846e+18,63.197184765625,3.467463684082031,46.86396255493164,-10.103280639648435,1.6897265752131338e+18,63.20213383789062,33.10675048828125,58.787750244140625,69.4413848876953,1.6897265752081846e+18,63.197184765625,-1.943008087962013,-0.7584964297737627,-0.0850706226036942,-2.126075301260728,0.6104973498711639,-0.210747779799213,-1.0985994870007212
3.25,1.6897265752582886e+18,63.24728862304687,-3.1746772068366407,-1.6377435918533805,6.773227476242184,1.6897265752658058e+18,63.25480576171875,-0.0315521240234375,0.80802001953125,0.3759918212890625,1.6897265752582886e+18,63.24728862304687,2.0034636529828607,8.919468754861354,-3.541683829871416,1.6897265752582886e+18,63.24728862304687,0.6124154478311539,-0.1121782086789608,1.6484652280807497,1.6897265752607954e+18,63.24979536132812,0.6601475596427917,0.0308619260787963,1.6532883882522582,,,,,,,,,,,,,1.6897265752582886e+18,63.24728862304687,0.9430389404296876,47.3058219909668,-9.226908874511718,1.6897265752651412e+18,63.25414116210938,29.938394165039064,59.25755615234375,70.64118347167968,1.6897265752582886e+18,63.24728862304687,-1.8175520662796232,-0.7407193046458952,-0.0475168990837848,-2.084112132029657,0.6288701774342462,-0.2311507871135236,-1.1425679497100587
3.3,1.6897265753083932e+18,63.29739335937499,3.781910343833863,2.543265964846611,2.2107510432872175,1.68972657531591e+18,63.30491000976563,0.72564697265625,1.328387451171875,-0.394122314453125,1.6897265753083932e+18,63.29739335937499,1.2743441118520498,9.199963157160877,-3.1406888371604675,1.6897265753083932e+18,63.29739335937499,0.9519885301589964,-0.0514636009931564,1.1353520035743714,1.6897265753108997e+18,63.29989970703125,0.9084152281284332,-0.0736282028257847,1.0973689317703248,,,,,,,,,,,,,1.6897265753083932e+18,63.29739335937499,-2.8509857177734377,47.658270263671874,-7.058291625976563,1.6897265753119478e+18,63.30094769287109,26.653369903564453,59.52513122558594,72.74628067016602,1.6897265753083932e+18,63.29739335937499,-1.6952017118066258,-0.7216130948179889,-0.0299252895270255,-1.9550162666229451,0.6588165574246256,-0.2102740897314304,-1.217721335302325
3.35,1.6897265753584975e+18,63.34749755859375,5.591565856645107,2.311792490825653,-9.058705843733549,1.6897265753610043e+18,63.350004211425784,0.5314903259277344,1.0618629455566406,-1.369915008544922,1.6897265753584975e+18,63.34749755859375,0.6977624551932513,9.282638751568792,-3.0740904004240033,1.6897265753584975e+18,63.34749755859375,-0.5403260510414839,2.408417057991028,0.7719585925340653,1.689726575361004e+18,63.35000395507812,-0.5887734591960907,2.4906391382217405,0.7372208490967751,,,,,,,,,,,,,1.6897265753584975e+18,63.34749755859375,-5.532656860351563,47.72236328125,-6.2917236328125,1.689726575358755e+18,63.34775498046874,24.2422607421875,59.48758544921875,72.9941192626953,1.6897265753584975e+18,63.34749755859375,-1.5727575232439182,-0.7060922769600909,-0.0371915838233011,-1.7952123721404298,0.6802563256295949,-0.1920423747433223,-1.242463191864193
3.4,1.689726575408602e+18,63.39760190429688,-0.6302036782181262,-2.9022686711937187,-6.028903439395129,1.689726575406098e+18,63.395097851562504,-0.099560546875,0.66497802734375,-0.91387939453125,1.689726575408602e+18,63.39760190429688,0.130324234252856,9.191208539010288,-3.413887529493868,1.689726575408602e+18,63.39760190429688,-0.4319938756525516,0.343882131576538,0.8240451663732529,1.6897265754111086e+18,63.40010864257813,-0.3809837251901626,0.1966283351182938,0.8826722413301468,,,,,,,,,,,,,1.689726575408602e+18,63.39760190429688,-7.5248466491699215,47.38570022583008,-7.16912841796875,1.6897265754107638e+18,63.39976372070313,21.94129333496094,59.169314575195315,71.98108215332032,1.689726575408602e+18,63.39760190429688,-1.4716239493819288,-0.6904110449853114,-0.0771317882982912,-1.6095654035255331,0.6981214976141212,-0.1730530994371904,-1.2146864164875015
3.45,1.6897265754587064e+18,63.4477064453125,4.454966432376503,11.07972628387332,0.3598495032086968,1.6897265754562025e+18,63.44520244140625,0.498565673828125,2.104058837890625,-0.2975433349609375,1.6897265754587064e+18,63.4477064453125,0.0252134686160087,9.179169959979058,-3.446933182266354,1.6897265754587064e+18,63.4477064453125,0.0359248802065849,-2.002595829963684,-0.2659647583961487,1.6897265754612127e+18,63.450212646484374,0.0191599018871784,-2.067047119140625,-0.3235539955087005,,,,,,,,,,,,,1.6897265754587064e+18,63.4477064453125,-9.211059188842771,47.08820343017578,-7.643801879882813,1.6897265754627722e+18,63.45177216796875,21.06797790527344,58.89447021484375,71.66163635253906,1.6897265754587064e+18,63.4477064453125,-1.3870939167574634,-0.6813369066544789,-0.0595654164427819,-1.5780846134477895,0.7035940414456711,-0.1922234917929959,-1.2111352995659903
3.5,1.6897265755088108e+18,63.49781069335937,-4.529512963960171,-2.9722677393800017,7.471153451434074,1.6897265755063066e+18,63.49530668945313,-0.4680938720703125,0.5369232177734375,0.4550567626953125,1.6897265755088108e+18,63.49781069335937,0.3724905452983639,9.20473344030261,-3.360548445755243,1.6897265755088108e+18,63.49781069335937,0.5567219018936157,-0.0774129062891006,0.434250396490097,1.689726575511317e+18,63.50031713867188,0.6099794715642929,0.1604005813598633,0.4679040789604187,,,,,,,,,,,,,1.6897265755088108e+18,63.49781069335937,-8.151919555664062,46.86876220703125,-7.754136657714843,1.6897265755147786e+18,63.50377861328125,21.85382080078125,58.72806701660157,71.96833190917968,1.6897265755088108e+18,63.49781069335937,-1.4093780425718003,-0.6866269888525345,-0.0295854360428346,-1.6808169842719785,0.6928957284743227,-0.2179716717774893,-1.2187275924644043
3.55,1.689726575558915e+18,63.5479150390625,-3.4854033735316987,-3.1741805385869744,7.530816945114731,1.689726575556411e+18,63.545411083984376,-0.3565399169921875,0.718914794921875,0.4537689208984375,1.689726575558915e+18,63.5479150390625,-0.0458645740919628,9.349754256368875,-2.9521753254917265,1.689726575558915e+18,63.5479150390625,1.1629603505134585,1.4255974888801577,0.1586373388767242,1.6897265755614216e+18,63.550421630859375,1.1988923668861389,1.3286548733711243,0.0795066446065902,,,,,,,,,,,,,1.689726575558915e+18,63.5479150390625,-8.778445434570312,47.185448455810544,-5.513958740234375,1.6897265755615877e+18,63.55058746337891,21.192710876464844,59.07280731201172,74.43218612670898,1.689726575558915e+18,63.5479150390625,-1.3440541815329232,-0.6819595757300816,-0.0338369736818338,-1.55374665202518,0.7079394443844167,-0.1800816642486497,-1.2647587319525888
3.6,1.6897265756090196e+18,63.59801967773437,-4.4298525662904975,3.0251734001374246,2.636950912142396,1.6897265756065157e+18,63.595515625,-0.4346832275390625,1.24039306640625,0.01185302734375,1.6897265756090196e+18,63.59801967773437,0.1229831252022134,9.547257656248808,-2.219791171154827,1.6897265756090196e+18,63.59801967773437,1.7555776834487915,-1.3683556094765663,-0.4989104643464088,1.689726575611526e+18,63.600525830078126,1.7484215021133422,-1.4901756048202517,-0.4384856849908828,,,,,,,,,,,,,1.6897265756090196e+18,63.59801967773437,-7.170072937011719,47.51276473999023,-1.5218765258789062,1.6897265756083953e+18,63.59739526367188,23.091070556640624,59.376043701171874,78.21042175292969,1.6897265756090196e+18,63.59801967773437,-1.4294084481558258,-0.6951161096407773,-0.0094748345297369,-1.6324178746360003,0.7024117612745922,-0.1518388455505652,-1.341642476687337
3.65,1.6897265756591237e+18,63.64812368164063,-2.1409714630705117,-0.9095649263823032,-2.32769560710445,1.6897265756566195e+18,63.64561972656251,-0.1932464599609375,0.9027252197265624,-0.406842041015625,1.6897265756591237e+18,63.64812368164063,0.1119155591856955,9.686469610679746,-1.5113168554894625,1.6897265756591237e+18,63.64812368164063,0.914607048034668,-2.045387554168701,1.4143275499343873,1.6897265756616305e+18,63.65063041992188,0.8546048700809479,-2.008070373535156,1.4948198795318604,,,,,,,,,,,,,1.6897265756591237e+18,63.64812368164063,-7.072854614257812,47.56953659057617,1.5286178588867188,1.689726575660404e+18,63.649403906249994,22.26436767578125,59.3390869140625,81.3681854248047,1.6897265756591237e+18,63.64812368164063,-1.3313071242209815,-0.6924937328552319,0.0523846098505658,-1.6359114161103323,0.7008989576886182,-0.1615008127331986,-1.4147582312544535
3.7,1.6897265757092283e+18,63.69822841796874,1.0544140026108546,-0.7938922529709339,-3.881058992589116,1.6897265757067246e+18,63.69572456054688,0.0483245849609375,0.8917449951171875,-0.52080078125,1.6897265757092283e+18,63.69822841796874,-0.6212430234079435,9.69709037341535,-1.306577337650061,1.6897265757092283e+18,63.69822841796874,0.1095001593232154,-0.3651467621326446,1.5623610496520997,1.6897265757117348e+18,63.700734863281255,0.0922923270612955,-0.1870482772588729,1.520607018470764,,,,,,,,,,,,,1.6897265757092283e+18,63.69822841796874,-10.823646545410156,47.02155075073242,2.407148742675781,1.6897265757124122e+18,63.70141215820313,18.191409301757812,58.67652587890625,81.84368286132812,1.6897265757092283e+18,63.69822841796874,-0.7497230327869857,-0.6611195367404377,0.0924476604036959,-1.1335862969573154,0.7232238457315738,-0.176561782171666,-1.4213647432496763
3.75,1.6897265757593329e+18,63.74833300781249,1.4493160633546114,-1.110133442147374,-1.616764312127977,1.6897265757568292e+18,63.74582900390625,0.014093017578125,0.8919769287109375,-0.2802520751953125,1.6897265757593329e+18,63.74833300781249,-1.2416189524316787,9.640075289964674,-1.294794340815097,1.6897265757593329e+18,63.74833300781249,-0.2419841319322585,1.520842170715332,0.8893972873687744,1.6897265757618394e+18,63.7508392578125,-0.2405617982149123,1.5138821840286254,0.8945552229881286,,,,,,,,,,,,,1.6897265757593329e+18,63.74833300781249,-13.62110767364502,46.55449752807617,2.6299819946289062,1.689726575764419e+18,63.753419287109374,15.8934814453125,58.33101196289063,82.07203369140625,1.6897265757593329e+18,63.74833300781249,-0.4692244308804517,-0.6416375434521674,0.0805985444764473,-0.8095778472272309,0.7461375535976329,-0.157882607415684,-1.3865464750339886
3.8,1.6897265758094372e+18,63.79843720703125,1.7891891802701352,0.8249204284411669,1.6433709302158654,1.6897265758069332e+18,63.79593330078124,0.007525634765625,1.0526824951171876,0.050689697265625,1.6897265758094372e+18,63.79843720703125,-1.8028060560818016,9.556517184407712,-1.2515297987192124,1.6897265758094372e+18,63.79843720703125,0.1385739639401436,0.8841978132724762,1.020255720615387,1.689726575811944e+18,63.80094375,0.1715766534209251,0.8367078959941864,1.0059477806091308,,,,,,,,,,,,,1.6897265758094372e+18,63.79843720703125,-15.760875129699707,46.163788604736325,3.002864074707031,1.689726575811226e+18,63.80022601318359,13.902523040771484,57.87482833862305,82.5150260925293,1.6897265758094372e+18,63.79843720703125,-0.3270438384997721,-0.6244077873636633,0.0631345480457114,-0.6095414547925062,0.7667460215983138,-0.1346860118805032,-1.3447165346898604
3.85,1.689726575859542e+18,63.84854194335937,2.7997326011833548,-0.1451745453232526,0.8492100894366205,1.6897265758570378e+18,63.84603779296875,0.0558868408203125,0.9492828369140623,-0.03585205078125,1.689726575859542e+18,63.84854194335937,-2.2166247576262057,9.496986084935068,-1.0252137513005732,1.689726575859542e+18,63.84854194335937,0.6784966468811036,-0.64710523635149,0.7249275207519531,1.689726575862048e+18,63.85104809570313,0.6822566509246826,-0.7098850909620523,0.7220629572868347,,,,,,,,,,,,,1.689726575859542e+18,63.84854194335937,-17.876131439208983,45.309495544433595,4.108084106445313,1.689726575858032e+18,63.84703232421875,12.054495239257813,57.08930969238281,83.58880004882812,1.689726575859542e+18,63.84854194335937,-0.1488897751202097,-0.6093606315103727,0.0742596398978086,-0.4340350086979759,0.7793776774412022,-0.125085890699208,-1.3188751888084111
3.9,1.6897265759096458e+18,63.89864599609375,2.4504530073058604,-0.2534873867172003,-1.9983435627162456,1.689726575907142e+18,63.89614204101563,-0.00206298828125,0.94134521484375,-0.2933929443359375,1.6897265759096458e+18,63.89864599609375,-2.463561319847405,9.45437478989005,-0.8440824003854394,1.6897265759096458e+18,63.89864599609375,0.3248928725719451,0.0175185739994049,0.2473329208791256,1.6897265759121526e+18,63.901152441406246,0.3046619027853012,0.1281212151050567,0.1915002346038818,,,,,,,,,,,,,1.6897265759096458e+18,63.89864599609375,-19.259514999389648,44.712608337402344,4.859933471679687,1.689726575910037e+18,63.899037207031256,10.850967407226562,56.499838256835936,84.40966186523437,1.6897265759096458e+18,63.89864599609375,-0.0029289506072323,-0.5979315083591524,0.0984782898436365,-0.3302537204163752,0.7847930089652181,-0.1298635797549188,-1.3019633560327977
3.95,1.6897265759597504e+18,63.94875048828125,1.6156125994226336,1.0567188966327905,-3.739817227444053,1.6897265759572465e+18,63.94624638671875,-0.0860992431640625,1.08192138671875,-0.4660369873046875,1.6897265759597504e+18,63.94875048828125,-2.3782853921349343,9.487165415762068,-0.7100160067624598,1.6897265759597504e+18,63.94875048828125,-0.1389699194580316,0.8156633019447327,-0.4429103940725326,1.689726575962257e+18,63.951257031249995,-0.1731305032968521,0.7830434024333954,-0.4238750517368316,,,,,,,,,,,,,1.6897265759597504e+18,63.94875048828125,-18.638896179199214,44.720645141601565,5.818229675292969,1.689726575962045e+18,63.95104453125,11.73431396484375,56.704010009765625,85.4208984375,1.6897265759597504e+18,63.94875048828125,0.0073025639889569,-0.6042503419098095,0.0912156273173027,-0.2901478473495965,0.782890681443406,-0.1166186209482914,-1.314911408180834
4.0,1.689726576009855e+18,63.99885502929688,1.7762880515123904,2.4056960493081805,-3.6523179245936865,1.689726576007351e+18,63.99635102539063,-0.037994384765625,1.2233489990234374,-0.4555419921875,1.689726576009855e+18,63.99885502929688,-2.304419156352579,9.483191368338463,-0.9523304036887736,1.689726576009855e+18,63.99885502929688,-0.953305435180664,-0.3689158529043198,0.0393305089324712,1.6897265760123612e+18,64.00136103515625,-0.9641692280769348,-0.3466481249779463,0.01282040476799,,,,,,,,,,,,,1.689726576009855e+18,63.99885502929688,-17.871414566040038,45.20268020629883,5.4176513671875,1.6897265760140536e+18,64.00305366210937,12.172140502929688,57.15864868164063,84.25194702148437,1.689726576009855e+18,63.99885502929688,-0.1040876246600252,-0.6061913214963799,0.0778102399359898,-0.3906034572201405,0.7819390883204654,-0.1224203426305084,-1.3133180372998663
4.05,1.689726576059959e+18,64.04895903320313,12.068314127374888,6.240065654532313,3.19189763087213,1.689726576057455e+18,64.04645507812499,1.043951416015625,1.6268463134765625,0.2143798828125,1.689726576059959e+18,64.04895903320313,-1.5220651316753029,9.573426701250076,-1.3814022770097851,1.689726576059959e+18,64.04895903320313,-0.8164381861686707,-0.2537726521492004,-3.486620140075684,1.6897265760624655e+18,64.05146562499999,-0.8106030702590943,-0.2587654128670692,-3.6129018306732177,,,,,,,,,,,,,1.689726576059959e+18,64.04895903320313,-15.233440971374511,46.302127075195315,3.5252777099609376,1.6897265760608622e+18,64.04986224365234,16.15245819091797,58.5232048034668,82.62498474121094,1.689726576059959e+18,64.04895903320313,-0.4781231924117072,-0.6336683681536772,0.0596614942845425,-0.767327219534405,0.7574352269603442,-0.1429092287065271,-1.3544269983512371
4.1,1.6897265761100636e+18,64.099063671875,-7.225318566844463,4.178225946556926,6.127293261833191,1.6897265761075597e+18,64.09655971679688,-0.72891845703125,1.406170654296875,0.448553466796875,1.6897265761100636e+18,64.099063671875,0.0175146778346504,9.639250646482704,-1.7738865141025184,1.6897265761100636e+18,64.099063671875,-0.6382883071899415,2.310992479324341,-2.7736762523651124,1.68972657611257e+18,64.10157006835938,-0.629253888130188,2.4511239290237428,-2.7302137851715087,,,,,,,,,,,,,1.6897265761100636e+18,64.099063671875,-7.405958938598633,47.81062316894531,1.9991363525390624,1.6897265761076718e+18,64.09667177734374,23.260098266601563,59.7162109375,81.30444641113282,1.6897265761100636e+18,64.099063671875,-1.328673842561804,-0.6916506715332814,0.0219524028516941,-1.5723624362177104,0.7058208752775609,-0.1491812446642003,-1.385992571970342
4.15,1.689726576160168e+18,64.14916801757813,-2.421591449898034,3.347615665137172,3.844401374477595,1.689726576157664e+18,64.1466640625,-0.13101806640625,1.285565185546875,0.15279541015625,1.689726576160168e+18,64.14916801757813,0.924826171867512,9.52708323393941,-2.1184810773558915,1.689726576160168e+18,64.14916801757813,-0.523509395122528,1.9197036385536197,-2.118541145324707,1.6897265761626742e+18,64.15167421875,-0.5151867985725402,1.8051358461380005,-2.099237012863159,,,,,,,,,,,,,1.689726576160168e+18,64.14916801757813,-1.1294715881347657,47.78148651123047,1.24822998046875,1.6897265761596785e+18,64.14867856445312,29.376702880859376,59.59493713378906,80.56640014648437,1.689726576160168e+18,64.14916801757813,-1.8725226251312883,-0.7306048017799553,-0.04185239795695,-1.976794755893992,0.6714170366127978,-0.1150378437525016,-1.3321470647600502
4.2,1.689726576210272e+18,64.1992720703125,-1.6618454167395829,0.2070610342025756,0.7768496112681925,1.689726576207768e+18,64.19676796875,0.0013214111328125,0.970562744140625,-0.1662017822265625,1.689726576210272e+18,64.1992720703125,1.7540222975599764,9.342661901568174,-2.397604425110966,1.689726576210272e+18,64.1992720703125,-0.4618275463581085,0.4799251735210418,-1.813445019721985,1.6897265762127788e+18,64.20177885742189,-0.4593533158302306,0.4526696853339672,-1.7810125589370729,,,,,,,,,,,,,1.689726576210272e+18,64.1992720703125,2.6190513610839843,47.35077133178711,0.4076675415039062,1.689726576211686e+18,64.20068598632812,33.63367919921875,59.081231689453126,79.48922119140624,1.689726576210272e+18,64.1992720703125,-2.1559207986338516,-0.7606291532333943,-0.0736341059805992,-2.1993532210356808,0.6364069572843511,-0.1039884398035295,-1.2626143496555635
4.25,1.6897265762603766e+18,64.24937661132813,-3.950676309529244,-1.078804588617086,3.6097185537952186,1.6897265762578726e+18,64.24687265625,-0.1558502197265625,0.8114349365234375,0.1174407958984375,1.6897265762603766e+18,64.24937661132813,2.4167113935454188,9.14678522610724,-2.5770393473717568,1.6897265762603766e+18,64.24937661132813,-0.2787908136844635,-0.1218128949403762,-1.1114758491516112,1.689726576262883e+18,64.25188310546875,-0.2664061218500136,-0.0835635989904403,-1.088880479335785,,,,,,,,,,,,,1.6897265762603766e+18,64.24937661132813,5.99307861328125,46.824414825439455,-0.42276611328125,1.689726576263696e+18,64.25269580078125,36.761044311523435,58.515533447265625,78.8656219482422,1.6897265762603766e+18,64.24937661132813,-2.289253448039501,-0.7820285137289192,-0.0842048752601487,-2.323222468925782,0.6079884158425132,-0.1078145723941728,-1.2020910076611284
4.3,1.6897265763104812e+18,64.29948110351562,-4.236457712320983,-2.944233485028744,3.4863013745108247,1.689726576307977e+18,64.29697705078124,-0.1516876220703125,0.6117523193359375,0.072637939453125,1.6897265763104812e+18,64.29948110351562,2.765728975485861,9.013204789370295,-2.698219912097454,1.6897265763104812e+18,64.29948110351562,-0.083378317952156,0.4600907862186432,-0.4313494183123111,1.6897265763129874e+18,64.3019875,-0.0687379457056522,0.4487752914428711,-0.3762419153004884,,,,,,,,,,,,,1.6897265763104812e+18,64.29948110351562,8.081114196777344,46.353215026855466,-0.8735763549804687,1.689726576310504e+18,64.29950378417969,38.47117614746094,58.0981330871582,78.4367446899414,1.6897265763104812e+18,64.29948110351562,-2.3531641644759116,-0.7936610372452936,-0.0947586136710063,-2.368527387275431,0.5916010892079245,-0.1054025721472002,-1.1658012002972051
4.35,1.6897265763605852e+18,64.34958520507811,-4.164397210786342,-3.098893885386586,2.0818978104287384,1.6897265763580813e+18,64.34708125,-0.151806640625,0.6069854736328125,-0.068316650390625,1.6897265763605852e+18,64.34958520507811,2.700612360191941,9.029780544213653,-2.7081310652589794,1.6897265763605852e+18,64.34958520507811,0.1522834286093711,-0.1050600171089172,0.566039764881134,1.689726576363092e+18,64.35209204101562,0.1602480456233024,-0.1279251530766487,0.6153081774711608,,,,,,,,,,,,,1.6897265763605852e+18,64.34958520507811,8.18828125,46.30906982421875,-0.9660263061523438,1.6897265763573107e+18,64.34631059570313,38.183807373046875,58.17322998046875,78.44010314941406,1.6897265763605852e+18,64.34958520507811,-2.3502354179590563,-0.7920923210156937,-0.0983109787597403,-2.3546592573734353,0.5938250776003275,-0.1013778639031633,-1.1701421472240867
4.4,1.68972657641069e+18,64.39968984375,-2.786885745283067,-3.088071111885905,2.7351011390578748,1.689726576408186e+18,64.39718579101563,-0.0312255859375,0.6300323486328125,0.019805908203125,1.68972657641069e+18,64.39968984375,2.2694088670566677,9.18930510192871,-2.5569725355422497,1.68972657641069e+18,64.39968984375,0.492058253288269,0.0247614161111414,1.312375831604004,1.689726576413196e+18,64.40219604492188,0.5181129276752472,0.0698175907135009,1.3227401733398438,,,,,,,,,,,,,1.68972657641069e+18,64.39968984375,6.037079620361328,46.69756927490234,-0.2742584228515625,1.6897265764093166e+18,64.39831645507812,35.903411865234375,58.584814453125,79.17871704101563,1.68972657641069e+18,64.39968984375,-2.2768448050773884,-0.7781328206669456,-0.0879727324520299,-2.2954274868818905,0.6135832019223685,-0.1009055634992739,-1.214510797455579
4.45,1.689726576460794e+18,64.44979404296876,5.23051741136238,2.716245164322853,-3.1358022341626883,1.6897265764582902e+18,64.44729018554688,0.7402679443359375,1.268896484375,-0.6105804443359375,1.689726576460794e+18,64.44979404296876,1.63730973048076,9.375999055407046,-2.3564065624473987,1.689726576460794e+18,64.44979404296876,0.1488422602415084,0.3246854305267334,1.083441698551178,1.6897265764633006e+18,64.45230048828125,0.0879877567291259,0.3361332207918167,1.0492976188659668,,,,,,,,,,,,,1.689726576460794e+18,64.44979404296876,3.4474418640136717,47.05730819702149,0.8356307983398438,1.6897265764613248e+18,64.45032485351562,33.16694641113281,58.89757690429688,80.25971984863281,1.689726576460794e+18,64.44979404296876,-2.165459817530639,-0.758504936097993,-0.0823689989766229,-2.1765290742818935,0.6400735872986514,-0.0901083531430144,-1.273552110665158
4.5,1.6897265765108987e+18,64.49989853515625,6.911759047193527,2.77716964707613,-4.46188278763622,1.6897265765083942e+18,64.4973943359375,0.828436279296875,1.2394805908203126,-0.681536865234375,1.6897265765108987e+18,64.49989853515625,1.2620456397756188,9.37855154559493,-2.569378749615997,1.6897265765108987e+18,64.49989853515625,-0.7344995975494385,1.1134480714797974,0.158606718480587,1.6897265765134052e+18,64.50240512695312,-0.7521425247192383,1.2047768235206604,0.1162594974040985,,,,,,,,,,,,,1.6897265765108987e+18,64.49989853515625,1.9405384063720703,47.24467086791992,0.16556396484375,1.6897265765133317e+18,64.502331640625,31.803619384765625,59.152398681640626,79.05621948242188,1.6897265765108987e+18,64.49989853515625,-2.040903573712395,-0.7459341934417272,-0.0977613694538387,-2.0283806645249505,0.6526966756351797,-0.0890101704698745,-1.2743474781972126
4.55,1.689726576561003e+18,64.55000297851562,0.6049902096021175,4.764943417365551,2.7679255502951143,1.689726576558499e+18,64.54749912109375,0.09603271484375,1.385137939453125,0.0084442138671875,1.689726576561003e+18,64.55000297851562,1.0246233403528482,9.2673529196316,-3.035597237448394,1.689726576561003e+18,64.55000297851562,-0.6081281542778015,2.1975521802902223,-0.1350702136754989,1.689726576563509e+18,64.55250898437501,-0.5572733297944069,2.1719194889068603,-0.1205115512013435,,,,,,,,,,,,,1.689726576561003e+18,64.55000297851562,1.6345703125,47.154972076416016,-1.962896728515625,1.689726576560139e+18,64.54913909912109,31.711387634277344,58.94702911376953,77.00323486328125,1.689726576561003e+18,64.55000297851562,-2.0016615125591435,-0.7395420505676301,-0.145260719653535,-1.8973049972409044,0.6530207379299664,-0.0725502387629293,-1.2377402790040852
4.6,1.689726576611107e+18,64.60010712890626,-3.905853125201463,-3.92028356780529,7.599440984007716,1.689726576608603e+18,64.5976029296875,-0.309869384765625,0.5614532470703125,0.457098388671875,1.689726576611107e+18,64.60010712890626,0.7306029407824576,9.268660728907584,-3.116328069077134,1.689726576611107e+18,64.60010712890626,0.6335936635732651,1.5075429677963257,0.2139119800180196,1.6897265766136138e+18,64.60261372070313,0.6789328575134277,1.4918584823608398,0.209119077026844,,,,,,,,,,,,,1.689726576611107e+18,64.60010712890626,1.57740478515625,46.99138870239258,-2.904530334472656,1.689726576606948e+18,64.59594804687501,31.61639404296875,58.82063293457031,76.49832153320312,1.689726576611107e+18,64.60010712890626,-1.9937894873894872,-0.7316057873392162,-0.1782035960439118,-1.8003246288530883,0.6564777874342519,-0.0434981725897418,-1.2381717206575378
4.65,1.6897265766612116e+18,64.65021152343749,-2.182764193661213,1.114497833288908,4.092091063927561,1.6897265766587077e+18,64.64770771484375,-0.162188720703125,1.082489013671875,0.1197479248046875,1.6897265766612116e+18,64.65021152343749,0.5946004353042692,9.410651734210848,-2.6878917317937314,1.6897265766612116e+18,64.65021152343749,1.2520529270172118,-0.0416151024401187,-0.2274556756019592,1.689726576663718e+18,64.65271796875001,1.277172899246216,-0.1857378602027893,-0.2212879702448844,,,,,,,,,,,,,1.6897265766612116e+18,64.65021152343749,1.8470123291015623,46.846804809570315,-1.00869140625,1.68972657665896e+18,64.64795986328124,32.025811767578126,58.68334045410156,78.60063781738282,1.6897265766612116e+18,64.65021152343749,-2.033265645276627,-0.7281308866745035,-0.1794880933975075,-1.7899768383878858,0.6613832776586501,-0.0096221791806065,-1.286117463800364
4.7,1.6897265767113157e+18,64.70031567382813,-3.150339878081083,1.155352289342284,-1.4061963219438494,1.6897265767088115e+18,64.69781166992188,-0.255078125,1.090252685546875,-0.373529052734375,1.6897265767113157e+18,64.70031567382813,0.6605796514703706,9.569384030956623,-2.0316977261421085,1.6897265767113157e+18,64.70031567382813,1.0221174955368042,-2.1836744785308837,0.8861969783902168,1.6897265767138217e+18,64.70282192382813,0.9678975462913512,-2.1414817333221436,0.9611692249774932,,,,,,,,,,,,,1.6897265767113157e+18,64.70031567382813,1.8725067138671876,46.52699356079101,2.3764053344726563,1.6897265767109714e+18,64.6999712890625,31.814874267578126,58.35889892578125,82.02139587402344,1.6897265767113157e+18,64.70031567382813,-2.059280445347019,-0.7304299197680619,-0.1324435006707934,-1.8849475058388407,0.669665350886127,-0.0101161672398757,-1.3511059944615502
4.75,1.6897265767614195e+18,64.75041962890626,-0.366555551145766,-0.420864762211442,-2.9725503849397596,1.6897265767589156e+18,64.74791557617188,-0.0050933837890625,0.93858642578125,-0.47027587890625,1.6897265767614195e+18,64.75041962890626,0.1862123878129943,9.641713237203955,-1.7745229707621035,1.6897265767614195e+18,64.75041962890626,0.0100546270608902,0.5145093873143196,1.0290361285209657,1.689726576763926e+18,64.75292626953124,-0.0150503754615783,0.6386395394802094,0.9894920110702514,,,,,,,,,,,,,1.6897265767614195e+18,64.75041962890626,-0.276346206665039,46.59632034301758,3.742353820800781,1.689726576762982e+18,64.75198222656249,29.142495727539064,58.470315551757814,83.19920959472657,1.6897265767614195e+18,64.75041962890626,-1.7940852309044932,-0.7134323593665336,-0.1057690107437595,-1.6746590457610773,0.6922995125819595,-0.0217284000530868,-1.3871444662825314
4.8,1.689726576811524e+18,64.8005240234375,0.5930511088899896,-0.1024934583646059,-0.2209622799135744,1.68972657680902e+18,64.79802006835936,0.029046630859375,0.9698516845703123,-0.1997406005859375,1.689726576811524e+18,64.8005240234375,-0.273365315777948,9.630817632275818,-1.8246435016195477,1.689726576811524e+18,64.8005240234375,-0.1567552357912063,1.0388044476509095,0.6532175898551941,1.6897265768140303e+18,64.80303037109374,-0.1580076336860656,1.033833956718445,0.6538181781768799,,,,,,,,,,,,,1.689726576811524e+18,64.8005240234375,-1.986968231201172,46.76464157104492,3.478535461425781,1.6897265768149916e+18,64.8039916015625,27.74954833984375,58.64659729003906,82.69424438476562,1.689726576811524e+18,64.8005240234375,-1.590899457232822,-0.6971161993863016,-0.1256539679086569,-1.4232057480648193,0.7057663130793781,-0.0077518307035774,-1.3811786227434109
4.85,1.6897265768616284e+18,64.85062836914062,0.5649493934061378,-0.1537269189000129,1.533926366765201,1.6897265768591245e+18,64.8481244140625,-0.007257080078125,0.9681365966796877,-0.023681640625,1.6897265768616284e+18,64.85062836914062,-0.6476688707949221,9.607621582509877,-1.8537018090954425,1.6897265768616284e+18,64.85062836914062,-0.0478769801557063,1.5337295055389404,0.365457609295845,1.689726576864135e+18,64.85313486328126,-0.033405840024352,1.5738533020019532,0.3410886645317078,,,,,,,,,,,,,1.6897265768616284e+18,64.85062836914062,-2.910105895996094,46.83475112915039,3.0137588500976564,1.6897265768617969e+18,64.85079699707032,27.113819122314453,58.670047760009766,82.37621688842773,1.6897265768616284e+18,64.85062836914062,-1.459229121025127,-0.6832475094347945,-0.1480475858838915,-1.2351764487647872,0.7148707222621191,0.0092351627687453,-1.3689965951347491
4.9,1.6897265769117327e+18,64.9007326171875,0.9475357898233832,0.3173300365525484,1.31488719309479,1.6897265769092283e+18,64.89822861328125,0.0080108642578125,1.01063232421875,-0.058331298828125,1.6897265769117327e+18,64.9007326171875,-0.8461113050906359,9.612502106480004,-1.7467710989357528,1.6897265769117327e+18,64.9007326171875,0.2388364076614379,1.4211776971817016,-0.1188255488872527,1.6897265769142395e+18,64.90323940429687,0.2469885885715484,1.3813604950904843,-0.1289892999455332,,,,,,,,,,,,,1.6897265769117327e+18,64.9007326171875,-2.7169307708740233,46.76334381103515,3.1357101440429687,1.689726576908605e+18,64.89760463867188,27.408432006835938,58.59728393554688,82.55216369628906,1.6897265769117327e+18,64.9007326171875,-1.4234991796367418,-0.6747092253679225,-0.1737986732123116,-1.1193322835773205,0.7161717061387254,0.0393803385981062,-1.3715238675503645
4.95,1.6897265769618373e+18,64.95083725585937,-0.392944694211334,-0.3972069401526451,-1.368836050068736,1.689726576959333e+18,64.94833325195313,-0.138275146484375,0.9396087646484376,-0.305902099609375,1.6897265769618373e+18,64.95083725585937,-0.8740967372510582,9.638376084831355,-1.5831547126363217,1.6897265769618373e+18,64.95083725585937,0.2308288246393203,0.5278628289699554,0.0222969785332679,1.6897265769643433e+18,64.95334340820312,0.2285677134990692,0.5297209441661834,0.0434958115220069,,,,,,,,,,,,,1.6897265769618373e+18,64.95083725585937,-1.915203857421875,46.631890869140626,3.6263763427734377,1.689726576960618e+18,64.9496177734375,28.1948486328125,58.46793212890625,83.04600219726562,1.6897265769618373e+18,64.95083725585937,-1.4159265526188676,-0.6721251021079824,-0.1844860365030526,-1.0660871652143855,0.7145139681944773,0.0605694610465614,-1.3852988132375823
5.0,1.6897265770119414e+18,65.00094140625,-1.0091634231838582,-0.2878041992431878,-1.2318702379032969,1.6897265770094374e+18,64.99843745117187,-0.2029541015625,0.95904541015625,-0.2696441650390625,1.6897265770119414e+18,65.00094140625,-1.0108543281063436,9.644134326871036,-1.4612175427766143,1.6897265770119414e+18,65.00094140625,0.1344800621271133,0.7774080991744995,0.2904389530420302,1.689726577014448e+18,65.003448046875,0.1321619778871535,0.7717559456825256,0.299276453256607,,,,,,,,,,,,,1.6897265770119414e+18,65.00094140625,-1.9867664337158204,46.369146728515624,4.074235534667968,1.6897265770126282e+18,65.00162822265625,27.996047973632812,58.23482666015625,83.49583435058594,1.6897265770119414e+18,65.00094140625,-1.3478614871133,-0.6654604395034427,-0.1926120977907066,-0.965757741331026,0.7172361909999754,0.0748161372960838,-1.3884911683033294
5.05,1.6897265770620457e+18,65.05104575195313,0.2487123397220671,0.0084742814522981,-0.4673267413352429,1.6897265770595418e+18,65.04854184570313,-0.0939666748046875,0.9785491943359376,-0.18499755859375,1.6897265770620457e+18,65.05104575195313,-1.2153414786198735,9.633814476004243,-1.3708813213868438,1.6897265770620457e+18,65.05104575195313,0.1298353433609008,0.4389112651348114,0.3283838510513305,1.6897265770645524e+18,65.05355239257813,0.1351801395416259,0.434845894575119,0.3218545764684676,,,,,,,,,,,,,1.6897265770620457e+18,65.05104575195313,-2.604479217529297,46.264950561523435,4.2515411376953125,1.6897265770646377e+18,65.05363759765625,27.36505126953125,58.09667053222656,83.73531494140624,1.6897265770620457e+18,65.05104575195313,-1.2563745419493553,-0.656230123634613,-0.2010946356833113,-0.8457677623386622,0.7221644196115712,0.0859381663713111,-1.3827820380019884
5.1,1.6897265771121505e+18,65.10115043945312,0.3711525198939441,-0.1760534339028596,-0.5610178407239168,1.6897265771096466e+18,65.09864638671874,-0.10404052734375,0.9661529541015624,-0.19029541015625,1.6897265771121505e+18,65.10115043945312,-1.3526854472218452,9.629798810622097,-1.2671943862278758,1.6897265771121505e+18,65.10115043945312,0.1920472741127013,0.3330924272537231,0.157623142004013,1.6897265771146565e+18,65.10365649414062,0.1939265429973601,0.3338458865880966,0.1546440631151198,,,,,,,,,,,,,1.6897265771121505e+18,65.10115043945312,-2.7049934387207033,46.267784881591794,4.750926208496094,1.6897265771114445e+18,65.10044458007813,27.381637573242188,58.06606674194336,84.23881149291992,1.6897265771121505e+18,65.10115043945312,-1.1807879361303095,-0.6497234552961256,-0.2047593917678337,-0.7527398431423976,0.7259754721866327,0.0942527840394022,-1.3805953246170326
5.15,1.6897265771622543e+18,65.15125439453125,-0.4058341325312852,-0.0639124417489767,-1.8988001571027933,1.6897265771597504e+18,65.14875048828125,-0.19591064453125,0.9730194091796877,-0.31824951171875,1.6897265771622543e+18,65.15125439453125,-1.4570940623319149,9.626533320633172,-1.172571471268758,1.6897265771622543e+18,65.15125439453125,0.0791976578533649,0.2308584362268447,0.3040718972682953,1.689726577164761e+18,65.1537609375,0.0682543136179446,0.252585169672966,0.3267575562000274,,,,,,,,,,,,,1.6897265771622543e+18,65.15125439453125,-2.9160655975341796,46.167311096191405,5.234767150878906,1.6897265771582533e+18,65.14725341796876,27.11385498046875,58.012960815429686,84.655029296875,1.6897265771622543e+18,65.15125439453125,-1.1176363538276337,-0.644664994579386,-0.2064741901047992,-0.6778887434557058,0.72914827381195,0.100554847930856,-1.3788597314292836
5.2,1.6897265772123592e+18,65.20135908203125,-0.8312769578610361,-0.0274721781021356,-1.3219078855118156,1.6897265772098547e+18,65.1988548828125,-0.2629730224609375,0.9780731201171876,-0.239599609375,1.6897265772123592e+18,65.20135908203125,-1.759338904085904,9.579588614106774,-1.1353809445504095,1.6897265772123592e+18,65.20135908203125,-0.1010544061660766,1.2258854031562805,0.8135618686676025,1.6897265772148654e+18,65.20386547851562,-0.1028836652636527,1.3036996841430664,0.8401087403297425,,,,,,,,,,,,,1.6897265772123592e+18,65.20135908203125,-3.794262313842774,46.215162658691405,5.327690124511719,1.6897265772102612e+18,65.19926127929688,26.186740112304687,58.065103149414064,84.70071105957031,1.6897265772123592e+18,65.20135908203125,-1.0438318519850025,-0.6312633969609085,-0.2181865362825309,-0.5749931912434142,0.7362366544021925,0.1083788619699715,-1.3554366132532334
5.25,1.6897265772624635e+18,65.25146333007812,1.6365139623801408,0.8800670292192697,0.6940631038317083,1.6897265772599596e+18,65.24895942382813,-0.0549102783203125,1.05648193359375,-0.023858642578125,1.6897265772624635e+18,65.25146333007812,-2.358575197110325,9.46258428292632,-1.0122525336925683,1.6897265772624635e+18,65.25146333007812,0.0067585811018943,1.3088303208351135,1.293934965133667,1.6897265772649697e+18,65.25396953125001,0.0250681226723827,1.231306827068329,1.2989972114562989,,,,,,,,,,,,,1.6897265772624635e+18,65.25146333007812,-5.39036979675293,46.28983612060547,5.538458251953125,1.68972657726227e+18,65.25126987304688,24.52958984375,58.13304443359375,84.96487731933594,1.6897265772624635e+18,65.25146333007812,-0.9524763072724688,-0.6023285376659445,-0.2469164739655784,-0.4083230951240814,0.747807595926816,0.1297499637277686,-1.3056636533161936
5.3,1.6897265773125676e+18,65.30156752929688,5.727351109949946,0.3354540729773044,0.2206109091926366,1.6897265773100634e+18,65.29906337890625,0.2991607666015625,0.9842529296875,-0.0780029296875,1.6897265773125676e+18,65.30156752929688,-2.835424676811397,9.350199194431305,-0.835381821283549,1.6897265773125676e+18,65.30156752929688,0.3540321469306945,0.4611027210950851,0.2220612853765487,1.6897265773150743e+18,65.30407426757813,0.3599611103534698,0.4992909282445907,0.1305379748344421,,,,,,,,,,,,,1.6897265773125676e+18,65.30156752929688,-6.975920867919922,46.03293380737305,5.828424072265625,1.6897265773142776e+18,65.30327763671875,22.87938537597656,57.74490661621094,85.43081970214844,1.6897265773125676e+18,65.30156752929688,-0.859932036903276,-0.5797086951820981,-0.2560684826998817,-0.2866258980137242,0.7609158276152141,0.1391092297005139,-1.2645146731271082
5.35,1.689726577362672e+18,65.35167192382812,3.1805778384086487,0.7293314595419168,-2.308303918057531,1.6897265773601682e+18,65.34916811523438,0.03499755859375,1.041314697265625,-0.2988861083984375,1.689726577362672e+18,65.35167192382812,-2.6622031930118797,9.418791552237868,-0.5978677080849557,1.689726577362672e+18,65.35167192382812,0.1745638344436883,0.6498714923858643,-0.7165696382522583,1.6897265773651784e+18,65.35417841796875,0.1558048805221915,0.6234445095062255,-0.7142410397529602,,,,,,,,,,,,,1.689726577362672e+18,65.35167192382812,-5.983343887329101,45.61612548828125,6.838446044921875,1.6897265773610895e+18,65.35008953857422,24.55644989013672,57.382545471191406,86.40164566040039,1.689726577362672e+18,65.35167192382812,-0.8268275566969173,-0.5821130268632821,-0.2586955199751628,-0.2205403384811478,0.7541871690721803,0.1592830773779313,-1.288812063577802
5.4,1.6897265774127764e+18,65.40177646484375,0.8611465817198157,2.008478353952765,-2.1278561654923855,1.6897265774102725e+18,65.39927236328126,-0.1503143310546875,1.172125244140625,-0.270501708984375,1.6897265774127764e+18,65.40177646484375,-2.3823623738633097,9.49416413015604,-0.5908794639393314,1.6897265774127764e+18,65.40177646484375,-0.3595672011375427,0.1631627883762121,-0.517015951871872,1.6897265774152827e+18,65.40428266601563,-0.3784163296222687,0.1512459255754947,-0.5205133378505706,,,,,,,,,,,,,1.6897265774127764e+18,65.40177646484375,-4.186624526977539,45.49427795410156,6.967448425292969,1.6897265774078994e+18,65.39689936523438,25.997311401367188,57.32943115234375,86.30982971191406,1.6897265774127764e+18,65.40177646484375,-0.8699734906044874,-0.5915766870632847,-0.263203824242548,-0.2436205840313846,0.7430857855752194,0.1690054752820629,-1.3177306295495308
5.45,1.6897265774628805e+18,65.45188051757813,4.697761481652707,1.340522861871719,-1.378862646303475,1.6897265774603768e+18,65.44937670898437,0.3089019775390625,1.1128753662109374,-0.225299072265625,1.6897265774628805e+18,65.45188051757813,-1.981120654462725,9.568506780504585,-0.7983645176272094,1.6897265774628805e+18,65.45188051757813,-0.506097799539566,0.0266071640886366,-1.612303626537323,1.689726577465387e+18,65.454387109375,-0.5142215132713318,0.0358871608972549,-1.7272886633872986,,,,,,,,,,,,,1.6897265774628805e+18,65.45188051757813,-2.2925647735595702,45.33241958618164,6.236149597167969,1.68972657745991e+18,65.44891020507812,28.020306396484376,57.15792236328125,85.56512145996093,1.6897265774628805e+18,65.45188051757813,-1.022030503120057,-0.6085745992027732,-0.2687480557689,-0.3886748809788314,0.7271315011976099,0.1689733218535936,-1.350688410846035
5.5,1.689726577512985e+18,65.50198510742187,1.252436129135266,2.1053404115277528,0.4136460483912378,1.689726577510481e+18,65.49948095703125,-0.0002227783203125,1.2112884521484375,-0.0545623779296875,1.689726577512985e+18,65.50198510742187,-0.8028948618397489,9.705136317226884,-1.0922226831471171,1.689726577512985e+18,65.50198510742187,-0.7391697049140931,0.5922509260475636,-2.7173744201660157,1.6897265775154913e+18,65.50449145507812,-0.7542091250419617,0.7019315544515848,-2.6842488765716555,,,,,,,,,,,,,1.689726577512985e+18,65.50198510742187,3.0676998138427733,44.679979705810545,5.199302673339844,1.689726577511918e+18,65.50091791992187,33.626974487304686,56.45186767578125,84.48759765625,1.689726577512985e+18,65.50198510742187,-1.610278481279618,-0.6535225808287516,-0.2714840348004163,-0.9612387551217976,0.6833817490889238,0.1782714464358125,-1.4275363240583228
5.55,1.6897265775630894e+18,65.55208935546875,-3.399955859418511,2.5132582476913927,2.679527018969655,1.6897265775605857e+18,65.54958549804687,-0.3166717529296875,1.2379791259765625,0.122100830078125,1.6897265775630894e+18,65.55208935546875,0.2390110427053552,9.682745855529308,-1.512323723670542,1.6897265775630894e+18,65.55208935546875,-0.9115655183792114,2.3132891178131105,-2.02205114364624,1.6897265775655956e+18,65.55459575195313,-0.8989949703216553,2.284836030006409,-1.9811116933822632,,,,,,,,,,,,,1.6897265775630894e+18,65.55208935546875,7.989098358154297,43.50441513061523,3.2654754638671877,1.689726577563926e+18,65.55292583007812,38.9138916015625,55.06242980957031,82.07931823730469,1.6897265775630894e+18,65.55208935546875,-2.454246655404791,-0.6848058838020025,-0.3029084141288707,-1.7130391741423725,0.6290084216656877,0.2075659377486283,-1.4125742455610162
5.6,1.6897265776131937e+18,65.60219365234374,-1.8707221220619976,0.6537484537434578,1.6776345220237971,1.6897265776106895e+18,65.59968955078125,-0.0948760986328125,1.0365814208984374,-0.034527587890625,1.6897265776131937e+18,65.60219365234374,0.9378812417714296,9.5729639937222,-1.8993375373020769,1.6897265776131937e+18,65.60219365234374,-0.5690018773078919,0.4432432513684034,-1.401958179473877,1.6897265776157002e+18,65.60470024414062,-0.5608086228370667,0.373481859266758,-1.3659047842025758,,,,,,,,,,,,,1.6897265776131937e+18,65.60219365234374,11.434221649169922,42.227002716064455,1.16026611328125,1.689726577610733e+18,65.59973291015625,42.110233306884766,53.80597305297851,80.29010391235352,1.6897265776131937e+18,65.60219365234374,-2.8445974027008383,-0.7033310390159803,-0.3296487869867219,-2.0249882688880447,0.5860256164796903,0.2304414836874376,-1.352627905990868
5.65,1.689726577663298e+18,65.65229814453126,-2.7232998759138582,-0.0053926820498705,0.0086791856007277,1.6897265776607944e+18,65.6497943359375,-0.127276611328125,0.9566070556640623,-0.2259552001953125,1.689726577663298e+18,65.65229814453126,1.4347705576168,9.44833363925576,-2.1951239090186356,1.689726577663298e+18,65.65229814453126,-0.6906358361244201,0.2576488584280014,-0.812308418750763,1.6897265776658043e+18,65.65480434570313,-0.700306749343872,0.279812478274107,-0.793115782737732,,,,,,,,,,,,,1.689726577663298e+18,65.65229814453126,13.496578979492188,41.15557174682617,0.1623489379882812,1.6897265776575378e+18,65.64653784179687,43.67694091796875,52.93507385253906,79.45886840820313,1.689726577663298e+18,65.65229814453126,-2.982228082099738,-0.720767856498574,-0.3353988954576078,-2.149065278394251,0.5606272556524365,0.2315868380571501,-1.3000372170987418
5.7,1.6897265777134024e+18,65.70240234375,-2.9577233150076863,-0.9425844510263204,1.8971055696924028,1.6897265777108984e+18,65.69989829101561,-0.13052978515625,0.8526092529296875,-0.0548858642578125,1.6897265777134024e+18,65.70240234375,1.6776935002824664,9.322410556178092,-2.537644179442078,1.6897265777134024e+18,65.70240234375,-0.6099329650402069,-0.0247345697134733,-0.2668926954269409,1.6897265777159089e+18,65.7049087890625,-0.5901414155960083,-0.0436102725565433,-0.2400520667433738,,,,,,,,,,,,,1.6897265777134024e+18,65.70240234375,14.337385559082032,40.58777389526367,-1.1350601196289063,1.6897265777095437e+18,65.69854370117187,44.441714477539065,52.410543823242186,78.1565155029297,1.6897265777134024e+18,65.70240234375,-2.9989816197849257,-0.7308903853035661,-0.3454214452575194,-2.155094627449889,0.5432620931562115,0.2265532258154847,-1.2553677131866183
5.75,1.6897265777635067e+18,65.75250659179687,-2.426465222640336,-1.5015319882822038,2.5615715537703037,1.6897265777610028e+18,65.75000268554687,-0.0677734375,0.78466796875,-0.0199859619140625,1.6897265777635067e+18,65.75250659179687,1.729154076798111,9.26604721463442,-2.705612711149454,1.6897265777635067e+18,65.75250659179687,-0.2189055278897285,-0.4433336198329926,0.1858456043060869,1.6897265777610028e+18,65.75000268554687,-0.2303810119628906,-0.4258786588907242,0.1626773951575159,,,,,,,,,,,,,1.6897265777635067e+18,65.75250659179687,14.427108764648438,40.58231811523437,-1.592694091796875,1.6897265777615506e+18,65.75055063476563,44.49179382324219,52.42818603515625,77.79771423339844,1.6897265777635067e+18,65.75250659179687,-2.969007473509122,-0.7358828400141137,-0.3460426087274685,-2.139484279366749,0.5404526940586265,0.2159335766246383,-1.237212065729674
5.8,1.689726577813611e+18,65.80261108398437,-1.829668987018317,-2.303590362765193,2.2082566545751687,1.689726577811107e+18,65.80010703125001,-0.0167633056640625,0.7154144287109375,-0.0441497802734375,1.689726577813611e+18,65.80261108398437,1.6215231094145774,9.291367884564997,-2.6846729158776994,1.689726577813611e+18,65.80261108398437,0.1393575511872768,-0.5916189193725586,0.5552726089954376,1.6897265778060966e+18,65.79509653320312,0.0785471141338348,-0.5722263932228089,0.5152574837207794,,,,,,,,,,,,,1.689726577813611e+18,65.80261108398437,13.469210815429689,40.76955032348633,-1.1024627685546875,1.6897265778135578e+18,65.80255761718749,43.42371215820312,52.6355224609375,78.34756164550781,1.689726577813611e+18,65.80261108398437,-2.913748519612003,-0.7354601951076614,-0.338908432439079,-2.11399687067797,0.5499468936109986,0.2043615593820888,-1.2452379328543604
5.85,1.6897265778637153e+18,65.85271518554688,-0.4538171252903342,-1.4974764585071805,2.1098734664605554,1.6897265778612114e+18,65.85021127929687,0.1030548095703125,0.810076904296875,-0.0468963623046875,1.6897265778637153e+18,65.85271518554688,1.3966839880676567,9.3824208466959,-2.485523736165166,1.6897265778637153e+18,65.85271518554688,0.4682614207267761,-0.5757182836532593,0.7090642929077149,1.689726577856201e+18,65.8452009765625,0.4389725089073181,-0.5858965516090393,0.6960875153541565,,,,,,,,,,,,,1.6897265778637153e+18,65.85271518554688,12.425975036621091,41.0620475769043,-0.2119277954101562,1.6897265778603635e+18,65.84936358642578,42.31510543823242,52.98119354248047,79.41445922851562,1.6897265778637153e+18,65.85271518554688,-2.8489654553783823,-0.7297659045265632,-0.3265212793731886,-2.082402604693756,0.5675620252616398,0.1965853770761245,-1.2757772952085618
5.9,1.6897265779138196e+18,65.9028197265625,2.0440590197086332,0.2772429408359527,-1.4851451801396904,1.6897265779113157e+18,65.90031557617188,0.3465606689453125,1.0085418701171875,-0.4070526123046875,1.6897265779138196e+18,65.9028197265625,1.1310414394283297,9.477812364100814,-2.2485224678595364,1.6897265779138196e+18,65.9028197265625,0.2331748597323894,-0.3463577667251229,0.5308992177248001,1.6897265779063055e+18,65.8953052734375,0.3361813713796436,-0.4255950272083282,0.6260887086391449,,,,,,,,,,,,,1.6897265779138196e+18,65.9028197265625,10.960272216796875,41.579244232177736,1.2635711669921874,1.689726577907168e+18,65.89616801757812,40.92144775390625,53.45829467773437,80.74364013671875,1.6897265779138196e+18,65.9028197265625,-2.7747531517160113,-0.7217719259467581,-0.3143876001638331,-2.0364581589360498,0.5860643050229911,0.1915895647552306,-1.3111954259249372
5.95,1.6897265779639242e+18,65.95292426757813,5.1790430401301375,1.4508879596203563,-3.341538274145722,1.6897265779614203e+18,65.95042026367187,0.6354248046875,1.1112396240234377,-0.56563720703125,1.6897265779639242e+18,65.95292426757813,1.0636879757669566,9.472836329253912,-2.302253210490346,1.6897265779639242e+18,65.95292426757813,-0.4006974041461945,0.2576971352100372,-0.2052593078464269,1.689726577956409e+18,65.945409375,-0.3297384917736053,0.228906150907278,-0.1218344546854495,,,,,,,,,,,,,1.6897265779639242e+18,65.95292426757813,10.318399810791016,41.74949340820312,1.5081008911132812,1.6897265779591744e+18,65.94817441406249,40.38540954589844,53.603570556640626,80.85798645019531,1.6897265779639242e+18,65.95292426757813,-2.7408306546614356,-0.720225966669035,-0.3167454105900549,-2.0036617050951997,0.5877296083656799,0.1884323115717234,-1.309206215733013
6.0,1.6897265780140283e+18,66.0030283203125,3.428304615772515,0.9489390222978592,-2.6188411965039373,1.6897265780115244e+18,66.00052421875,0.4624542236328125,1.043701171875,-0.53541259765625,1.6897265780140283e+18,66.0030283203125,1.2750449097586425,9.36956218345344,-2.5950416863390804,1.6897265780140283e+18,66.0030283203125,-0.779140830039978,-0.4430191665887832,-0.6323717951774597,1.6897265780065142e+18,65.99551420898437,-0.7534215688705445,-0.2559770189225673,-0.5994915723800659,,,,,,,,,,,,,1.6897265780140283e+18,66.0030283203125,10.977431488037109,41.5768798828125,0.6223434448242188,1.6897265780111803e+18,66.0001806640625,41.139617919921875,53.37505187988281,79.93887939453126,1.6897265780140283e+18,66.0030283203125,-2.766304149952284,-0.7294563473965039,-0.3241441619953851,-2.02669428321197,0.5743688072640023,0.1812739369578372,-1.2714329411759009
6.05,1.6897265780641326e+18,66.05313276367187,-0.5519993840053677,-1.556612538086772,-1.8255718100586535,1.689726578061629e+18,66.05062890625,0.0992279052734375,0.7733367919921875,-0.463641357421875,1.6897265780641326e+18,66.05313276367187,1.634896707215756,9.240413357875347,-2.846802512298524,1.6897265780641326e+18,66.05313276367187,-0.5332857072353363,-1.3252847909927368,-0.1471635818481445,1.6897265780566182e+18,66.0456181640625,-0.5985541880130768,-1.266934335231781,-0.277457819879055,,,,,,,,,,,,,1.6897265780641326e+18,66.05313276367187,11.599845123291017,41.108743286132814,0.1418807983398437,1.689726578063188e+18,66.05218789062499,41.68348388671875,52.944949340820315,79.52992553710938,1.6897265780641326e+18,66.05313276367187,-2.7831576713043265,-0.7471263719760296,-0.3138537517926329,-2.0917867200378124,0.5640130564716945,0.158358289630081,-1.2294007480400275
6.1,1.6897265781142372e+18,66.1032373046875,-1.3022378763671218,-2.3257508735513683,1.1151233886152505,1.6897265781117332e+18,66.10073315429688,0.0351470947265625,0.699310302734375,-0.1705322265625,1.6897265781142372e+18,66.1032373046875,1.668401180445552,9.218058785821796,-2.900150246961117,1.6897265781142372e+18,66.1032373046875,-0.1213859647512435,-0.8646799564361572,0.6806950628757477,1.6897265781067228e+18,66.09572280273437,-0.1829071776941418,-0.954830014705658,0.5786269724369049,,,,,,,,,,,,,1.6897265781142372e+18,66.1032373046875,11.210813903808594,41.21602096557617,0.3951339721679687,1.6897265781099953e+18,66.09899523925782,41.11111068725586,53.04862976074219,79.84042739868164,1.6897265781142372e+18,66.1032373046875,-2.7222682445852895,-0.7531183765391708,-0.2976311576625163,-2.0927080689381876,0.5712454926107255,0.1335870554081075,-1.222590058927444
6.15,1.6897265781643412e+18,66.1533412109375,-2.3076442851050194,-0.9789245276212692,2.3480626586025948,1.6897265781618373e+18,66.15083735351563,-0.1126739501953125,0.8951995849609375,-0.0362823486328125,1.6897265781643412e+18,66.1533412109375,1.28666669545643,9.305807679519058,-2.8078988395997877,1.6897265781643412e+18,66.1533412109375,0.3743576258420944,-0.0821393847465515,1.2794031381607056,1.6897265781568271e+18,66.1458271484375,0.2820216223597526,-0.2656536653637886,1.2198248624801635,,,,,,,,,,,,,1.6897265781643412e+18,66.1533412109375,9.113240814208984,41.82157211303711,0.8623031616210938,1.6897265781568036e+18,66.14580351562499,38.985617065429686,53.72852783203125,80.29039611816407,1.6897265781643412e+18,66.1533412109375,-2.593574281368327,-0.7423659585774658,-0.2887852684615641,-1.9988507640782285,0.5924020785206497,0.1202488808542638,-1.2500531269660091
6.2,1.6897265782144458e+18,66.20344594726562,5.819518404611349,8.949907381553649,1.846638095867336,1.689726578211942e+18,66.20094179687501,0.7098175048828125,1.859088134765625,-0.1022552490234375,1.6897265782144458e+18,66.20344594726562,0.9075597532658278,9.401348366910218,-2.6381609893584246,1.6897265782144458e+18,66.20344594726562,0.0822291910648346,0.1615964770317077,-0.0051626175642013,1.6897265782069317e+18,66.19593125,0.2196075066924095,0.0618492007255554,0.2275992393493652,,,,,,,,,,,,,1.6897265782144458e+18,66.20344594726562,7.13452377319336,42.29977722167969,1.75723876953125,1.68972657820881e+18,66.19780991210936,37.12825317382813,54.15911865234375,81.18411560058594,1.6897265782144458e+18,66.20344594726562,-2.4947720157360997,-0.7289485185061052,-0.286614406214933,-1.9020804891039744,0.60956895382709,0.1220839784543872,-1.2823019818234629
6.25,1.68972657826455e+18,66.25355014648437,-3.015565511545315,-3.3594626378929617,1.9676898319685456,1.6897265782620462e+18,66.2510462890625,-0.261395263671875,0.5681365966796875,-0.0457489013671875,1.68972657826455e+18,66.25355014648437,0.8145457494211197,9.405301137737036,-2.6528504336115715,1.68972657826455e+18,66.25355014648437,0.4014426976442337,1.6018056631088258,0.1949223138391971,1.6897265782570358e+18,66.24603559570312,0.2435311160981655,1.633691906929016,0.0728948190808296,,,,,,,,,,,,,1.68972657826455e+18,66.25355014648437,7.256399536132813,42.07255630493164,1.1922592163085937,1.6897265782608184e+18,66.24981826171874,37.33659057617187,53.88519287109375,80.52507934570312,1.68972657826455e+18,66.25355014648437,-2.514338633085172,-0.7223876824873031,-0.3044412820392007,-1.868131785777671,0.6047598315485029,0.1399447968174932,-1.2837896902144088
6.3,1.6897265783146545e+18,66.3036544921875,-3.4709690730834004,-1.2855443695890905,3.273907864013016,1.6897265783121505e+18,66.30115043945312,-0.29666748046875,0.883203125,0.0881256103515625,1.6897265783146545e+18,66.3036544921875,0.5061992224846408,9.5159718235296,-2.3102715064164996,1.6897265783146545e+18,66.3036544921875,1.0577721118927002,0.2914919137954712,0.2168209195137024,1.68972657830714e+18,66.296140234375,1.0063675165176391,0.5489307448267937,0.3347732424736023,,,,,,,,,,,,,1.6897265783146545e+18,66.3036544921875,6.901946258544922,41.82030029296875,1.8443435668945312,1.6897265783128246e+18,66.30182465820312,36.96559448242188,53.653411865234375,81.35930786132812,1.6897265783146545e+18,66.3036544921875,-2.483283315734115,-0.7055893152641475,-0.3122598021904161,-1.78633833251241,0.6137310377956796,0.1670503204988608,-1.327178494045973
6.35,1.6897265783647588e+18,66.35375883789064,-2.9936267537510393,1.4090661198395489,-0.6024238370193541,1.6897265783622548e+18,66.3512548828125,-0.2419097900390625,1.112896728515625,-0.263812255859375,1.6897265783647588e+18,66.35375883789064,0.4953970022349059,9.632303370015023,-1.766249618709385,1.6897265783647588e+18,66.35375883789064,1.0017192125320435,-1.4494338631629944,0.4649593688547611,1.6897265783572444e+18,66.34624428710939,1.0756927371025085,-1.2005139946937562,0.2665542973205447,,,,,,,,,,,,,1.6897265783647588e+18,66.35375883789064,6.904301452636719,41.31709213256836,4.171781921386719,1.6897265783648325e+18,66.353832421875,36.870263671875,53.122067260742185,83.87542114257812,1.6897265783647588e+18,66.35375883789064,-2.513532594308953,-0.7029347524896286,-0.2854615590450993,-1.8449419664769184,0.6269711039004842,0.1764453170974529,-1.3825872183873158
6.4,1.689726578414863e+18,66.40386323242187,-0.9395401441204546,-0.7286087566775084,-1.6655962644796074,1.6897265784123592e+18,66.40135922851563,-0.0810882568359375,0.9176361083984376,-0.2989471435546875,1.689726578414863e+18,66.40386323242187,0.1411637648088042,9.696480132562517,-1.452073194656074,1.689726578414863e+18,66.40386323242187,0.2342533841729164,0.1412296682596206,0.97214617729187,1.6897265784073487e+18,66.39634868164062,0.3138193875551223,-0.2821910947561264,1.0445664882659913,,,,,,,,,,,,,1.689726578414863e+18,66.40386323242187,5.480895233154297,41.425845336914065,5.750704956054688,1.6897265784116372e+18,66.4006371459961,35.1562614440918,53.34193801879883,85.30249786376953,1.689726578414863e+18,66.40386323242187,-2.2800230705181463,-0.6928070502970405,-0.261880200342884,-1.6651489348541797,0.6513005408810567,0.1648794868086186,-1.4208223894062293
6.45,1.6897265784649674e+18,66.45396743164062,-0.361110832034666,0.0908980638301372,0.0446979797390102,1.6897265784624635e+18,66.45146342773437,-0.0688323974609375,0.9948944091796876,-0.1376678466796875,1.6897265784649674e+18,66.45396743164062,-0.2953491420365496,9.703780577155948,-1.3796748102431,1.6897265784649674e+18,66.45396743164062,0.0941209495067596,0.020043470710516,0.9239115118980408,1.6897265784574533e+18,66.44645327148437,0.113051027059555,0.2069561630487442,0.854261600971222,,,,,,,,,,,,,1.6897265784649674e+18,66.45396743164062,4.037410736083984,41.80612640380859,6.035871887207032,1.6897265784584417e+18,66.44744184570312,34.01535339355469,53.6790283203125,85.431787109375,1.6897265784649674e+18,66.45396743164062,-1.9928577446136468,-0.6756789276467525,-0.2698895857116365,-1.3608471613810404,0.6649782645797306,0.1684542487286471,-1.425836899301166
6.5,1.6897265785150715e+18,66.50407182617187,0.801841063857451,-0.6711817021989822,0.0806937144887447,1.6897265785125678e+18,66.50156787109374,0.00645751953125,0.9187957763671876,-0.1330413818359375,1.6897265785150715e+18,66.50407182617187,-0.7867576153180375,9.68083178014934,-1.3475854645082357,1.6897265785150715e+18,66.50407182617187,0.0463280245661735,0.0150792002677917,0.9282014727592468,1.6897265785075574e+18,66.4965572265625,0.0626740336418151,-0.1939305335283279,1.02727370262146,,,,,,,,,,,,,1.6897265785150715e+18,66.50407182617187,2.0791107177734376,42.107495880126955,6.100643920898437,1.689726578510447e+18,66.49944711914063,31.991156005859377,53.98069458007812,85.49132385253907,1.6897265785150715e+18,66.50407182617187,-1.661631853346541,-0.6592828415076881,-0.2689115147471976,-1.0451347853668664,0.6839421566401327,0.158768153357951,-1.4105503054749
6.55,1.6897265785651763e+18,66.55417626953125,0.6242190070114284,0.1771879908907413,-0.4900331078881025,1.689726578562672e+18,66.551672265625,-0.055841064453125,1.003448486328125,-0.1819915771484375,1.6897265785651763e+18,66.55417626953125,-1.1032987153695522,9.65567851728797,-1.3103466855078936,1.6897265785651763e+18,66.55417626953125,-0.0291201252490281,1.3445714473724366,0.275771889090538,1.6897265785576617e+18,66.54666181640626,-0.0404696085490285,1.338434672355652,0.3072573602199554,,,,,,,,,,,,,1.6897265785651763e+18,66.55417626953125,1.4289958953857422,42.278751373291016,6.0748748779296875,1.6897265785624545e+18,66.55145434570314,31.50731506347656,54.12493896484375,85.44169311523437,1.6897265785651763e+18,66.55417626953125,-1.5291664090581636,-0.644132194455456,-0.2852647755194707,-0.8714798156165408,0.6890787763121284,0.1696690668772378,-1.3951211639414125
6.6,1.6897265786152804e+18,66.60428041992188,0.0231967219661175,-0.6201769066268206,-0.3262362066160887,1.6897265786127764e+18,66.60177646484375,-0.133197021484375,0.9179473876953124,-0.158331298828125,1.6897265786152804e+18,66.60428041992188,-1.3167838497224449,9.640390931785106,-1.2226027748597414,1.6897265786152804e+18,66.60428041992188,0.1615891799330711,0.5005606800317765,0.3745388209819794,1.6897265786077665e+18,66.59676630859374,0.1384640857577324,0.6474524915218354,0.3567492246627807,,,,,,,,,,,,,1.6897265786152804e+18,66.60428041992188,1.5110729217529295,42.279503631591794,5.969483947753906,1.6897265786144617e+18,66.60346157226563,31.57572021484375,54.13055419921875,85.37277221679688,1.6897265786152804e+18,66.60428041992188,-1.4536991377701365,-0.6313478425949086,-0.3010808954989453,-0.7487488979598323,0.6902765830443751,0.1850596540532457,-1.3864086712651669
6.65,1.6897265786653852e+18,66.65438505859376,0.0145913030278682,-0.0822827956980466,-0.5441160834096371,1.689726578662881e+18,66.65188100585938,-0.1576019287109375,0.9728057861328124,-0.16663818359375,1.6897265786653852e+18,66.65438505859376,-1.571301047104895,9.615245033899544,-1.1128809872898455,1.6897265786653852e+18,66.65438505859376,0.2059102922677994,0.2348814830183982,0.6463706135749817,1.6897265786578703e+18,66.64687026367187,0.1996650636196136,0.1919907942414283,0.6053065776824951,,,,,,,,,,,,,1.6897265786653852e+18,66.65438505859376,0.9475749969482422,42.36535415649414,6.060774230957032,1.6897265786612667e+18,66.65026672363281,30.90915298461914,54.18046569824219,85.43463516235352,1.6897265786653852e+18,66.65438505859376,-1.3328164676315852,-0.6199083270702784,-0.3040379051073726,-0.6174926737308801,0.6983301169126752,0.1886345357771324,-1.3729886628678665
6.7,1.6897265787154893e+18,66.70448930664062,0.9678865039347112,-0.6024245092195273,-0.2155140244450419,1.689726578712985e+18,66.7019853515625,-0.0953704833984375,0.915289306640625,-0.118310546875,1.6897265787154893e+18,66.70448930664062,-1.9213472414407131,9.568230535459517,-0.9565673690583556,1.6897265787154893e+18,66.70448930664062,0.291550999879837,0.5151290357112884,0.6742308020591736,1.689726578707975e+18,66.69697495117188,0.2784296542406081,0.5268159210681915,0.6822822093963623,,,,,,,,,,,,,1.6897265787154893e+18,66.70448930664062,-0.1471557617187499,42.32143936157227,6.4243316650390625,1.689726578708072e+18,66.69707192382813,29.844143676757813,54.168310546875,85.84979858398438,1.6897265787154893e+18,66.70448930664062,-1.1968087270157577,-0.6034255678734838,-0.3094373637852771,-0.4632129299404883,0.7086601493624796,0.1946430052597661,-1.3499381021948564
6.75,1.6897265787655936e+18,66.75459355468749,1.4185964862160385,0.3306034765279292,-0.4832875060854107,1.6897265787630894e+18,66.75208959960938,-0.0843231201171875,1.00831298828125,-0.130902099609375,1.6897265787655936e+18,66.75459355468749,-2.23301404998675,9.519231585204006,-0.7478708426084368,1.6897265787655936e+18,66.75459355468749,0.3622867286205292,0.375432538986206,0.491090315580368,1.6897265787580792e+18,66.74707939453126,0.3702475607395172,0.3849755346775055,0.5433540403842926,,,,,,,,,,,,,1.6897265787655936e+18,66.75459355468749,-1.0618427276611329,42.181532287597655,7.107598876953125,1.6897265787600778e+18,66.74907783203125,28.93311767578125,54.01002807617188,86.55506591796875,1.6897265787655936e+18,66.75459355468749,-1.0759405908552224,-0.587397413726032,-0.312820557493089,-0.3238645353241578,0.7183242054235102,0.2027112123909645,-1.3281408786453042
