seconds_elapsed_rounded,accelerometer_time,accelerometer_seconds_elapsed,accelerometer_z,accelerometer_y,accelerometer_x,accelerometeruncalibrated_time,accelerometeruncalibrated_seconds_elapsed,accelerometeruncalibrated_z,accelerometeruncalibrated_y,accelerometeruncalibrated_x,gravity_time,gravity_seconds_elapsed,gravity_z,gravity_y,gravity_x,gyroscope_time,gyroscope_seconds_elapsed,gyroscope_z,gyroscope_y,gyroscope_x,gyroscopeuncalibrated_time,gyroscopeuncalibrated_seconds_elapsed,gyroscopeuncalibrated_z,gyroscopeuncalibrated_y,gyroscopeuncalibrated_x,location_time,location_seconds_elapsed,location_bearingAccuracy,location_speedAccuracy,location_verticalAccuracy,location_horizontalAccuracy,location_speed,location_bearing,location_altitude,location_longitude,location_latitude,magnetometer_time,magnetometer_seconds_elapsed,magnetometer_z,magnetometer_y,magnetometer_x,magnetometeruncalibrated_time,magnetometeruncalibrated_seconds_elapsed,magnetometeruncalibrated_z,magnetometeruncalibrated_y,magnetometeruncalibrated_x,orientation_time,orientation_seconds_elapsed,orientation_qz,orientation_qy,orientation_qx,orientation_qw,orientation_roll,orientation_pitch,orientation_yaw
0.05,,,,,,,,,,,,,,,,1.688876011051808e+18,0.07080810546875,0.3558290004730224,1.7227927446365356,0.2231185287237167,,,,,,,,,,,,,,,,,,,,,,,,,,,,,,,,,,,
0.1,,,,,,1.6888760110907438e+18,0.10974389648437499,9.135797023773193,1.2263216078281403,-1.551745466887951,,,,,,1.68887601108642e+18,0.10542008463541667,0.6829473276933035,3.484222650527954,-0.3022764946023623,1.6888760110820905e+18,0.101090576171875,0.649426132440567,3.5531740188598633,-0.3544545546174049,,,,,,,,,,,,1.688876011082737e+18,0.10173693847656251,-38.90884876251221,-30.74704933166504,9.445849776268005,1.688876011082737e+18,0.10173693847656251,-294.5354537963867,64.10794830322266,-123.6805477142334,,,,,,,,,
0.15000000000000002,1.6888760111253412e+18,0.14434130859375,-3.054303010304769,-4.68467132250468,-3.136404832204183,1.688876011133987e+18,0.15298722330729167,5.7593246301015215,1.6592231194178264,-4.333999951680501,1.6888760111253412e+18,0.14434130859375,7.660816033681233,6.06312894821167,-0.8286095460255941,1.688876011138314e+18,0.15731388346354166,1.7215709686279297,2.2465587854385376,1.9857701857884724,1.6888760111253412e+18,0.14434130859375,1.4368568658828735,2.6510024865468345,1.3914491968850295,,,,,,,,,,,,1.6888760111277307e+18,0.14673076171875002,-37.646759033203125,-31.876159286499025,13.742079734802246,1.6888760111277307e+18,0.14673076171875002,-293.2733520507812,62.97883758544922,-119.38431701660156,1.688876011133987e+18,0.15298722330729167,-0.9183925191561381,-0.3441823224226634,0.16136468946933744,0.10669110715389246,0.3039482633272807,-0.7304138541221619,3.027463436126709
0.2,1.6888760111772367e+18,0.19623689778645834,-2.355964183807373,-2.4411226908365884,-4.078496138254802,1.6888760111858872e+18,0.20488728841145834,4.67358152071635,4.239483594894409,-4.345964193344116,1.6888760111772367e+18,0.19623689778645834,7.060781955718994,6.75078821182251,-0.8857211470603943,1.688876011181563e+18,0.2005628662109375,1.8368717432022095,0.6206390783190727,0.23579397797584534,1.6888760111772367e+18,0.19623689778645834,1.87444003423055,0.9370163877805074,0.5043201446533203,,,,,,,,,,,,1.688876011177734e+18,0.196733984375,-33.29867858886719,-36.1315185546875,14.037319755554199,1.688876011177734e+18,0.196733984375,-288.92527465820314,58.72347793579102,-119.08907775878906,1.6888760111858872e+18,0.20488728841145834,-0.8944975733757019,-0.37614287932713825,0.18139377236366264,0.15897561609745023,0.3051458299160003,-0.8190137346585592,2.923280874888102
0.25,1.68887601122914e+18,0.24814005533854167,0.05783033370971672,-4.245556116104126,-0.38769150773684186,1.688876011237789e+18,0.25678898111979165,9.085747241973877,0.89651091893514,0.5379862785339354,1.68887601122914e+18,0.24814005533854167,7.835224469502767,5.869278113047282,-0.12747076650460562,1.6888760112248148e+18,0.24381477864583334,1.2450960675875347,-1.0979284644126892,-3.707493861516317,1.68887601122914e+18,0.24814005533854167,1.0956377287705739,-1.1067860126495361,-3.8325175444285073,,,,,,,,,,,,1.6888760112277348e+18,0.24673486328125,-36.29743881225586,-34.191720199584964,10.169919776916505,1.6888760112277348e+18,0.24673486328125,-291.9240356445313,60.66327896118164,-122.95647888183593,1.688876011237789e+18,0.25678898111979165,-0.9180723428726196,-0.31636955340703327,0.13486639410257337,0.19487944742043808,0.16305755078792564,-0.6864995956420898,2.7826833724975586
0.30000000000000004,1.6888760112810365e+18,0.3000364583333333,1.934103012084961,-5.251806418100993,2.7173827489217124,1.68887601128104e+18,0.300039794921875,10.93938684463501,-0.08165507018566134,2.7200411558151245,1.6888760112810365e+18,0.3000364583333333,8.600428263346354,4.714211463928223,-0.02257357041041057,1.6888760112767158e+18,0.2957157389322917,-0.8751662572224935,0.2886338432629904,-1.6105462312698364,1.6888760112810365e+18,0.3000364583333333,-1.0136290490627289,0.4575889805952708,-1.3279192547003429,,,,,,,,,,,,1.6888760112777334e+18,0.29673330078125,-41.836238861083984,-27.872119903564453,8.515599727630615,1.6888760112777334e+18,0.29673330078125,-297.46283569335935,66.98287963867188,-124.61079559326171,1.68887601128104e+18,0.300039794921875,-0.9370324313640594,-0.2652968466281891,0.1204572059214115,0.19242687523365015,0.14776249974966044,-0.574624091386795,2.7801826000213623
0.35000000000000003,1.688876011332945e+18,0.35194498697916665,-3.660175641377767,-7.019275029500325,2.4123677412668862,1.6888760113242903e+18,0.3432902018229167,5.72283411026001,-2.0757736365000405,2.2275185187657676,1.688876011332945e+18,0.35194498697916665,8.69998868306478,4.445986270904541,-0.8457743724187216,1.6888760113286164e+18,0.34761629231770835,-2.2450315952301025,0.801353375116984,-0.42811472217241925,1.688876011332945e+18,0.35194498697916665,-2.335083325703939,0.747495432694753,-0.48003827035427094,,,,,,,,,,,,1.6888760113277356e+18,0.34673564453125,-42.90983963012695,-25.114919662475586,12.892959785461425,1.6888760113277356e+18,0.34673564453125,-298.53643188476565,69.74007873535156,-120.23343658447266,1.6888760113242903e+18,0.3432902018229167,-0.9434489011764526,-0.24801642696062723,0.1476953029632568,0.1620967139800389,0.23328639566898338,-0.5417594710985819,2.8661507765452066
0.4,1.6888760113848484e+18,0.4038484700520833,-3.9661782582600913,-9.959823926289877,-2.358711838722229,1.6888760113761958e+18,0.39519580078125,4.571886459986369,-5.918447335561116,-2.9812575578689575,1.6888760113848484e+18,0.4038484700520833,8.852451960245768,3.7811496257781982,-1.8350164492925007,1.688876011380522e+18,0.39952205403645835,-2.936887343724569,1.1828387180964153,-1.3918055693308513,1.6888760113848484e+18,0.4038484700520833,-3.009783983230591,1.3320934573809307,-1.5394312938054402,,,,,,,,,,,,1.6888760113777357e+18,0.3967357421875,-43.61987838745117,-21.547639846801758,17.22884006500244,1.6888760113777357e+18,0.3967357421875,-299.2464660644531,73.30735778808594,-115.89755859375,1.6888760113761958e+18,0.39519580078125,-0.9543607831001282,-0.2131661226352055,0.17949859301249182,0.10466737300157543,0.33847901225090027,-0.46031643946965534,3.002612590789795
0.45,1.688876011436749e+18,0.45574902343749996,-4.7742025057474775,-10.237879117329916,-8.702383677164713,1.6888760114280998e+18,0.44709977213541663,4.595615386962891,-7.48913590113322,-10.56032419204712,1.688876011436749e+18,0.45574902343749996,8.997065862019857,2.040061036745707,-3.2674200534820557,1.6888760114324268e+18,0.4514268391927083,-3.76644229888916,1.8979073365529378,-3.170339663823446,1.688876011436749e+18,0.45574902343749996,-3.7102936108907065,1.7818939288457234,-3.1865785916646323,,,,,,,,,,,,1.6888760114277402e+18,0.44674013671874996,-42.42427978515625,-12.988119506835938,24.287759399414064,1.6888760114277402e+18,0.44674013671874996,-298.05087890625,81.86687774658203,-108.83863830566406,1.6888760114280998e+18,0.44709977213541663,-0.9612637758255005,-0.13089871158202485,0.23629562060038248,0.0385568728670477,0.47897158066431683,-0.27319152156511933,1.0329118569691975
0.5,1.688876011488655e+18,0.507655029296875,-0.6523305575052897,-7.594676971435547,-12.674683570861816,1.6888760114800005e+18,0.499000732421875,7.352146943410237,-8.377272129058838,-16.417954126993816,1.688876011488655e+18,0.507655029296875,8.966920852661133,0.058075957000255585,-3.939190149307251,1.6888760114843292e+18,0.5033294270833334,-1.9623537460962932,0.946942925453186,-3.290476640065511,1.688876011488655e+18,0.507655029296875,-1.8536196947097778,1.0507900317509968,-3.3476943174997964,,,,,,,,,,,,1.688876011477735e+18,0.496735107421875,-42.08755874633789,-2.5400399804115295,28.496759796142577,1.688876011477735e+18,0.496735107421875,-297.7141540527344,92.31495819091796,-104.6296371459961,1.6888760114800005e+18,0.499000732421875,0.9613089561462402,0.03228588875693577,-0.271912157535553,0.012276136161138568,0.5524675250053406,-0.055476738139986964,-3.100647449493408
0.55,1.6888760115319045e+18,0.550904541015625,-0.5383596420288086,-3.312472701072693,-10.530194282531738,1.6888760115319058e+18,0.550905517578125,8.035297711690268,-4.942773977915446,-15.003994623819986,1.6888760115319045e+18,0.550904541015625,8.535402297973633,-1.528015673160553,-4.575503349304199,1.6888760115362263e+18,0.555226318359375,-1.3405946890513103,2.054543455441793,-3.005049705505371,1.6888760115319045e+18,0.550904541015625,-1.4519503116607666,2.1467331647872925,-3.151530146598816,,,,,,,,,,,,1.68887601152774e+18,0.546739990234375,-39.74027862548828,6.753919887542724,31.18807945251465,1.68887601152774e+18,0.546739990234375,-295.36688232421875,101.60891876220703,-101.93831939697266,1.6888760115319058e+18,0.550905517578125,0.9464016755421957,-0.06137699385484056,-0.3144661784172058,0.029998760049541762,0.6406409939130148,0.13542839388052616,-3.1239782174428306
0.6000000000000001,1.688876011575155e+18,0.5941551106770834,-1.9168322881062825,-2.090991497039795,-7.907378514607747,1.6888760115838034e+18,0.6028033040364583,5.941578070322673,-4.857828617095947,-12.561521212259928,1.688876011575155e+18,0.5941551106770834,7.928530216217041,-2.6111119588216147,-5.138796806335449,1.6888760115881295e+18,0.6071294759114584,-0.45407649874687195,1.4657711585362752,-2.304030974706014,1.688876011575155e+18,0.5941551106770834,-0.6333654522895813,1.5922202666600545,-2.3304508527119956,,,,,,,,,,,,1.6888760115777357e+18,0.59673583984375,-35.05792007446289,13.278479766845702,34.05995864868164,1.6888760115777357e+18,0.59673583984375,-290.68450927734375,108.13347625732422,-99.06643829345703,1.6888760115838034e+18,0.6028033040364583,0.9241788387298584,-0.12769219279289243,-0.3577377200126648,0.0351944255332152,0.7426157196362814,0.2641641596953074,3.1138904094696045
0.65,1.688876011627058e+18,0.6460580240885417,-0.9655364354451498,-2.0334832668304443,-4.170406182607015,1.6888760116357046e+18,0.65470458984375,6.644469579060872,-5.59980312983195,-9.12502924601237,1.688876011627058e+18,0.6460580240885417,7.186805725097656,-3.592249790827433,-5.619137287139893,1.6888760116313795e+18,0.6503795166015625,-0.14928019791841507,1.096350371837616,-2.2240076065063477,1.688876011627058e+18,0.6460580240885417,-0.1677334109942118,1.1450668970743816,-2.2231931686401367,,,,,,,,,,,,1.6888760116277402e+18,0.6467401367187501,-30.5414794921875,17.411839866638182,36.28523941040039,1.6888760116277402e+18,0.6467401367187501,-286.16807250976564,112.26683654785157,-96.84115753173828,1.6888760116357046e+18,0.65470458984375,0.9026591380437216,-0.18140266338984168,-0.38898871342341107,0.026884902268648068,0.8319190144538879,0.3557551701863606,3.0422849655151367
0.7000000000000001,1.6888760116789594e+18,0.6979593098958334,1.3842473030090332,-0.3084501425425212,-1.9350744883219402,1.6888760116876076e+18,0.7066075846354166,8.663214206695557,-4.316652139027913,-7.966504255930583,1.6888760116789594e+18,0.6979593098958334,6.542506217956543,-4.282187620798747,-5.920071283976237,1.6888760116746314e+18,0.6936315917968751,-0.2510656217734018,0.9542733232180277,-1.3984741767247517,1.6888760116789594e+18,0.6979593098958334,-0.30553442736466724,1.02243568499883,-1.2240212361017864,,,,,,,,,,,,1.6888760116777375e+18,0.6967373046875001,-26.786318969726562,20.566759872436524,37.36615982055664,1.6888760116777375e+18,0.6967373046875001,-282.4129150390625,115.42175750732422,-95.76023864746094,1.6888760116876076e+18,0.7066075846354166,0.8844539523124695,-0.21833712359269455,-0.41156765818595886,0.02357910014688963,0.9033253788948059,0.4177018205324809,2.98987078666687
0.75,1.6888760117308593e+18,0.7498592122395834,1.4567797978719075,-0.07576862970987952,-4.418731053670247,1.6888760117308605e+18,0.7498604736328125,7.2870423793792725,-4.740779876708984,-10.792826652526855,1.6888760117308593e+18,0.7498592122395834,6.056414286295573,-4.466813405354817,-6.290852864583333,1.6888760117265395e+18,0.7455394694010417,-0.48864130179087323,1.6827301581700642,0.42266785105069477,1.6888760117308593e+18,0.7498592122395834,-0.39818233251571655,1.6656259298324585,0.42317689458529156,,,,,,,,,,,,1.6888760117277422e+18,0.746742138671875,-23.929079818725587,21.83067932128906,38.66912002563477,1.6888760117277422e+18,0.746742138671875,-279.55567626953126,116.68567810058593,-94.4572769165039,1.6888760117308605e+18,0.7498604736328125,0.869991272687912,-0.21871732920408243,-0.43941909074783325,0.04612600989639755,0.9627775847911835,0.434722438454628,3.0178310871124268
0.8,1.6888760117827592e+18,0.8017590332031249,-1.2337812582651775,2.4071311950683594,-3.104390780131022,1.6888760117741056e+18,0.7931057942708334,4.892325321833293,-2.7501508593559265,-10.341580073038736,1.6888760117827592e+18,0.8017590332031249,5.655647913614909,-4.181017875671387,-6.834305127461751,1.688876011778439e+18,0.7974388020833333,0.9834421475728353,1.2726359367370605,0.4162028605739276,1.6888760117827592e+18,0.8017590332031249,1.0562877853711445,1.251713792483012,0.4810054699579875,,,,,,,,,,,,1.6888760117777352e+18,0.796735302734375,-21.38415985107422,21.023039627075196,40.68211975097656,1.6888760117777352e+18,0.796735302734375,-277.01075439453126,115.87803649902344,-92.44427795410158,1.6888760117741056e+18,0.7931057942708334,0.8577062487602234,-0.20593785742918647,-0.46828484535217285,0.04988051330049827,1.0239487886428833,0.41155897577603656,3.0243848164876304
0.8500000000000001,1.6888760118346596e+18,0.8536595865885417,-2.659620523452759,2.816880544026693,0.7948555946350098,1.6888760118260058e+18,0.845005615234375,2.7022943099339805,0.14117654164632162,-7.205985387166341,1.6888760118346596e+18,0.8536595865885417,5.424058596293132,-3.5825912952423096,-7.345314820607503,1.6888760118303355e+18,0.8493356933593749,0.7804312705993652,0.8894706964492798,0.8666650652885437,1.6888760118346596e+18,0.8536595865885417,0.6967427233854929,0.8579602440198263,0.866461435953776,,,,,,,,,,,,1.688876011827734e+18,0.84673388671875,-19.488279342651367,17.926679611206055,42.68047943115234,1.688876011827734e+18,0.84673388671875,-275.1148742675781,112.78167877197265,-90.44591674804687,1.6888760118260058e+18,0.845005615234375,0.8483190735181173,-0.17357642451922092,-0.4982147415479024,0.04341903701424593,1.0804942448933919,0.3446187476317087,3.035964330037435
0.9,1.6888760118865603e+18,0.9055601399739585,-2.410754839579264,-1.789577563603719,-3.062040170033773,1.6888760118779139e+18,0.8969140625,2.400001138448715,-4.58165701230367,-9.427122910817465,1.6888760118865603e+18,0.9055601399739585,5.353059450785319,-3.014021555582682,-7.644752025604248,1.6888760118822362e+18,0.9012361653645833,1.3112731476624806,0.29153543959061307,0.6163121064503988,1.6888760118865603e+18,0.9055601399739585,1.4861333568890889,0.2472986069818338,0.588263213634491,,,,,,,,,,,,1.6888760118777357e+18,0.8967356933593751,-18.39759979248047,15.798999786376953,44.32747955322266,1.6888760118777357e+18,0.8967356933593751,-274.0241943359375,110.65399780273438,-88.79891815185547,1.6888760118779139e+18,0.8969140625,0.8441810409228007,-0.14290122687816617,-0.5147257844607035,0.0432462319731712,1.1064048608144124,0.28987453381220496,3.0642167727152505
0.9500000000000001,1.68887601193846e+18,0.9574599609375,-5.1857515176137285,-3.4214157263437905,-0.8535078366597492,1.6888760119298122e+18,0.9488120930989584,0.7146563529968262,-5.5048878987630205,-10.113464355468748,1.68887601193846e+18,0.9574599609375,5.484385808308919,-2.172213554382324,-7.836134910583496,1.6888760119341396e+18,0.9531397298177083,2.1265236934026084,-0.5596543898185095,-0.3381648138165474,1.68887601193846e+18,0.9574599609375,2.0212003787358603,-0.5989024639129639,-0.4726061026255289,,,,,,,,,,,,1.6888760119277356e+18,0.94673544921875,-19.149119567871093,11.162999534606934,45.49135894775391,1.6888760119277356e+18,0.94673544921875,-274.7757202148438,106.01799774169922,-87.63503875732422,1.6888760119298122e+18,0.9488120930989584,0.28101519743601483,-0.041471039255460064,-0.17440781990687051,0.012941333465278065,1.1060411930084229,0.19237648944060004,3.0314339796702066
1.0,1.6888760119817165e+18,1.0007163085937498,-5.079926490783691,-5.766868352890015,7.887519121170044,1.6888760119817132e+18,1.0007129720052081,0.5375874713063239,-6.989634195963542,-0.6199404845635097,1.6888760119817165e+18,1.0007163085937498,5.585639715194702,-2.0592645406723022,-7.7969982624053955,1.6888760119860375e+18,1.0050371907552085,0.5661702826619148,-0.6039421161015829,-1.7402023871739705,1.6888760119817165e+18,1.0007163085937498,0.6779076904058456,-0.5836053937673569,-1.6942347288131714,,,,,,,,,,,,1.6888760119777318e+18,0.99673193359375,-19.632239151000977,8.130080032348634,45.53771896362305,1.6888760119777318e+18,0.99673193359375,-275.2588317871094,102.98507843017578,-87.58867797851562,1.6888760119817132e+18,1.0007129720052081,-0.8532065153121948,0.11587181190649663,0.5068275332450867,0.03979949528972307,1.0870903730392456,0.15811651945114133,2.95273756980896
1.05,1.6888760120249654e+18,1.0439654947916666,-3.7472029527028403,1.16366708278656,4.561026652654012,1.6888760120336146e+18,1.0526146647135415,1.2362917065620422,-2.0582262178262076,-3.168496052424113,1.6888760120249654e+18,1.0439654947916666,5.643445173899333,-2.5770351886749268,-7.594634850819905,1.688876012037944e+18,1.0569441731770832,-1.093143343925476,-0.7107417186101278,-1.6587536732355754,1.6888760120249654e+18,1.0439654947916666,-0.7261151323715845,-0.7242825627326965,-1.7896315654118855,,,,,,,,,,,,1.6888760120277402e+18,1.046740185546875,-20.413039779663087,10.426119995117187,44.56903915405273,1.6888760120277402e+18,1.046740185546875,-276.0396301269531,105.28111724853515,-88.55735931396484,1.6888760120336146e+18,1.0526146647135415,-0.856890082359314,0.15643491347630817,0.4879874885082245,0.0540639273822307,1.0632973114649455,0.2171125213305155,2.8876566092173257
1.1,1.6888760120768696e+18,1.0958697102864583,-4.036388874053955,5.511132796605428,4.467425266901652,1.6888760120855173e+18,1.104517333984375,1.2897313833236694,1.3511472543080647,-3.288137118021647,1.6888760120768696e+18,1.0958697102864583,5.495941003163655,-3.7306808630625405,-7.201731204986572,1.6888760120811894e+18,1.100189208984375,-3.1689398288726807,0.43936482071876526,-1.7214182615280151,1.6888760120768696e+18,1.0958697102864583,-2.913114587465922,0.1636100709438324,-1.6230180660883586,,,,,,,,,,,,1.6888760120777354e+18,1.0967353515625,-19.63711929321289,15.860000038146973,43.33195877075195,1.6888760120777354e+18,1.0967353515625,-275.2637145996094,110.71499633789062,-89.79443817138672,1.6888760120855173e+18,1.104517333984375,-0.2871014475822449,0.0526326298713684,0.16143149137496945,0.025048071363319897,1.0588663419087727,0.358619491259257,2.8802808920542398
1.1500000000000001,1.6888760121287667e+18,1.1477664388020834,-6.521993637084961,-15.485675811767578,-7.612987041473389,1.6888760121374167e+18,1.156416748046875,1.2522438367207844,-20.634107271830242,-14.086347262064615,1.6888760121287667e+18,1.1477664388020834,5.498394171396892,-5.369375705718994,-6.08363676071167,1.6888760121244419e+18,1.14344189453125,-2.9101620813210807,-1.6723453998565674,-0.9820167819658915,1.6888760121287667e+18,1.1477664388020834,-2.4460572004318237,-1.6741271018981934,-1.0122546354929607,,,,,,,,,,,,1.6888760121277363e+18,1.146736279296875,-20.08363914489746,24.624479675292967,38.51295928955078,1.6888760121277363e+18,1.146736279296875,-275.7102355957031,119.47947692871094,-94.61343994140626,1.6888760121374167e+18,1.156416748046875,0.858853300412496,-0.2811513940493266,-0.42659467458724976,0.033971519519885335,0.9808875123659769,0.5375201106071472,2.9287105401357016
1.2000000000000002,1.6888760121806707e+18,1.1996707356770833,-1.3441907564798992,-2.952977975209554,-0.9596710205078125,1.6888760121806666e+18,1.1996666259765625,3.2132617235183716,-8.756235122680664,-6.107978820800781,1.6888760121806707e+18,1.1996707356770833,5.439237753550212,-5.943544228871663,-5.589990615844727,1.6888760121763484e+18,1.1953485514322917,-0.6515895798802376,-1.0977757920821507,-1.1982630491256714,1.6888760121806707e+18,1.1996707356770833,-0.8002334584792455,-1.2847004706660907,-1.0255409330129621,,,,,,,,,,,,1.6888760121777403e+18,1.196740234375,-20.417919921875,27.679359436035156,36.46335906982422,1.6888760121777403e+18,1.196740234375,-276.0445190429688,122.53435821533203,-96.66303863525391,1.6888760121806666e+18,1.1996666259765625,0.8578023314476013,-0.3099059611558914,-0.40898899734020233,0.0276896553114056,0.9657734036445618,0.5876013934612274,2.8915854692459106
1.25,1.6888760122325696e+18,1.251569580078125,-2.1324920654296875,-2.7565638224283853,-2.450944423675537,1.688876012223919e+18,1.2429189453125,2.6875385443369546,-8.860422770182291,-7.761518955230713,1.6888760122325696e+18,1.251569580078125,5.951566855112712,-6.232879638671875,-4.676185290018718,1.6888760122282483e+18,1.2472482096354167,-1.7932458718617756,-1.2386819918950398,1.0059423446655273,1.6888760122325696e+18,1.251569580078125,-1.7994054158528645,-1.0719667275746663,1.0545570651690166,,,,,,,,,,,,1.688876012227738e+18,1.246737939453125,-23.28979911804199,29.875359344482423,32.859479141235354,1.688876012227738e+18,1.246737939453125,-278.9163879394531,124.73035583496093,-100.2669174194336,1.688876012223919e+18,1.2429189453125,0.8720696171124777,-0.3173196315765381,-0.3688006003697713,0.04969461138049757,0.8600221077601115,0.6308304866154989,2.958223819732666
1.3,1.688876012284465e+18,1.3034647623697917,-4.501411596934001,-0.6726948420206705,0.041230916976928704,1.68887601227581e+18,1.29481005859375,2.844667295614878,-7.877969900767009,-3.7764724095662436,1.688876012284465e+18,1.3034647623697917,6.199448426564534,-6.43738587697347,-4.041140635808309,1.6888760122801388e+18,1.2991387532552083,-1.4457653363545735,-0.1110247522592545,0.10573059354889368,1.688876012284465e+18,1.3034647623697917,-1.3989832003911336,-0.18891006956497827,0.0504981957686444,,,,,,,,,,,,1.688876012277731e+18,1.296731103515625,-25.717599868774414,31.683399200439453,29.34099922180176,1.688876012277731e+18,1.296731103515625,-281.344189453125,126.53839721679688,-103.78539733886718,1.68887601227581e+18,1.29481005859375,0.8785314559936523,-0.31524336338043213,-0.34518932302792865,0.09753341724475223,0.7690836787223816,0.6703291734059652,3.0827404657999673
1.35,1.688876012336371e+18,1.3553709309895832,-2.6424379348754883,1.8273998896280925,-1.0399585564931233,1.6888760123277207e+18,1.346720458984375,2.765504797299703,-5.1154561042785645,-4.2809592088063555,1.688876012336371e+18,1.3553709309895832,6.1636061668396,-6.724518458048503,-3.606611490249634,1.6888760123320504e+18,1.3510502929687498,-0.3773111005624135,-0.5484551886717478,-0.7546731034914652,1.688876012336371e+18,1.3553709309895832,-0.34529158224662143,-0.49933143456776935,-0.883769303560257,,,,,,,,,,,,1.6888760123277394e+18,1.34673955078125,-26.1128791809082,33.22547988891601,26.925399780273438,1.6888760123277394e+18,1.34673955078125,-281.7394775390625,128.08047637939453,-106.20099639892578,1.6888760123277207e+18,1.346720458984375,0.8774405916531881,-0.329096515973409,-0.3285477062066396,0.11754188686609267,0.7215089797973633,0.7138950824737549,3.12837553024292
1.4000000000000001,1.6888760123882762e+18,1.4072762858072918,-2.332594394683838,0.7877208391825358,-1.2805036703745525,1.6888760123796288e+18,1.3986290690104166,2.3579272826512656,-6.469992955525716,-3.951347827911377,1.6888760123882762e+18,1.4072762858072918,5.609694798787435,-7.479256947835286,-2.9295756816864014,1.6888760123839465e+18,1.402946533203125,-0.6751078963279724,-2.381610870361328,-3.009122133255005,1.6888760123882762e+18,1.4072762858072918,-0.7243843873341879,-2.2713497479756675,-3.1143946647644043,,,,,,,,,,,,1.6888760123777357e+18,1.3967358886718748,-24.38047981262207,35.92655944824219,25.03684005737305,1.6888760123777357e+18,1.3967358886718748,-280.0070739746094,130.78155822753905,-108.08955841064453,1.6888760123796288e+18,1.3986290690104166,0.8692084153493246,-0.37596256534258515,-0.3019741972287496,0.10537157704432804,0.695874015490214,0.8008285959561666,3.0784146785736084
1.4500000000000002,1.6888760124315208e+18,1.4505207519531251,-4.90124249458313,0.275357723236084,-1.1736907958984375,1.6888760124315282e+18,1.4505283203125001,0.9140582724163929,-7.554539680480957,-3.703092575073242,1.6888760124315208e+18,1.4505207519531251,5.045340538024902,-8.028210639953613,-2.515251636505127,1.6888760124358533e+18,1.4548535156250002,-1.1652254263559978,0.9842566251754761,0.22800540924072274,1.6888760124315208e+18,1.4505207519531251,-1.135751187801361,1.3792573809623718,0.24900394678115845,1.6888760124404303e+18,1.459430419921875,0.0,0.0,1.6261811256408691,24.159000396728516,0.0,53.0931510925293,25.562906416121088,-122.7501077,49.1928565,1.6888760124277427e+18,1.44674287109375,-21.176759719848633,39.75735931396484,21.686719131469726,1.6888760124277427e+18,1.44674287109375,-276.8033508300781,134.61235961914062,-111.43967742919922,1.6888760124315282e+18,1.4505283203125001,0.8508293231328329,-0.4264177481333415,-0.28521666924158734,0.11250109970569606,0.6883135437965393,0.9107236862182617,3.0570050875345864
1.5,1.6888760124747745e+18,1.4937744954427083,-3.7497268517812095,0.11545006434122722,0.09492949644724528,1.6888760124834214e+18,1.5024216308593747,2.3487547636032104,-7.5579298337300616,-2.011366824309031,1.6888760124747745e+18,1.4937744954427083,5.2645134925842285,-7.964713414510091,-2.252764622370402,1.688876012487755e+18,1.5067551269531252,-0.40179661599298316,-0.6101016501585642,-0.4610505203406016,1.6888760124747745e+18,1.4937744954427083,-0.7254533668359121,-0.20957769453525543,0.24093545973300934,,,,,,,,,,,,1.6888760124777405e+18,1.4967403808593749,-21.896559143066405,40.335638427734374,20.36911964416504,1.6888760124777405e+18,1.4967403808593749,-277.5231567382813,135.19063415527344,-112.75727996826171,1.6888760124834214e+18,1.5024216308593747,0.8505066633224487,-0.42039547363917035,-0.28146396080652875,0.14373187720775601,0.6327100197474161,0.9206929604212443,-3.1285854975382485
1.55,1.6888760125266793e+18,1.545679443359375,-0.935201088587443,5.134191830952962,-4.056456247965495,1.6888760125353234e+18,1.5543231608072918,2.9830522934595742,-3.00917383035024,-5.819344758987427,1.6888760125266793e+18,1.545679443359375,4.761653741200765,-8.374081293741861,-1.807861049969991,1.6888760125310052e+18,1.550005126953125,-1.291980043053627,-0.7935903053730727,-2.6400831937789917,1.6888760125266793e+18,1.545679443359375,-1.153771738211314,-0.6628397107124329,-2.3053544759750366,,,,,,,,,,,,1.6888760125277376e+18,1.54673759765625,-20.220279693603516,42.007039642333986,18.56107978820801,1.6888760125277376e+18,1.54673759765625,-275.8468811035156,136.8620361328125,-114.56531982421875,1.6888760125353234e+18,1.5543231608072918,0.8322445948918661,-0.4639878571033477,-0.2653076946735382,0.14522743225097653,0.621054470539093,1.0157205661137898,1.0395135879516602
1.6,1.6888760125785766e+18,1.59757666015625,-7.598402341206868,-3.9115287462870274,-0.1122058431307474,1.688876012587228e+18,1.6062280273437501,-3.8668013413747153,-15.114463488260904,-0.7288139263788859,1.6888760125785766e+18,1.59757666015625,4.068719704945882,-8.893868764241537,-0.604751226802667,1.688876012574257e+18,1.5932567545572915,-3.6416730880737305,0.7434739470481873,-0.6996952295303345,1.6888760125785766e+18,1.59757666015625,-3.6591846148173013,0.443793589870135,-0.5434155265490214,,,,,,,,,,,,1.6888760125777388e+18,1.596738720703125,-15.777039527893066,45.91103897094727,11.763239860534668,1.6888760125777388e+18,1.596738720703125,-271.4036376953125,140.7660339355469,-121.3631591796875,1.688876012587228e+18,1.6062280273437501,0.7966137925783793,-0.5057994425296783,-0.24522770941257477,0.22077337900797522,0.42093170682589215,1.1523905595143635,-2.87531312306722
1.6500000000000001,1.688876012630482e+18,1.6494820149739582,-6.299582004547119,-5.517096519470215,-1.5942837794621785,1.688876012630482e+18,1.6494820556640626,-2.277368903160095,-14.531910419464111,0.07387840747833252,1.688876012630482e+18,1.6494820149739582,4.07817538579305,-8.73775323232015,1.6272772749265034,1.6888760126261583e+18,1.6451583658854165,-4.557767391204834,-2.381458123524984,0.7300857851902643,1.688876012630482e+18,1.6494820149739582,-4.638452529907227,-2.591443141301473,0.8699230353037516,,,,,,,,,,,,1.6888760126277379e+18,1.6467377929687501,-16.657879638671876,46.98707885742188,1.2956400394439698,1.6888760126277379e+18,1.6467377929687501,-272.28448486328125,141.84207763671876,-131.83075714111328,1.688876012630482e+18,1.6494820556640626,0.7828289866447449,-0.5288183689117432,-0.16997603327035898,0.2793356478214264,-0.07293977588415144,1.1743948459625244,-2.4086148738861084
1.7000000000000002,1.6888760126823805e+18,1.7013806966145832,-2.7695626417795816,-1.5706186294555664,1.5785829226175945,1.6888760126737298e+18,1.6927297363281248,0.9563314368327459,-7.598607699076335,4.0404804944992065,1.6888760126823805e+18,1.7013806966145832,4.187838554382324,-7.6668806076049805,4.391203006108602,1.688876012678064e+18,1.6970642903645834,-4.533434549967448,-3.631543000539144,2.0269018014272056,1.6888760126823805e+18,1.7013806966145832,-4.354858318964641,-3.4983743826548257,2.1828760703404746,,,,,,,,,,,,1.6888760126777347e+18,1.696734619140625,-18.939279556274414,44.37139892578125,-12.73923988342285,1.6888760126777347e+18,1.696734619140625,-274.5658752441406,139.2263977050781,-145.86563415527343,1.6888760126737298e+18,1.6927297363281248,0.7750803828239441,-0.5371074080467224,-0.0481542538230618,0.3263891041278839,-0.573980301618576,1.0439340472221375,-2.0118287404378257
1.75,1.6888760127342838e+18,1.7532837727864585,-2.0142874717712402,-5.603312174479167,4.508828322092692,1.6888760127256276e+18,1.7446275227864583,2.4069801966349282,-13.642479260762533,11.90369462966919,1.6888760127342838e+18,1.7532837727864585,5.017210324605306,-6.305973370869954,5.5716274579366045,1.6888760127299574e+18,1.748957275390625,-0.5905539666612943,-1.2324206431706746,4.532467444737752,1.6888760127342838e+18,1.7532837727864585,-0.41136684517065686,-1.2171998818715413,4.625420729319255,,,,,,,,,,,,1.6888760127277366e+18,1.746736572265625,-24.397559356689452,39.03023834228516,-20.803439712524415,1.6888760127277366e+18,1.746736572265625,-280.02415161132814,133.88523864746094,-153.92983703613282,1.6888760127256276e+18,1.7446275227864583,0.794444739818573,-0.4912257790565491,0.060033414512872633,0.3504735430081685,-0.7156584064165751,0.8313278357187907,-1.9818532466888428
1.8,1.6888760127861893e+18,1.8051892903645834,0.873287041982015,-1.8505557378133137,-3.3478235403696694,1.6888760127775334e+18,1.7965333658854166,7.111069997151692,-7.354938507080078,2.9228328863779702,1.6888760127861893e+18,1.8051892903645834,5.743794759114583,-5.1783684094746905,6.030868053436279,1.6888760127818606e+18,1.8008605143229168,-0.13016520192225775,-1.1594222436348598,3.01370362440745,1.6888760127861893e+18,1.8051892903645834,-0.08821911613146464,-0.9785551975170771,2.78172759215037,,,,,,,,,,,,1.6888760127777377e+18,1.7967379394531249,-30.4560791015625,33.188879776000974,-23.04579963684082,1.6888760127777377e+18,1.7967379394531249,-286.0826782226562,128.04387664794922,-156.1721954345703,1.6888760127775334e+18,1.7965333658854166,0.8351227641105652,-0.4166902899742126,0.12819201995929078,0.3347538113594055,-0.6729313929875692,0.6565629045168558,-2.1417857805887857
1.85,1.6888760128380818e+18,1.8570818684895833,-3.1315482457478843,1.004016637802124,-2.633140246073405,1.6888760128294285e+18,1.8484283040364584,1.8045870591886342,-4.092723687489827,3.2410782972971597,1.6888760128380818e+18,1.8570818684895833,6.049126942952474,-4.632939179738362,6.176803270975749,1.688876012833759e+18,1.8527587890625001,0.03858632097641623,-0.6346889932950338,1.6776905059814453,1.6888760128380818e+18,1.8570818684895833,0.040673444668451936,-0.6766859889030457,1.663029710451762,,,,,,,,,,,,1.6888760128277368e+18,1.84673701171875,-33.31087951660156,29.748479461669923,-24.23163948059082,1.6888760128277368e+18,1.84673701171875,-288.9374755859375,124.60347747802734,-157.3580352783203,1.6888760128294285e+18,1.8484283040364584,0.8519084453582764,-0.3784160216649373,0.15472567578156785,0.3270561496416728,-0.6550750732421875,0.5747531056404114,-2.2082697550455728
1.9000000000000001,1.6888760128813253e+18,1.9003253173828125,4.409552574157715,-0.24743294715881348,-0.04173159599304199,1.6888760128813345e+18,1.900334716796875,10.036694526672363,-4.461218436559041,6.102495352427165,1.6888760128813253e+18,1.9003253173828125,6.149904251098633,-4.345697402954102,6.2871904373168945,1.6888760128856666e+18,1.9046663411458333,0.34004831810792285,-0.20387627432743707,0.6329581985870997,1.6888760128813253e+18,1.9003253173828125,0.31436653435230255,-0.1517236493527889,0.7366271466016768,,,,,,,,,,,,1.68887601287774e+18,1.8967400390624998,-34.804159545898436,27.85991973876953,-24.988039398193358,1.68887601287774e+18,1.8967400390624998,-290.4307556152344,122.71491851806641,-158.11443786621095,1.6888760128813345e+18,1.900334716796875,0.8608622352282206,-0.35625364383061725,0.17397994796435035,0.3189355929692586,-0.6551540295282999,0.5263619820276896,-2.2493621508280435
1.9500000000000002,1.6888760129245893e+18,1.94358935546875,3.870092233022054,-0.22167762120564774,-1.7233145236968994,1.6888760129332436e+18,1.952243408203125,10.088339805603027,-4.804189682006836,4.388636191685994,1.6888760129245893e+18,1.94358935546875,6.078995227813721,-4.434164683024089,6.293498516082764,1.688876012937566e+18,1.9565657552083333,0.7745771209398905,-1.3254757920900981,0.5154684397081534,1.6888760129245893e+18,1.94358935546875,0.6953682800134023,-0.9058113545179367,0.22393301501870147,,,,,,,,,,,,1.6888760129277348e+18,1.9467348632812498,-34.64311904907227,27.82819938659668,-25.012439346313478,1.6888760129277348e+18,1.9467348632812498,-290.26971435546875,122.68319702148438,-158.1388366699219,1.6888760129332436e+18,1.952243408203125,0.8627256353696188,-0.3584333658218384,0.18070232868194577,0.3073814511299133,-0.6656966209411621,0.532236913839976,-2.2691513697306314
2.0,1.6888760129764872e+18,1.9954868977864582,-3.1845056215922036,-0.6764850616455077,0.6667229334513346,1.6888760129851392e+18,2.004139404296875,0.7840482592582703,-5.0909295082092285,8.230711619059244,1.6888760129764872e+18,1.9954868977864582,5.751336574554443,-4.57736333211263,6.494887828826904,1.6888760129808164e+18,1.9998165283203124,0.3827070891857147,-0.28382325172424305,-0.8986591398715973,1.6888760129764872e+18,1.9954868977864582,0.4424700637658437,-0.49357910950978595,-0.48573970794677734,,,,,,,,,,,,1.6888760129777382e+18,1.9967382812499999,-33.352359771728516,28.05755958557129,-26.088479232788085,1.6888760129777382e+18,1.9967382812499999,-288.978955078125,122.91255950927734,-159.21488037109376,1.6888760129851392e+18,2.004139404296875,0.8598960836728414,-0.3705574373404185,0.1932044873634974,0.2927764852841695,-0.70144255956014,0.5518657366434733,-2.2787721157073975
2.0500000000000003,1.688876013028388e+18,2.0473883463541664,-7.120498975118001,-4.701758702596028,4.094390074412028,1.6888760130370386e+18,2.0560386555989587,0.9294121265411371,-12.230912844340006,8.672586441040039,1.688876013028388e+18,2.0473883463541664,5.818135420481364,-5.157077153523763,5.977092583974202,1.6888760130240684e+18,2.0430681966145836,-0.16859881579875946,2.459343512852987,-2.107128699620565,1.688876013028388e+18,2.0473883463541664,-0.13291409611701965,2.3178772926330566,-2.012037436167399,,,,,,,,,,,,1.688876013027735e+18,2.046735107421875,-32.71307907104492,30.93919982910156,-24.033999252319337,1.688876013027735e+18,2.046735107421875,-288.3396789550781,125.79419708251953,-157.1603973388672,1.6888760130370386e+18,2.0560386555989587,0.8437429269154867,-0.40108851591746003,0.1278231317798296,0.33252744873364765,-0.6421522895495096,0.6336511969566345,-2.173619270324707
2.1,1.688876013080293e+18,2.0992928873697916,-1.6805620988210042,-9.147128423055014,-4.995206356048584,1.6888760130802883e+18,2.0992880859375,2.7939194440841675,-15.174084663391113,-0.28743782639503473,1.688876013080293e+18,2.0992928873697916,5.585180123647054,-6.0744218826293945,5.273264726003011,1.6888760130759693e+18,2.0949693196614585,0.7777841885884603,2.137162983417511,-3.659439126650492,1.688876013080293e+18,2.0992928873697916,0.9003135661284128,2.2951225439707437,-4.023718516031901,,,,,,,,,,,,1.688876013077741e+18,2.0967412597656248,-30.19743957519531,34.787078857421875,-20.23491973876953,1.688876013077741e+18,2.0967412597656248,-285.82403564453125,129.64207763671874,-153.36131591796874,1.6888760130802883e+18,2.0992880859375,0.824205219745636,-0.4370085597038269,0.065489737316966,0.353181928396225,-0.6006324887275696,0.7404975891113281,-2.092743396759033
2.15,1.688876013132194e+18,2.1511941731770836,-3.6376392046610513,2.8780531883239746,-2.317556937535604,1.6888760131235418e+18,2.142541829427083,0.6875377098719279,-6.696314096450806,1.8133607705434163,1.688876013132194e+18,2.1511941731770836,4.357609828313191,-7.80268923441569,3.993821382522583,1.6888760131278674e+18,2.1468673502604165,1.8762216567993164,2.750318964322408,-4.958953221638997,1.688876013132194e+18,2.1511941731770836,1.7993545134862263,2.9540933767954507,-4.8163161277771,,,,,,,,,,,,1.688876013127738e+18,2.1467380859375,-23.73875961303711,41.77279968261719,-14.325239562988282,1.688876013127738e+18,2.1467380859375,-279.3653503417969,136.62779846191407,-147.4516387939453,1.6888760131235418e+18,2.142541829427083,0.7839951117833456,-0.5100619892279307,-0.03434403085460263,0.34964380661646527,-0.5675090551376343,0.9707392056783041,-1.9976342916488647
2.2,1.6888760131840955e+18,2.203095621744792,-6.562408924102783,3.01707394917806,-3.390859285990397,1.6888760131754386e+18,2.1944388834635418,-2.6418756345907846,-4.155335903167725,0.1092722440759341,1.6888760131840955e+18,2.203095621744792,3.3749003410339355,-8.708210627237955,2.988558371861776,1.688876013179768e+18,2.198768310546875,0.051516309380531276,3.4904330571492515,-3.121063232421875,1.6888760131840955e+18,2.203095621744792,-0.07544185717900594,3.3631695906321206,-2.9587767124176025,,,,,,,,,,,,1.6888760131777362e+18,2.196736181640625,-14.266679573059083,47.226199340820315,-7.87387981414795,1.6888760131777362e+18,2.196736181640625,-269.8932678222656,142.0811981201172,-141.00027770996093,1.6888760131754386e+18,2.1944388834635418,0.7280399004618326,-0.556219240029653,-0.15390377988417936,0.3682517508665721,-0.5122165381908417,1.179515798886617,-1.8572776317596436
2.25,1.6888760132359967e+18,2.2549968261718747,-5.47364616394043,-4.2764584223429365,-3.2354800701141357,1.688876013227335e+18,2.2463349609375,-3.6201411883036294,-13.284153620402018,-0.5710870027542114,1.6888760132359967e+18,2.2549968261718747,2.6801555156707764,-9.00531005859375,2.8154324690500894,1.688876013231673e+18,2.250673095703125,-0.07457646230856575,0.5914193590482076,-1.4945327440897624,1.6888760132359967e+18,2.2549968261718747,0.008246682584285755,0.3698789030313492,-1.4225524266560872,,,,,,,,,,,,1.6888760132277363e+18,2.246736181640625,-9.396439743041991,48.648719024658206,-6.941799926757812,1.6888760132277363e+18,2.246736181640625,-265.0230346679688,143.50372009277345,-140.06820068359374,1.688876013227335e+18,2.2463349609375,0.6792572339375814,-0.5772375265757242,-0.2167469461758931,0.39785595734914136,-0.6051154136657715,1.2755141655604045,-1.626646876335144
2.3000000000000003,1.6888760132878943e+18,2.3068944498697914,0.7499333620071411,1.2733205159505208,-0.43246614933013916,1.6888760132792484e+18,2.2982482096354167,2.183450698852539,-8.85344394048055,1.691526194413503,1.6888760132878943e+18,2.3068944498697914,1.8155017296473186,-9.276322682698567,2.5998573303222656,1.6888760132835668e+18,2.302567138671875,0.6415612101554871,0.06520986060301459,-2.273844043413798,1.6888760132878943e+18,2.3068944498697914,0.6395759185155233,0.1843794882297516,-2.4053836663564048,,,,,,,,,,,,1.6888760132777385e+18,2.296738427734375,-5.316760015487671,49.29287948608398,-6.121959972381592,1.6888760132777385e+18,2.296738427734375,-260.9433532714844,144.14787902832032,-139.24835510253905,1.6888760132792484e+18,2.2982482096354167,0.6548025012016296,-0.6015157302220663,-0.2435321658849716,0.38702032963434846,-0.7611687183380127,1.3532230059305828,-1.4500969648361206
2.35,1.688876013331143e+18,2.350142822265625,-1.3875327110290527,2.2731375694274902,1.0134427547454834,1.6888760133311516e+18,2.3501513671875,-0.7433702051639557,-7.443871815999349,3.5058840115865073,1.688876013331143e+18,2.350142822265625,0.8715105950832368,-9.471752643585205,2.3968204259872437,1.6888760133354765e+18,2.3544766438802083,-0.14258613685766855,1.5217162370681763,-2.034079432487488,1.688876013331143e+18,2.350142822265625,-0.008628472685813904,1.7259997129440308,-2.2621867060661316,,,,,,,,,,,,1.688876013327738e+18,2.3467379882812502,0.5197199821472168,49.75647888183594,-4.789719867706299,1.688876013327738e+18,2.3467379882812502,-255.10687561035155,144.61148071289062,-137.9161163330078,1.6888760133311516e+18,2.3501513671875,0.6076708634694418,-0.6285427014032999,-0.2954035699367523,0.3846265474955241,-1.306541124979655,1.438235600789388,-0.8292322357495626
2.4000000000000004,1.6888760133744013e+18,2.393401041666667,-1.3877061208089192,-3.7322956720987954,-1.2461954752604167,1.6888760133830408e+18,2.4020406901041667,1.7599209745724995,-14.991432189941406,0.4588237404823303,1.6888760133744013e+18,2.393401041666667,0.4815542995929718,-9.43521499633789,2.638112703959147,1.6888760133873774e+18,2.406377522786458,-0.7334964474042257,-1.4789556463559468,-0.16055575199425212,1.6888760133744013e+18,2.393401041666667,-0.7881688872973124,-0.8792896072069804,-0.4169155287866791,,,,,,,,,,,,1.6888760133777347e+18,2.3967347656249998,4.0796799659729,49.673518371582034,-6.583119869232178,1.6888760133777347e+18,2.3967347656249998,-251.54691467285156,144.528515625,-139.7095184326172,1.6888760133830408e+18,2.4020406901041667,0.5823725263277689,-0.6453130642573038,-0.3007771968841553,0.3921730915705363,-1.6589126586914062,1.4136746724446614,-0.45497185985247296
2.45,1.6888760134262925e+18,2.4452923990885416,5.984909454981486,-6.523341178894043,-5.008586247762044,1.6888760134349473e+18,2.4539471842447917,3.7912280559539795,-14.424333572387695,-1.3986048301060994,1.6888760134262925e+18,2.4452923990885416,0.40904218951861065,-9.376574198404947,2.852545738220215,1.6888760134306248e+18,2.4496248779296876,0.006719518452882749,2.3335052728652954,0.010384708642959609,1.6888760134262925e+18,2.4452923990885416,-0.12802717834711078,1.4859297076861064,0.04001166919867203,,,,,,,,,,,,1.6888760134277394e+18,2.44673955078125,4.511559915542603,49.48319854736328,-7.307799911499023,1.6888760134277394e+18,2.44673955078125,-251.1150360107422,144.33819580078125,-140.43419799804687,1.6888760134349473e+18,2.4539471842447917,0.5730435450871786,-0.6413789788881937,-0.3058460354804992,0.4077007472515106,-1.630419651667277,1.3969543774922688,-0.4487294654051463
2.5,1.6888760134782026e+18,2.497202880859375,-3.0653717517852783,-3.2666632334391275,-1.1284561951955159,1.6888760134868467e+18,2.505846435546875,-0.1894318958123525,-13.195619265238443,1.1256236632664998,1.6888760134782026e+18,2.497202880859375,1.2672953605651855,-9.298853874206543,2.831639846165975,1.68887601347388e+18,2.492879964192708,-0.0249436646699905,0.399607685705026,2.357939839363098,1.6888760134782026e+18,2.497202880859375,0.0034615652014812017,0.16019939382870999,2.623615304629008,,,,,,,,,,,,1.68887601347774e+18,2.496740087890625,0.7954400058835744,49.26847915649414,-7.790919780731201,1.68887601347774e+18,2.496740087890625,-254.83115234375,144.12348022460938,-140.91731872558594,1.6888760134868467e+18,2.505846435546875,0.5901918609937032,-0.6006080706914266,-0.3049537340799967,0.4442625343799591,-1.105071226755778,1.368301232655843,-0.9133442242940267
2.5500000000000003,1.6888760135301038e+18,2.5491037597656248,-4.662427504857381,-6.473505020141602,-3.604645053545634,1.6888760135300987e+18,2.549098876953125,-1.6456637382507324,-15.67777395248413,-1.376172125339508,1.6888760135301038e+18,2.5491037597656248,2.9893762270609536,-8.966389973958334,2.5764216581980386,1.6888760135257802e+18,2.5447801920572917,0.6246606012185415,0.9256644546985626,3.617543935775757,1.6888760135301038e+18,2.5491037597656248,0.7197519640127817,1.0151053468386333,3.569234768549601,,,,,,,,,,,,1.6888760135277358e+18,2.546735791015625,-8.000759744644165,48.643838500976564,-6.614839839935303,1.6888760135277358e+18,2.546735791015625,-263.6273620605469,143.49883728027345,-139.74123840332032,1.6888760135300987e+18,2.549098876953125,0.6334649324417114,-0.5427209436893463,-0.28481391072273254,0.4720019549131393,-0.5527966022491455,1.2747186422348022,-1.445262610912323
2.6,1.6888760135820052e+18,2.6010051269531247,-8.434401671091715,-7.209001223246257,6.678885539372762,1.6888760135733514e+18,2.5923515625,-4.704089879989624,-15.761721928914389,6.601797580718994,1.6888760135820052e+18,2.6010051269531247,4.627351442972819,-8.412349383036295,1.9471331437428792,1.6888760135776817e+18,2.5966814778645833,1.1706214149792988,0.23559036850929257,3.66951847076416,1.6888760135820052e+18,2.6010051269531247,1.0286461512247722,0.1646281878153483,3.686164458592733,,,,,,,,,,,,1.6888760135777357e+18,2.5967359375,-16.926279258728027,46.73331985473633,-3.986959981918335,1.6888760135777357e+18,2.5967359375,-272.55286865234376,141.58831481933595,-137.1133575439453,1.6888760135733514e+18,2.5923515625,0.6749466856320699,-0.4773712654908498,-0.27711360653241474,0.4889029562473297,-0.2411985844373703,1.157118598620097,-1.727020502090454
2.6500000000000004,1.688876013633909e+18,2.6529090169270835,-6.611436049143474,-2.6272290547688804,5.315065860748291,1.6888760136252526e+18,2.64425244140625,-1.9379871686299641,-11.607981204986572,9.695318698883057,1.688876013633909e+18,2.6529090169270835,5.645064830780029,-7.633999824523926,2.433983087539673,1.6888760136295862e+18,2.6485860188802084,-0.0324267645676931,-3.333033482233683,2.660470803578695,1.688876013633909e+18,2.6529090169270835,-0.022398389875888807,-3.466151158014933,2.718146800994873,,,,,,,,,,,,1.6888760136277368e+18,2.64673701171875,-24.175519943237305,43.65891952514649,-3.925959920883179,1.6888760136277368e+18,2.64673701171875,-279.80211181640624,138.5139190673828,-137.05235900878907,1.6888760136252526e+18,2.64425244140625,0.7204047044118246,-0.4330773850282033,-0.21957013507684073,0.4941603442033132,-0.20769297579924262,1.0008708039919536,-1.8259695370992024
2.7,1.6888760136857981e+18,2.704798177083333,-9.59439214070638,1.9162131945292156,-3.2131187915802,1.6888760136771576e+18,2.696157552083333,-1.1411770184834797,-5.694917917251587,0.2081755797068278,1.6888760136857981e+18,2.704798177083333,6.6844509442647295,-6.544338385264079,2.9212865829467773,1.6888760136814828e+18,2.7004826660156254,0.49536079602936905,-0.8973610599835714,3.9310197035471597,1.6888760136857981e+18,2.704798177083333,0.5635741104682287,-0.867072323958079,3.8804195721944175,,,,,,,,,,,,1.6888760136777352e+18,2.6967350585937497,-30.47559928894043,39.55483856201172,-6.93691987991333,1.6888760136777352e+18,2.6967350585937497,-286.10219116210936,134.4098358154297,-140.06331787109374,1.6888760136771576e+18,2.696157552083333,0.7657478054364523,-0.39569877584775287,-0.13820387671391163,0.48703961571057636,-0.26348517338434846,0.8347063859303793,-1.8905496994654338
2.75,1.6888760137377088e+18,2.756708740234375,-11.221328099568685,6.887581507364909,-4.581686178843181,1.6888760137290588e+18,2.7480588378906248,-3.562514066696167,1.0109675625960033,-1.1074780821800232,1.6888760137377088e+18,2.756708740234375,7.4437893231709795,-5.430559476216634,3.343891461690267,1.688876013733386e+18,2.752386067708333,-0.07126761227846146,-1.7682512998580933,2.8350764910380044,1.6888760137377088e+18,2.756708740234375,-0.20484347144762674,-1.8684332370758057,2.7191648483276367,,,,,,,,,,,,1.6888760137277394e+18,2.746739453125,-37.087999725341795,33.83791961669922,-7.481039905548096,1.6888760137277394e+18,2.746739453125,-292.7145935058594,128.692919921875,-140.60743408203126,1.6888760137290588e+18,2.7480588378906248,0.802100678284963,-0.34049532810846966,-0.07885480423768357,0.48368314901987713,-0.26239897310733795,0.6724175810813904,-1.964451750119527
2.8000000000000003,1.688876013780951e+18,2.7999508056640625,-6.854023456573486,4.120147109031677,-1.4061492681503296,1.688876013780956e+18,2.799955647786458,0.303888479868571,-0.4821537335713704,2.4632115329926214,1.688876013780951e+18,2.7999508056640625,7.489846229553223,-4.74717378616333,4.192184925079346,1.6888760137852895e+18,2.8042894694010414,-0.44028113534053165,-1.8892534573872883,0.7521787385145825,1.688876013780951e+18,2.7999508056640625,-0.6040693819522858,-2.0228039622306824,0.9735664725303649,,,,,,,,,,,,1.68887601377774e+18,2.7967400390625,-39.67927932739258,29.41663932800293,-11.775439643859864,1.68887601377774e+18,2.7967400390625,-295.3058776855469,124.27163848876953,-144.90183715820314,1.688876013780956e+18,2.799955647786458,0.809611956278483,-0.32771135369936627,-0.009965550620108834,0.48664576808611554,-0.36806512872378033,0.570854643980662,-1.950204610824585
2.85,1.6888760138242112e+18,2.843211181640625,-1.0123691558837888,0.9017727375030518,-1.1123104095458984,1.6888760138328586e+18,2.8518586425781245,8.438089688618978,-4.699902613957723,3.435495138168335,1.6888760138242112e+18,2.843211181640625,7.136729081471761,-4.939070383707683,4.5644480387369795,1.6888760138371878e+18,2.856187662760417,1.1350894172986348,-0.861116369565328,-1.8369735876719158,1.6888760138242112e+18,2.843211181640625,0.834085593620936,-1.0646362900733948,-1.2060007055600483,,,,,,,,,,,,1.688876013827737e+18,2.8467373046875,-38.01519927978516,29.71187973022461,-14.564359855651855,1.688876013827737e+18,2.8467373046875,-293.64179077148435,124.56687622070312,-147.69075927734374,1.6888760138328586e+18,2.8518586425781245,0.8042572736740112,-0.35650158921877545,0.004052145018552733,0.47515803575515747,-0.4338684578736623,0.6062036951382955,-1.936543385187785
2.9000000000000004,1.6888760138761124e+18,2.8951123860677086,6.756008466084798,-10.86415719985962,3.239758014678955,1.688876013884759e+18,2.9037591959635414,12.447463353474935,-20.3230406443278,9.046265284220377,1.6888760138761124e+18,2.8951123860677086,6.489391485850017,-5.708739598592122,4.635512351989746,1.6888760138804385e+18,2.8994385986328126,-0.3766747862100601,-1.1675925180315971,-0.30573803186416626,1.6888760138761124e+18,2.8951123860677086,-0.016849707812070847,-1.1633419295152028,-0.7039713064829508,,,,,,,,,,,,1.688876013877742e+18,2.8967418945312504,-34.97495956420899,33.264520263671876,-14.979159736633301,1.688876013877742e+18,2.8967418945312504,-290.6015625,128.11951751708983,-148.10555725097657,1.688876013884759e+18,2.9037591959635414,0.7949913938840231,-0.39558108647664386,-9.808565179506591e-05,0.4595910410086314,-0.4864457845687866,0.6804409225781759,-1.9183024565378826
2.95,1.688876013928009e+18,2.947009195963542,3.182708263397217,-5.318100611368816,-0.3869760036468506,1.6888760139366605e+18,2.9556603190104167,8.033104419708252,-6.436493555704753,5.131208737691243,1.688876013928009e+18,2.947009195963542,6.27385679880778,-5.166258811950684,5.490759372711182,1.6888760139236892e+18,2.9426892903645836,-0.026979895929495495,-2.3900102376937866,1.8253671725591023,1.688876013928009e+18,2.947009195963542,0.08898269136746724,-2.1663827498753867,1.66043355067571,,,,,,,,,,,,1.688876013927736e+18,2.946736181640625,-34.999359130859375,30.682999420166016,-19.31747932434082,1.688876013927736e+18,2.946736181640625,-290.6259521484375,125.53799591064453,-152.44387512207032,1.6888760139366605e+18,2.9556603190104167,0.8014635046323141,-0.3907911380132039,0.06410638739665343,0.4480231503645579,-0.5833978851636251,0.6053634285926819,-1.9351954857508342
3.0,1.688876013979914e+18,2.9989138997395837,-11.574295043945312,-4.47137991587321,2.476502259572347,1.688876013988562e+18,3.0075619303385417,-6.108676751454671,-10.304889996846518,6.544968008995056,1.688876013979914e+18,2.9989138997395837,6.105828285217285,-5.309090614318848,5.543533802032471,1.688876013975592e+18,2.994592041015625,-0.2878193408250808,1.0616837739944458,-1.6040303309758503,1.688876013979914e+18,2.9989138997395837,-0.2685261815786362,1.294881597161293,-1.6717854340871174,1.6888760139974707e+18,3.016470703125,0.0,0.0,1.6389610767364502,24.35199928283691,0.0139320511370897,0.0,24.693532739065596,-122.7501047,49.192858,1.6888760139777377e+18,2.996737890625,-34.26247863769531,31.078279495239258,-19.83963966369629,1.6888760139777377e+18,2.996737890625,-289.8890686035156,125.9332778930664,-152.96603698730468,1.688876013988562e+18,3.0075619303385417,0.7862601081530253,-0.4057684640089671,0.040717010075847264,0.4637751579284668,-0.5837057828903198,0.6443106532096863,-1.8760041793187459
3.0500000000000003,1.6888760140318208e+18,3.0508207194010417,-6.977713743845622,0.7203391393025717,-3.8357458114624023,1.688876014031806e+18,3.0508059082031247,-1.3465609848499298,-4.915456056594849,0.6834499686956406,1.6888760140318208e+18,3.0508207194010417,6.160295645395915,-6.034406979878743,4.655778566996257,1.6888760140274913e+18,3.0464912923177088,1.0022262334823608,2.4385231335957847,-1.9966639677683513,1.6888760140318208e+18,3.0508207194010417,1.0130690932273865,2.3980533281962075,-2.2835161288579306,,,,,,,,,,,,1.6888760140277332e+18,3.046733203125,-33.081520080566406,33.79155960083008,-15.018199920654297,1.6888760140277332e+18,3.046733203125,-288.70811767578124,128.6465576171875,-148.14459533691405,1.688876014031806e+18,3.0508059082031247,0.7761552631855011,-0.4100683629512787,-0.025662878993898554,0.4779893457889557,-0.48873060941696167,0.7225608229637146,-1.849964737892151
3.1,1.6888760140837153e+18,3.1027154134114583,-9.178775469462076,-2.561694304148356,-1.9355576038360596,1.6888760140750636e+18,3.0940638020833333,-1.9310077826182048,-9.191230614980062,1.9615163405736287,1.6888760140837153e+18,3.1027154134114583,5.056471029917399,-7.515286922454834,3.708531936009725,1.6888760140793948e+18,3.0983948567708333,0.09259698291619615,3.062776486078898,-5.555259386698405,1.6888760140837153e+18,3.1027154134114583,-0.021482092638810495,3.2076534430185952,-5.590842405954997,,,,,,,,,,,,1.6888760140777388e+18,3.09673876953125,-26.810719680786132,40.00867919921875,-9.762439727783203,1.6888760140777388e+18,3.09673876953125,-282.43731689453125,134.86367492675782,-142.8888397216797,1.6888760140750636e+18,3.0940638020833333,0.7327919999758402,-0.45720197757085157,-0.12187434236208594,0.4866468111673991,-0.45492006341616315,0.9116113980611166,-1.7420353492101033
3.1500000000000004,1.6888760141356196e+18,3.1546193847656254,-11.37160841623942,-4.763238588968913,-3.3726139068603516,1.6888760141269686e+18,3.1459683430989585,-7.39422082901001,-13.373286247253418,0.6049853165944418,1.6888760141356196e+18,3.1546193847656254,4.0080258051554365,-8.358410199483236,3.207202434539795,1.688876014131295e+18,3.150294921875,-0.6687447416285672,2.5849780837694802,-2.4446318546930947,1.6888760141356196e+18,3.1546193847656254,-0.5828672349452972,2.128610789775849,-2.137213865915934,,,,,,,,,,,,1.6888760141277379e+18,3.1467378906250003,-18.199959754943848,44.847198486328125,-6.775879859924316,1.6888760141277379e+18,3.1467378906250003,-273.82655639648436,139.702197265625,-139.90227661132812,1.6888760141269686e+18,3.1459683430989585,0.652590811252594,-0.497458557287852,-0.23628719647725419,0.5196601947148641,-0.49021831154823303,1.1095383564631145,-1.4885107676188152
3.2,1.68887601418752e+18,3.20652001953125,1.5178186893463135,0.8513514200846354,-3.265279014905294,1.6888760141788664e+18,3.1978664550781253,2.4438695112864175,-8.19741153717041,-0.6556334098180135,1.68887601418752e+18,3.20652001953125,3.014715830485026,-8.72733465830485,3.2845137119293213,1.6888760141831964e+18,3.2021963704427083,0.5315036674340566,-2.143373489379883,-2.208277861277262,1.68887601418752e+18,3.20652001953125,0.5633704861005148,-1.9939659237861633,-2.3707170486450195,,,,,,,,,,,,1.6888760141777377e+18,3.1967376953125,-13.856759643554687,46.15503997802735,-6.351319885253906,1.6888760141777377e+18,3.1967376953125,-269.4833557128906,141.01004028320312,-139.47771911621095,1.6888760141788664e+18,3.1978664550781253,0.6290742953618368,-0.5304821133613586,-0.257692535718282,0.5058893958727518,-0.6143308679262797,1.1902848482131958,-1.3625078598658245
3.25,1.6888760142307656e+18,3.2497657470703123,2.6315202713012695,1.9328558444976807,-0.2999863624572754,1.6888760142307666e+18,3.2497666015625,4.515056888262431,-7.224130948384603,2.4735803604125977,1.6888760142307656e+18,3.2497657470703123,2.1047035455703735,-9.102159023284912,2.990009903907776,1.6888760142350938e+18,3.254093505859375,0.6765841643015543,2.514524976412455,-1.8944458961486816,1.6888760142307656e+18,3.2497657470703123,0.7249443233013153,2.469193696975708,-1.938809871673584,,,,,,,,,,,,1.6888760142277345e+18,3.24673466796875,-7.066239929199218,47.589759063720706,-5.716919994354248,1.6888760142277345e+18,3.24673466796875,-262.6928283691406,142.44476013183595,-138.84331970214845,1.6888760142307666e+18,3.2497666015625,0.597695012887319,-0.5617365042368571,-0.3030636211236318,0.48442213733990985,-0.7803890307744344,1.3084876537322998,-1.168018062909444
3.3000000000000003,1.6888760142740221e+18,3.293022135416667,-2.715570608774821,2.4548912048339844,-1.229500412940979,1.6888760142826627e+18,3.301662434895833,-1.223330557346344,-6.834499677022298,1.2550354798634846,1.6888760142740221e+18,3.293022135416667,1.886387864748637,-9.283615748087565,2.5434515476226807,1.6888760142869988e+18,3.305998779296875,0.08715011179447174,2.193973422050476,-1.3540337085723877,1.6888760142740221e+18,3.293022135416667,0.2733112927526235,2.5756624142328897,-1.3882421652475994,,,,,,,,,,,,1.6888760142777341e+18,3.296734228515625,-4.055280017852783,48.09727935791015,-3.2061599254608155,1.6888760142777341e+18,3.296734228515625,-259.6818786621094,142.95227966308593,-136.33255920410156,1.6888760142826627e+18,3.301662434895833,0.554345965385437,-0.542397658030192,-0.37321579456329346,0.5087387363115946,-0.8101018865903219,1.3777538140614827,-0.9769754409790039
3.35,1.688876014325923e+18,3.3449232584635418,-5.066274325052897,0.3200469017028808,-0.44198715686798096,1.6888760143345697e+18,3.35356982421875,-3.576272885004679,-10.09651517868042,2.468196471532186,1.688876014325923e+18,3.3449232584635418,1.4695928891499836,-9.375691731770834,2.479767163594564,1.68887601433025e+18,3.3492499999999996,-0.5694027692079544,0.6330090910196305,-1.101084589958191,1.688876014325923e+18,3.3449232584635418,-0.5142467319965363,0.7687739332516988,-1.13926366964976,,,,,,,,,,,,1.6888760143277366e+18,3.3467365234375004,-1.5811200261116027,48.22659912109375,-3.1622398853302003,1.6888760143277366e+18,3.3467365234375004,-257.20771484375,143.08159790039062,-136.28863525390625,1.6888760143345697e+18,3.35356982421875,0.5153398712476095,-0.5428150296211243,-0.4082266092300415,0.522495448589325,-1.084725260734558,1.4031143983205159,-0.6140424807866415
3.4000000000000004,1.688876014377825e+18,3.3968249511718747,2.442617734273275,-6.7588653564453125,-3.5545411109924316,1.6888760143864696e+18,3.405469401041666,3.962913155555725,-16.807186762491863,-1.6737794876098633,1.688876014377825e+18,3.3968249511718747,0.7325883110364279,-9.340451876322428,2.901392698287964,1.6888760143735002e+18,3.3925004069010414,-0.7604763309160868,-1.9518162608146667,-0.893237700064977,1.688876014377825e+18,3.3968249511718747,-0.7160358726978302,-1.735875427722931,-0.7573710914390782,,,,,,,,,,,,1.688876014377741e+18,3.396741064453125,1.2858799815177917,48.026519012451175,-4.418839836120606,1.688876014377741e+18,3.396741064453125,-254.34071350097656,142.8815155029297,-137.5452392578125,1.6888760143864696e+18,3.405469401041666,0.5047791004180908,-0.5815584858258566,-0.3933379848798116,0.5021989842255911,-1.4945872624715169,1.3820066452026367,-0.2681664029757182
3.45,1.6888760144297193e+18,3.44871923828125,-2.4830419023831687,-7.983869234720866,-3.9647669792175293,1.6888760144383736e+18,3.4573736979166667,-1.5750754674275715,-16.695520718892414,-0.4849453767140706,1.6888760144297193e+18,3.44871923828125,0.9037092526753744,-9.309067408243815,2.956483761469523,1.6888760144253952e+18,3.4443953450520834,0.1676825135946274,0.5362887581189474,0.8085310459136963,1.6888760144297193e+18,3.44871923828125,0.23223059872786203,0.31703907251358027,0.9356419245402018,,,,,,,,,,,,1.6888760144277366e+18,3.4467365234375,0.5660799980163574,47.677599334716795,-5.145959854125977,1.6888760144277366e+18,3.4467365234375,-255.06051330566407,142.5325958251953,-138.2723602294922,1.6888760144383736e+18,3.4573736979166667,0.5074065426985422,-0.5676518678665161,-0.393035093943278,0.51548171043396,-1.3256585597991943,1.3766634464263916,-0.41266557574272156
3.5,1.6888760144816305e+18,3.500630777994792,1.6666804949442546,-2.494389533996582,-1.411949634552002,1.688876014481622e+18,3.5006220703124997,5.220540761947632,-10.837990760803223,1.4874383807182312,1.6888760144816305e+18,3.500630777994792,1.9964618682861328,-9.176411310831705,2.7799387772878013,1.6888760144773038e+18,3.4963039550781247,0.3886630137761434,-0.46777005990346265,3.522350788116455,1.6888760144816305e+18,3.500630777994792,0.375987559556961,-0.28043802579243976,3.741295099258423,,,,,,,,,,,,1.6888760144777395e+18,3.4967397460937497,-4.14311990737915,47.62147903442383,-3.3208399295806883,1.6888760144777395e+18,3.4967397460937497,-259.76972045898435,142.47647399902343,-136.44723510742188,1.688876014481622e+18,3.5006220703124997,0.5475782454013824,-0.5396643280982971,-0.3631073385477066,0.5260439813137054,-0.8491306304931641,1.3376411199569702,-0.9214505851268768
3.5500000000000003,1.6888760145335247e+18,3.5525247395833333,-8.83785597483317,-6.8065996170043945,0.4717384974161784,1.6888760145248714e+18,3.5438712565104162,-4.402195453643799,-14.81117312113444,2.39820655186971,1.6888760145335247e+18,3.5525247395833333,3.7899274826049805,-8.707473119099935,2.4190828800201416,1.6888760145292024e+18,3.5482024739583333,0.9418015082677206,0.1217149049043655,3.5396076838175454,1.6888760145335247e+18,3.5525247395833333,0.9899071256319681,0.067704235514005,3.504432121912638,1.6888760145164833e+18,3.5354833984375,0.0,0.0,1.6389610767364502,38.16299819946289,0.0006172229186631,0.0,24.693532739065596,-122.7501094,49.192858,1.688876014527735e+18,3.5467350585937503,-14.205679512023925,45.61091842651367,-1.5152399674057961,1.688876014527735e+18,3.5467350585937503,-269.8322692871094,140.4659210205078,-134.64163818359376,1.6888760145248714e+18,3.5438712565104162,0.5927228530248007,-0.48076064387957257,-0.3310101429621379,0.5544392069180807,-0.42561877767244977,1.2140067021052043,-1.336565097173055
3.6,1.6888760145854298e+18,3.6044297688802085,-8.345973014831543,-6.708088397979736,6.821888446807861,1.6888760145767764e+18,3.595776529947917,-3.487339655558268,-15.256637255350748,8.713862578074137,1.6888760145854298e+18,3.6044297688802085,5.1895707448323565,-7.9631123542785645,2.3949575424194336,1.6888760145811018e+18,3.6001019694010417,-0.02550362547238666,-1.3955216507116954,3.2581516106923423,1.6888760145854298e+18,3.6044297688802085,-0.1102611720561981,-1.7208073635896046,3.10003924369812,,,,,,,,,,,,1.6888760145777382e+18,3.5967380859375,-22.75299949645996,41.91431884765625,0.02195999175310135,1.6888760145777382e+18,3.5967380859375,-278.3795959472656,136.76931457519532,-133.10443420410155,1.6888760145767764e+18,3.595776529947917,0.6421317656834921,-0.4226206938425699,-0.2845793763796488,0.5722325642903646,-0.24210820098718003,1.05313108364741,-1.5443766911824544
3.6500000000000004,1.6888760146373317e+18,3.656331787109375,-5.578912893931071,-0.6673014958699545,0.040860255559285484,1.6888760146286735e+18,3.647673583984375,1.389631708463033,-8.643673102060953,4.603990236918132,1.6888760146373317e+18,3.656331787109375,5.940757751464844,-7.144873301188151,3.1123739083607993,1.688876014633008e+18,3.652008138020834,-0.1012000093857447,-1.4325299263000488,3.0980540116628013,1.6888760146373317e+18,3.656331787109375,-0.03186680128177005,-1.139416432629029,3.241454601287842,,,,,,,,,,,,1.6888760146277391e+18,3.646739013671875,-28.75051956176758,38.693519592285156,-2.9377599477767946,1.6888760146277391e+18,3.646739013671875,-284.3771118164062,133.54851684570312,-136.06415710449218,1.6888760146286735e+18,3.647673583984375,0.6798598567644755,-0.4112622042496999,-0.20390062530835465,0.5713772177696228,-0.3225405017534891,0.9152063330014547,-1.5836729605992634
3.7,1.6888760146805821e+18,3.6995820312500003,-11.115894317626953,3.247643232345581,-3.178101062774658,1.688876014680579e+18,3.6995791015625,-4.556532541910808,-3.3124640583992004,0.11724831536412239,1.6888760146805821e+18,3.6995820312500003,6.839252710342407,-6.290224313735962,3.1391104459762573,1.6888760146849044e+18,3.703904541015625,1.0059932669003804,-1.4548773964246113,3.3019811312357583,1.6888760146805821e+18,3.6995820312500003,1.0373255610466003,-1.2590696215629578,3.295617938041687,,,,,,,,,,,,1.68887601467774e+18,3.696739990234375,-35.03595886230469,33.210839080810544,-2.588839960098267,1.68887601467774e+18,3.696739990234375,-290.6625549316406,128.0658386230469,-135.71523742675782,1.688876014680579e+18,3.6995791015625,0.7226243416468302,-0.35938124855359393,-0.14536785334348676,0.571732223033905,-0.28092848261197406,0.7560046116511027,-1.6903536319732666
3.75,1.688876014723833e+18,3.7428331705729168,-10.967915217081705,6.973902543385823,-4.729703346888225,1.6888760147324803e+18,3.7514801432291667,-2.8877381483713784,1.8356937567392986,-0.8191429649790128,1.688876014723833e+18,3.7428331705729168,7.267544746398926,-5.460848490397136,3.6649893124898276,1.6888760147368097e+18,3.755809814453125,-0.12090039749940236,-2.8385889530181885,2.4439191023508706,1.688876014723833e+18,3.7428331705729168,0.3193807105223338,-2.7112745443979898,2.89005438486735,,,,,,,,,,,,1.6888760147277368e+18,3.7467369140624998,-39.60851898193359,27.540279388427734,-4.6359998226165775,1.6888760147277368e+18,3.7467369140624998,-295.235107421875,122.39527740478516,-137.76239624023438,1.6888760147324803e+18,3.7514801432291667,0.7635889450709025,-0.3334135313828786,-0.06262192130088799,0.5487396915753683,-0.33774761358896893,0.6168198188145956,-1.7873809734980266
3.8000000000000003,1.688876014775731e+18,3.7947308756510414,-5.130431016286214,4.8454047838846845,-0.7303775151570638,1.6888760147843796e+18,3.80337939453125,2.7880371809005737,-0.8616155584653219,4.879364093144734,1.688876014775731e+18,3.7947308756510414,7.159674485524495,-4.767844994862874,4.710930188496907,1.6888760147800591e+18,3.79905908203125,-0.4489859491586685,-1.5315155386924744,0.15790866315364838,1.688876014775731e+18,3.7947308756510414,-0.4899648278951645,-1.7751234571139018,0.41335214177767443,,,,,,,,,,,,1.6888760147777329e+18,3.79673291015625,-41.172559356689455,23.62895965576172,-10.472479820251465,1.6888760147777329e+18,3.79673291015625,-296.7991455078125,118.4839599609375,-143.598876953125,1.6888760147843796e+18,3.80337939453125,0.7677610119183859,-0.34287243088086444,0.0019013720254103335,0.5411982734998068,-0.4548843602339427,0.5520422458648682,-1.7826220194498699
3.85,1.6888760148276357e+18,3.846635660807292,1.8350502649943035,-1.1477422714233398,-0.5028706391652426,1.6888760148362831e+18,3.8552830403645832,11.097512563069662,-7.536792914072673,4.312863349914551,1.6888760148276357e+18,3.846635660807292,6.670567035675049,-5.198429584503174,4.959794362386067,1.6888760148233126e+18,3.842312825520833,0.6540839572747548,-0.5693773031234741,-1.8268942832946777,1.6888760148276357e+18,3.846635660807292,0.7251988550027212,-0.559450755516688,-1.9816468159357707,,,,,,,,,,,,1.6888760148277363e+18,3.846736328125,-39.854959106445314,24.55127944946289,-12.570879554748535,1.6888760148277363e+18,3.846736328125,-295.4815673828125,119.40627746582031,-145.69727783203126,1.6888760148362831e+18,3.8552830403645832,0.7600656946500143,-0.3807842532793681,-0.007559163612313566,0.5262027978897095,-0.5020278493563334,0.6273348331451416,-1.7642676830291748
3.9000000000000004,1.6888760148795348e+18,3.898534749348958,5.403481324513753,-14.5875612894694,6.180019696553548,1.6888760148881897e+18,3.9071895345052083,9.472187678019205,-21.776281356811523,12.063614845275879,1.6888760148795348e+18,3.898534749348958,5.991269747416179,-5.821627934773763,5.137525240580241,1.6888760148752097e+18,3.8942098795572915,-0.2971350351969401,-1.157487839460373,-0.7617489496866862,1.6888760148795348e+18,3.898534749348958,-0.39243002732594806,-1.3013466000556946,-0.38026366631189984,,,,,,,,,,,,1.6888760148777395e+18,3.8967395996093748,-37.02699966430664,27.767199325561524,-13.720119857788086,1.6888760148777395e+18,3.8967395996093748,-292.6535949707031,122.62220001220703,-146.8465148925781,1.6888760148881897e+18,3.9071895345052083,0.750697394212087,-0.41779451568921405,-0.003614887595176699,0.5114606420199076,-0.5751918156941732,0.6830445130666097,-1.736163894335429
3.95,1.6888760149314383e+18,3.950438395182292,2.3885178565979004,-4.814935525258382,1.5774685541788738,1.6888760149314263e+18,3.9504263916015625,8.724829912185669,-8.786145687103271,6.693023920059204,1.6888760149314383e+18,3.950438395182292,5.877418200174968,-5.431537469228108,5.673274993896484,1.688876014927111e+18,3.946110677083333,0.13408492257197696,-1.106735070546468,1.1479685207207997,1.6888760149314383e+18,3.950438395182292,0.17374026030302045,-0.7468845446904501,0.8271115819613138,,,,,,,,,,,,1.6888760149277363e+18,3.9467365234375,-37.52719955444336,25.380879592895507,-17.48259925842285,1.6888760149277363e+18,3.9467365234375,-293.1538024902344,120.23587799072266,-150.60899658203124,1.6888760149314263e+18,3.9504263916015625,0.7622025609016418,-0.4129486680030823,0.04115015454590315,0.49679797887802124,-0.6250867545604706,0.6293613910675049,-1.776736557483673
4.0,1.6888760149833393e+18,4.002339518229166,-13.034299532572428,-0.24317121505737313,-1.824482520421346,1.6888760149746906e+18,3.9936904296875,-4.349353830019633,-7.279365221659343,4.8983073234558105,1.6888760149833393e+18,4.002339518229166,5.6106977462768555,-5.995722611745198,5.358773708343506,1.6888760149790157e+18,3.998015787760417,0.21690806994835535,1.5658003290494282,-2.5601871013641357,1.6888760149833393e+18,4.002339518229166,0.2956587723456323,1.6086118618647258,-2.5713863372802734,,,,,,,,,,,,1.6888760149777398e+18,3.996739794921875,-37.22951965332031,26.593559646606444,-16.740839385986327,1.6888760149777398e+18,3.996739794921875,-292.8561096191406,121.44855651855468,-149.86723937988282,1.6888760149746906e+18,3.9936904296875,0.7499632040659586,-0.4308323959509531,0.0082942910181979,0.5014229416847229,-0.6163978576660156,0.69211878379186,-1.734176476796468
4.05,1.6888760150352384e+18,4.054238444010417,-6.302450338999431,2.958643118540446,-2.2146432797114053,1.6888760150265848e+18,4.045584879557292,-1.596012716492017,-3.6751761436462402,1.9437696139017742,1.6888760150352384e+18,4.054238444010417,5.2838358879089355,-7.10999854405721,4.167876958847046,1.6888760150309164e+18,4.049916503906251,1.5048665205637615,3.708308299382528,-3.3828190167744956,1.6888760150352384e+18,4.054238444010417,1.4554882446924846,3.8187222480773926,-3.6588282585144043,1.6888760150355005e+18,4.05450048828125,0.0,0.0,1.6493608951568604,45.06399917602539,0.0001938671630341,0.0,22.899999618530273,-122.7501133,49.1928573,1.6888760150277402e+18,4.046740185546875,-34.760240173339845,31.532119369506837,-10.196759796142578,1.6888760150277402e+18,4.046740185546875,-290.3868347167969,126.38711853027344,-143.32315673828126,1.6888760150265848e+18,4.045584879557292,0.7316596110661825,-0.45004139343897503,-0.08291701475779213,0.5038313865661621,-0.5189046263694763,0.8378375569979349,-1.7015032768249512
4.1000000000000005,1.6888760150871375e+18,4.106137532552083,-9.40986188252767,-0.3640349706013997,-1.0260621309280396,1.6888760150784924e+18,4.097492431640625,-3.709672689437866,-7.683552900950114,2.2488544384638467,1.6888760150871375e+18,4.106137532552083,4.030527353286743,-8.368379592895508,3.1250584920247397,1.6888760150828183e+18,4.101818277994791,-0.7674503723780314,4.305989027023315,-4.968981424967448,1.6888760150871375e+18,4.106137532552083,-0.9722938686609268,4.319580872853597,-4.74555762608846,,,,,,,,,,,,1.6888760150777393e+18,4.096739306640625,-27.711079788208007,38.60323944091797,-2.7840400099754334,1.6888760150777393e+18,4.096739306640625,-283.3376770019531,133.45823974609374,-135.91044006347656,1.6888760150784924e+18,4.097492431640625,0.667922834555308,-0.4832561214764913,-0.2238428841034571,0.5177100499471029,-0.44421781102816266,1.0739437937736511,-1.5533792575200398
4.15,1.688876015130394e+18,4.149394165039062,-12.842264652252197,-6.062597274780273,-4.599210023880005,1.6888760151303898e+18,4.149389811197916,-8.452845335006714,-13.658032099405924,-1.0895318984985352,1.688876015130394e+18,4.149394165039062,3.416866898536682,-8.636620044708252,3.1559317111968994,1.688876015134716e+18,4.1537159830729165,-0.9184868012865385,-0.3760894139607746,-1.0663670698801677,1.688876015130394e+18,4.149394165039062,-1.1306352317333221,0.5201517939567566,-0.9524152874946594,,,,,,,,,,,,1.6888760151277366e+18,4.146736572265626,-22.081999588012696,42.153439331054685,-1.2614799797534944,1.6888760151277366e+18,4.146736572265626,-277.70859375,137.00844116210936,-134.38788146972655,1.6888760151303898e+18,4.149389811197916,0.5958903829256693,-0.5046655734380087,-0.29437711834907526,0.5508320530255636,-0.5745836098988851,1.1830286979675293,-1.25718355178833
4.2,1.688876015173641e+18,4.192640787760417,4.657366911570231,-1.3672192891438801,-5.144808451334636,1.6888760151822876e+18,4.201287353515625,8.030113379160563,-9.866405487060547,-1.1942178805669148,1.688876015173641e+18,4.192640787760417,2.5194363594055176,-8.815245628356934,3.4655378659566245,1.6888760151866222e+18,4.205621988932292,0.7932594120502472,-0.26455554366111755,-2.61465593179067,1.688876015173641e+18,4.192640787760417,0.5174537636339664,-2.0739384293556213,-2.1331923802693686,,,,,,,,,,,,1.6888760151777375e+18,4.196737548828125,-19.22719955444336,43.17579879760742,-4.011359930038452,1.6888760151777375e+18,4.196737548828125,-274.8537902832031,138.03079833984376,-137.13775634765625,1.6888760151822876e+18,4.201287353515625,0.5917840401331583,-0.5583861867586771,-0.2836751341819763,0.5069981018702189,-0.8271518349647522,1.2493913173675537,-1.10994283358256
4.25,1.6888760152255455e+18,4.244545491536458,-1.3408399025599163,1.555470625559489,-1.3242247104644775,1.6888760152341955e+18,4.253195475260417,-0.6717849572499593,-7.605786164601644,2.09990127881368,1.6888760152255455e+18,4.244545491536458,1.6534324487050374,-9.229459762573242,2.874666452407837,1.688876015238522e+18,4.257522379557291,0.7891360918680826,2.9900834957758584,-1.7303266922632854,1.6888760152255455e+18,4.244545491536458,0.9267335136731466,3.353701114654541,-2.015804409980774,,,,,,,,,,,,1.6888760152277407e+18,4.246740771484375,-14.15687961578369,45.73535919189453,-1.3200399816036223,1.6888760152277407e+18,4.246740771484375,-269.7834716796875,140.59035949707032,-134.44643859863282,1.6888760152341955e+18,4.253195475260417,0.5527674754460653,-0.5562687516212463,-0.35914596915245056,0.5054309169451395,-0.9362446864446005,1.3633641004562378,-0.8810751438140869
4.3,1.6888760152774474e+18,4.296447509765625,-2.4940672715504966,1.0512715975443523,-0.08719881375630693,1.6888760152860938e+18,4.305093912760417,-1.0199406445026398,-8.619345982869467,2.530808766682943,1.6888760152774474e+18,4.296447509765625,1.1043658057848613,-9.415988922119139,2.5126160780588784,1.688876015281768e+18,4.300767944335938,-0.1224784851074219,-0.04764747619628909,-1.4764612913131714,1.6888760152774474e+18,4.296447509765625,0.001272641122341193,0.30517808596293133,-1.469843586285909,,,,,,,,,,,,1.6888760152777334e+18,4.296733251953126,-10.709159851074219,46.42831954956055,0.9735599875450134,1.6888760152777334e+18,4.296733251953126,-266.33576049804685,141.2833221435547,-132.1528350830078,1.6888760152860938e+18,4.305093912760417,0.5254991054534912,-0.5621973276138306,-0.3973027964433034,0.49982144435246784,-1.226884086926778,1.4154629309972127,-0.5353552003701528
4.3500000000000005,1.6888760153293478e+18,4.348348063151042,1.5642295976479847,-3.0264816284179688,-0.2975620031356812,1.6888760153380014e+18,4.357001383463541,3.1459635893503823,-13.334203720092773,2.0053847829500833,1.6888760153293478e+18,4.348348063151042,0.456638902425766,-9.394269625345865,2.7818028926849365,1.6888760153250284e+18,4.344028401692708,-0.6963863770167033,-1.0512990951538086,-0.9254099329312643,1.6888760153293478e+18,4.348348063151042,-0.7127779324849447,-1.018821398417155,-0.8729773362477621,,,,,,,,,,,,1.688876015327739e+18,4.34673896484375,-8.683959674835204,47.135919189453126,-1.6226000130176543,1.688876015327739e+18,4.34673896484375,-264.3105529785156,141.9909210205078,-134.74899597167968,1.6888760153380014e+18,4.357001383463541,0.5157900253931681,-0.5954124728838602,-0.3848142425219218,0.4808757007122039,-1.5975603262583415,1.3938094774882,-0.2203608651955922
4.4,1.6888760153812498e+18,4.400249674479166,-0.583581805229187,-6.135570208231608,-4.440902789433797,1.6888760153812442e+18,4.400244140625,-0.6484549045562744,-15.285052299499512,-1.82273268699646,1.6888760153812498e+18,4.400249674479166,0.4981681803862254,-9.331044832865397,2.9813729921976724,1.688876015376926e+18,4.3959259440104175,-0.21665355066458383,1.4137966930866241,0.4473060791691144,1.6888760153812498e+18,4.400249674479166,-0.13052153587341306,1.5180510481198628,0.5496259977420171,,,,,,,,,,,,1.688876015377738e+18,4.39673798828125,-8.669319915771485,47.30915908813476,-4.226079988479614,1.688876015377738e+18,4.39673798828125,-264.29591674804686,142.16415710449218,-137.35247497558595,1.6888760153812442e+18,4.400244140625,0.5097213089466095,-0.5937714874744415,-0.3817733526229858,0.4917236417531967,-1.5539661645889282,1.3745590448379517,-0.24846250563859934
4.45,1.6888760154331474e+18,4.452147298177083,0.023436983426411945,-4.060320854187012,-2.442773222923279,1.688876015424497e+18,4.443496907552084,-0.7042875289916996,-14.270395596822103,0.25024937589963275,1.6888760154331474e+18,4.452147298177083,1.1140811642011006,-9.33231512705485,2.7964049180348716,1.6888760154288271e+18,4.447827067057292,0.4562654296557109,-0.4853833441932996,1.7427985270818074,1.6888760154331474e+18,4.452147298177083,0.44486262400945026,-0.485230619708697,2.0283780694007874,,,,,,,,,,,,1.6888760154277414e+18,4.446741552734375,-11.638799858093261,46.57959823608398,-4.84827995300293,1.6888760154277414e+18,4.446741552734375,-267.26539306640626,141.43460083007812,-137.97467651367188,1.688876015424497e+18,4.443496907552084,0.5244680444399515,-0.5763871471087137,-0.3779759705066681,0.4996206959088643,-1.300768534342448,1.3820501565933228,-0.4947667320569356
4.5,1.6888760154850468e+18,4.504046712239583,-5.042415142059326,-4.207991282145183,-2.7269540627797446,1.6888760154764022e+18,4.495402099609374,0.15772685160239538,-12.748161633809408,-0.07377869884173072,1.6888760154850468e+18,4.504046712239583,2.8987751801808677,-9.006778081258139,2.538013219833374,1.688876015480731e+18,4.499730794270833,0.598189781109492,0.21456642945607504,4.165846506754558,1.6888760154850468e+18,4.504046712239583,0.6712390879789988,0.08022696276505788,4.088062922159831,,,,,,,,,,,,1.688876015477742e+18,4.496742041015625,-18.88559970855713,43.60279846191406,-5.95359992980957,1.688876015477742e+18,4.496742041015625,-274.51219482421874,138.45779724121093,-139.0799987792969,1.6888760154764022e+18,4.495402099609374,0.586138387521108,-0.5275636116663615,-0.33228307962417597,0.5164628624916077,-0.6374421616395315,1.2930082082748413,-1.201782802740733
4.55,1.6888760155369567e+18,4.555956787109375,-7.107085069020589,-6.913127263387044,3.865682601928711,1.6888760155283034e+18,4.547303385416666,-3.6390844186147056,-15.447664260864258,4.764109810193379,1.6888760155369567e+18,4.555956787109375,4.392956256866455,-8.449599266052246,2.3090883096059165,1.6888760155326257e+18,4.551625488281251,0.7014769278466702,-0.9688831865787506,3.5767178535461426,1.6888760155369567e+18,4.555956787109375,0.5635740756988525,-0.899753600358963,3.5933639208475747,1.6888760155545196e+18,4.57351953125,0.0,0.0,1.6772465705871582,52.02199935913086,0.0022232753690332,0.0,22.899999618530273,-122.750113,49.1928531,1.68887601552774e+18,4.546739794921875,-26.1885196685791,39.15955810546875,-6.053639888763428,1.68887601552774e+18,4.546739794921875,-281.8151123046875,134.01455993652343,-139.18003845214844,1.6888760155283034e+18,4.547303385416666,0.6560597022374471,-0.47505760192871094,-0.27836635708808893,0.5154066483179728,-0.3124469220638275,1.1450581947962444,-1.6054465373357136
4.6000000000000005,1.6888760155801992e+18,4.599199096679687,-6.427398443222046,-5.65509295463562,4.408991575241089,1.688876015580201e+18,4.599201171875,-0.49790652592976886,-13.165310223897299,7.14117972056071,1.6888760155801992e+18,4.599199096679687,5.171695232391357,-7.856984853744507,2.777444839477539,1.6888760155845302e+18,4.603530110677084,-0.021176661054293316,-2.839250842730204,2.445904493331909,1.6888760155801992e+18,4.599199096679687,-0.0794888287782669,-3.6398404836654663,2.1306979656219482,,,,,,,,,,,,1.6888760155777364e+18,4.596736376953125,-30.502439498901367,34.457679748535156,-8.210599899291992,1.6888760155777364e+18,4.596736376953125,-286.1290283203125,129.31267852783202,-141.33699645996094,1.688876015580201e+18,4.599201171875,0.7077736457188925,-0.44830600420633954,-0.2026069561640421,0.5058774352073669,-0.3131186763445536,0.9985050757726032,-1.7291260560353596
4.65,1.6888760156234524e+18,4.642452392578125,-6.1944169998168945,-0.284296194712321,-0.9395231405893961,1.6888760156320993e+18,4.6510991210937505,-2.415355066458384,-6.350950002670288,1.953141490618388,1.6888760156234524e+18,4.642452392578125,5.909800847371419,-7.211228529612224,3.0191775957743325,1.6888760156364288e+18,4.655428792317708,0.8089892069498698,-0.47367507219314575,3.4233907063802085,1.6888760156234524e+18,4.642452392578125,0.6179410914580027,-0.4845179269711177,3.427208582560221,,,,,,,,,,,,1.6888760156277396e+18,4.64673955078125,-33.24987907409668,30.0851993560791,-9.93323974609375,1.6888760156277396e+18,4.64673955078125,-288.87647705078126,124.94019622802735,-143.05964050292968,1.6888760156320993e+18,4.6510991210937505,0.7609567443529764,-0.4106745819250743,-0.13627944638331727,0.48272864023844403,-0.2958838641643524,0.8585225343704224,-1.8737719853719075
4.7,1.6888760156753539e+18,4.694353678385416,-12.719717343648275,5.200790246327718,-2.181854009628296,1.6888760156840082e+18,4.70300830078125,-5.463810920715332,-0.39242292443911236,0.7359923720359802,1.6888760156753539e+18,4.694353678385416,6.828119436899821,-6.31365966796875,3.1033822695414224,1.6888760156883305e+18,4.7073303222656255,0.5946264068285624,-2.2546017169952393,3.135876735051473,1.6888760156753539e+18,4.694353678385416,0.814486970504125,-1.8892025550206502,3.1216232776641846,,,,,,,,,,,,1.688876015677738e+18,4.696738037109375,-36.907439422607425,25.073439407348634,-9.347639846801759,1.688876015677738e+18,4.696738037109375,-292.53403930664064,119.92843933105469,-142.47403869628906,1.6888760156840082e+18,4.70300830078125,0.809884230295817,-0.3629192312558492,-0.07541941727201143,0.45360586047172546,-0.2790701786677043,0.7168775796890259,-2.0154791673024497
4.75,1.6888760157272584e+18,4.746258382161458,-7.816653887430827,5.745419025421143,-1.8752703666687012,1.6888760157359014e+18,4.754901529947916,0.4504488706588747,0.22512472669283548,2.8532416025797525,1.6888760157272584e+18,4.746258382161458,7.181090513865153,-5.375934918721517,3.9585140546162925,1.688876015731585e+18,4.750585205078125,-0.11659890413284295,-2.2366830110549927,1.6885842680931091,1.6888760157272584e+18,4.746258382161458,-0.03502294172843297,-2.328211029370626,1.9253454208374023,,,,,,,,,,,,1.6888760157277384e+18,4.7467384765625,-38.437319946289065,20.44475975036621,-12.822199630737305,1.6888760157277384e+18,4.7467384765625,-294.063916015625,115.29975738525391,-145.94859924316407,1.6888760157359014e+18,4.754901529947916,0.8399937748908997,-0.33963242173194885,0.0080324091638128,0.4226992229620616,-0.37267308433850604,0.5992825826009115,-2.092998663584391
4.800000000000001,1.6888760157791598e+18,4.798159749348958,-3.4564107259114585,3.6170972188313804,-0.07695960998535158,1.6888760157877993e+18,4.806799397786459,4.459224462509155,-2.5439693133036294,4.270789623260498,1.6888760157791598e+18,4.798159749348958,6.92374054590861,-5.3650617599487305,4.4128462473551435,1.6888760157748326e+18,4.79383251953125,0.268118937810262,-0.5067636451373497,-0.9619600350658098,1.6888760157791598e+18,4.798159749348958,0.3298672263820966,-0.40286563088496524,-1.1804461777210236,,,,,,,,,,,,1.6888760157777395e+18,4.796739599609375,-37.649199676513675,19.927479934692382,-15.364679718017578,1.6888760157777395e+18,4.796739599609375,-293.2757934570312,114.78247680664063,-148.49108276367187,1.6888760157877993e+18,4.806799397786459,0.8404220143953959,-0.3594081203142802,0.025862955177823665,0.40455243984858197,-0.42432183027267456,0.6227674682935079,-2.105802853902181
4.8500000000000005,1.6888760158310605e+18,4.850060465494792,9.698207219441732,-8.292420864105225,0.5766657988230387,1.688876015831056e+18,4.8500556640625,17.352749347686768,-12.448360919952393,4.703691005706787,1.6888760158310605e+18,4.850060465494792,6.235927740732829,-6.040195147196452,4.5622124671936035,1.6888760158267372e+18,4.8457369791666665,0.3049744764963786,-1.3505212465922039,-1.1706723769505818,1.6888760158310605e+18,4.850060465494792,0.21039217710494995,-1.504153847694397,-0.7340055306752521,,,,,,,,,,,,1.688876015827739e+18,4.8467388671875,-35.70695877075195,23.19219970703125,-16.27723922729492,1.688876015827739e+18,4.8467388671875,-291.33355712890625,118.04719848632813,-149.40363464355468,1.688876015831056e+18,4.8500556640625,0.8309765160083771,-0.40193048119544983,0.02515160199254745,0.3836964964866638,-0.4783154278993606,0.7059268653392792,-2.0972484350204468
4.9,1.688876015882963e+18,4.901963053385416,5.780494848887126,-9.467276732126871,1.2961986859639485,1.6888760158743058e+18,4.893305745442708,13.222139676411947,-19.68954038619995,6.737789630889893,1.688876015882963e+18,4.901963053385416,5.940079053243001,-5.614890734354655,5.417555650075276,1.6888760158786388e+18,4.897638753255208,-0.18066339194774628,-2.8690813382466636,1.4458671311537425,1.688876015882963e+18,4.901963053385416,-0.16081027438243234,-2.8087074756622314,1.2417872349421184,,,,,,,,,,,,1.6888760158777357e+18,4.896735791015625,-34.970079040527345,21.26215934753418,-20.600919342041017,1.6888760158777357e+18,4.896735791015625,-290.5966735839844,116.11715698242188,-153.7273193359375,1.6888760158743058e+18,4.893305745442708,0.8410142660140991,-0.39526357253392536,0.08745891973376267,0.3580026427904765,-0.5695468187332153,0.6469914515813192,-2.1413936614990234
4.95,1.68887601593486e+18,4.9538601074218755,-9.787946224212646,-3.1472752888997397,0.7497091293334961,1.6888760159262077e+18,4.945207763671875,-1.714258035024007,-7.906683683395386,8.29910675684611,1.68887601593486e+18,4.9538601074218755,5.536827564239502,-5.715348561604817,5.734134833017985,1.6888760159305393e+18,4.949539143880209,-0.25788693130016327,0.5049819350242615,-1.4169528782367706,1.68887601593486e+18,4.9538601074218755,-0.18560123443603516,0.8587238192558289,-1.5450817942619324,,,,,,,,,,,,1.6888760159277338e+18,4.946733642578126,-33.942839813232425,20.84491958618164,-22.994559860229494,1.6888760159277338e+18,4.946733642578126,-289.56943969726564,115.69991760253906,-156.12095336914064,1.6888760159262077e+18,4.945207763671875,0.8362139463424683,-0.40907623370488483,0.12250922620296474,0.34383652607599896,-0.6536161700884501,0.643454929192861,-2.136258284250895
5.0,1.6888760159867617e+18,5.005761555989583,-5.964470227559407,1.0203142166137695,-3.214334805806478,1.688876015978115e+18,4.997115315755209,-2.3262224992116294,-5.998208204905192,0.9417751431465149,1.6888760159867617e+18,5.005761555989583,5.359415054321289,-6.580045223236084,4.896581331888835,1.6888760159824387e+18,5.001438720703125,1.2627602616945903,2.530407428741455,-2.5619179010391235,1.6888760159867617e+18,5.005761555989583,1.2972232500712078,2.662761608759562,-2.750929832458496,,,,,,,,,,,,1.6888760159777403e+18,4.996740283203126,-34.52111892700195,23.81439971923828,-20.03239974975586,1.6888760159777403e+18,4.996740283203126,-290.1477111816406,118.66939849853516,-153.15879821777344,1.688876015978115e+18,4.997115315755209,0.8257010579109192,-0.43774859110514325,0.06352390721440314,0.3491046031316121,-0.5934063990910848,0.7464317878087362,-2.103869597117106
5.050000000000001,1.6888760160386665e+18,5.057666585286459,-6.892757256825765,-0.24342870712280273,0.48502516746520996,1.6888760160300168e+18,5.049017008463541,-1.0466605027516682,-7.968697706858317,4.3343987464904785,1.6888760160386665e+18,5.057666585286459,4.5780307451883955,-7.86027177174886,3.6293261845906577,1.688876016034345e+18,5.05334521484375,0.3130175322294235,4.329660097757976,-4.778798739115397,1.6888760160386665e+18,5.057666585286459,0.16640988488992053,4.403269449869792,-4.867934226989746,,,,,,,,,,,,1.6888760160277366e+18,5.046736474609375,-32.90827941894531,30.40239906311035,-13.778679466247558,1.6888760160277366e+18,5.046736474609375,-288.5348754882813,125.2573974609375,-146.905078125,1.6888760160300168e+18,5.049017008463541,0.7917875250180563,-0.4866215984026591,-0.052798910687367064,0.36246753732363385,-0.4804207781950633,0.9454084436098734,-2.033719460169474
5.1000000000000005,1.6888760160819174e+18,5.100917358398437,-11.246642112731934,-0.9606177806854248,-1.3682990074157715,1.6888760160819151e+18,5.100915120442708,-7.545167922973633,-9.895517826080322,1.557528128226598,1.6888760160819174e+18,5.100917358398437,3.6311153173446655,-8.585655212402344,3.052140712738037,1.6888760160862385e+18,5.1052386067708335,-0.9746354818344116,3.640451431274414,-3.026582717895508,1.6888760160819174e+18,5.100917358398437,-1.0927615761756897,4.288273930549622,-3.3714417219161987,1.68887601606487e+18,5.083869873046875,0.0,0.0,1.6876906156539917,54.040000915527344,0.0041353246197104,0.0,22.899999618530273,-122.7501097,49.1928493,1.688876016077741e+18,5.096741015625,-28.135639190673828,37.327118682861325,-7.7274798393249515,1.688876016077741e+18,5.096741015625,-283.7622375488281,132.18211669921874,-140.85387573242187,1.6888760160819151e+18,5.100915120442708,0.7179379860560099,-0.53355473279953,-0.17235123117764786,0.4111444155375163,-0.48056475321451825,1.1402850945790608,-1.7886824210484822
5.15,1.6888760161251638e+18,5.144163899739583,-7.675843318303426,-2.4094263712565103,-4.950989564259847,1.6888760161338145e+18,5.152814615885417,-1.8546367088953648,-10.44028377532959,-1.817548155784607,1.6888760161251638e+18,5.144163899739583,3.0408763885498047,-8.788592338562012,3.1110010147094727,1.6888760161381458e+18,5.157145589192709,0.1125519157697757,-1.9809850851694744,-1.6837482055028279,1.6888760161251638e+18,5.144163899739583,-0.19537506927736104,-1.0348057746887207,-1.3826934496561687,,,,,,,,,,,,1.6888760161277363e+18,5.146736474609375,-25.73955955505371,40.067239379882814,-6.668519783020019,1.6888760161277363e+18,5.146736474609375,-281.366162109375,134.9222381591797,-139.79491577148437,1.6888760161338145e+18,5.152814615885417,0.6880051692326864,-0.5666360457738241,-0.1917750040690104,0.4102628827095032,-0.6189091205596924,1.215064247449239,-1.62782617410024
5.2,1.68887601617707e+18,5.196070149739583,5.4312411944071455,1.211642583211263,-2.023351788520813,1.688876016185717e+18,5.204717041015624,6.353941202163696,-7.70668363571167,1.613161285718282,1.68887601617707e+18,5.196070149739583,1.7659008900324504,-9.119131406148275,3.1365052858988443,1.688876016181396e+18,5.200396118164063,0.47135889530181885,0.9990700632333755,-2.9628491401672363,1.68887601617707e+18,5.196070149739583,0.4637485345204671,0.4017965892950694,-2.8310040632883706,,,,,,,,,,,,1.6888760161777382e+18,5.196738281250001,-20.986439514160157,43.20263900756836,-8.830359649658202,1.6888760161777382e+18,5.196738281250001,-276.6130432128906,138.05763549804686,-141.95675659179688,1.688876016185717e+18,5.204717041015624,0.6590912342071533,-0.6171807448069254,-0.2052511771519979,0.3768492639064789,-0.9121320645014445,1.3194501399993896,-1.3736919164657593
5.25,1.6888760162289715e+18,5.247971598307291,-1.824155569076538,0.8589369455973307,-1.156514565149943,1.688876016237618e+18,5.256617919921875,-1.259621684749921,-8.59761110941569,1.4675979018211365,1.6888760162289715e+18,5.247971598307291,1.1528991063435872,-9.332128842671713,2.79210098584493,1.688876016224644e+18,5.243644205729167,0.18794287865360573,3.251788377761841,-1.8608482281366985,1.6888760162289715e+18,5.247971598307291,0.15332717945178345,3.1290045579274497,-1.8576921224594116,,,,,,,,,,,,1.688876016227733e+18,5.2467330078125,-16.96287956237793,46.67719955444336,-6.770999908447266,1.688876016227733e+18,5.2467330078125,-272.5894775390625,141.53219604492188,-139.89739685058595,1.688876016237618e+18,5.256617919921875,0.6138650178909302,-0.6215914885203043,-0.2728848954041799,0.40237317482630414,-1.1379794677098591,1.3858963251113892,-1.0032276511192322
5.300000000000001,1.6888760162808707e+18,5.299870524088542,-2.0478105942408242,-0.40358130137125653,-2.088043451309204,1.6888760162808673e+18,5.2998671875,-2.6129623651504517,-9.282058238983154,0.4914259593933821,1.6888760162808707e+18,5.299870524088542,0.4339815278848012,-9.404406865437826,2.746959368387858,1.6888760162765489e+18,5.295548990885417,-0.28242336461941403,-0.3222823490699133,-1.5661057631174724,1.6888760162808707e+18,5.299870524088542,-0.3540982135261099,-0.685594399770101,-1.4930564562479656,,,,,,,,,,,,1.68887601627774e+18,5.296740185546875,-13.073519706726074,48.86831893920898,-6.817359924316406,1.68887601627774e+18,5.296740185546875,-268.7001159667969,143.72331848144532,-139.94375610351562,1.6888760162808673e+18,5.2998671875,0.5870303511619568,-0.6398396193981171,-0.29425470530986786,0.3991534560918808,-1.521276831626892,1.4040502905845642,-0.5914642810821533
5.3500000000000005,1.6888760163327724e+18,5.3517724609375,5.195990324020386,-6.897919336954753,-3.603881359100342,1.688876016324124e+18,5.343124186197916,6.462615251541138,-15.528223037719727,0.4247260093688965,1.6888760163327724e+18,5.3517724609375,-0.04092290997505186,-9.323431650797525,3.0482405026753745,1.6888760163284498e+18,5.347449788411459,-0.6382014552752177,0.45977793137232464,-0.3271692494551341,1.6888760163327724e+18,5.3517724609375,-0.5902485450108846,0.8721119165420532,-0.1431969851255417,,,,,,,,,,,,1.6888760163277376e+18,5.34673759765625,-10.423679733276368,49.85163879394531,-10.545679664611816,1.6888760163277376e+18,5.34673759765625,-266.0502685546875,144.70663757324218,-143.6720764160156,1.688876016324124e+18,5.343124186197916,0.5781593521436056,-0.666496733824412,-0.2737578749656677,0.3827605942885081,-1.7662043968836467,1.371999462445577,-0.40462536613146466
5.4,1.6888760163846766e+18,5.403676513671876,-4.064900159835815,-7.226300239562988,-5.720293045043945,1.688876016376025e+18,5.395025309244791,-4.641876618067424,-17.26461410522461,-3.3128628730773926,1.6888760163846766e+18,5.403676513671876,0.5804819663365682,-9.307114601135256,3.0410220623016357,1.6888760163803517e+18,5.399351643880208,0.24180083069950342,-0.1613193253676096,1.4688763618469238,1.6888760163846766e+18,5.403676513671876,0.3154609973231951,-0.5056437253952026,1.5956818262736003,,,,,,,,,,,,1.6888760163777393e+18,5.396739306640624,-13.895799827575683,49.917517852783206,-13.232119941711426,1.6888760163777393e+18,5.396739306640624,-269.52239379882815,144.77251586914062,-146.3585174560547,1.688876016376025e+18,5.395025309244791,0.5848059256871542,-0.648462196191152,-0.2727472881476084,0.40365949273109436,-1.5201615889867146,1.363568385442098,-0.6180978417396545
5.45,1.6888760164365765e+18,5.455576497395833,0.1422048012415568,-2.0943689346313477,-0.5093715985616049,1.6888760164279265e+18,5.4469265950520835,3.05583385626475,-11.55294672648112,2.0107686519622803,1.6888760164365765e+18,5.455576497395833,1.8583247264226277,-9.226680755615234,2.704479694366455,1.688876016432248e+18,5.451247965494791,0.8417214155197144,0.17715094486872363,3.645949204762777,1.6888760164365765e+18,5.455576497395833,0.8659523924191793,0.3758857448895772,3.7802377541859946,,,,,,,,,,,,1.6888760164277379e+18,5.446737890625,-17.985239601135255,48.692639923095705,-15.303679847717286,1.6888760164277379e+18,5.446737890625,-273.61183471679686,143.54763793945312,-148.43008117675782,1.6888760164279265e+18,5.4469265950520835,0.6408165097236633,-0.6152992049853007,-0.23896726469198856,0.3910035192966461,-0.9612594048182169,1.3464895884195964,-1.250604768594106
5.5,1.688876016488478e+18,5.507478190104166,-7.864424387613933,-5.355568885803223,1.3189035256703694,1.688876016479819e+18,5.498819091796875,-4.267001072565715,-13.751751263936361,2.6368905703226724,1.688876016488478e+18,5.507478190104166,3.571431557337443,-8.862191836039225,2.186275005340576,1.6888760164841544e+18,5.503154296875,1.1699087619781494,-0.25447626908620197,3.323972304662069,1.688876016488478e+18,5.507478190104166,1.1465431849161785,-0.34289903193712234,3.273576021194458,,,,,,,,,,,,1.688876016477741e+18,5.496741015625,-25.722479248046874,45.65971984863281,-14.710759925842286,1.688876016477741e+18,5.496741015625,-281.349072265625,140.51471862792968,-147.8371551513672,1.688876016479819e+18,5.498819091796875,0.7092905441919962,-0.5436288118362427,-0.21591400106747938,0.3925850788752238,-0.3747439086437225,1.2250052293141682,-1.862675666809082
5.550000000000001,1.6888760165317294e+18,5.550729370117187,-5.9387366771698,-7.944790363311768,9.529455184936523,1.688876016531726e+18,5.550726155598959,-1.8867406050364177,-15.761123657226562,11.286944707234701,1.6888760165317294e+18,5.550729370117187,4.706961393356323,-8.32322072982788,2.1752283573150635,1.6888760165360558e+18,5.5550556640625,0.05268711845080056,-1.8389080166816711,3.239774783452352,1.6888760165317294e+18,5.550729370117187,-0.10842858627438547,-1.5135713517665863,3.436498761177063,,,,,,,,,,,,1.6888760165277373e+18,5.54673740234375,-30.01199951171875,41.61419906616211,-14.591199684143067,1.6888760165277373e+18,5.54673740234375,-285.6385986328125,136.46919860839844,-147.71759643554688,1.688876016531726e+18,5.550726155598959,0.768621583779653,-0.4894222021102905,-0.16700520118077591,0.37546337644259137,-0.23495331903298697,1.0727601448694866,-2.092622995376587
5.6000000000000005,1.6888760165749842e+18,5.593984130859375,-5.248755931854248,-2.4518097241719565,1.8596142927805583,1.6888760165836275e+18,5.6026272786458335,1.5832509994506836,-8.941978136698404,2.784248580535253,1.6888760165749842e+18,5.593984130859375,5.433132966359456,-7.694364070892334,2.717548926671346,1.688876016587957e+18,5.606956705729167,0.46176322797934216,-1.3020592331886294,3.1833206017812095,1.6888760165749842e+18,5.593984130859375,0.2928589830795923,-2.173814872900645,2.9866729577382407,1.6888760165925476e+18,5.611547607421875,0.0,0.0,1.207957148551941,56.81399917602539,0.0071129263378679,0.0,24.732552564505845,-122.7501021,49.1928392,1.688876016577734e+18,5.596733984375001,-32.51055908203125,37.100199127197264,-17.872999954223634,1.688876016577734e+18,5.596733984375001,-288.137158203125,131.9552001953125,-150.99939575195313,1.6888760165836275e+18,5.6026272786458335,0.8169723153114319,-0.4509540597597758,-0.0893576567371686,0.34713104367256165,-0.2836478551228841,0.9262496829032898,-2.195058743158976
5.65,1.6888760166268795e+18,5.64587939453125,-9.951797803243002,2.8124147256215415,-3.4363892873128257,1.6888760166355254e+18,5.654525472005209,-4.510071913401286,-2.766102929910024,-0.9830513000488281,1.6888760166268795e+18,5.64587939453125,6.498685995737712,-6.8612775802612305,2.6127521991729736,1.688876016631203e+18,5.650203125,1.2146291732788086,-0.8549059219658375,2.8880945444107056,1.6888760166268795e+18,5.64587939453125,1.1320350964864094,-0.6810129483540853,3.007187843322754,,,,,,,,,,,,1.688876016627738e+18,5.6467380859375,-35.2482406616211,32.50079879760742,-16.240639686584473,1.688876016627738e+18,5.6467380859375,-290.8748291015625,127.35579681396484,-149.36703796386718,1.6888760166355254e+18,5.654525472005209,0.8639953335126241,-0.38895150025685626,-0.054451284309228236,0.31400413314501446,-0.21503907442092893,0.7848879893620809,-2.3548012574513755
5.7,1.6888760166787832e+18,5.697783203125,-10.823820432027182,7.77496337890625,-4.106374502182007,1.688876016687431e+18,5.706430908203124,-3.020340397953987,2.0372890631357827,-0.14955137173334757,1.6888760166787832e+18,5.697783203125,7.061236540476481,-6.037383079528809,3.127203861872355,1.6888760166744604e+18,5.693460205078125,0.15261450409889224,-2.517833868662516,2.5335126717885337,1.6888760166787832e+18,5.697783203125,0.04515311432381475,-2.508314530054728,2.454151153564453,,,,,,,,,,,,1.6888760166777357e+18,5.6967357421875,-37.541839599609375,28.616320037841795,-16.801839447021486,1.6888760166777357e+18,5.6967357421875,-293.1684265136719,123.47131958007813,-149.92824096679686,1.688876016687431e+18,5.706430908203124,0.8954074382781982,-0.34835771719614667,0.0158511325716972,0.2757169008255005,-0.28350500265757245,0.6631242831548055,-2.4464593728383384
5.75,1.6888760167306836e+18,5.7496835937499995,-4.320209980010986,6.56679121653239,0.613573948542277,1.6888760167306788e+18,5.749678588867187,2.778067111968994,1.2290135324001312,4.980361223220825,1.6888760167306836e+18,5.7496835937499995,7.054937362670898,-5.581952889760335,3.9099499384562173,1.688876016726357e+18,5.74535693359375,0.0027488892277081622,-1.2820534308751423,0.12721270571152365,1.6888760167306836e+18,5.7496835937499995,0.06480262676874797,-1.0708976835012436,-0.1344921539227167,,,,,,,,,,,,1.68887601672774e+18,5.7467400878906245,-37.68579864501953,26.227559661865236,-19.393119430541994,1.68887601672774e+18,5.7467400878906245,-293.31240234375,121.08255615234376,-152.51951599121094,1.6888760167306788e+18,5.749678588867187,0.9028480052947998,-0.33920685946941376,0.06418759562075135,0.25621943175792694,-0.3635133355855942,0.6182924807071686,-2.4712822437286377
5.800000000000001,1.6888760167825828e+18,5.8015826822916665,1.6516272226969402,0.5994381904602051,-0.10286347071329753,1.688876016773937e+18,5.792936767578126,6.776872634887695,-4.311667005221049,3.809373696645101,1.6888760167825828e+18,5.8015826822916665,6.3971602121988935,-6.333446502685547,3.869258483250936,1.6888760167782623e+18,5.7972621256510415,0.7453065117200216,-0.28247426450252533,-2.8755463361740112,1.6888760167825828e+18,5.8015826822916665,0.7399614254633585,-0.36931896209716797,-3.0133473873138428,,,,,,,,,,,,1.688876016777738e+18,5.7967380859375,-35.38975982666015,29.260478973388672,-19.341879653930665,1.688876016777738e+18,5.7967380859375,-291.016357421875,124.1154769897461,-152.46827697753906,1.688876016773937e+18,5.792936767578126,0.894132117430369,-0.37412987152735394,0.060345118244488995,0.23752516508102414,-0.38152315219243366,0.6954020063082377,-2.4823712507883706
5.8500000000000005,1.6888760168344873e+18,5.853487386067709,8.435404777526855,-20.561930974324543,1.5551292101542156,1.6888760168258335e+18,5.844833577473959,13.515460014343262,-26.2644198735555,6.688737074534099,1.6888760168344873e+18,5.853487386067709,5.843494097391765,-6.615555763244629,4.261516014734904,1.6888760168301637e+18,5.849163655598958,-0.43101634209354717,-2.23479962348938,1.1359548171361287,1.6888760168344873e+18,5.853487386067709,-0.4410447031259537,-2.4212153057257333,1.5378532409667969,,,,,,,,,,,,1.6888760168277407e+18,5.8467408203125,-32.07379989624023,33.569519424438475,-19.673719787597655,1.6888760168277407e+18,5.8467408203125,-287.700390625,128.4245147705078,-152.8001220703125,1.6888760168258335e+18,5.844833577473959,0.8802051146825155,-0.4158371388912201,0.07524381577968593,0.21471858521302534,-0.45078163345654804,0.7756688594818115,-2.4766460259755454
5.9,1.6888760168863793e+18,5.905379069010416,-1.3337537447611492,-0.6447161038716634,2.0659379959106445,1.6888760168777306e+18,5.89673046875,9.868399500846865,-8.404789527257284,5.00618361433347,1.6888760168863793e+18,5.905379069010416,5.688422044118245,-6.3010573387146,4.9142171541849775,1.688876016882056e+18,5.901055745442709,0.05370523283878962,-1.0032952328523,-0.2964732755596439,1.6888760168863793e+18,5.905379069010416,-0.010944664478302002,-0.7658722897370657,-0.6603453159332275,,,,,,,,,,,,1.6888760168777364e+18,5.896736572265626,-31.65900001525879,30.865999221801758,-23.306879425048827,1.6888760168777364e+18,5.896736572265626,-287.285595703125,125.7209976196289,-156.43327941894532,1.6888760168777306e+18,5.89673046875,0.8897286057472229,-0.39485713839530945,0.14435552060604093,0.17755821843942002,-0.5509125590324402,0.7095111012458801,-2.538996775945028
5.95,1.6888760169382902e+18,5.957290201822917,-13.838850339253744,1.086988925933838,-2.012964407602946,1.6888760169296376e+18,5.948637613932291,-8.777870496114096,-7.0406811237335205,5.019942442576091,1.6888760169382902e+18,5.957290201822917,5.325117429097493,-6.7354536056518555,4.736088752746582,1.6888760169339676e+18,5.952967529296875,0.5200499345858892,1.3258321086565654,-1.0376564574738343,1.6888760169382902e+18,5.957290201822917,0.6983716773490111,1.491631105542183,-0.9954049165050188,,,,,,,,,,,,1.6888760169277332e+18,5.946733447265625,-29.831439208984374,32.55935935974121,-22.355279541015626,1.6888760169277332e+18,5.946733447265625,-285.4580383300781,127.41435852050782,-155.48167724609374,1.6888760169296376e+18,5.948637613932291,0.8782167434692383,-0.422724187374115,0.13989357650279996,0.1741126179695129,-0.5770899653434753,0.7667923370997111,-2.5119478702545166
6.0,1.6888760169815414e+18,6.000541259765625,0.30926012992858887,2.9969059228897095,-1.7247300148010254,1.688876016981536e+18,6.0005361328125,3.6867414712905884,-5.226722240447998,1.9122641285260518,1.6888760169815414e+18,6.000541259765625,5.029356479644775,-7.502099990844727,3.81385600566864,1.688876016985865e+18,6.004864746093751,0.9857328881820043,2.391282876332601,-3.908773978551229,1.6888760169815414e+18,6.000541259765625,1.3560445010662079,2.058768570423126,-3.685120940208435,,,,,,,,,,,,1.68887601697774e+18,5.996740087890625,-28.6553596496582,36.334039306640626,-16.62615966796875,1.68887601697774e+18,5.996740087890625,-284.2819580078125,131.18903503417968,-149.75255432128907,1.688876016981536e+18,6.0005361328125,0.8668422698974609,-0.4631558358669281,0.0743854492902755,0.165907472372055,-0.46831098198890686,0.8932159741719564,-2.5361479918162027
6.050000000000001,1.6888760170247939e+18,6.043794108072916,-6.842851877212524,-0.6914068857828776,0.3196566104888916,1.6888760170334392e+18,6.052439371744792,-5.872584978739421,-9.200602531433105,3.4945181210835776,1.6888760170247939e+18,6.043794108072916,3.9033990701039634,-8.39614232381185,3.2116435368855796,1.6888760170377654e+18,6.056765462239583,-0.9918924371401469,4.564181486765544,-3.9507200717926025,1.6888760170247939e+18,6.043794108072916,-0.7118107378482819,4.482376416524251,-4.5826601187388105,,,,,,,,,,,,1.6888760170277366e+18,6.046736572265625,-22.58219985961914,41.93383941650391,-12.41471996307373,1.6888760170277366e+18,6.046736572265625,-278.20879516601565,136.7888397216797,-145.54111938476564,1.6888760170334392e+18,6.052439371744792,0.8097435235977173,-0.5450937350591024,-0.017842888211210533,0.21230825781822196,-0.46971097588539124,1.1014930804570515,-2.3357325394948325
6.1000000000000005,1.688876017076694e+18,6.095694091796875,-10.654929796854654,-3.0232795079549155,-3.639910936355591,1.6888760170853414e+18,6.104341471354167,-5.583452155192693,-11.474382400512695,-1.3192428747812908,1.688876017076694e+18,6.095694091796875,3.0548566977183023,-8.791489283243815,3.092844327290853,1.6888760170810148e+18,6.1000146484375,-0.943252295255661,0.5722280144691468,-1.6301702857017517,1.688876017076694e+18,6.095694091796875,-0.9783516228199005,1.159778594970703,-1.8617136081059773,,,,,,,,,,,,1.688876017077738e+18,6.0967380371093745,-18.373199462890625,44.38847961425781,-10.945839881896973,1.688876017077738e+18,6.0967380371093745,-273.9997924804687,139.24347534179688,-144.07223510742188,1.6888760170853414e+18,6.104341471354167,0.7651532292366028,-0.5857489307721456,-0.0650850472350915,0.2588352958361308,-0.5906078616778055,1.1946346362431843,-2.0802954037984214
6.15,1.6888760171285921e+18,6.147591959635417,3.7860050996144614,0.5296789805094401,-5.034501711527507,1.6888760171372419e+18,6.15624169921875,5.8797634442647295,-8.351349830627441,-1.1531411409378052,1.6888760171285921e+18,6.147591959635417,1.950119415918986,-9.054117202758789,3.214054584503174,1.6888760171242708e+18,6.143270833333333,0.36697729925314587,-1.167058030764262,-2.312328577041626,1.6888760171285921e+18,6.147591959635417,0.4344269980986913,-0.8603018720944723,-2.3685789903004966,1.6888760171115507e+18,6.13055078125,0.0,0.0,1.207957148551941,53.119998931884766,0.0705481469631195,0.0,24.732552564505845,-122.750026,49.1927445,1.688876017127739e+18,6.14673876953125,-12.966159629821778,45.798797607421875,-11.624160003662109,1.688876017127739e+18,6.14673876953125,-268.59275512695314,140.65379943847657,-144.75055847167968,1.6888760171372419e+18,6.15624169921875,0.7359947562217712,-0.6339649558067322,-0.0561032245556513,0.23009334007898963,-0.8407999873161316,1.2839945157368977,-1.8889037768046062
6.2,1.6888760171804925e+18,6.1994923502604165,-0.3651911417643228,1.2480866114298503,-1.5491163730621338,1.688876017180497e+18,6.199496826171875,0.2548356205224991,-7.955237865447998,1.4964114129543304,1.6888760171804925e+18,6.1994923502604165,1.1828685998916626,-9.320480664571127,2.817603905995687,1.6888760171761738e+18,6.195173665364583,0.5963572065035502,1.71042267481486,-1.6360498666763306,1.6888760171804925e+18,6.1994923502604165,0.5441791216532389,1.6848681767781575,-1.5735379457473755,,,,,,,,,,,,1.6888760171777393e+18,6.196739208984375,-8.542439937591553,47.6751594543457,-9.723399925231934,1.6888760171777393e+18,6.196739208984375,-264.1690368652344,142.53015747070313,-142.84979553222655,1.688876017180497e+18,6.199496826171875,0.7124085128307343,-0.6566961407661438,-0.0909650698304176,0.22995936870574946,-0.960603803396225,1.3585515022277832,-1.720500648021698
6.25,1.6888760172323953e+18,6.251395263671875,-0.5531643231709799,-0.12632020314534506,-1.367098053296407,1.6888760172237486e+18,6.242748616536459,0.46560339132944745,-9.493324597676596,1.6051851511001587,1.6888760172323953e+18,6.251395263671875,0.5134136279424032,-9.42802874247233,2.653332312901815,1.6888760172280763e+18,6.247076497395834,0.0630718395113945,0.8062403003374735,-1.7788904905319214,1.6888760172323953e+18,6.251395263671875,0.029525151165823132,0.7920377055803934,-1.7579174439112346,,,,,,,,,,,,1.6888760172277394e+18,6.246739404296875,-5.219159889221191,48.238800048828125,-8.37895975112915,1.6888760172277394e+18,6.246739404296875,-260.84575805664065,143.093798828125,-141.50535888671874,1.6888760172237486e+18,6.242748616536459,0.6887770891189575,-0.6763091683387756,-0.1149242296814918,0.2341235131025314,-1.2239952484766643,1.3995184103647869,-1.4169353246688843
6.300000000000001,1.688876017284296e+18,6.303296223958334,-0.139944925904274,-3.4864273071289062,-1.7685840129852295,1.6888760172756488e+18,6.294648844401042,-0.9463613629341125,-11.483554522196451,1.2396815419197083,1.688876017284296e+18,6.303296223958334,-0.10239800562461217,-9.402519226074219,2.7908102671305337,1.6888760172799716e+18,6.298971842447917,-0.5731443216403326,-0.6553056836128235,-0.8942049145698547,1.688876017284296e+18,6.303296223958334,-0.617432047923406,-0.7323255936304728,-0.820290227731069,,,,,,,,,,,,1.6888760172777398e+18,6.296739794921875,-1.4810799717903138,48.68043899536133,-8.527799797058105,1.6888760172777398e+18,6.296739794921875,-257.1076721191406,143.53543701171876,-141.65420227050782,1.6888760172756488e+18,6.294648844401042,0.664085328578949,-0.7011643648147583,-0.11735858768224712,0.23120645185311628,-1.6317259867986043,1.400798241297404,-1.0099302530288696
6.3500000000000005,1.688876017336197e+18,6.355197184244791,-1.2294247547785442,-7.405705451965332,-4.720807949701945,1.6888760173275471e+18,6.346547200520834,-0.6667999426523844,-16.9222412109375,-1.5395819743474324,1.688876017336197e+18,6.355197184244791,-0.23604938387870786,-9.343263308207193,2.980121374130249,1.688876017331877e+18,6.350877115885417,-0.1822923719882965,0.22861631711324057,0.12064589311679201,1.688876017336197e+18,6.355197184244791,-0.11438451210657753,0.15271631876627603,0.24134267369906107,,,,,,,,,,,,1.688876017327738e+18,6.34673798828125,0.053680014610290525,48.61699905395508,-9.669719696044922,1.688876017327738e+18,6.34673798828125,-255.57291259765626,143.47199401855468,-142.79611206054688,1.6888760173275471e+18,6.346547200520834,0.655073086420695,-0.7119941910107931,-0.10274073978265123,0.23103502889474226,-1.7489627202351887,1.37195618947347,-0.9136907656987509
6.4,1.6888760173881024e+18,6.4071025390625,3.4268994132677713,-4.8064578374226885,-1.689614733060201,1.688876017379455e+18,6.398454833984374,3.3828529914220176,-15.245670000712076,0.8662017993628979,1.6888760173881024e+18,6.4071025390625,0.41052035863200825,-9.37999693552653,2.8149317105611167,1.6888760173837734e+18,6.4027734375,0.4499022612969081,-0.2789617975552876,2.260506788889567,1.6888760173881024e+18,6.4071025390625,0.4910847544670105,-0.08903361950069666,2.4963008165359497,,,,,,,,,,,,1.6888760173777382e+18,6.396738330078125,-1.6665199518203735,48.74875946044922,-9.257359886169434,1.6888760173777382e+18,6.396738330078125,-257.2931213378906,143.6037567138672,-142.38375549316407,1.688876017379455e+18,6.398454833984374,0.6780952612559,-0.6957656145095825,-0.0890081226825714,0.21872990330060318,-1.482564926147461,1.3823509613672893,-1.2183101971944172
6.45,1.6888760174313482e+18,6.450348266601562,-4.652623891830444,-2.6890220642089844,-2.7585689425468445,1.6888760174313503e+18,6.450350260416666,-2.4721846183141074,-11.932806968688965,-0.0033898353576660156,1.6888760174313482e+18,6.450348266601562,1.9280264377593994,-9.286863803863525,2.4832870960235596,1.6888760174356774e+18,6.454677490234375,0.8325584133466085,0.3168354233105977,3.705253998438517,1.6888760174313482e+18,6.450348266601562,0.8223773539066315,0.5250386670231819,3.9283217191696167,,,,,,,,,,,,1.688876017427738e+18,6.44673818359375,-10.030840015411377,48.0777587890625,-7.354159641265869,1.688876017427738e+18,6.44673818359375,-265.6574340820313,142.93275756835936,-140.48055725097657,1.6888760174313503e+18,6.450350260416666,0.7391270200411478,-0.6299033761024475,-0.08863232284784313,0.21977638204892472,-0.6794807414213816,1.324945370356242,-2.0189606746037803
6.5,1.6888760174746048e+18,6.493604573567708,-7.016849199930827,-4.865170160929362,1.8187346458435059,1.688876017483255e+18,6.5022549641927085,-2.9599215189615884,-14.032907803853353,5.856233994166057,1.6888760174746048e+18,6.493604573567708,3.168522516886393,-9.003039360046387,2.2308109601338706,1.6888760174875812e+18,6.5065810546875005,0.17598009606202444,-1.1757119695345561,3.545971075693766,1.6888760174746048e+18,6.493604573567708,0.534863413621982,-0.8007934093475342,3.3073770999908447,,,,,,,,,,,,1.688876017477731e+18,6.496731103515626,-20.120239639282225,45.54015884399414,-5.536359977722168,1.688876017477731e+18,6.496731103515626,-275.74683837890626,140.39515380859376,-138.66275634765626,1.688876017483255e+18,6.5022549641927085,0.7963118751843771,-0.5646840135256449,-0.0693016499280929,0.20376495023568467,-0.3328388035297394,1.189295729001363,-2.412830670674642
6.550000000000001,1.6888760175265062e+18,6.545506022135417,-3.664851983388265,-3.759588082631429,6.583838780721028,1.6888760175351498e+18,6.554149739583333,1.474178132911523,-11.055438995361328,8.298109531402588,1.6888760175265062e+18,6.545506022135417,4.604962189992269,-8.241023222605387,2.6290194988250732,1.6888760175308326e+18,6.549832641601563,-0.3701843544840812,-1.470123529434204,3.566460371017456,1.6888760175265062e+18,6.545506022135417,-0.39298998316129047,-1.5658512910207112,3.6381606260935464,,,,,,,,,,,,1.6888760175277379e+18,6.546737988281249,-28.17711944580078,41.1091194152832,-7.520079803466797,1.6888760175277379e+18,6.546737988281249,-283.8037109375,135.96412048339843,-140.6464813232422,1.6888760175351498e+18,6.554149739583333,0.8469894329706827,-0.4951186676820119,-0.012887522539434301,0.191580593585968,-0.3195224106311798,1.0050034125645957,-2.5198283990224204
6.6000000000000005,1.6888760175784077e+18,6.5974076334635425,-7.173214117685954,0.7002293268839518,-1.7564856211344402,1.6888760175870548e+18,6.606054850260417,-2.5720849434534707,-5.926224072774251,0.5254239588975906,1.6888760175784077e+18,6.5974076334635425,5.653303146362305,-7.476312001546224,2.8764187494913735,1.6888760175740838e+18,6.593083740234374,0.21324287230769792,-0.5431101123491923,2.763707081476847,1.6888760175784077e+18,6.5974076334635425,0.281812507348756,-0.49984049797058105,2.784425656000773,,,,,,,,,,,,1.688876017577732e+18,6.596732080078125,-33.864759826660155,36.35355834960937,-8.566839790344238,1.688876017577732e+18,6.596732080078125,-289.491357421875,131.20855712890625,-141.6932373046875,1.6888760175870548e+18,6.606054850260417,0.8815966447194418,-0.4356556832790375,0.015760889897743834,0.1798120389382044,-0.29053417841593426,0.8674646814664205,-2.6033353010813394
6.65,1.688876017630309e+18,6.649309000651042,-12.19946034749349,4.805705785751343,-4.310323476791382,1.6888760176303045e+18,6.649304565429688,-6.2138612270355225,-1.7712869048118591,-1.2987044453620913,1.688876017630309e+18,6.649309000651042,6.5451507568359375,-6.634428024291992,3.0396273930867515,1.6888760176259848e+18,6.644984781901042,0.44837509592374164,-1.6445001761118572,3.1975231965382895,1.688876017630309e+18,6.649309000651042,0.38525235404570896,-1.8030705451965332,3.2044972578684487,,,,,,,,,,,,1.6888760176277391e+18,6.646739160156249,-39.07415924072266,31.507718658447267,-9.179280090332032,1.6888760176277391e+18,6.646739160156249,-294.7007568359375,126.3627197265625,-142.30567932128906,1.6888760176303045e+18,6.649304565429688,0.9094223976135254,-0.38223879039287567,0.043492786586284554,0.15708818286657328,-0.2759946435689926,0.7502051293849945,-2.69028639793396
6.7,1.6888760176822075e+18,6.701207438151042,-7.391742706298828,6.473587830861409,-2.6266263326009116,1.688876017673557e+18,6.692557128906249,-1.3908281773328781,0.48035914450883865,0.40179483592510223,1.6888760176822075e+18,6.701207438151042,6.908522129058838,-5.805399576822917,3.8390820026397705,1.6888760176778867e+18,6.69688671875,-0.1205440809329351,-2.164041042327881,1.6240870555241902,1.6888760176822075e+18,6.701207438151042,-0.09605855743090308,-2.0866647958755493,1.34578704337279,,,,,,,,,,,,1.6888760176777385e+18,6.696738330078125,-41.870399475097656,26.547199249267578,-13.532239723205567,1.6888760176777385e+18,6.696738330078125,-297.4969909667969,121.402197265625,-146.65863647460938,1.688876017673557e+18,6.692557128906249,0.9258992473284403,-0.3380512197812398,0.09698806454737978,0.1364943037430445,-0.3466668923695882,0.6432676712671915,-2.7326294581095376
