seconds_elapsed_rounded,accelerometer_time,accelerometer_seconds_elapsed,accelerometer_z,accelerometer_y,accelerometer_x,accelerometeruncalibrated_time,accelerometeruncalibrated_seconds_elapsed,accelerometeruncalibrated_z,accelerometeruncalibrated_y,accelerometeruncalibrated_x,gravity_time,gravity_seconds_elapsed,gravity_z,gravity_y,gravity_x,gyroscope_time,gyroscope_seconds_elapsed,gyroscope_z,gyroscope_y,gyroscope_x,gyroscopeuncalibrated_time,gyroscopeuncalibrated_seconds_elapsed,gyroscopeuncalibrated_z,gyroscopeuncalibrated_y,gyroscopeuncalibrated_x,location_time,location_seconds_elapsed,location_bearingAccuracy,location_speedAccuracy,location_verticalAccuracy,location_horizontalAccuracy,location_speed,location_bearing,location_altitude,location_longitude,location_latitude,magnetometer_time,magnetometer_seconds_elapsed,magnetometer_z,magnetometer_y,magnetometer_x,magnetometeruncalibrated_time,magnetometeruncalibrated_seconds_elapsed,magnetometeruncalibrated_z,magnetometeruncalibrated_y,magnetometeruncalibrated_x,orientation_time,orientation_seconds_elapsed,orientation_qz,orientation_qy,orientation_qx,orientation_qw,orientation_roll,orientation_pitch,orientation_yaw
0.0,1.6887019873591012e+18,45.00710123697917,-0.698324720064799,5.854417165120442,2.9413119157155356,1.6887019873591012e+18,45.00710123697917,-1.1698908408482869,-3.2923245827356973,6.549354871114095,1.6887019873591012e+18,45.00710123697917,-0.4774121294418971,-9.129237174987791,3.545355478922526,1.68870198735045e+18,44.998449788411456,2.0209967295328775,0.7248934110005697,1.194903314113617,1.68870198735045e+18,44.998449788411456,2.0200295448303223,0.7294749319553375,1.197346806526184,,,,,,,,,,,,1.688701987347197e+18,44.99519677734375,10.321199798583985,48.043599700927736,11.189839744567871,1.688701987347197e+18,44.99519677734375,-244.21959533691407,143.50859375,-122.02195739746094,1.6887019873591012e+18,45.00710123697917,0.3323086400826772,-0.5532839298248291,-0.466930478811264,0.6042880018552145,-1.7023239930470784,1.200360933939616,0.320675104856491
0.05,1.6887019874023588e+18,45.050358886718755,-3.8338913917541504,8.343599796295166,1.1250662803649902,1.6887019874023588e+18,45.050358886718755,-3.746562123298645,-1.0067801177501678,4.2056849002838135,1.6887019874023588e+18,45.050358886718755,0.0814832914620637,-9.33287525177002,3.0179312229156494,1.688701987402362e+18,45.05036206054688,1.1433361172676086,0.6142250001430511,1.3451762199401855,1.688701987402362e+18,45.05036206054688,1.1423180103302002,0.6187555988629659,1.347619652748108,,,,,,,,,,,,1.6887019873971924e+18,45.04519248046875,5.799879932403565,47.97039947509766,16.08935966491699,1.6887019873971924e+18,45.04519248046875,-248.74091491699215,143.43539428710938,-117.1224380493164,1.6887019874023588e+18,45.050358886718755,0.3582173436880111,-0.522245854139328,-0.4723924547433853,0.6129704415798187,-1.5428217053413391,1.2638722658157349,0.1797340139746666
0.1,1.6887019874456177e+18,45.093617675781246,-5.383126894632976,9.049522717793783,0.3173665205637614,1.6887019874456177e+18,45.093617675781246,-4.740779797236125,-0.3581257810195287,3.142374356587728,1.6887019874456177e+18,45.093617675781246,0.6365010241667429,-9.390144030253092,2.7623204390207925,1.688701987454264e+18,45.102263834635416,0.4912883738676707,-1.0375545819600422,1.471014420191447,1.688701987454264e+18,45.102263834635416,0.4902702669302622,-1.0331258376439412,1.4734578728675842,,,,,,,,,,,,1.688701987447194e+18,45.0951939453125,0.5807199954986573,47.73127899169922,18.19751968383789,1.688701987447194e+18,45.0951939453125,-253.96007690429687,143.19627685546874,-115.01427764892578,1.6887019874456177e+18,45.093617675781246,0.3871116240819295,-0.507841944694519,-0.4578190644582112,0.6184239784876505,-1.3378935257593791,1.2850035429000852,-0.0494781732559203
0.15,1.688701987497524e+18,45.14552376302083,-1.6718467473983765,8.966122309366861,-0.5725131034851074,1.688701987497524e+18,45.14552376302083,-0.8584251403808594,-0.431106890241305,2.2470598220825195,1.688701987497524e+18,45.14552376302083,0.8075755635897318,-9.379724820454916,2.756885528564453,1.68870198750617e+18,45.15417032877605,-0.0307977919777234,-0.7139487663904825,-0.301461989680926,1.68870198750617e+18,45.15417032877605,-0.0318158995360135,-0.7094690899054209,-0.2990694443384806,,,,,,,,,,,,1.6887019874971927e+18,45.14519267578125,-2.274079966545105,47.50435943603516,18.885599517822264,1.6887019874971927e+18,45.14519267578125,-256.81487426757815,142.9693603515625,-114.3261978149414,1.688701987497524e+18,45.14552376302083,0.4076365530490875,-0.5138403574625651,-0.4411380191644032,0.6125209728876749,-1.2733354568481443,1.2846323649088542,-0.1638147234916686
0.2,1.6887019875494267e+18,45.197426595052086,8.2336266040802,2.96561861038208,-0.9691694577534994,1.6887019875494267e+18,45.197426595052086,8.122835159301758,-6.370491584142049,2.1186450322469077,1.6887019875494267e+18,45.197426595052086,-0.1166371504465739,-9.318605740865072,3.025127092997233,1.6887019875580805e+18,45.206080403645835,-1.2164363265037537,-6.803104400634766,0.0109955469767252,1.6887019875580805e+18,45.206080403645835,-1.2175053358078003,-6.798675537109375,0.0134390592575073,,,,,,,,,,,,1.6887019875471926e+18,45.19519248046875,-2.6278799057006834,47.87523880004883,17.07023983001709,1.6887019875471926e+18,45.19519248046875,-257.1686706542969,143.34024047851562,-116.14155883789064,1.6887019875494267e+18,45.197426595052086,0.4218263725439707,-0.5751545627911886,-0.414865364631017,0.5622800787289938,-1.5956662495930989,1.267248034477234,0.0046332130829493
0.25,1.6887019876013384e+18,45.24933837890625,20.9955628712972,-13.841134389241535,-0.6594115098317465,1.6887019876013384e+18,45.24933837890625,20.53959019978841,-22.931217193603516,3.095514933268229,1.6887019876013384e+18,45.24933837890625,-0.4618187646071116,-9.072579065958658,3.6922390460968018,1.6887019876013384e+18,45.249338378906245,-1.997987449169159,-3.448486924171448,0.9284388422966005,1.6887019876013384e+18,45.249338378906245,-1.9989802241325376,-3.444058299064636,0.930882215499878,,,,,,,,,,,,1.6887019875971948e+18,45.24519462890625,-10.560319805145264,47.965519714355466,10.90679988861084,1.6887019875971948e+18,45.24519462890625,-265.1011169433594,143.4305206298828,-122.30499725341797,1.6887019876013384e+18,45.24933837890625,0.4753886461257934,-0.6529813607533773,-0.3060921827952066,0.503214438756307,-1.6820106108983357,1.1931464672088623,-0.2152940432230631
0.3,1.688701987653245e+18,45.30124454752604,1.1497602065404255,-4.530353546142578,2.157721201578776,1.688701987653245e+18,45.30124454752604,-0.0177467664082845,-13.478371302286783,6.1054863929748535,1.688701987653245e+18,45.30124454752604,-1.1733530362447102,-8.930513064066568,3.885077635447184,1.6887019876445873e+18,45.292587239583334,0.0998764733473459,-0.1622865113119284,-1.5022194385528564,1.6887019876445873e+18,45.292587239583334,0.0989092687765757,-0.1578068550831327,-1.4998778104782104,,,,,,,,,,,,1.6887019876471926e+18,45.29519248046875,-9.759999847412107,48.89515914916992,7.322439861297608,1.6887019876471926e+18,45.29519248046875,-264.30079956054686,144.36015930175782,-125.88935699462893,1.688701987653245e+18,45.30124454752604,0.4589580297470093,-0.684624453385671,-0.2971478005250295,0.4818766315778096,-1.8575400511423747,1.1551203330357869,-0.088038221001625
0.35,1.6887019877051558e+18,45.35315592447916,-2.0732518831888833,-2.3693313598632817,5.999411265055339,1.6887019877051558e+18,45.35315592447916,-2.9001010258992515,-11.322836875915527,10.016953627268473,1.6887019877051558e+18,45.35315592447916,-0.8326952258745829,-8.936001141866049,3.9548544883728023,1.6887019876965015e+18,45.34450122070312,0.3810781116286914,4.7330857912699384,-0.6901759107907613,1.6887019876965015e+18,45.34450122070312,0.3800600046912829,4.737565358479817,-0.6878342628479004,,,,,,,,,,,,1.6887019876971935e+18,45.34519370117188,-6.373279857635498,49.27579879760742,8.091039943695069,1.6887019876971935e+18,45.34519370117188,-260.91408081054686,144.7407989501953,-125.12075805664062,1.6887019877051558e+18,45.35315592447916,0.4171247979005177,-0.6442332863807678,-0.3531710902849833,0.5336094895998637,-1.7740144729614258,1.157615860303243,0.0244171353988349
0.4,1.688701987757059e+18,45.40505940755208,-1.6160957018534343,7.1191205978393555,-1.069033145904541,1.688701987757059e+18,45.40505940755208,-2.088934143384298,-1.9328025182088215,2.7862425645192466,1.688701987757059e+18,45.40505940755208,-0.4786844650904338,-9.03441874186198,3.7925883134206138,1.6887019877484086e+18,45.39640869140626,0.6912449300289154,3.204395532608032,-0.9587020675341288,1.6887019877484086e+18,45.39640869140626,0.690226823091507,3.2089261213938394,-0.9562586347262064,,,,,,,,,,,,1.6887019877471926e+18,45.395192675781246,-2.942639970779419,49.37095947265625,11.097119903564453,1.6887019877471926e+18,45.395192675781246,-257.4834289550781,144.83595581054686,-122.11467895507812,1.688701987757059e+18,45.40505940755208,0.3744945923487345,-0.5913461049397787,-0.4168946246306101,0.5796027382214864,-1.6970651149749756,1.1848490635553997,0.1575006122390428
0.45,1.688701987808967e+18,45.45696687825521,-0.7078534960746764,-0.2508546511332194,2.4490986665089927,1.688701987808967e+18,45.45696687825521,-1.6079768339792888,-9.032905737559,6.810770670572917,1.688701987808967e+18,45.45696687825521,-0.9059693813323976,-8.764546394348145,4.29898460706075,1.688701987800315e+18,45.448314941406245,-1.6022995511690776,0.6530658453702927,-1.487049659093221,1.688701987800315e+18,45.448314941406245,-1.6032666961352031,0.6575455591082573,-1.484606186548869,,,,,,,,,,,,1.6887019877971963e+18,45.44519648437499,1.471319955587387,49.52711868286133,10.4041597366333,1.6887019877971963e+18,45.44519648437499,-253.06947631835936,144.99211730957032,-122.80763702392578,1.688701987808967e+18,45.45696687825521,0.3253356417020162,-0.5985274513562521,-0.4333149989446004,0.589777926603953,-1.7828073501586914,1.1214982271194458,0.3138775726159413
0.5,1.688701987852227e+18,45.50022705078125,-0.0093713402748107,0.8718521595001221,-0.4432244300842285,1.688701987852227e+18,45.50022705078125,-1.4838491678237915,-7.601100206375122,4.366602182388306,1.688701987852227e+18,45.50022705078125,-1.480323851108551,-8.455447673797607,4.74713921546936,1.6887019878522235e+18,45.50022338867188,-0.7313074866930643,-0.5436700830856959,-1.2302826046943665,1.6887019878522235e+18,45.50022338867188,-0.7323256134986877,-0.5392412940661112,-1.227839171886444,,,,,,,,,,,,1.6887019878471926e+18,45.495192578125,5.482679843902588,49.90287857055664,6.631919860839844,1.6887019878471926e+18,45.495192578125,-249.0581176757813,145.3678771972656,-126.57987823486329,1.688701987852227e+18,45.50022705078125,0.2931322157382965,-0.6223689019680023,-0.433773785829544,0.5818349421024323,-1.8815364837646484,1.0544633865356443,0.4143223315477371
0.55,1.688701987895475e+18,45.54347493489583,1.14228489001592,4.34551207224528,-3.196937640508016,1.688701987895475e+18,45.54347493489583,-0.8267202178637186,-3.924428621927897,1.7854444980621338,1.688701987895475e+18,45.54347493489583,-1.974851171175639,-8.252436002095541,4.919694741566976,1.6887019879041242e+18,45.55212426757813,-0.8916596372922262,-0.7822638551394144,-0.6904813448588053,1.6887019879041242e+18,45.55212426757813,-0.8925759593645731,-0.7777841687202454,-0.6880887945493063,,,,,,,,,,,,1.688701987897193e+18,45.545192919921874,7.639639854431152,49.719879913330075,4.609159994125366,1.688701987897193e+18,45.545192919921874,-246.90115356445312,145.18487854003905,-128.6026382446289,1.688701987895475e+18,45.54347493489583,0.2804904679457346,-0.6442923744519552,-0.4306523005167643,0.5662681659062704,-1.9615112940470376,1.0145035386085512,0.4657354752222697
0.6,1.6887019879473823e+18,45.59538232421875,0.6966458161671957,-0.2264250119527181,-2.8399479389190674,1.6887019879473823e+18,45.59538232421875,-1.7132610479990642,-8.125627040863037,2.5359931786855063,1.6887019879473823e+18,45.59538232421875,-2.41575288772583,-7.881697336832683,5.313253720601399,1.6887019879560369e+18,45.60403694661458,-1.477479418118795,-0.7629706859588623,-0.6209954222043356,1.6887019879560369e+18,45.60403694661458,-1.47844660282135,-0.7585419217745463,-0.6186028718948364,1.6887019879733394e+18,45.62133935546875,0.0,0.0,1.3761175870895386,6.169000148773193,1.2673256397247314,269.0614929199219,41.400001525878906,-122.7550343,49.1905964,1.688701987947195e+18,45.5951947265625,8.569279861450195,49.614958953857425,2.4473199367523195,1.688701987947195e+18,45.5951947265625,-245.9715148925781,145.0799591064453,-130.7644805908203,1.6887019879473823e+18,45.59538232421875,0.2618406911691029,-0.671983520189921,-0.4138836165269215,0.5553628007570902,-2.0053518613179526,0.9471291303634644,0.4717391232649485
0.65,1.6887019879992886e+18,45.64728849283855,1.2439301411310832,-3.2726387977600098,-3.4630744457244873,1.6887019879992886e+18,45.64728849283855,-1.8000008662541709,-10.675578117370604,2.2837498188018803,1.6887019879992886e+18,45.64728849283855,-3.049777030944824,-7.385434627532959,5.684136867523193,1.6887019880079442e+18,45.65594409179688,-1.2023355563481648,-1.3311771949132285,-1.3796900510787964,1.6887019880079442e+18,45.65594409179688,-1.2033536036809285,-1.326697548230489,-1.377246618270874,,,,,,,,,,,,1.6887019879971924e+18,45.6451923828125,11.206919860839845,49.13671951293945,-1.202919977903366,1.6887019879971924e+18,45.6451923828125,-243.33387145996093,144.60172119140626,-134.4147186279297,1.6887019879992886e+18,45.64728849283855,0.2374555816253026,-0.7056376934051514,-0.3964109023412068,0.536953866481781,-2.069141467412313,0.8647290666898092,0.487913856903712
0.7,1.688701988051201e+18,45.699200927734374,3.452561696370443,-6.5017649332682295,-2.5815765062967935,1.688701988051201e+18,45.699200927734374,-0.7816554109255472,-13.199407895406088,3.2534411748250327,1.688701988051201e+18,45.699200927734374,-4.240063110987346,-6.68013874689738,5.772330284118652,1.6887019880511946e+18,45.69919470214843,-1.6003905534744265,-2.497522532939911,-1.9778289198875427,1.6887019880511946e+18,45.69919470214843,-1.6013832688331604,-2.493093729019165,-1.9754618406295776,,,,,,,,,,,,1.688701988047194e+18,45.69519404296875,16.0478796005249,47.62635879516601,-4.028439903259278,1.688701988047194e+18,45.69519404296875,-238.4929168701172,143.091357421875,-137.24024047851563,1.688701988051201e+18,45.699200927734374,0.2067918727795282,-0.753815491994222,-0.3835997879505157,0.4908554752667745,-2.2079137961069746,0.7596509456634521,0.5429753263791403
0.75,1.6887019881031035e+18,45.75110367838542,17.594354311625164,-11.92583147684733,0.9218684832255044,1.6887019881031035e+18,45.75110367838542,11.798410097757976,-17.021743138631184,6.976473808288574,1.6887019881031035e+18,45.75110367838542,-5.801790078481038,-5.078407446543376,5.991917769114177,1.6887019880944507e+18,45.742450683593745,-0.4794783294200897,2.1253530581792197,-5.455179214477539,1.6887019880944507e+18,45.742450683593745,-0.4804455041885376,2.12983246644338,-5.452786763509114,,,,,,,,,,,,1.68870198809719e+18,45.74518994140625,27.486599349975585,42.13391876220703,-5.707159805297851,1.68870198809719e+18,45.74518994140625,-227.05419311523437,137.59891662597656,-138.91896057128906,1.6887019881031035e+18,45.75110367838542,0.1037038130064804,-0.7920894026756287,-0.409448226292928,0.4353573421637217,-2.3477213382720947,0.552461047967275,0.7198348840077718
0.8,1.688701988155014e+18,45.80301416015626,-3.3051980336507163,-6.570711612701416,-7.63858159383138,1.688701988155014e+18,45.80301416015626,-6.914460023244222,-11.762716929117838,-0.0707876682281494,1.688701988155014e+18,45.80301416015626,-3.615108013153076,-5.174500465393066,7.505106449127197,1.6887019881463631e+18,45.79436303710937,1.121141384045283,5.334584514300029,-0.0840448724726836,1.6887019881463631e+18,45.79436303710937,1.1201741422216098,5.339013199011486,-0.0816014197965462,,,,,,,,,,,,1.6887019881471944e+18,45.795194287109375,26.991279220581056,40.46251907348633,-14.378919792175292,1.6887019881471944e+18,45.795194287109375,-227.5495178222656,135.9275146484375,-147.59071655273436,1.688701988155014e+18,45.80301416015626,0.0191663810983299,-0.694243053595225,-0.450834572315216,0.5604670445124308,-2.024120012919108,0.5611691474914551,0.7953149676322937
0.85,1.688701988206921e+18,45.854921223958335,4.0470002094904585,-8.16676378250122,-7.986415227254232,1.688701988206921e+18,45.854921223958335,1.0947162931164105,-14.05324681599935,-0.654436985651652,1.688701988206921e+18,45.854921223958335,-2.9581298828125,-5.868978500366211,7.269290765126546,1.688701988198267e+18,45.84626684570313,1.2357295056184132,-0.1929316023985544,2.4642303784688315,1.688701988198267e+18,45.84626684570313,1.2347113986810048,-0.1884519159793853,2.4666228691736856,,,,,,,,,,,,1.6887019881971932e+18,45.84519345703124,22.992119598388673,42.19735946655273,-15.0377197265625,1.6887019881971932e+18,45.84519345703124,-231.54867553710935,137.6623565673828,-148.24951782226563,1.688701988206921e+18,45.854921223958335,0.06130059932669,-0.6752845048904419,-0.4417198002338409,0.5869101484616598,-1.958914041519165,0.6453971465428671,0.7162326574325562
0.9,1.6887019882588283e+18,45.906828531901034,2.006629983584086,-7.525681972503662,-1.8499248027801511,1.6887019882588283e+18,45.906828531901034,-0.3613162317002813,-14.903097788492838,4.215156475702922,1.6887019882588283e+18,45.906828531901034,-2.3737922509511313,-7.359911441802979,6.002393881479899,1.6887019882501768e+18,45.89817683919271,3.3025919596354165,-1.875508983929952,3.3510031700134277,1.6887019882501768e+18,45.89817683919271,3.3015739917755127,-1.871029297510783,3.3534464836120605,,,,,,,,,,,,1.6887019882471956e+18,45.89519580078125,16.643239402770995,46.38195877075195,-8.65955982208252,1.6887019882471956e+18,45.89519580078125,-237.89755554199215,141.84696044921876,-141.87135620117186,1.6887019882588283e+18,45.906828531901034,0.1793050169944763,-0.6534296870231628,-0.4402432143688202,0.5879330635070801,-1.9468228022257488,0.8524898091952006,0.5857295989990234
0.95,1.6887019883020828e+18,45.95008276367187,1.047810673713684,-10.23380708694458,4.417526483535767,1.6887019883020828e+18,45.95008276367187,-0.5410770177841187,-18.59941005706787,9.372686386108398,1.6887019883020828e+18,45.95008276367187,-1.594733715057373,-8.34809923171997,4.8924720287323,1.688701988302082e+18,45.9500819498698,2.5856908162434897,-0.3354668319225311,2.1541144450505576,1.688701988302082e+18,45.9500819498698,2.5846217473347983,-0.33093623816967,2.156507054964701,,,,,,,,,,,,1.688701988297193e+18,45.94519306640625,8.886479663848878,49.42951889038086,-0.595359992980957,1.688701988297193e+18,45.94519306640625,-245.6543151855469,144.89451599121094,-133.8071533203125,1.6887019883020828e+18,45.95008276367187,0.2680590599775314,-0.6226904392242432,-0.4395792931318283,0.5890612900257111,-1.8848872780799864,1.01947820186615,0.4575381577014923
1.0,1.6887019883453412e+18,45.993341064453126,2.507517615954081,-3.507833162943522,7.443334102630615,1.6887019883453412e+18,45.993341064453126,1.4031911293665569,-12.346566200256348,11.641680399576822,1.6887019883453412e+18,45.993341064453126,-1.11017249027888,-8.821228663126627,4.135658423105876,1.6887019883539868e+18,46.00198697916667,1.9093611240386963,0.6405431230862936,0.9317731062571208,1.6887019883539868e+18,46.00198697916667,1.9083939393361409,0.6450227995713552,0.934216558933258,,,,,,,,,,,,1.688701988347193e+18,45.99519321289063,5.304559898376465,49.51735916137695,5.084959936141968,1.688701988347193e+18,45.99519321289063,-249.23623352050785,144.98236083984375,-128.12683563232423,1.6887019883453412e+18,45.993341064453126,0.30637788772583,-0.5909997423489889,-0.4548869530359904,0.591345489025116,-1.8317116498947144,1.1205106178919475,0.4137611190478007
1.05,1.688701988397241e+18,46.04524129231771,-0.7521035273869833,5.302609443664551,2.325451930363973,1.688701988397241e+18,46.04524129231771,-1.2313066720962524,-3.906282981236776,5.772485256195068,1.688701988397241e+18,46.04524129231771,-0.4850491682688395,-9.191387812296549,3.3843459288279214,1.6887019884058993e+18,46.0538993326823,1.5441655317942302,0.2486221492290496,1.12394114335378,1.6887019884058993e+18,46.0538993326823,1.5431474049886067,0.2530509233474731,1.1263846158981323,,,,,,,,,,,,1.6887019883971924e+18,46.04519243164062,2.5156399250030517,49.280679321289064,8.859639835357665,1.6887019883971924e+18,46.04519243164062,-252.02515563964843,144.74567565917968,-124.35215606689454,1.688701988397241e+18,46.04524129231771,0.3431004782517751,-0.553585926691691,-0.4669737815856933,0.5979824463526408,-1.7114991346995037,1.2180938720703125,0.3118437031904856
1.1,1.68870198844915e+18,46.09714990234375,-5.254729270935059,8.718703269958496,0.3406457901000976,1.68870198844915e+18,46.09714990234375,-5.257828871409099,-0.6991030275821686,3.2025936444600425,1.68870198844915e+18,46.09714990234375,-0.0089456581821044,-9.400301615397137,2.799260457356771,1.6887019884578056e+18,46.10580541992187,1.040150781472524,-0.8252280348291,1.400001327196757,1.6887019884578056e+18,46.10580541992187,1.0390817721684773,-0.820748378833135,1.4024447997411091,,,,,,,,,,,,1.6887019884471923e+18,46.095192431640626,-0.4123599708080291,48.59259872436523,12.839279556274414,1.6887019884471923e+18,46.095192431640626,-254.95315856933593,144.0575927734375,-120.37251739501951,1.68870198844915e+18,46.09714990234375,0.3769921561082204,-0.529765784740448,-0.4687072237332662,0.5978245337804159,-1.571137507756551,1.2865809202194214,0.1619375348091125
1.15,1.6887019885010616e+18,46.1490615234375,-2.198681592941284,9.717565536499023,-0.3862677415211995,1.6887019885010616e+18,46.1490615234375,-1.6747764647006989,0.2291127629578112,2.175873359044393,1.6887019885010616e+18,46.1490615234375,0.5180590450763702,-9.470948219299316,2.4994537035624185,1.6887019885010614e+18,46.14906140136719,0.5322927087545395,-1.3235158920288086,1.5918384790420532,1.6887019885010614e+18,46.14906140136719,0.5312236994504929,-1.3189344108104706,1.5942055583000183,1.688701988492411e+18,46.14041088867187,0.0,0.0,1.3864792585372925,5.894000053405762,1.2529104948043823,269.97637939453125,41.400001525878906,-122.7550412,49.1905954,1.6887019884971945e+18,46.14519462890625,-5.3362799167633055,47.980158996582034,14.237399864196778,1.6887019884971945e+18,46.14519462890625,-259.8770812988281,143.44515686035157,-118.97439880371094,1.6887019885010616e+18,46.1490615234375,0.4234897792339325,-0.5272395809491476,-0.4418047567208608,0.5893184940020243,-1.3575210571289062,1.314409852027893,-0.1321883313357829
1.2,1.6887019885529664e+18,46.20096638997395,-2.0831660429636636,9.40793259938558,-0.8275479475657145,1.6887019885529664e+18,46.20096638997395,-1.3587244749069214,-0.076570322116216,1.703290939331055,1.6887019885529664e+18,46.20096638997395,0.718595544497172,-9.466998100280762,2.4681514898935952,1.6887019885443177e+18,46.19231762695313,0.1840231592456499,-0.2166026389847198,0.2457205454508463,1.6887019885443177e+18,46.19231762695313,0.183005042374134,-0.2120720452318588,0.2481130907932917,,,,,,,,,,,,1.6887019885471892e+18,46.195189111328126,-8.84987964630127,47.44091949462891,15.066999626159667,1.6887019885471892e+18,46.195189111328126,-263.390673828125,142.90591735839843,-118.1447967529297,1.6887019885529664e+18,46.20096638997395,0.4418315986792246,-0.5291427175203959,-0.4275925656159718,0.584748109181722,-1.2717334429423015,1.315808852513631,-0.257354458173116
1.25,1.6887019886048763e+18,46.25287646484375,15.360539754231771,-3.904824574788411,-0.8500051101048788,1.6887019886048763e+18,46.25287646484375,15.142579038937887,-13.308680176734924,2.026521404584249,1.6887019886048763e+18,46.25287646484375,-0.2238074640432993,-9.386351267496744,2.8138391176859536,1.688701988596219e+18,46.244218912760424,-1.104800711075465,-7.232899030049642,-0.1798488895098368,1.688701988596219e+18,46.244218912760424,-1.1057679156462352,-7.228470365206401,-0.1774054567019144,,,,,,,,,,,,1.6887019885971945e+18,46.24519462890625,-9.3061598777771,47.726399993896486,12.727039909362793,1.6887019885971945e+18,46.24519462890625,-263.8469482421875,143.19140014648437,-120.48475799560546,1.6887019886048763e+18,46.25287646484375,0.4730482598145802,-0.6080909570058187,-0.3688192168871562,0.5140940248966217,-1.6324730316797893,1.2880900303522749,-0.139711660798639
1.3,1.6887019886567826e+18,46.30478255208333,12.103840033213295,-12.98452123006185,3.567132552464803,1.6887019886567826e+18,46.30478255208333,11.778669516245523,-22.176880200703938,7.077969551086426,1.6887019886567826e+18,46.30478255208333,-0.3310163492957751,-9.174854596455893,3.4481494426727295,1.6887019886481316e+18,46.29613159179687,-1.398830513159434,-3.541338483492533,1.1480702956517537,1.6887019886481316e+18,46.29613159179687,-1.3997977177302043,-3.536858876546224,1.150513748327891,,,,,,,,,,,,1.688701988647193e+18,46.2951935546875,-17.055599784851076,47.32379913330078,4.17239990234375,1.688701988647193e+18,46.2951935546875,-271.5963989257813,142.7887969970703,-129.03939666748047,1.6887019886567826e+18,46.30478255208333,0.5341841379801432,-0.6738280455271403,-0.2437343001365661,0.4482383926709493,-1.6482378244400024,1.2183218399683635,-0.4529980321725209
1.35,1.68870198870869e+18,46.35669010416667,4.549337387084962,-3.7771828969319663,10.6138064066569,1.68870198870869e+18,46.35669010416667,3.669792334238688,-12.996416727701822,13.958929697672524,1.68870198870869e+18,46.35669010416667,-0.885391096274058,-9.20172913869222,3.282435894012451,1.688701988700039e+18,46.34803865559896,1.0575604438781738,3.117856283982595,-1.909004847208659,1.688701988700039e+18,46.34803865559896,1.0565423568089802,3.122285028298696,-1.9066121975580852,,,,,,,,,,,,1.6887019886971945e+18,46.34519458007812,-13.283359718322751,48.541358947753906,3.4428398609161377,1.6887019886971945e+18,46.34519458007812,-267.82415161132815,144.00635681152343,-129.76895294189453,1.68870198870869e+18,46.35669010416667,0.5009259879589081,-0.6770076553026835,-0.2885242998600006,0.4540220101674397,-1.8254489103953044,1.2271405458450315,-0.1912626450260479
1.4,1.6887019887519457e+18,46.39994580078125,-5.212421655654907,4.6635870933532715,3.36201274394989,1.6887019887519457e+18,46.39994580078125,-5.826523065567017,-4.560719847679138,6.753742218017578,1.6887019887519457e+18,46.39994580078125,-0.6199475526809692,-9.206802368164062,3.329041838645935,1.6887019887519416e+18,46.39994173177083,0.1830559521913528,5.032358805338542,-0.9986628492673238,1.6887019887519416e+18,46.39994173177083,0.1820887476205825,5.036838531494141,-0.9962702989578248,,,,,,,,,,,,1.6887019887471946e+18,46.39519462890625,-8.161799907684326,48.93419876098633,7.57131986618042,1.6887019887471946e+18,46.39519462890625,-262.7025939941406,144.3991943359375,-125.640478515625,1.6887019887519457e+18,46.39994580078125,0.4512021541595458,-0.6325516998767853,-0.3598976284265518,0.5160737931728363,-1.7508617043495178,1.2306939363479614,-0.0311946924775838
1.45,1.6887019887952015e+18,46.443201416015626,-3.1376336415608725,6.929540157318115,0.0924301942189534,1.6887019887952015e+18,46.443201416015626,-3.750550111134847,-2.2578275998433432,3.583850065867106,1.6887019887952015e+18,46.443201416015626,-0.6187625328699747,-9.16986338297526,3.428732474644979,1.6887019888038497e+18,46.45184960937499,-0.4787147293488185,2.2415700356165567,-1.3232868512471516,1.6887019888038497e+18,46.45184960937499,-0.4797328561544418,2.246049642562866,-1.3208942810694375,,,,,,,,,,,,1.6887019887971917e+18,46.44519155273438,-4.3261199474334715,49.25383834838867,9.23051986694336,1.6887019887971917e+18,46.44519155273438,-258.8669189453125,144.71883544921874,-123.9812789916992,1.6887019887952015e+18,46.443201416015626,0.4090135196844737,-0.6062667568524679,-0.4037296573321025,0.5493960777918497,-1.7508961757024128,1.222022215525309,0.1169892040391762
1.5,1.6887019888471089e+18,46.495108886718754,-2.9900265534718833,-0.2768975893656413,2.953286568323771,1.6887019888471089e+18,46.495108886718754,-3.986043850580851,-9.109276294708252,7.188836733500163,1.6887019888471089e+18,46.495108886718754,-1.0018633405367534,-8.814874013264975,4.172862768173218,1.6887019888557548e+18,46.50375447591146,-2.0330103635787964,0.6155485610167185,-0.9048950572808584,1.6887019888557548e+18,46.50375447591146,-2.0340285301208496,0.6200282375017802,-0.9026043117046356,,,,,,,,,,,,1.6887019888471928e+18,46.49519301757813,-0.1586000084877014,49.75647964477539,6.136599922180176,1.6887019888471928e+18,46.49519301757813,-254.69939270019532,145.2214782714844,-127.0751968383789,1.6887019888471089e+18,46.495108886718754,0.3523048361142476,-0.6162867546081543,-0.4135499497254689,0.5698402722676595,-1.8131436506907144,1.133371392885844,0.2575459132591883
1.55,1.6887019888990124e+18,46.54701228841146,-1.5096453428268433,1.1259055137634275,-0.6427171230316163,1.6887019888990124e+18,46.54701228841146,-2.6632115840911865,-7.314659277598064,4.3106701374053955,1.6887019888990124e+18,46.54701228841146,-1.1594122648239136,-8.423060099283854,4.890699863433838,1.6887019889076662e+18,46.55566625976562,-1.2356785535812378,-0.3354668306807677,-0.0469857193529605,1.6887019889076662e+18,46.55566625976562,-1.236645778020223,-0.3309871616462866,-0.0445931603511174,,,,,,,,,,,,1.6887019888971945e+18,46.54519453125,1.3493199825286866,50.09075927734375,2.2472399473190308,1.6887019888971945e+18,46.54519453125,-253.19147338867188,145.55575561523438,-130.9645568847656,1.6887019888990124e+18,46.54701228841146,0.3218584557374318,-0.635463813940684,-0.3939429819583893,0.5807968179384867,-1.810009757677714,1.048597772916158,0.2572291741768518
1.6,1.6887019889509233e+18,46.59892317708333,-0.2093234856923421,2.3388670285542807,-3.602877060572306,1.6887019889509233e+18,46.59892317708333,-1.7086747884750366,-5.692724386850993,1.9070796569188435,1.6887019889509233e+18,46.59892317708333,-1.5051973263422649,-8.014086723327637,5.447269280751546,1.688701988959575e+18,46.60757495117188,-1.5232433478037517,-0.4657338460286458,-1.1932234366734822,1.688701988959575e+18,46.60757495117188,-1.5242106119791667,-0.4612032572428385,-1.190779983997345,,,,,,,,,,,,1.6887019889471928e+18,46.595192871093744,2.308239984512329,49.94191970825195,-1.571359986066818,1.6887019889471928e+18,46.595192871093744,-252.23255615234376,145.40691528320312,-134.7831573486328,1.6887019889509233e+18,46.59892317708333,0.2993656396865844,-0.662197212378184,-0.3714601099491119,0.5776672760645548,-1.8451481262842817,0.9715184171994528,0.2613198657830555
1.65,1.6887019890028298e+18,46.650829833984375,-0.9389325777689616,-2.350672403971354,-4.390110333760579,1.6887019890028298e+18,46.650829833984375,-3.296910842259725,-9.838688214619957,1.5643078486124675,1.6887019890028298e+18,46.650829833984375,-2.3638242880503335,-7.470511118570964,5.891730785369873,1.6887019890028247e+18,46.650824829101566,-1.34588885307312,-1.633224606513977,-1.4897476434707642,1.6887019890028247e+18,46.650824829101566,-1.3469578623771667,-1.6287193894386292,-1.4873805046081543,1.688701989011481e+18,46.6594814453125,0.0,0.0,1.3961323499679563,5.938000202178955,1.251051664352417,269.84783935546875,41.400001525878906,-122.7550461,49.1905949,1.6887019889971922e+18,46.645192138671874,5.765719795227051,49.24407958984375,-5.0947198390960695,1.6887019889971922e+18,46.645192138671874,-248.7750732421875,144.70907897949218,-138.3065185546875,1.6887019890028298e+18,46.650829833984375,0.2629767954349518,-0.700131336847941,-0.3604443271954854,0.5570891698201498,-1.9567500750223796,0.8788253664970398,0.3373856047789256
1.7,1.6887019890547336e+18,46.70273364257813,2.527026414871216,-6.115403334299724,-3.879852771759033,1.6887019890547336e+18,46.70273364257813,-1.2430713375409443,-12.915060679117838,2.1601206064224243,1.6887019890547336e+18,46.70273364257813,-3.775943756103515,-6.7821526527404785,5.977285861968994,1.6887019890460805e+18,46.69408056640625,-1.667509396870931,-3.0871601899464927,-1.5964454412460327,1.6887019890460805e+18,46.69408056640625,-1.6685275236765544,-3.0826805432637534,-1.5940019687016804,,,,,,,,,,,,1.6887019890471923e+18,46.69519233398437,11.072719764709472,48.47547988891601,-7.893399715423584,1.6887019890471923e+18,46.69519233398437,-243.46807556152345,143.940478515625,-141.10519714355468,1.6887019890547336e+18,46.70273364257813,0.2395077645778655,-0.7617419759432474,-0.3335285981496175,0.5002853572368622,-2.136997620264689,0.7741047938664755,0.3839031557242076
1.75,1.6887019891066437e+18,46.75464339192708,23.08918793996175,-10.429588317871094,1.7953073183695476,1.6887019891066437e+18,46.75464339192708,17.19123387336731,-15.39901034037272,7.845866044362386,1.6887019891066437e+18,46.75464339192708,-5.90380064646403,-4.951917807261149,5.987871170043945,1.688701989097993e+18,46.74599291992187,-0.5396485459059478,0.0402663548787434,-7.467827796936035,1.688701989097993e+18,46.74599291992187,-0.5407175368939836,0.0446951389312744,-7.46548589070638,,,,,,,,,,,,1.688701989097193e+18,46.74519311523438,20.171479606628417,45.000919342041016,-9.08899974822998,1.688701989097193e+18,46.74519311523438,-234.36932067871095,140.46591491699218,-142.3008026123047,1.6887019891066437e+18,46.75464339192708,0.1256034597754478,-0.8188140392303467,-0.3601526121298472,0.4227109948794047,-2.3548875649770102,0.5392196873823801,0.600379099448522
1.8,1.6887019891585523e+18,46.80655208333334,-6.31207291285197,-6.937980651855469,-6.901546796162923,1.6887019891585523e+18,46.80655208333334,-10.410772363344828,-11.354741096496582,0.8971091111501058,1.6887019891585523e+18,46.80655208333334,-4.104545513788859,-4.399255911509196,7.735968589782715,1.6887019891498934e+18,46.79789339192708,1.6146695216496785,6.582073012987773,-0.9891435019671916,1.6887019891498934e+18,46.79789339192708,1.6137023369471233,6.58660364151001,-0.9867000989615916,,,,,,,,,,,,1.688701989147197e+18,46.79519702148438,29.699679946899415,36.81227951049805,-17.282519912719728,1.688701989147197e+18,46.79519702148438,-224.84111633300785,132.27727966308595,-150.49431762695312,1.6887019891585523e+18,46.80655208333334,-0.0020477656895915,-0.7282599806785583,-0.4240382611751556,0.5377550522486368,-2.062941074371338,0.4706580539544423,0.7692171533902487
1.85,1.6887019892017966e+18,46.84979650878906,8.631651997566223,-7.9576454162597665,-9.000833511352539,1.6887019892017966e+18,46.84979650878906,4.927121011540293,-12.787244319915771,-1.2409775853157043,1.6887019892017966e+18,46.84979650878906,-3.7103772163391113,-4.81209397315979,7.697168350219727,1.688701989201805e+18,46.84980493164063,-0.2369138995806376,-0.1297579407691955,2.7504716714223227,1.688701989201805e+18,46.84980493164063,-0.2378810842831929,-0.1252782742182413,2.752864201863607,,,,,,,,,,,,1.688701989197189e+18,46.84518920898437,25.63463935852051,38.91067886352539,-19.549279403686523,1.688701989197189e+18,46.84518920898437,-228.9061584472656,134.37568054199218,-152.76107788085938,1.6887019892017966e+18,46.84979650878906,0.0316094001755117,-0.7258915305137634,-0.4033526480197906,0.5559867024421692,-2.022505462169647,0.5168937146663666,0.6857757270336151
1.9,1.6887019892450614e+18,46.893061523437495,1.5545000235239663,-8.987631638844809,-6.412069956461589,1.6887019892450614e+18,46.893061523437495,-1.4057832757631938,-14.796218236287435,0.9708877901236216,1.6887019892450614e+18,46.893061523437495,-2.9661293029785156,-5.791082382202148,7.320270538330078,1.6887019892537142e+18,46.90171427408854,3.0549370447794595,-0.615192194779714,2.8595619996388755,1.6887019892537142e+18,46.90171427408854,3.053868055343628,-0.6107634405295054,2.861954609553019,,,,,,,,,,,,1.6887019892471882e+18,46.895188134765625,18.55620002746582,43.32219924926758,-16.67007942199707,1.6887019892471882e+18,46.895188134765625,-235.9845947265625,138.78719482421874,-149.88187561035156,1.6887019892450614e+18,46.893061523437495,0.0968544284502664,-0.7053897380828857,-0.3917200863361358,0.5819734930992126,-1.955904205640157,0.6348505218823751,0.5778375267982483
1.95,1.688701989296967e+18,46.944966796875,1.9887853463490803,-10.110209623972574,-0.5077013174692789,1.688701989296967e+18,46.944966796875,-0.2923231373230616,-17.54317855834961,5.525226831436157,1.688701989296967e+18,46.944966796875,-2.286954482396444,-7.415464878082275,5.970240751902263,1.688701989305616e+18,46.95361604817708,3.492774804433187,-1.2404127717018127,2.683887322743734,1.688701989305616e+18,46.95361604817708,3.4918076197306314,-1.2359840075174968,2.6863308350245156,,,,,,,,,,,,1.6887019892971948e+18,46.945194775390625,11.882799530029295,47.570238494873045,-8.388719844818116,1.6887019892971948e+18,46.945194775390625,-242.65799560546876,143.0352355957031,-141.60051574707032,1.688701989296967e+18,46.944966796875,0.214952066540718,-0.6738272905349731,-0.4024426639080047,0.5801865259806315,-1.9348671436309817,0.8595174352327982,0.464613397916158
2.0,1.68870198934887e+18,46.99686971028646,4.025960604349772,-10.24255339304606,7.948409716288249,1.68870198934887e+18,46.99686971028646,2.4336999654769897,-18.766110102335613,12.610374768575031,1.68870198934887e+18,46.99686971028646,-1.5981066624323528,-8.50605297088623,4.599277337392171,1.6887019893575252e+18,47.0055253092448,2.4582744439442954,1.3703234295050304,0.8655451536178589,1.6887019893575252e+18,47.0055253092448,2.4572563966115317,1.3748031655947368,0.867937703927358,,,,,,,,,,,,1.688701989347192e+18,46.99519189453125,7.429799938201905,49.417318725585936,-0.4660399917513132,1.688701989347192e+18,46.99519189453125,-247.11099548339843,144.88231811523437,-133.67783813476564,1.68870198934887e+18,46.99686971028646,0.2960853079954782,-0.6291356881459554,-0.4297830462455749,0.5755389332771301,-1.9012972513834636,1.0506684978802998,0.4133141239484151
2.05,1.688701989400777e+18,47.04877701822917,0.3138254284858703,1.9000787734985352,5.7640096346537275,1.688701989400777e+18,47.04877701822917,-0.5976074536641439,-7.12123966217041,9.599206765492758,1.688701989400777e+18,47.04877701822917,-0.9172788858413696,-9.003813743591309,3.772509654362997,1.6887019894094267e+18,47.05742667643229,1.93766454855601,0.5741624236106873,1.1119783520698547,1.6887019894094267e+18,47.05742667643229,1.9366973241170249,0.5786420951286951,1.1143709222475688,,,,,,,,,,,,1.6887019893971878e+18,47.04518774414063,5.360679817199707,49.597879028320314,4.648199987411499,1.6887019893971878e+18,47.04518774414063,-249.18011474609375,145.06287841796876,-128.5635986328125,1.688701989400777e+18,47.04877701822917,0.3253915309906006,-0.5788505872090658,-0.4595634837945302,0.5895719726880392,-1.8064149618148804,1.16499924659729,0.3836786945660909
2.1,1.688701989452683e+18,47.10068294270834,-4.7008035977681475,7.802090644836426,1.4824568430582683,1.688701989452683e+18,47.10068294270834,-4.980061968167623,-1.539781391620636,4.5694936116536455,1.688701989452683e+18,47.10068294270834,-0.2851043989260991,-9.32436752319336,3.0243493715922036,1.6887019894526838e+18,47.10068359375,1.4854715466499329,0.3589596971869468,1.34588885307312,1.6887019894526838e+18,47.10068359375,1.4845553040504456,0.3634648248553275,1.3483323454856873,,,,,,,,,,,,1.6887019894471854e+18,47.095185400390626,1.917839914560318,49.04643936157227,9.206119823455811,1.6887019894471854e+18,47.095185400390626,-252.62295227050785,144.51143493652344,-124.00567779541016,1.688701989452683e+18,47.10068294270834,0.3643440902233124,-0.5436254938443502,-0.4677584071954091,0.5939287344614664,-1.6616273721059165,1.259069323539734,0.2466014126936594
2.15,1.6887019895045916e+18,47.15259163411458,-4.250235001246135,9.983023961385092,0.7324489752451578,1.6887019895045916e+18,47.15259163411458,-3.761716683705648,0.4951148728529612,3.292125145594279,1.6887019895045916e+18,47.15259163411458,0.4826722741127014,-9.470404624938965,2.4969887733459473,1.6887019894959398e+18,47.143939615885415,1.1157963077227275,-1.8932241201400757,2.4158193270365396,1.6887019894959398e+18,47.143939615885415,1.1147781610488892,-1.888795336087545,2.418262759844462,,,,,,,,,,,,1.688701989497188e+18,47.145188085937505,-2.805999940633774,48.27295913696289,12.702639770507812,1.688701989497188e+18,47.145188085937505,-257.34679260253904,143.7379577636719,-120.5091567993164,1.6887019895045916e+18,47.15259163411458,0.4247534175713857,-0.5305400689442953,-0.4398997922738392,0.5865768591562907,-1.37223223845164,1.3122005860010784,-0.1267475175360838
2.2,1.6887019895564977e+18,47.20449763997396,-2.3606632550557456,9.72894605000814,-0.6919881900151571,1.6887019895564977e+18,47.20449763997396,-0.998205840587616,0.2767698218425115,1.6835501591364543,1.6887019895564977e+18,47.20449763997396,1.3566114107767742,-9.434671719868978,2.3128509521484375,1.6887019895478477e+18,47.19584765625,0.4252131183942159,0.2394082645575205,1.6773341099421184,1.6887019895478477e+18,47.19584765625,0.4241950114568074,0.2438370486100514,1.6797266801198325,,,,,,,,,,,,1.6887019895471898e+18,47.195189697265626,-9.667280006408692,47.189598846435544,14.303279495239256,1.6887019895471898e+18,47.195189697265626,-264.20807495117185,142.65459594726562,-118.90851593017578,1.6887019895564977e+18,47.20449763997396,0.4627947608629862,-0.5105088551839193,-0.4122006893157959,0.5959885120391846,-1.0231669942537944,1.3008876244227092,-0.5124196112155914
2.25,1.6887019896084058e+18,47.25640568033854,-5.066147963205974,8.992917855580648,-2.538273334503174,1.6887019896084058e+18,47.25640568033854,-3.692524174849192,-0.4167499244213104,-0.0360917585591475,1.6887019896084058e+18,47.25640568033854,1.3677778442700703,-9.392163276672363,2.4394942124684653,1.6887019895997524e+18,47.24775244140625,-0.3739004457990328,-1.3555099070072174,-0.2791654169559479,1.6887019895997524e+18,47.24775244140625,-0.3749185341099899,-1.351030349731445,-0.2767728765805562,,,,,,,,,,,,1.6887019895971896e+18,47.24518969726562,-11.62171974182129,46.711358642578126,15.220719718933106,1.6887019895971896e+18,47.24518969726562,-266.1625122070312,142.17635498046874,-117.99107666015624,1.6887019896084058e+18,47.25640568033854,0.4686498641967773,-0.5185941358407339,-0.4001124997933705,0.5917328000068665,-1.0374085704485576,1.2872925996780396,-0.5287515819072723
2.3,1.6887019896516608e+18,47.29966064453125,22.892991304397583,-13.063578605651855,6.942481994628906,1.6887019896516608e+18,47.29966064453125,21.929022312164307,-22.286450386047363,10.24786138534546,1.6887019896516608e+18,47.29966064453125,-0.969815731048584,-9.205368041992188,3.242691993713379,1.6887019896516608e+18,47.29966097005209,-2.4330762227376304,-12.292695999145508,-0.2521855433781941,1.6887019896516608e+18,47.29966097005209,-2.4340434869130454,-12.2881654103597,-0.2497928937276206,,,,,,,,,,,,1.6887019896471872e+18,47.29518715820312,-10.843359565734865,48.114358520507814,8.217919778823852,1.6887019896471872e+18,47.29518715820312,-265.3841613769531,143.57935791015626,-124.99387664794922,1.6887019896516608e+18,47.29966064453125,0.5044991821050644,-0.6820363998413086,-0.2810969725251197,0.44371098279953,-1.8522417545318604,1.228599488735199,-0.1927402801811695
2.35,1.688701989694918e+18,47.34291780598958,11.44083293279012,-16.47209707895915,11.883302688598633,1.688701989694918e+18,47.34291780598958,10.24088191986084,-25.52643267313639,15.566706975301107,1.688701989694918e+18,47.34291780598958,-1.2057968775431316,-9.036831537882486,3.6207165718078618,1.6887019897035676e+18,47.351567789713535,0.0879136919975281,2.1809417406717935,-1.1193087473511696,1.6887019897035676e+18,47.351567789713535,0.0869464874267578,2.1853703260421753,-1.1169162094593048,,,,,,,,,,,,1.6887019896971884e+18,47.34518833007813,-13.888479804992675,48.33639907836914,-1.3541999816894532,1.6887019896971884e+18,47.34518833007813,-268.4292785644531,143.80140075683593,-134.5659942626953,1.688701989694918e+18,47.34291780598958,0.5332345167795817,-0.7207125624020895,-0.196503385901451,0.3967385391394297,-1.8812071879704793,1.180269479751587,-0.3765882154305776
2.4,1.688701989746826e+18,47.39482592773438,-3.724855581919352,0.7804099718729655,5.528982400894165,1.688701989746826e+18,47.39482592773438,-4.810770034790039,-8.285547018051147,9.220143953959148,1.688701989746826e+18,47.39482592773438,-1.091760555903117,-9.048452377319336,3.628473917643229,1.688701989755472e+18,47.4034716796875,0.4986187616984049,4.979315280914307,-1.835650086402893,1.688701989755472e+18,47.4034716796875,0.4976006547609965,4.983845949172974,-1.8332575162251792,,,,,,,,,,,,1.6887019897471862e+18,47.39518608398437,-10.104039764404297,49.06352005004883,2.274079996347427,1.6887019897471862e+18,47.39518608398437,-264.64483032226565,144.528515625,-130.93771667480468,1.688701989746826e+18,47.39482592773438,0.4811251262823741,-0.6860256989796957,-0.2859037617842356,0.4630991518497467,-1.857911745707194,1.1850995222727458,-0.1425908269981542
2.45,1.688701989798736e+18,47.44673592122396,-0.5740818977355957,8.13593053817749,-1.870620886484782,1.688701989798736e+18,47.44673592122396,-1.839881181716919,-0.8667999903361002,1.917647918065389,1.688701989798736e+18,47.44673592122396,-1.2716453075408936,-8.985225995381674,3.725581407546997,1.68870198980739e+18,47.455389973958326,0.0697913567225138,2.1399627526601157,-1.1599312822024028,1.68870198980739e+18,47.455389973958326,0.0688241496682167,2.144442399342855,-1.157589614391327,,,,,,,,,,,,1.6887019897971932e+18,47.445193457031245,-4.953199958801269,49.66619873046875,5.226480007171631,1.6887019897971932e+18,47.445193457031245,-259.493994140625,145.13119506835938,-127.98531951904296,1.688701989798736e+18,47.44673592122396,0.4301990171273549,-0.6647422512372335,-0.3480859498182932,0.5016068816184998,-1.9017346302668257,1.171560804049174,0.080047392596801
2.5,1.6887019898506458e+18,47.498645833333335,-2.006803353627523,4.488990147908528,-0.6947611967722574,1.6887019898506458e+18,47.498645833333335,-3.425724506378174,-4.316652099291484,3.480958660443624,1.6887019898506458e+18,47.498645833333335,-1.4247671365737915,-8.788137753804525,4.113032420476277,1.6887019898592955e+18,47.507295410156246,-1.5448781847953796,1.2623530228932698,-0.7660759091377258,1.6887019898592955e+18,47.507295410156246,-1.5458962519963582,1.266832669576009,-0.7636324763298035,,,,,,,,,,,,1.688701989847195e+18,47.495194970703125,-0.7271199852228165,49.827239990234375,4.431039905548095,1.688701989847195e+18,47.495194970703125,-255.26791381835935,145.2922393798828,-128.78075561523437,1.6887019898506458e+18,47.498645833333335,0.3879105945428212,-0.6582580804824829,-0.3718952238559723,0.5269524852434794,-1.9108305772145588,1.126359740893046,0.1888890316088994
2.55,1.688701989902555e+18,47.550554931640626,-3.701440572738647,-2.715727170308431,1.464913050333659,1.688701989902555e+18,47.550554931640626,-5.168696244557698,-11.089536666870115,6.4480587641398115,1.688701989902555e+18,47.550554931640626,-1.4731017748514812,-8.356304804484049,4.9204583168029785,1.6887019899025516e+18,47.55055151367188,-1.355204552412033,0.2278527314774692,-0.0003054328262806,1.6887019899025516e+18,47.55055151367188,-1.3561972081661224,0.2322815049847121,0.0020616725087165,,,,,,,,,,,,1.688701989897192e+18,47.5451919921875,0.1293199971318244,49.90775909423828,-0.0634400129318236,1.688701989897192e+18,47.5451919921875,-254.411474609375,145.3727600097656,-133.27523803710938,1.688701989902555e+18,47.550554931640626,0.349650889635086,-0.6690454085667928,-0.3560197353363037,0.5507277647654215,-1.8669867118199663,1.0353808403015137,0.1800385812918345
2.6,1.6887019899544512e+18,47.6024512532552,0.0685933033625284,2.880489190419515,-3.1855578422546387,1.6887019899544512e+18,47.6024512532552,-2.0438693364461265,-5.158726215362549,2.102892279624939,1.6887019899544512e+18,47.6024512532552,-2.118308663368225,-8.021710713704428,5.225762685139974,1.6887019899458086e+18,47.59380859375,-0.5523748894532522,0.3283400783936183,-2.28270161151886,1.6887019899458086e+18,47.59380859375,-0.5532911916573843,0.3327688326438268,-2.2802580992380777,,,,,,,,,,,,1.6887019899471928e+18,47.59519306640625,3.4989599227905273,49.74427871704101,-1.8787999749183657,1.6887019899471928e+18,47.59519306640625,-251.04183654785157,145.20927734375,-135.0906005859375,1.6887019899544512e+18,47.6024512532552,0.3099534312884013,-0.6871655186017355,-0.3679549992084503,0.5440119703610738,-1.9623175064722695,0.9725082516670228,0.3024338483810424
2.65,1.688701990006359e+18,47.65435896809896,0.1789499123891194,-1.040007750193278,-3.6551074981689458,1.688701990006359e+18,47.65435896809896,-2.7216363747914634,-8.519046624501547,2.06739870707194,1.688701990006359e+18,47.65435896809896,-2.906432310740153,-7.461534182230632,5.659818808237712,1.688701989997708e+18,47.64570808919271,-1.258891463279724,0.2221004168192545,-1.901572624842326,1.688701989997708e+18,47.64570808919271,-1.259960512320201,0.2266310056050618,-1.8991291522979736,,,,,,,,,,,,1.688701989997188e+18,47.645188085937505,9.30371971130371,48.65603942871094,-4.196799945831299,1.688701989997188e+18,47.645188085937505,-245.23707275390623,144.12103881835938,-137.40859680175782,1.688701990006359e+18,47.65435896809896,0.2536323815584182,-0.7088074882825216,-0.3819849689801534,0.5358415643374125,-2.0533984502156577,0.8773546814918518,0.4351660311222076
2.7,1.688701990058265e+18,47.70626513671875,0.9547832806905112,-6.098134835561116,-2.8512755235036216,1.688701990058265e+18,47.70626513671875,-2.6883362929026284,-12.888340950012209,3.288535992304484,1.688701990058265e+18,47.70626513671875,-3.64896559715271,-6.772701422373454,6.077124118804932,1.6887019900496187e+18,47.69761857096355,-1.880650480588277,-1.5494088133176167,-0.9320785403251648,1.6887019900496187e+18,47.69761857096355,-1.8816685676574707,-1.544979989528656,-0.9296350876490276,1.6887019900437414e+18,47.69174145507812,0.0,0.0,1.3961323499679563,5.994999885559082,1.2531282901763916,269.2343444824219,41.400001525878906,-122.7550654,49.1905917,1.6887019900471954e+18,47.69519536132812,13.151599884033203,47.46043853759765,-7.939759826660156,1.6887019900471954e+18,47.69519536132812,-241.38919372558593,142.92543334960936,-141.15155639648438,1.688701990058265e+18,47.70626513671875,0.2202841540177662,-0.7465007106463114,-0.3584465682506561,0.5150246222813925,-2.117403268814087,0.7732757727305094,0.4450690150260925
2.75,1.6887019901015278e+18,47.74952783203125,35.252617835998535,-12.60572862625122,1.0213017463684082,1.6887019901015278e+18,47.74952783203125,29.37817883491516,-18.21895217895508,6.513263463973999,1.6887019901015278e+18,47.74952783203125,-5.880285978317261,-5.595720052719116,5.429274320602417,1.6887019901015265e+18,47.74952636718749,-1.3282755414644878,-3.652312437693278,-5.071301539738973,1.6887019901015265e+18,47.74952636718749,-1.3293446103731792,-3.647883574167887,-5.06890885035197,,,,,,,,,,,,1.6887019900971988e+18,47.74519892578125,20.77659969329834,44.576358795166016,-9.325679874420166,1.6887019900971988e+18,47.74519892578125,-233.76419677734376,140.041357421875,-142.5374755859375,1.6887019901015278e+18,47.74952783203125,0.1851530149579048,-0.8285653591156006,-0.3352137356996536,0.4056154787540436,-2.3982744216918945,0.6171950101852417,0.5181330591440201
2.8,1.6887019901447872e+18,47.79278702799479,3.3419006665547677,-9.228851318359377,-0.8912148475646973,1.6887019901447872e+18,47.79278702799479,-1.616152286529541,-14.005390167236328,6.075177162885666,1.6887019901447872e+18,47.79278702799479,-4.9638991355896,-4.759034792582194,6.903704325358073,1.6887019901534351e+18,47.801435302734376,1.0920743346214294,8.482678572336832,-0.4749986231327057,1.6887019901534351e+18,47.801435302734376,1.0911580522855122,8.48720916112264,-0.4725551704565683,,,,,,,,,,,,1.6887019901471923e+18,47.79519243164062,27.459759140014647,39.42063980102539,-15.01087989807129,1.6887019901471923e+18,47.79519243164062,-227.0810333251953,134.88563537597656,-148.2226776123047,1.6887019901447872e+18,47.79278702799479,0.0784968100488185,-0.7814374963442484,-0.376495748758316,0.4863382180531819,-2.1991005738576255,0.5144406060377756,0.6310231685638428
2.85,1.6887019901966897e+18,47.844689371744785,-3.476844231287638,-6.497657934824626,-7.854908943176269,1.6887019901966897e+18,47.844689371744785,-6.968497594197591,-11.675379117329916,-0.2193420728047689,1.6887019901966897e+18,47.844689371744785,-3.497499386469523,-5.160216490427653,7.572879473368327,1.6887019902053435e+18,47.85334375,0.3137302100658416,-1.2021318674087524,1.8860973318417864,1.6887019902053435e+18,47.85334375,0.3127120981613795,-1.1976522505283356,1.8885407745838163,,,,,,,,,,,,1.6887019901971927e+18,47.84519262695312,22.4601993560791,40.37467803955078,-18.99295997619629,1.6887019901971927e+18,47.84519262695312,-232.08059387207032,135.8396728515625,-152.2047576904297,1.6887019901966897e+18,47.844689371744785,0.0604734445611635,-0.724122166633606,-0.3933556874593099,0.5630374948183695,-2.007268031438192,0.5593915979067484,0.6333131790161133
2.9,1.6887019902485996e+18,47.896599609374995,9.754481474558512,-9.306045850118002,-6.106441656748454,1.6887019902485996e+18,47.896599609374995,6.335795442263286,-15.275580406188965,0.9493524233500162,1.6887019902485996e+18,47.896599609374995,-3.424531936645508,-5.952030340830485,6.993106683095296,1.688701990257251e+18,47.90525089518229,2.5523476600646973,0.3849469423294067,1.8611027399698896,1.688701990257251e+18,47.90525089518229,2.5513805548350015,0.3894265492757161,1.8635462125142417,,,,,,,,,,,,1.6887019902471905e+18,47.895190673828125,19.942119216918947,42.98547973632813,-16.257719802856446,1.6887019902471905e+18,47.895190673828125,-234.59867248535156,138.45047607421876,-149.46951904296876,1.6887019902485996e+18,47.896599609374995,0.1298926249146461,-0.7287542223930359,-0.3786619206269582,0.5551435947418213,-2.0273051261901855,0.6560783783594767,0.5402897993723551
2.95,1.6887019903005071e+18,47.94850708007812,-0.0734323660532633,-7.526887893676758,-0.6862858931223551,1.6887019903005071e+18,47.94850708007812,-2.317448695500692,-15.071990966796877,5.213162819544475,1.6887019903005071e+18,47.94850708007812,-2.2498623530069985,-7.52759838104248,5.836761315663655,1.688701990309155e+18,47.957155110677085,3.850283622741699,0.1413644005854924,2.2183571259180703,1.688701990309155e+18,47.957155110677085,3.849265575408935,0.1458440795540809,2.2208006381988525,,,,,,,,,,,,1.6887019902971922e+18,47.945192285156246,14.198359870910645,47.00659942626953,-9.454999828338623,1.6887019902971922e+18,47.945192285156246,-240.34243774414065,142.47159729003906,-142.666796875,1.6887019903005071e+18,47.94850708007812,0.2148022403319676,-0.6639827688535055,-0.4161766370137532,0.5819264451662699,-1.9376511971155803,0.8795323769251505,0.4938092132409413
3.0,1.6887019903524058e+18,48.00040600585938,2.259273370107015,-8.883868853251139,7.083354632059733,1.6887019903524058e+18,48.00040600585938,0.5772684216499329,-17.39920997619629,11.738988558451334,1.6887019903524058e+18,48.00040600585938,-1.6878509124120076,-8.49783738454183,4.59294589360555,1.6887019903524142e+18,48.0004140625,1.7841846942901611,-1.20233553647995,1.3342060446739197,1.6887019903524142e+18,48.0004140625,1.7831920385360718,-1.1978303790092468,1.3365731239318848,,,,,,,,,,,,1.6887019903471923e+18,47.99519228515625,9.235400009155274,48.946398162841795,-1.6738399535417556,1.6887019903471923e+18,47.99519228515625,-245.3053955078125,144.41139526367186,-134.88563842773436,1.6887019903524058e+18,48.00040600585938,0.2951147456963857,-0.6313082178433737,-0.4326178729534149,0.571755607922872,-1.9227769772211711,1.0502912203470869,0.4327516754468282
3.05,1.688701990404321e+18,48.05232104492188,1.298041820526123,1.3381843566894531,5.024776140848796,1.688701990404321e+18,48.05232104492188,0.3493520617485046,-7.64586607615153,8.935996055603027,1.688701990404321e+18,48.05232104492188,-0.9545358022054036,-8.966545740763346,3.848532279332479,1.6887019903956716e+18,48.04367154947917,1.671021898587545,0.1428406536579132,1.854892333348592,1.6887019903956716e+18,48.04367154947917,1.6700546741485596,0.1473712424437205,1.857284863789876,,,,,,,,,,,,1.688701990397193e+18,48.04519296875,3.8820399045944214,49.71255950927734,3.825920057296753,1.688701990397193e+18,48.04519296875,-250.65875244140625,145.17755737304688,-129.38587646484376,1.688701990404321e+18,48.05232104492188,0.3497399787108103,-0.6021562616030375,-0.4309006134668986,0.5736810564994812,-1.8112213214238484,1.1572235027949016,0.2942628512779871
3.1,1.6887019904562278e+18,48.10422778320312,-1.419839084148407,7.407733917236328,0.423118511835734,1.6887019904562278e+18,48.10422778320312,-1.7948163747787476,-1.8805591662724812,3.6652061144510903,1.6887019904562278e+18,48.10422778320312,-0.3808233241240183,-9.270788510640465,3.1794002056121826,1.6887019904475768e+18,48.09557682291666,1.449074149131775,0.2567161256447434,0.8710938294728597,1.6887019904475768e+18,48.09557682291666,1.4480561017990112,0.2611448895186185,0.8734355171521505,,,,,,,,,,,,1.6887019904471923e+18,48.09519228515624,0.4440799966454506,49.34655990600586,8.2862398147583,1.6887019904471923e+18,48.09519228515624,-254.09671325683593,144.81155700683593,-124.9255584716797,1.6887019904562278e+18,48.10422778320312,0.385923167069753,-0.571282684803009,-0.4391335844993591,0.5759877363840739,-1.689664642016093,1.243399182955424,0.1775722354650497
3.15,1.6887019905081285e+18,48.15612817382813,-5.089406410853068,9.45618724822998,0.0550716718037923,1.6887019905081285e+18,48.15612817382813,-5.038686275482178,0.0147557457288105,2.8362924257914224,1.6887019905081285e+18,48.15612817382813,0.0448740695913632,-9.423926989237469,2.7185333569844565,1.688701990499484e+18,48.14748388671875,0.9671523968378702,-0.2804889728625615,1.237154841423035,1.688701990499484e+18,48.14748388671875,0.9662361145019532,-0.2759583642085393,1.2395473718643188,,,,,,,,,,,,1.6887019904971935e+18,48.14519365234375,-2.1032799601554872,48.65115966796875,11.385039710998536,1.6887019904971935e+18,48.14519365234375,-256.6440734863281,144.11615905761718,-121.82675628662108,1.6887019905081285e+18,48.15612817382813,0.4133259356021881,-0.5510017275810242,-0.4404171705245971,0.5756945411364237,-1.5509536663691204,1.2963850895563762,0.0324513912200927
3.2,1.688701990551386e+18,48.19938586425781,-2.619384169578552,9.765066146850586,-0.858645498752594,1.688701990551386e+18,48.19938586425781,-2.12961208820343,0.2763710096478462,1.7126627564430237,1.688701990551386e+18,48.19938586425781,0.4839261025190353,-9.471190929412842,2.508620858192444,1.6887019905513925e+18,48.19939225260416,0.5046255886554718,-0.783027450243632,1.244027058283488,1.6887019905513925e+18,48.19939225260416,0.5037092864513397,-0.7785477439562479,1.2463687062263489,,,,,,,,,,,,1.688701990547194e+18,48.195193847656256,-6.307399940490723,48.05091934204101,13.01251983642578,1.688701990547194e+18,48.195193847656256,-260.84819946289065,143.51591796875,-120.19927825927736,1.688701990551386e+18,48.19938586425781,0.4448960423469543,-0.5448289513587952,-0.4221747368574142,0.571809321641922,-1.371893346309662,1.315493881702423,-0.1946081593632698
3.25,1.6887019905946432e+18,48.24264306640625,-2.2497591574986777,9.12866465250651,-1.2978477875391643,1.6887019905946432e+18,48.24264306640625,-1.7120645840962727,-0.3617150199910005,1.256830096244812,1.6887019905946432e+18,48.24264306640625,0.5318485299746195,-9.472875277201334,2.4919904867808023,1.688701990603298e+18,48.25129793294271,-0.362497607866923,-1.705332100391388,-0.3490076710780462,1.688701990603298e+18,48.25129793294271,-0.3635666420062383,-1.7008524934450786,-0.3466151257356007,,,,,,,,,,,,1.6887019905971922e+18,48.245192138671875,-8.071519756317139,47.67027816772461,13.13939971923828,1.6887019905971922e+18,48.245192138671875,-262.61231689453126,143.1352752685547,-120.07239837646485,1.6887019905946432e+18,48.24264306640625,0.4579599599043528,-0.5507030089696249,-0.4112928807735442,0.5637157360712687,-1.3487324317296343,1.317707101504008,-0.2559947421153386
3.3,1.688701990646553e+18,48.29455305989583,24.555022557576496,-9.552162329355877,1.7888967196146648,1.688701990646553e+18,48.29455305989583,24.03171666463216,-18.84307940800985,4.98385073741277,1.688701990646553e+18,48.29455305989583,-0.5291531731685003,-9.27341334025065,3.1322666009267173,1.688701990655205e+18,48.3032049967448,-2.473596970240275,-8.932631572087606,1.0972158312797546,1.688701990655205e+18,48.3032049967448,-2.4746150970458984,-8.92810090382894,1.0995574394861858,,,,,,,,,,,,1.688701990647194e+18,48.29519418945312,-10.60423984527588,48.507198333740234,7.322439765930175,1.688701990647194e+18,48.29519418945312,-265.14503173828126,143.97219848632812,-125.88935699462893,1.688701990646553e+18,48.29455305989583,0.4977559149265289,-0.6516537666320801,-0.3098712017138799,0.4746665557225545,-1.7257025639216106,1.2499089638392131,-0.2183542847633361
3.35,1.688701990698462e+18,48.34646166992187,6.986550132433574,-9.298085848490397,4.965017477671306,1.688701990698462e+18,48.34646166992187,5.937191034356753,-18.385053316752117,8.604989051818848,1.688701990698462e+18,48.34646166992187,-1.0552051663398745,-9.06946341196696,3.5772839387257895,1.6887019907071086e+18,48.35510847981771,0.6688465376694998,0.1657990192373594,-1.7451910972595217,1.6887019907071086e+18,48.35510847981771,0.6678284307320913,0.170278675854206,-1.7427476247151692,,,,,,,,,,,,1.6887019906971942e+18,48.3451943359375,-13.31507987976074,48.285159301757815,0.4587199822068214,1.6887019906971942e+18,48.3451943359375,-267.8558776855469,143.75015563964843,-132.75307922363282,1.688701990698462e+18,48.34646166992187,0.5188389420509338,-0.7052664359410604,-0.2314773152271906,0.4238191346327464,-1.8495641549428303,1.1886667807896931,-0.3090138485034306
3.4,1.688701990750361e+18,48.39836124674479,0.2798961798350016,-3.455976327260335,8.73900032043457,1.688701990750361e+18,48.39836124674479,-1.0271190802256267,-12.57089344660441,12.22752316792806,1.688701990750361e+18,48.39836124674479,-1.3128613233566284,-9.09741242726644,3.425835132598877,1.6887019907590144e+18,48.40701448567708,0.4173227846622467,4.375220616658528,-0.9080511927604676,1.6887019907590144e+18,48.40701448567708,0.4163046578566233,4.379700183868408,-0.9056077003479004,,,,,,,,,,,,1.6887019907471946e+18,48.39519453125,-9.14755983352661,49.26359939575195,2.7669599294662475,1.6887019907471946e+18,48.39519453125,-263.6883605957031,144.72859802246094,-130.44483642578126,1.688701990750361e+18,48.39836124674479,0.4849225282669067,-0.6938186089197794,-0.2878278493881225,0.4467794199784596,-1.9338295459747312,1.197407881418864,-0.0931356834868589
3.45,1.6887019908022756e+18,48.450275634765624,-2.69502329826355,7.335950056711833,-0.7615226904551188,1.6887019908022756e+18,48.450275634765624,-3.6570306619008384,-1.774477442105611,2.8528428077697754,1.6887019908022756e+18,48.450275634765624,-0.9678533871968588,-9.092923164367676,3.55167810122172,1.6887019908022753e+18,48.450275390625,0.2683225572109222,3.314554810523987,-0.5553528666496277,1.6887019908022753e+18,48.450275390625,0.2673299014568329,3.31905996799469,-0.5529857575893402,,,,,,,,,,,,1.6887019907971896e+18,48.44518979492187,-5.860879802703858,49.431959533691405,5.460719871520996,1.6887019907971896e+18,48.44518979492187,-260.40167846679685,144.89696044921874,-127.7510772705078,1.6887019908022756e+18,48.450275634765624,0.4436319768428802,-0.6532195607821146,-0.3478893836339314,0.5049886306126913,-1.8374673128128052,1.198209285736084,0.0176984254891673
3.5,1.6887019908541855e+18,48.50218554687499,-1.658854365348816,4.9140903155008955,-0.6945518652598063,1.6887019908541855e+18,48.50218554687499,-2.812962452570597,-4.073381781578064,3.1587252616882324,1.6887019908541855e+18,48.50218554687499,-1.1599541107813518,-8.969967524210611,3.7905897299448648,1.688701990845531e+18,48.49353092447917,-0.628376692533493,1.2101749579111736,-1.1226685444513955,1.688701990845531e+18,48.49353092447917,-0.6293439219395319,1.214705526828766,-1.12032683690389,,,,,,,,,,,,1.6887019908471898e+18,48.49518994140625,-2.8621199131011963,49.610077667236325,6.30251989364624,1.6887019908471898e+18,48.49518994140625,-257.4029113769531,145.07507934570313,-126.90927581787108,1.6887019908541855e+18,48.50218554687499,0.406403253475825,-0.6460694471995035,-0.3753352264563243,0.5256771246592203,-1.8720112244288127,1.1678313811620076,0.146491860349973
3.55,1.6887019909060854e+18,48.55408553059896,-1.9700863758722944,-3.735685984293619,2.2536872227986655,1.6887019909060854e+18,48.55408553059896,-3.356332540512085,-12.212169329325356,7.079963366190593,1.6887019909060854e+18,48.55408553059896,-1.3920921087265017,-8.458978652954102,4.763588587443034,1.6887019908974377e+18,48.54543774414063,-2.15182371934255,0.4400266061226527,-0.4485787153244018,1.6887019908974377e+18,48.54543774414063,-2.152841806411743,0.4445571874578793,-0.4461352626482646,,,,,,,,,,,,1.6887019908971924e+18,48.545192333984374,-0.4294399857521057,49.68083877563477,1.8470799565315248,1.6887019908971924e+18,48.545192333984374,-254.9702362060547,145.14583740234374,-131.36471557617188,1.6887019909060854e+18,48.55408553059896,0.3588865598042806,-0.6655628879865011,-0.3569203317165375,0.5483572483062744,-1.8603543440500896,1.0537116924921672,0.1662040551503499
3.6,1.6887019909579948e+18,48.60599479166667,0.5628025929133097,3.513614018758138,-2.96376903851827,1.6887019909579948e+18,48.60599479166667,-0.9090731839338938,-4.720440864562988,2.248256285985311,1.6887019909579948e+18,48.60599479166667,-1.4777218103408811,-8.21655019124349,5.149337927500407,1.6887019909493432e+18,48.597343180338534,-0.7649051149686178,-0.3432044585545857,-0.1762855326135953,1.6887019909493432e+18,48.597343180338534,-0.7659741242726644,-0.3387756844361623,-0.1739438846707344,,,,,,,,,,,,1.6887019909471954e+18,48.5951953125,-0.0122000008821487,49.97607879638672,-1.4395999670028687,1.6887019909471954e+18,48.5951953125,-254.5529937744141,145.44107666015626,-134.65139770507812,1.6887019909579948e+18,48.60599479166667,0.3466931184132893,-0.677984893321991,-0.3391816020011902,0.5522934198379517,-1.853710373242696,1.0061987439791362,0.1440986494223276
3.65,1.6887019910012518e+18,48.64925170898437,0.8549831509590149,1.4368994235992432,-3.8952819108963017,1.6887019910012518e+18,48.64925170898437,-1.039980560541153,-6.466902256011963,1.6812570095062256,1.6887019910012518e+18,48.64925170898437,-1.900809705257416,-7.886296987533569,5.513851642608643,1.688701991001251e+18,48.649251057942706,-1.268359899520874,-0.1720603758779664,-1.4875586827596028,1.688701991001251e+18,48.649251057942706,-1.2693779468536377,-0.1675806972198187,-1.4851152499516804,,,,,,,,,,,,1.6887019909971917e+18,48.64519169921875,2.217959976196289,49.69547882080078,-4.218759965896607,1.6887019909971917e+18,48.64519169921875,-252.3228332519531,145.1604736328125,-137.43055725097656,1.6887019910012518e+18,48.64925170898437,0.3183266520500183,-0.6959737837314606,-0.3347451090812682,0.5496892035007477,-1.9067036509513855,0.9460816383361816,0.199331633746624
3.7,1.6887019910445025e+18,48.69250244140625,0.8552201986312866,-2.895455837249756,-3.511045535405477,1.6887019910445025e+18,48.69250244140625,-1.8301105896631875,-10.313663800557457,2.3894328276316323,1.6887019910445025e+18,48.69250244140625,-2.6911768118540444,-7.400703271230061,5.8377909660339355,1.6887019910531597e+18,48.70115983072916,-1.367727279663086,-1.86858594417572,-1.82821790377299,1.6887019910531597e+18,48.70115983072916,-1.3687454064687092,-1.8641061782836912,-1.825774351755778,,,,,,,,,,,,1.6887019910471926e+18,48.695192529296875,7.1394397735595705,48.57307891845703,-7.603039741516113,1.6887019910471926e+18,48.695192529296875,-247.40135803222657,144.03807678222657,-140.81483459472656,1.6887019910445025e+18,48.69250244140625,0.2834864954153696,-0.7271650433540344,-0.3284072776635487,0.5316177010536194,-2.005881587664286,0.8657125234603882,0.274294763803482
3.75,1.688701991096416e+18,48.74441593424479,5.818048318227132,-7.009240468343099,-2.525217056274414,1.688701991096416e+18,48.74441593424479,1.5503496130307517,-13.657434145609535,3.3336006800333657,1.688701991096416e+18,48.74441593424479,-4.273544708887736,-6.6306891441345215,5.796130339304606,1.6887019911050688e+18,48.75306868489583,-1.1810061534245808,-4.007225036621094,-3.944000562032064,1.6887019911050688e+18,48.75306868489583,-1.1820242603619893,-4.002796332041423,-3.94160803159078,1.6887019910818778e+18,48.729877685546874,0.0,0.0,1.4056715965270996,5.9629998207092285,1.264717698097229,268.09234619140625,41.400001525878906,-122.7550919,49.1905865,1.688701991097191e+18,48.745191015625,13.71767978668213,46.98951873779297,-9.784399604797365,1.688701991097191e+18,48.745191015625,-240.82311401367187,142.4545166015625,-142.9961944580078,1.688701991096416e+18,48.74441593424479,0.2474756737550099,-0.7872791687647501,-0.311581939458847,0.4697812596956889,-2.207669258117676,0.7513851523399353,0.3592524329821269
3.8,1.6887019911483215e+18,48.79632145182293,16.418635209401447,-10.308722496032717,1.3617496490478516,1.6887019911483215e+18,48.79632145182293,10.316854159037272,-15.04028606414795,7.405786037445068,1.6887019911483215e+18,48.79632145182293,-6.107627232869466,-4.714059034983317,5.9813486735026045,1.6887019911569728e+18,48.80497298177084,0.8164214044809341,7.223328908284505,-5.4215307633082075,1.6887019911569728e+18,48.80497298177084,0.8154542197783788,7.227808594703674,-5.419138312339783,,,,,,,,,,,,1.6887019911471852e+18,48.79518520507812,28.499199676513673,39.825679779052734,-11.143479919433592,1.6887019911471852e+18,48.79518520507812,-226.04159240722657,135.29067993164062,-144.35527648925782,1.6887019911483215e+18,48.79632145182293,0.1156000308692454,-0.8285597165425619,-0.3520979980627696,0.4131058156490326,-2.373693863550822,0.5089149177074432,0.5969362457593282
3.85,1.6887019912002286e+18,48.84822843424479,-1.691529353459676,-5.922507286071777,-7.987399260203044,1.6887019912002286e+18,48.84822843424479,-5.722634772459666,-10.575478394826254,-0.2897310654322306,1.6887019912002286e+18,48.84822843424479,-4.036951462427775,-4.635466416676839,7.63498067855835,1.6887019912088758e+18,48.85687565104166,0.9156870146592458,2.6072746266921363,0.569224605957667,1.6887019912088758e+18,48.85687565104166,0.9147197902202606,2.6117034405469894,0.5715662439664205,,,,,,,,,,,,1.688701991197191e+18,48.845190722656255,27.669599533081055,37.3832389831543,-19.58343963623047,1.688701991197191e+18,48.845190722656255,-226.8711944580078,132.84823608398438,-152.7952392578125,1.6887019912002286e+18,48.84822843424479,0.0189675875008106,-0.7311904231707255,-0.4145850936571757,0.5408701499303182,-2.0607875982920327,0.496766060590744,0.7293084065119425
3.9,1.6887019912521326e+18,48.90013273111979,3.1187451680501304,-11.285639762878418,-8.50340223312378,1.6887019912521326e+18,48.90013273111979,-0.1738784393916527,-16.578073501586914,-0.8656035761038462,1.6887019912521326e+18,48.90013273111979,-3.298469622929891,-5.274930000305176,7.575111071268718,1.6887019912521298e+18,48.90012988281249,1.0267881006002426,0.0755945742130279,3.03737473487854,1.6887019912521298e+18,48.90012988281249,1.0257954746484756,0.0800997018814086,3.0398181676864624,,,,,,,,,,,,1.6887019912471916e+18,48.895191552734374,23.37519950866699,39.65243911743164,-19.873799514770507,1.6887019912471916e+18,48.895191552734374,-231.16559448242188,135.11743774414063,-153.085595703125,1.6887019912521326e+18,48.90013273111979,0.0562798144916692,-0.7120422720909119,-0.4017227391401927,0.5726030270258585,-1.9826639493306475,0.5707746942838033,0.6473986109097799
3.95,1.6887019913040425e+18,48.95204239908853,3.078238328297933,-7.098672389984131,-3.352524518966675,1.6887019913040425e+18,48.95204239908853,0.367298275232315,-13.834502855936686,3.29192582766215,1.6887019913040425e+18,48.95204239908853,-2.7167860666910806,-6.718325773874919,6.581762949625651,1.688701991295391e+18,48.943391194661466,3.120248794555664,-0.9997827808062236,2.862463633219401,1.688701991295391e+18,48.943391194661466,3.1192306677500405,-0.9953031341234844,2.864856243133545,,,,,,,,,,,,1.6887019912971914e+18,48.94519130859375,18.112119483947755,44.00783996582031,-14.576559829711917,1.6887019912971914e+18,48.94519130859375,-236.42867126464844,139.47283630371095,-147.78835754394532,1.6887019913040425e+18,48.95204239908853,0.1573835387825965,-0.6884654959042867,-0.4051700929800669,0.5795635382334391,-1.961323857307434,0.7574272155761719,0.5422669649124146
4.0,1.6887019913559462e+18,49.0039462076823,0.586482286453247,-8.04334799448649,2.746249039967855,1.6887019913559462e+18,49.0039462076823,-1.181057373682658,-16.105490684509277,8.117052555084229,1.6887019913559462e+18,49.0039462076823,-1.7733856836954751,-8.044638633728027,5.3081159591674805,1.6887019913472911e+18,48.99529109700521,2.7551549275716147,-0.9587530096371968,2.984891176223755,1.6887019913472911e+18,48.99529109700521,2.754136880238851,-0.9542733232180276,2.987334728240967,,,,,,,,,,,,1.6887019913471892e+18,48.99518920898437,10.80675983428955,48.19975891113281,-6.6733996868133545,1.6887019913471892e+18,48.99518920898437,-243.73403930664065,143.6647521972656,-139.88519897460938,1.6887019913559462e+18,49.0039462076823,0.2679109821716944,-0.652441124121348,-0.4053146739800771,0.5810371041297913,-1.8907347520192463,0.9631657203038534,0.3892809053262074
4.05,1.6887019914078556e+18,49.055855712890626,3.257559061050415,-2.6642088890075684,6.877548694610596,1.6887019914078556e+18,49.055855712890626,2.0632113218307495,-11.372886498769123,11.319247563680014,1.6887019914078556e+18,49.055855712890626,-1.2001938819885254,-8.69117291768392,4.379010995229085,1.6887019913992018e+18,49.04720174153646,2.062281052271525,0.5754350423812866,0.7579819510380427,1.6887019913992018e+18,49.04720174153646,2.0613648096720376,0.5799147387345632,0.7603745063145956,,,,,,,,,,,,1.6887019913971922e+18,49.04519223632813,5.753519916534424,49.47099914550781,-0.5855999827384949,1.6887019913971922e+18,49.04519223632813,-248.7872741699219,144.93599853515624,-133.79739685058593,1.6887019914078556e+18,49.055855712890626,0.3220782975355784,-0.6192152698834738,-0.4209141234556834,0.579109768072764,-1.8364825248718264,1.0900652805964153,0.3261053462823232
4.1,1.6887019914511132e+18,49.09911315917969,0.0562258958816528,5.148857116699219,3.4293757677078247,1.6887019914511132e+18,49.09911315917969,-0.6619145460426807,-3.909273862838745,7.227520704269409,1.6887019914511132e+18,49.09911315917969,-0.7239864766597748,-9.040626525878906,3.735457420349121,1.6887019914511135e+18,49.09911352539063,1.738878806432088,0.9459248185157776,0.826195240020752,1.6887019914511135e+18,49.09911352539063,1.737911621729533,0.9503536224365234,0.8285877903302511,,,,,,,,,,,,1.6887019914471977e+18,49.09519760742187,4.706759881973267,49.466119384765626,4.287080001831055,1.6887019914471977e+18,49.09519760742187,-249.8340362548828,144.93111877441407,-128.92471771240236,1.6887019914511132e+18,49.09911315917969,0.3427065908908844,-0.5816512703895569,-0.4454046338796615,0.5880280137062073,-1.7618293762207031,1.1746128797531128,0.3023361414670944
4.15,1.6887019914943642e+18,49.142364257812496,-4.084209521611531,7.708476861317952,0.824052095413208,1.6887019914943642e+18,49.142364257812496,-4.4672004381815595,-1.5559329390525818,4.134996970494588,1.6887019914943642e+18,49.142364257812496,-0.3888369401295979,-9.24690532684326,3.2482574780782065,1.6887019915030152e+18,49.15101529947916,1.11503271261851,-0.0575740536053975,0.8627962470054626,1.6887019915030152e+18,49.15101529947916,1.1140654683113098,-0.0530434623360634,0.8651887973149618,,,,,,,,,,,,1.6887019914971878e+18,49.14518793945312,2.6595999240875243,49.2879997253418,8.04711971282959,1.6887019914971878e+18,49.14518793945312,-251.88119506835935,144.75299682617188,-125.16467742919922,1.6887019914943642e+18,49.142364257812496,0.3632997274398803,-0.558453897635142,-0.4559690356254577,0.5900487701098124,-1.690212607383728,1.2342830101648967,0.2455477813879648
4.2,1.6887019915462758e+18,49.19427563476563,-3.617322127024333,9.136281331380207,-0.5780193010965983,1.6887019915462758e+18,49.19427563476563,-3.66101864973704,-0.2522433896859486,2.3844477335611978,1.6887019915462758e+18,49.19427563476563,-0.0495424854258695,-9.371020317077637,2.8997796376546225,1.6887019915549266e+18,49.2029267578125,0.4546364545822143,-1.509804328282674,1.1248574256896973,1.6887019915549266e+18,49.2029267578125,0.4535674452781677,-1.5053246815999348,1.1273009181022644,,,,,,,,,,,,1.688701991547193e+18,49.19519326171875,-0.5929199874401092,48.99031829833984,10.335839653015135,1.688701991547193e+18,49.19519326171875,-255.1337158203125,144.45531616210937,-122.87595672607422,1.6887019915462758e+18,49.19427563476563,0.3983766933282216,-0.5532446106274923,-0.4431074659029643,0.5819658239682516,-1.587349573771159,1.2753215630849202,0.0908470774690309
4.25,1.6887019915981816e+18,49.24618180338541,-0.7350596189498901,9.234886169433594,-1.6440172990163169,1.6887019915981816e+18,49.24618180338541,-0.7611169715722402,-0.1740778510769208,1.2526426315307615,1.6887019915981816e+18,49.24618180338541,-0.0319033836325009,-9.391459782918297,2.8339725335439048,1.688701991606834e+18,49.25483382161459,0.0072794730464617,-1.686140775680542,0.1102611720561981,1.688701991606834e+18,49.25483382161459,0.0063631857434908,-1.681712031364441,0.1127046346664428,,,,,,,,,,,,1.6887019915971953e+18,49.24519541015625,-3.5355599403381346,48.707278442382815,11.09955997467041,1.6887019915971953e+18,49.24519541015625,-258.07636108398435,144.17227783203126,-122.11223602294922,1.6887019915981816e+18,49.24618180338541,0.4269331792990367,-0.5699255466461182,-0.4201608498891194,0.5623427033424377,-1.580868363380432,1.2846301396687825,-0.0044334850778492
4.3,1.6887019916500895e+18,49.29808951822917,18.06947430968285,-3.120880444844565,-1.3374756574630735,1.6887019916500895e+18,49.29808951822917,17.440685957670212,-12.395818452040354,1.876770536104838,1.6887019916500895e+18,49.29808951822917,-0.6346345841884612,-9.257433573404947,3.151558796564738,1.688701991658739e+18,49.306738850911465,-2.1239274938901267,-7.457443157831828,0.6486879686514538,1.688701991658739e+18,49.306738850911465,-2.1248438358306885,-7.453014294306437,0.651080548763275,,,,,,,,,,,,1.6887019916471936e+18,49.29519345703125,-4.692119979858399,49.03179931640625,9.093879985809329,1.6887019916471936e+18,49.29519345703125,-259.2329162597656,144.49679870605468,-124.1179183959961,1.6887019916500895e+18,49.29808951822917,0.4451592365900675,-0.6240200599034628,-0.3737454712390899,0.5187663932641348,-1.7606341044108074,1.243251125017802,0.0098854990986486
4.35,1.6887019917019942e+18,49.349994222005215,17.38873593012492,-14.579177856445312,3.8592522144317623,1.6887019917019942e+18,49.349994222005215,16.32383632659912,-23.590240478515625,7.6893355051676435,1.6887019917019942e+18,49.349994222005215,-1.0707460641860962,-8.993558883666992,3.767395814259847,1.688701991701996e+18,49.34999621582031,-1.2254720628261566,-2.5985443592071533,0.8286387287080288,1.688701991701996e+18,49.34999621582031,-1.2264646887779236,-2.594115674495697,0.8310821764171124,,,,,,,,,,,,1.6887019916971924e+18,49.3451923828125,-10.318759727478028,49.0757194519043,1.3566399484872818,1.6887019916971924e+18,49.3451923828125,-264.85955810546875,144.54071655273438,-131.85515747070312,1.6887019917019942e+18,49.349994222005215,0.5003196100393931,-0.7018017371495565,-0.244725152850151,0.4438554048538208,-1.8422869046529131,1.1673823595046997,-0.2589728037516275
4.4,1.6887019917538993e+18,49.40189916992187,-2.0618616739908853,-6.704309781392415,7.251504262288411,1.6887019917538993e+18,49.40189916992187,-3.1066814263661704,-15.71605936686198,11.084750811258951,1.6887019917538993e+18,49.40189916992187,-1.05066575606664,-8.994245211283365,3.770558834075928,1.6887019917452526e+18,49.39325260416666,0.4996877710024516,2.363335907459259,-0.6291911900043488,1.6887019917452526e+18,49.39325260416666,0.4987205664316813,2.367764492829641,-0.626747747262319,,,,,,,,,,,,1.6887019917471928e+18,49.395192919921875,-9.176839828491213,49.17331924438477,1.0467599481344223,1.6887019917471928e+18,49.395192919921875,-263.717626953125,144.63831787109376,-132.1650390625,1.6887019917538993e+18,49.40189916992187,0.4879143138726552,-0.694084882736206,-0.2638960132996241,0.4580532014369964,-1.8378489414850872,1.1675540208816528,-0.2071396509806314
4.45,1.6887019918058117e+18,49.4538115234375,-1.6545379559199016,6.732919216156006,-0.2608673572540282,1.6887019918058117e+18,49.4538115234375,-2.0247267484664917,-2.2835504511992135,3.683750430742899,1.6887019918058117e+18,49.4538115234375,-0.3760348483920097,-8.9989652633667,3.881930351257324,1.688701991797158e+18,49.4451582845052,0.1191187240183353,5.007109642028809,-0.4655811289946238,1.688701991797158e+18,49.4451582845052,0.1181006158391634,5.0115383466084795,-0.4631885786851247,,,,,,,,,,,,1.6887019917971932e+18,49.44519326171875,-7.971479701995849,49.37827911376953,3.313519906997681,1.6887019917971932e+18,49.44519326171875,-262.51227416992185,144.84327697753906,-129.89827880859374,1.6887019918058117e+18,49.4538115234375,0.4441477457682292,-0.639203151067098,-0.3301762243111928,0.5328980485598246,-1.664188027381897,1.1702007055282593,-0.1319946199655532
4.5,1.6887019918577132e+18,49.50571313476562,-3.175273060798645,7.581461588541667,-1.8405404090881348,1.6887019918577132e+18,49.50571313476562,-2.971686283747355,-1.4709877570470171,2.038086692492167,1.6887019918577132e+18,49.50571313476562,0.1977407584587732,-9.034944852193195,3.815939744313558,1.6887019918490655e+18,49.497065348307295,0.3095559626817702,3.4299066066741943,-0.3052799155314763,1.6887019918490655e+18,49.497065348307295,0.3084869434436162,3.4343862533569336,-0.3029382477204005,,,,,,,,,,,,1.688701991847192e+18,49.49519204101563,-6.31471996307373,49.49295959472656,5.926760005950928,1.688701991847192e+18,49.49519204101563,-260.855517578125,144.957958984375,-127.2850357055664,1.6887019918577132e+18,49.50571313476562,0.4055369595686595,-0.5861661434173584,-0.3821217914422353,0.5878741145133972,-1.5169260501861572,1.1811282634735107,-0.0760097764432429
4.55,1.6887019919096246e+18,49.557624430338535,-2.1647361119588218,-2.602491537729899,3.444302956263224,1.6887019919096246e+18,49.557624430338535,-2.3597219387690225,-11.419945240020752,7.818946679433187,1.6887019919096246e+18,49.557624430338535,-0.2008317982157071,-8.799949010213217,4.31195600827535,1.6887019919009695e+18,49.5489696451823,-1.6919440031051636,-0.5351179639498392,-1.152295509974162,1.6887019919009695e+18,49.5489696451823,-1.692962110042572,-0.5306891798973083,-1.149902880191803,,,,,,,,,,,,1.688701991897197e+18,49.54519721679687,-4.187039947509765,49.614959716796875,5.138639831542969,1.688701991897197e+18,49.54519721679687,-258.72783813476565,145.0799591064453,-128.07315521240236,1.6887019919096246e+18,49.557624430338535,0.3705933193365733,-0.6020721991856893,-0.3841147621472676,0.5934364000956217,-1.6149749358495076,1.125150442123413,0.0491238042595796
4.6,1.6887019919528742e+18,49.60087426757812,0.2067391872406005,0.7045142650604248,0.2215626239776611,1.6887019919528742e+18,49.60087426757812,-0.9667003303766252,-7.798507928848267,5.058427095413208,1.6887019919528742e+18,49.60087426757812,-1.1792855262756348,-8.485517501831055,4.774177074432373,1.6887019919528817e+18,49.60088159179688,-0.6793839732805887,-1.4528920650482178,-2.0781636238098145,1.6887019919528817e+18,49.60088159179688,-0.6804529627164205,-1.4484123984972637,-2.0757200717926025,,,,,,,,,,,,1.688701991947197e+18,49.59519692382813,-0.1903199911117553,50.007798767089845,1.2614799618721009,1.688701991947197e+18,49.59519692382813,-254.73111877441409,145.47279663085936,-131.9503173828125,1.6887019919528742e+18,49.60087426757812,0.3440063297748565,-0.6478236615657806,-0.374627262353897,0.5670188069343567,-1.8170877695083616,1.056185007095337,0.1943840906023979
4.65,1.6887019919961408e+18,49.64414086914062,1.572356541951497,4.207348664601644,-3.12834366162618,1.6887019919961408e+18,49.64414086914062,-0.5972086489200592,-4.00040062268575,1.8648064533869424,1.6887019919961408e+18,49.64414086914062,-2.1754112243652344,-8.190244674682617,4.930462678273519,1.6887019920047862e+18,49.652786051432294,-1.088969091574351,-0.3102177381515502,-2.2831597328186035,1.6887019920047862e+18,49.652786051432294,-1.0899872382481892,-0.3057380616664886,-2.2807672023773193,,,,,,,,,,,,1.6887019919971942e+18,49.64519418945313,5.848679780960083,49.495398712158206,-0.4587199956178665,1.6887019919971942e+18,49.64519418945313,-248.6921142578125,144.96039733886718,-133.67051696777344,1.6887019919961408e+18,49.64414086914062,0.3100535770257314,-0.6782782872517904,-0.3883686463038127,0.5409764647483826,-1.9921473264694216,0.9987344741821288,0.3598596652348836
4.7,1.6887019920480412e+18,49.69604142252604,1.122908115386963,-1.1635287602742512,-2.395998954772949,1.6887019920480412e+18,49.69604142252604,-1.910868247350057,-8.69113032023112,3.187638600667318,1.6887019920480412e+18,49.69604142252604,-3.0396223862965903,-7.510096867879232,5.520950158437093,1.6887019920566927e+18,49.70469278971354,-1.956346869468689,-0.5029966235160828,-1.400306781133016,1.6887019920566927e+18,49.70469278971354,-1.9573649565378823,-0.4985169519980748,-1.3978633085886638,,,,,,,,,,,,1.6887019920471905e+18,49.695190234375005,11.389920043945311,48.282718658447266,-3.9942800045013422,1.6887019920471905e+18,49.695190234375005,-243.1508758544922,143.74772033691406,-137.2060791015625,1.6887019920480412e+18,49.69604142252604,0.2571544349193573,-0.7125173409779867,-0.3839458028475443,0.5277066230773926,-2.080812772115072,0.8818144003550211,0.4483303725719452
4.75,1.6887019920999503e+18,49.74795027669271,1.2079952557881672,-6.1023149490356445,-2.02039368947347,1.6887019920999503e+18,49.74795027669271,-2.553939421971639,-12.89512062072754,4.044867197672526,1.6887019920999503e+18,49.74795027669271,-3.767780701319377,-6.775300979614258,6.002573490142822,1.688701992108601e+18,49.75660123697917,-2.013513684272766,-2.8505008220672607,-1.1752029259999592,1.688701992108601e+18,49.75660123697917,-2.0145317713419595,-2.845970392227173,-1.1728103756904602,1.688701992107899e+18,49.75589892578125,0.0,0.0,1.4160455465316772,6.291999816894531,1.280048370361328,267.31005859375,41.400001525878906,-122.7551186,49.1905821,1.6887019920971935e+18,49.7451935546875,14.618039512634278,47.0822395324707,-8.047119903564454,1.6887019920971935e+18,49.7451935546875,-239.92275390625,142.54723510742187,-141.25891723632813,1.6887019920999503e+18,49.74795027669271,0.2226830969254175,-0.7518138289451599,-0.3559411565462748,0.5080142219861349,-2.1362098852793374,0.7709456483523051,0.4451177815596263
4.8,1.68870199215185e+18,49.79985001627605,25.92805727322896,-14.076844851175943,0.6735175450642904,1.68870199215185e+18,49.79985001627605,19.87239146232605,-19.42952028910319,6.226523399353027,1.68870199215185e+18,49.79985001627605,-6.061512470245361,-5.335171699523926,5.4903184572855634,1.6887019921518572e+18,49.79985705566406,-1.6312392950057983,-4.398917019367218,-5.570709228515625,1.6887019921518572e+18,49.79985705566406,-1.6322319507598877,-4.394488215446472,-5.568265676498413,,,,,,,,,,,,1.6887019921471944e+18,49.795194287109375,22.39431953430176,44.05175857543945,-9.320799827575684,1.6887019921471944e+18,49.795194287109375,-232.14647521972657,139.51675720214843,-142.53259887695313,1.68870199215185e+18,49.79985001627605,0.173452153801918,-0.8382502794265747,-0.3250696063041687,0.3986478845278422,-2.40763258934021,0.5833487709363302,0.507662316163381
4.85,1.6887019922037658e+18,49.85176554361979,-4.651309808095296,-7.646453380584717,-4.3216179211934405,1.6887019922037658e+18,49.85176554361979,-8.949156920115152,-12.686546325683594,2.950150931874911,1.6887019922037658e+18,49.85176554361979,-4.303693135579427,-5.022588570912679,7.209081490834554,1.6887019921951127e+18,49.84311279296875,1.2618948419888814,8.777115821838379,-0.3231477290391921,1.6887019921951127e+18,49.84311279296875,1.260927697022756,8.781543890635172,-0.3208060438434282,,,,,,,,,,,,1.688701992197191e+18,49.845190771484376,26.317839431762696,40.07699966430664,-15.362239646911622,1.688701992197191e+18,49.845190771484376,-228.22295227050785,135.54200134277343,-148.57403564453125,1.6887019922037658e+18,49.85176554361979,0.0856255069375037,-0.7635539770126343,-0.36912735303243,0.520925372838974,-2.112053712209066,0.5429875453313192,0.5877078572909037
4.9,1.6887019922556672e+18,49.90366731770833,-0.0087682406107584,-7.4832870165507,-7.852852662404378,1.6887019922556672e+18,49.90366731770833,-3.2781670093536377,-13.141780853271484,-0.4675974249839782,1.6887019922556672e+18,49.90366731770833,-3.27524471282959,-5.6409891446431475,7.322567621866862,1.6887019922470162e+18,49.89501619466146,0.7728972434997559,0.1009454975525538,1.716989477475484,1.6887019922470162e+18,49.89501619466146,0.7718791365623474,0.1054251541694004,1.7193819880485537,,,,,,,,,,,,1.688701992247191e+18,49.895190966796875,21.34023933410645,42.09243927001953,-17.736359786987304,1.688701992247191e+18,49.895190966796875,-233.20055541992187,137.55743713378905,-150.94815673828126,1.6887019922556672e+18,49.90366731770833,0.1045121848583221,-0.7252687811851501,-0.3759007851282755,0.5668854117393494,-1.9936098257700603,0.6163042783737183,0.5503443678220113
4.95,1.688701992307577e+18,49.95557722981771,6.343854029973348,-8.971910158793131,-3.1468540827433267,1.688701992307577e+18,49.95557722981771,3.5270205537478136,-15.702699343363443,3.4578280448913574,1.688701992307577e+18,49.95557722981771,-2.82267959912618,-6.7132846514383955,6.541994730631511,1.6887019922989268e+18,49.94692683919271,2.578309496243795,0.0818050503730773,2.028530796368917,1.6887019922989268e+18,49.94692683919271,2.577291409174601,0.0862847367922465,2.030974268913269,,,,,,,,,,,,1.688701992297191e+18,49.94519086914063,17.68267955780029,44.786198425292966,-13.31995964050293,1.688701992297191e+18,49.94519086914063,-236.85811462402344,140.25119323730468,-146.53175354003906,1.688701992307577e+18,49.95557722981771,0.1780707389116287,-0.7049884597460429,-0.3827103773752848,0.5690090656280518,-1.9771236975987752,0.7575448354085287,0.4809555311997731
5.0,1.6887019923594854e+18,50.00748551432291,0.4944545825322469,-7.26230525970459,1.7206885019938152,1.6887019923594854e+18,50.00748551432291,-1.2957134544849396,-15.318252245585125,7.096114953358968,1.6887019923594854e+18,50.00748551432291,-1.7960140705108645,-8.038442293802897,5.31273889541626,1.6887019923508326e+18,49.99883276367188,3.1650964419047036,-0.0597120821475982,1.9495764176050825,1.6887019923508326e+18,49.99883276367188,3.164027372996012,-0.055181473493576,1.9519689480463664,,,,,,,,,,,,1.688701992347192e+18,49.99519223632812,10.62131996154785,48.09727935791015,-6.1146399974823,1.688701992347192e+18,49.99519223632812,-243.9194763183594,143.5622772216797,-139.3264373779297,1.6887019923594854e+18,50.00748551432291,0.2641520202159881,-0.6506818930308024,-0.4097966849803924,0.5817527770996094,-1.8969246943791709,0.9630540808041892,0.4066379070281982
5.05,1.6887019924027407e+18,50.05074084472656,4.289480924606323,-5.002369403839111,6.908137083053589,1.6887019924027407e+18,50.05074084472656,2.8223342895507812,-13.564014434814451,11.55733346939087,1.6887019924027407e+18,50.05074084472656,-1.4729925990104675,-8.544140338897705,4.586508512496948,1.6887019924027412e+18,50.05074137369792,1.64887801806132,0.1743511160214742,1.048702895641327,1.6887019924027412e+18,50.05074137369792,1.6478599309921265,0.1788307925065358,1.0511463681856792,,,,,,,,,,,,1.688701992397196e+18,50.04519614257812,7.637199783325196,49.29043960571289,-0.2464400202035904,1.688701992397196e+18,50.04519614257812,-246.90359191894532,144.75543518066405,-133.45823974609374,1.6887019924027407e+18,50.05074084472656,0.3080977201461792,-0.6310837864875793,-0.4202796071767807,0.5745435059070587,-1.881499230861664,1.0589818358421326,0.3682218790054321
5.1,1.688701992445993e+18,50.09399308268229,0.6978305478890737,3.375365893046061,2.9429139296213784,1.688701992445993e+18,50.09399308268229,-0.2105683883031209,-5.539783080418904,7.0257260004679365,1.688701992445993e+18,50.09399308268229,-0.9142449498176576,-8.89764436086019,4.020124514897664,1.688701992454645e+18,50.10264485677084,1.7159713506698608,0.5122105081876119,0.8012515703837076,1.688701992454645e+18,50.10264485677084,1.714902400970459,0.5167411069075266,0.8036441306273142,,,,,,,,,,,,1.688701992447194e+18,50.095194140625,4.904399871826172,49.510039520263675,3.662439966201782,1.688701992447194e+18,50.095194140625,-249.6363952636719,144.97503662109375,-129.5493591308594,1.688701992445993e+18,50.09399308268229,0.3352163732051849,-0.5982264081637064,-0.4342554112275441,0.5839400092760721,-1.7943035364151,1.1393751700719197,0.3102895319461822
5.15,1.6887019924979036e+18,50.14590340169271,-2.735580742359162,7.749574661254883,0.1803234418233235,1.6887019924979036e+18,50.14590340169271,-3.3196426232655845,-1.4689937035242715,3.5884363651275635,1.6887019924979036e+18,50.14590340169271,-0.5899078647295634,-9.201063791910808,3.345425526301066,1.6887019925065544e+18,50.15455428059895,1.3536264499028523,-0.0461712380250295,0.735074500242869,1.6887019925065544e+18,50.15455428059895,1.3526592652002971,-0.0416915516058604,0.7375179628531138,,,,,,,,,,,,1.6887019924971904e+18,50.14519052734375,2.9792399406433105,49.356318664550784,7.563999938964844,1.6887019924971904e+18,50.14519052734375,-251.56155700683593,144.82131652832032,-125.64779815673828,1.6887019924979036e+18,50.14590340169271,0.3627852102120716,-0.5714447895685831,-0.4511836071809132,0.5815257430076599,-1.7471929788589478,1.2210464477539062,0.2764464219411213
5.2,1.688701992549811e+18,50.19781079101563,-3.542427579561869,9.15520445505778,-0.1560882727305094,1.688701992549811e+18,50.19781079101563,-3.850250999132792,-0.2368894467751184,2.7780670324961343,1.688701992549811e+18,50.19781079101563,-0.3136694133281707,-9.374589602152506,2.87146790822347,1.688701992558462e+18,50.206461832682294,0.5230024506648382,-1.65417218208313,1.0139853954315186,1.688701992558462e+18,50.206461832682294,0.5220861484607061,-1.6496924956639607,1.0163270235061646,,,,,,,,,,,,1.6887019925471913e+18,50.19519125976562,-0.1537199959158897,48.917118835449216,10.516399955749511,1.6887019925471913e+18,50.19519125976562,-254.69451904296875,144.38211669921876,-122.69539794921874,1.688701992549811e+18,50.19781079101563,0.4007479349772135,-0.565346340338389,-0.44309996565183,0.5685236652692159,-1.6810842355092366,1.2769254446029663,0.1563392182191212
5.25,1.6887019926017083e+18,50.24970833333333,-0.2417124956846237,8.705562273661295,-0.1738483905792236,1.6887019926017083e+18,50.24970833333333,-0.5371886889139811,-0.6841478745142618,2.7698916594187417,1.6887019926017083e+18,50.24970833333333,-0.3013222366571426,-9.37220541636149,2.8810526529947915,1.6887019926017175e+18,50.24971740722656,-0.2231948859989642,-0.7227299362421036,-0.0543670058250427,1.6887019926017175e+18,50.24971740722656,-0.224111184477806,-0.7183011770248413,-0.0519235432147979,,,,,,,,,,,,1.6887019925971914e+18,50.245191552734376,-2.5278399705886843,48.88051910400391,11.1507999420166,1.6887019925971914e+18,50.245191552734376,-257.0686279296875,144.34551696777345,-122.06099700927734,1.6887019926017083e+18,50.24970833333333,0.4210331539312998,-0.5798089901606241,-0.4231667717297872,0.5544822812080383,-1.6766573190689087,1.2783472935358684,0.0824124614397684
5.3,1.68870199265362e+18,50.3016200358073,5.944562673568726,0.9721193313598638,-0.5523730119069418,1.68870199265362e+18,50.3016200358073,4.9946181774139395,-8.23689333597819,2.778465906778971,1.68870199265362e+18,50.3016200358073,-0.9557902018229164,-9.191508293151855,3.2681515216827393,1.6887019926449677e+18,50.292967854817704,-1.3518956899642944,-4.090964655081431,-0.6796384751796722,1.6887019926449677e+18,50.292967854817704,-1.3528628945350647,-4.086484968662262,-0.6771950324376425,1.6887019926449733e+18,50.292973388671875,0.0,0.0,1.0840433835983276,6.322000026702881,1.2979607582092283,266.9564514160156,42.0,-122.7551401,49.1905801,1.6887019926471877e+18,50.2951876953125,-1.9934799432754515,49.10499954223633,9.511119842529297,1.6887019926471877e+18,50.2951876953125,-256.5342712402344,144.56999816894532,-123.70067901611328,1.68870199265362e+18,50.3016200358073,0.4253514210383097,-0.6300166845321655,-0.3862465818723042,0.5194837152957916,-1.8526864051818848,1.223378300666809,0.1293114523092905
5.35,1.6887019927055288e+18,50.35352880859375,24.07913144429525,-15.164861043294271,0.1610097885131836,1.6887019927055288e+18,50.35352880859375,23.08615271250407,-24.189841906229656,3.976871252059937,1.6887019927055288e+18,50.35352880859375,-0.9988253513971964,-9.007476806640623,3.753174066543579,1.6887019926968735e+18,50.34487361653646,-1.787951668103536,-5.941886107126872,3.06216569741567,1.6887019926968735e+18,50.34487361653646,-1.7889697949091594,-5.937406420707703,3.0645581483840942,,,,,,,,,,,,1.6887019926971868e+18,50.345186572265625,-8.749840021133423,48.948839569091795,3.1012398958206178,1.6887019926971868e+18,50.345186572265625,-263.29063110351564,144.41383666992186,-130.11055603027344,1.6887019927055288e+18,50.35352880859375,0.5055115620295206,-0.7005172967910767,-0.2404869844516118,0.441995769739151,-1.8259561856587727,1.1711641947428386,-0.2857519586881001
5.4,1.6887019927574392e+18,50.40543912760416,-0.8502568006515502,-3.2125444412231445,3.392401933670044,1.6887019927574392e+18,50.40543912760416,-2.0466610193252563,-12.196017265319824,7.249255657196045,1.6887019927574392e+18,50.40543912760416,-1.202250321706136,-8.965968449910482,3.7941662470499673,1.688701992748788e+18,50.39678792317708,0.3509420777360598,1.1942924459775288,-1.217454453309377,1.688701992748788e+18,50.39678792317708,0.3499239683151245,1.1987212300300598,-1.215112825234731,,,,,,,,,,,,1.688701992747194e+18,50.39519370117188,-10.601799774169924,48.90735855102539,0.3635600060224533,1.688701992747194e+18,50.39519370117188,-265.14259033203126,144.3723571777344,-132.84823608398438,1.6887019927574392e+18,50.40543912760416,0.4938295781612396,-0.7056602239608765,-0.2478736440340677,0.4433103203773498,-1.87376602490743,1.1601074536641438,-0.2223125646511713
5.45,1.6887019928093376e+18,50.45733740234375,-1.345978856086731,-0.4648645718892415,5.3580160935719805,1.6887019928093376e+18,50.45733740234375,-2.204188426335653,-9.49531857172648,9.193822860717772,1.6887019928093376e+18,50.45733740234375,-0.8640555540720621,-9.01294962565104,3.77311913172404,1.6887019928006894e+18,50.44868961588542,0.5233078996340433,4.270049810409546,-0.6153958241144816,1.6887019928006894e+18,50.44868961588542,0.5222897926966349,4.274529536565145,-0.6131050884723663,,,,,,,,,,,,1.6887019927971922e+18,50.44519204101563,-7.944639682769775,49.37583847045899,2.203319954872131,1.6887019927971922e+18,50.44519204101563,-262.4854370117188,144.84083862304686,-131.00847473144532,1.6887019928093376e+18,50.45733740234375,0.4610220690568288,-0.669068177541097,-0.3075685004393259,0.49413001537323,-1.7935752868652344,1.1729813814163208,-0.1140185271700222
5.5,1.688701992852602e+18,50.500601806640624,-1.7832649946212769,6.6494832038879395,-0.584509015083313,1.688701992852602e+18,50.500601806640624,-2.4104697704315186,-2.4089741706848145,3.2327033281326294,1.688701992852602e+18,50.500601806640624,-0.6330508589744568,-9.040953159332275,3.754524946212769,1.6887019928525944e+18,50.50059431966147,0.1675298015276591,3.0067805449167886,-1.035722017288208,1.6887019928525944e+18,50.50059431966147,0.1664607723553975,3.011311133702596,-1.033380349477132,,,,,,,,,,,,1.6887019928471926e+18,50.49519252929687,-4.740919828414917,49.63935928344726,5.285039901733398,1.6887019928471926e+18,50.49519252929687,-259.2817077636719,145.10435791015624,-127.9267578125,1.688701992852602e+18,50.500601806640624,0.424640879034996,-0.6338897347450256,-0.3602355122566223,0.5365826487541199,-1.7384116649627686,1.1813127398490906,0.0025868946686386
5.55,1.6887019928958492e+18,50.54384928385417,-0.9663569728533428,1.7680978775024414,1.3206634521484375,1.6887019928958492e+18,50.54384928385417,-1.8634105920791624,-7.086743036905925,5.535396416982015,1.6887019928958492e+18,50.54384928385417,-0.9028996229171752,-8.837336222330729,4.152045567830403,1.6887019929045023e+18,50.55250276692709,-1.4980452060699463,0.4280129224061966,-1.386765956878662,1.6887019929045023e+18,50.55250276692709,-1.4990633328755696,0.4324925889571507,-1.38432244459788,,,,,,,,,,,,1.6887019928971873e+18,50.5451873046875,-1.017479991912842,49.8979995727539,4.162639904022217,1.6887019928971873e+18,50.5451873046875,-255.5582733154297,145.36300048828124,-129.04916076660157,1.6887019928958492e+18,50.54384928385417,0.3840476274490356,-0.6355205376942953,-0.3766550819079081,0.5536201000213623,-1.7869197130203247,1.132192571957906,0.1246288617451985
5.6,1.6887019929477568e+18,50.59575659179688,0.1456130146980285,0.7542452812194824,-0.1339995066324869,1.6887019929477568e+18,50.59575659179688,-1.3940185904502869,-7.737790266672771,4.617748896280925,1.6887019929477568e+18,50.59575659179688,-1.5454776287078855,-8.474530855814615,4.689061005910237,1.6887019929564076e+18,50.60440755208333,-0.7293221950531006,-0.9228137334187826,-0.9959648847579956,1.6887019929564076e+18,50.60440755208333,-0.730340321858724,-0.9183340867360432,-0.9935213923454284,,,,,,,,,,,,1.6887019929471854e+18,50.59518544921875,2.0105599999427795,49.89311828613281,0.9759999752044678,1.6887019929471854e+18,50.59518544921875,-252.53023376464844,145.35811462402344,-132.23580017089844,1.6887019929477568e+18,50.59575659179688,0.3475950459639231,-0.6637250979741415,-0.3715394735336303,0.5481640497843424,-1.8934133847554524,1.0527075131734211,0.2277793039878209
5.65,1.6887019929996636e+18,50.64766349283855,1.6395797332127888,4.3487677574157715,-2.799611727396647,1.6887019929996636e+18,50.64766349283855,-0.4945166905721028,-3.859423557917277,2.2159531911214194,1.6887019929996636e+18,50.64766349283855,-2.139942487080892,-8.19068686167399,4.952877521514893,1.6887019930083126e+18,50.65631266276042,-1.0529280702273052,-0.5235624214013418,-0.9142616589864097,1.6887019930083126e+18,50.65631266276042,-1.0538952747980754,-0.5190827449162801,-0.9118690888086954,,,,,,,,,,,,1.688701992997187e+18,50.64518715820312,4.374919891357422,49.56371841430664,-0.741759979724884,1.688701992997187e+18,50.64518715820312,-250.1658721923828,145.02871704101562,-133.95355529785155,1.6887019929996636e+18,50.64766349283855,0.3289809127648671,-0.6909796396891276,-0.362442672252655,0.5318371454874674,-1.9836859305699663,0.9976906975110372,0.281750073035558
5.7,1.688701993051569e+18,50.69956868489584,0.7899755239486694,-0.7749958038330078,-2.2594738006591797,1.688701993051569e+18,50.69956868489584,-1.8691932757695515,-8.531609217325846,3.204787095387777,1.688701993051569e+18,50.69956868489584,-2.6650148232777915,-7.739108721415202,5.401573499043782,1.6887019930515707e+18,50.69957055664062,-1.394681692123413,-0.5028948038816452,-1.0826823115348816,1.6887019930515707e+18,50.69957055664062,-1.3956744074821472,-0.4984660446643829,-1.0802388787269592,,,,,,,,,,,,1.688701993047187e+18,50.695187109375,7.202879905700684,49.33435897827148,-3.75271987915039,1.688701993047187e+18,50.695187109375,-247.3379150390625,144.79935607910156,-136.96451416015626,1.688701993051569e+18,50.69956868489584,0.2983144025007884,-0.7164198557535807,-0.3497668405373891,0.5246377189954122,-2.033795118331909,0.9182641704877218,0.3146774967511495
5.75,1.688701993103476e+18,50.75147599283854,1.7713505427042644,-3.7791617711385097,-2.4573890368143716,1.688701993103476e+18,50.75147599283854,-1.7589240074157717,-10.950353940327965,3.2995030085245767,1.688701993103476e+18,50.75147599283854,-3.536120573679606,-7.153687477111816,5.694204648335774,1.6887019930948242e+18,50.74282413736979,-1.4728470245997112,-1.787340799967448,-1.2839878400166829,1.6887019930948242e+18,50.74282413736979,-1.4738142093022664,-1.7828611532847087,-1.2815444072087605,,,,,,,,,,,,1.6887019930971886e+18,50.74518857421875,10.482239913940427,48.23391876220703,-6.924719905853271,1.6887019930971886e+18,50.74518857421875,-244.05855407714844,143.69891662597655,-140.1365203857422,1.688701993103476e+18,50.75147599283854,0.2695808211962381,-0.756004254023234,-0.3289213180541992,0.4971449077129364,-2.129899819691976,0.8255583047866821,0.3442660967508952
5.8,1.6887019931553836e+18,50.80338346354167,12.675100088119509,-9.627127965291342,-1.5249254703521729,1.6887019931553836e+18,50.80338346354167,7.349754119912784,-15.715859731038412,3.999802509943644,1.6887019931553836e+18,50.80338346354167,-5.3311920166015625,-6.0712277094523115,5.4620405832926435,1.6887019931467343e+18,50.79473421223958,-1.9141972064971924,-4.612083435058594,-3.1027373472849527,1.6887019931467343e+18,50.79473421223958,-1.915215214093526,-4.607654730478923,-3.1002937952677407,1.688701993164038e+18,50.8120380859375,0.0,0.0,1.0680325031280518,6.3379998207092285,1.3049321174621582,267.1485595703125,42.0,-122.7551479,49.1905808,1.688701993147188e+18,50.79518803710938,16.367519760131835,46.56495971679688,-9.401319885253908,1.688701993147188e+18,50.79518803710938,-238.17327270507812,142.02995910644532,-142.6131164550781,1.6887019931553836e+18,50.80338346354167,0.2285836289326349,-0.8262938062349955,-0.2960743109385172,0.4173718591531117,-2.342199166615804,0.6758295297622681,0.3888061642646789
5.85,1.688701993207289e+18,50.85528898111979,7.981664021809896,-10.513665040334066,-0.119933287302653,1.688701993207289e+18,50.85528898111979,2.5052854220072422,-15.115460395812988,6.569295247395833,1.688701993207289e+18,50.85528898111979,-5.482225259145101,-4.584290981292725,6.626540978749593,1.6887019931986363e+18,50.846636230468754,0.5419393281141917,7.245676219463348,-3.8922296166419983,1.6887019931986363e+18,50.846636230468754,0.5409211814403533,7.250156223773956,-3.8899388909339905,,,,,,,,,,,,1.6887019931971886e+18,50.84518857421875,28.145399475097655,39.97207870483398,-12.06823959350586,1.6887019931971886e+18,50.84518857421875,-226.39539794921876,135.43707885742188,-145.28003845214843,1.688701993207289e+18,50.85528898111979,0.0985073049863178,-0.8147431214650472,-0.3382473587989807,0.454613318045934,-2.265474875768026,0.4917839070161183,0.5534958442052206
5.9,1.6887019932591974e+18,50.90719750976563,-3.950863520304362,-6.506205876668294,-8.919512112935385,1.6887019932591974e+18,50.90719750976563,-7.468797206878662,-11.590832710266112,-1.232503076394399,1.6887019932591974e+18,50.90719750976563,-3.5237796306610107,-5.067122141520183,7.624321619669597,1.6887019932505467e+18,50.89854663085938,0.8136725230142474,2.8821640412012735,0.6514368789891402,1.6887019932505467e+18,50.89854663085938,0.8127053001274666,2.886643727620443,0.6537785331408182,,,,,,,,,,,,1.6887019932471877e+18,50.895187548828126,23.919319534301756,39.74759979248047,-19.429719543457033,1.6887019932471877e+18,50.895187548828126,-230.62147521972656,135.21259460449218,-152.64151916503906,1.6887019932591974e+18,50.90719750976563,0.0685667656362056,-0.7354597647984823,-0.3733530441919963,0.5611682732899984,-2.006681720415751,0.5467803478240967,0.5857600569725037
5.95,1.688701993302459e+18,50.950458740234374,12.20215892791748,-10.401081085205078,-6.495896816253662,1.688701993302459e+18,50.950458740234374,8.722436904907227,-16.06541156768799,0.7866404056549072,1.688701993302459e+18,50.950458740234374,-3.485567808151245,-5.646826505661011,7.219849586486816,1.688701993302453e+18,50.95045296223958,1.8870136539141336,-0.8303186198075613,2.256128946940104,1.688701993302453e+18,50.95045296223958,1.88599556684494,-0.8258389035860697,2.258521477381388,,,,,,,,,,,,1.6887019932971868e+18,50.945186669921874,20.51307945251465,41.58003845214843,-18.61719970703125,1.6887019932971868e+18,50.945186669921874,-234.02771911621093,137.04503784179687,-151.82899780273436,1.688701993302459e+18,50.950458740234374,0.1184047199785709,-0.7388128042221069,-0.363432228565216,0.5548466742038727,-2.022300124168396,0.6166930496692657,0.5202701687812805
6.0,1.6887019933457175e+18,50.99371769205729,0.3686369260152181,-6.993266582489014,-2.247260332107544,1.6887019933457175e+18,50.99371769205729,-2.34735902150472,-14.065210978190104,4.029513438542684,1.6887019933457175e+18,50.99371769205729,-2.7218419710795083,-7.054439703623454,6.214086373647054,1.688701993354365e+18,51.00236515299479,3.5943310260772705,-1.0684033433596294,3.038850943247477,1.688701993354365e+18,51.00236515299479,3.593312978744507,-1.063923647006353,3.041192611058553,,,,,,,,,,,,1.688701993347192e+18,50.99519204101562,14.713199996948244,46.00375900268555,-11.52411975860596,1.688701993347192e+18,50.99519204101562,-239.8275939941406,141.4687530517578,-144.7359191894531,1.6887019933457175e+18,50.99371769205729,0.2064125984907149,-0.70115594069163,-0.3834434847036997,0.5634204943974813,-1.9844606320063272,0.8073105216026306,0.4563353260358174
6.05,1.688701993397625e+18,51.045625244140616,3.3018600940704346,-10.04055404663086,5.958180109659831,1.688701993397625e+18,51.045625244140616,1.2005987366040547,-18.26999855041504,10.945368925730389,1.688701993397625e+18,51.045625244140616,-2.107107400894165,-8.21194076538086,4.924501260121663,1.6887019934062738e+18,51.05427376302083,2.014735380808512,-0.4201225837071736,1.370476206143697,1.6887019934062738e+18,51.05427376302083,2.0137681563695273,-0.4156938195228576,1.3728687365849812,,,,,,,,,,,,1.68870199339719e+18,51.045190136718745,8.657119846343994,49.16843948364258,-3.533119869232178,1.68870199339719e+18,51.045190136718745,-245.88367614746093,144.63343811035156,-136.744921875,1.688701993397625e+18,51.045625244140616,0.3045052488644917,-0.6742075284322103,-0.3907556633154551,0.5474435091018677,-1.975971261660258,0.9949156840642294,0.3629809617996216
6.1,1.6887019934495306e+18,51.097530598958336,2.618443171183268,0.4164376258850097,6.792573769887288,1.6887019934495306e+18,51.097530598958336,1.2157533764839172,-8.349555174509684,11.052846749623615,1.6887019934495306e+18,51.097530598958336,-1.4085358381271362,-8.748488108317057,4.197585264841716,1.6887019934581809e+18,51.10618058268229,1.7488563060760498,1.5483906467755637,0.956411341826121,1.6887019934581809e+18,51.10618058268229,1.7477872769037883,1.5528703927993774,0.9588548143704732,,,,,,,,,,,,1.6887019934471946e+18,51.09519453125,5.641279888153076,49.57103805541992,1.9300399661064147,1.6887019934471946e+18,51.09519453125,-248.8995147705078,145.0360321044922,-131.28175354003906,1.6887019934495306e+18,51.097530598958336,0.3390745222568512,-0.6317922671635946,-0.4150830805301666,0.559646487236023,-1.894101579984029,1.1047043005625408,0.3271948198477426
6.15,1.688701993501438e+18,51.149437825520835,-1.4275120496749878,6.8539042472839355,0.9683910210927328,1.688701993501438e+18,51.149437825520835,-2.233699917793274,-2.2494526306788125,4.634697914123535,1.688701993501438e+18,51.149437825520835,-0.8120338718096415,-9.0858523050944,3.603619496027629,1.6887019935014374e+18,51.14943737792969,1.2814425230026243,0.6414085030555725,0.8110763132572174,1.6887019935014374e+18,51.14943737792969,1.28044992685318,0.6459136456251144,0.8135198056697845,,,,,,,,,,,,1.688701993497194e+18,51.14519379882813,3.657559871673584,49.627159118652344,6.204919910430908,1.688701993497194e+18,51.14519379882813,-250.88323669433595,145.0921600341797,-127.00687866210936,1.688701993501438e+18,51.149437825520835,0.3639794687430063,-0.5946634411811829,-0.4332978427410126,0.5709944566090902,-1.793849229812622,1.1884371439615886,0.2695411096016566
6.2,1.6887019935533425e+18,51.20134236653646,-5.168282508850098,9.151466369628906,-0.308138608932495,1.6887019935533425e+18,51.20134236653646,-5.509075323740642,-0.1441675672928491,2.9170502026875815,1.6887019935533425e+18,51.20134236653646,-0.3466387540102005,-9.27812957763672,3.162501414616903,1.6887019935446897e+18,51.19268986002604,0.992757817109426,0.1050179253021875,1.1232793927192688,1.6887019935446897e+18,51.19268986002604,0.9917906522750854,0.1094975819190343,1.125671923160553,,,,,,,,,,,,1.688701993547193e+18,51.195193359375,0.9881999731063844,49.356318664550784,8.803519916534423,1.688701993547193e+18,51.195193359375,-253.55259704589844,144.8213134765625,-124.4082778930664,1.6887019935533425e+18,51.20134236653646,0.3875764608383178,-0.5706181327501932,-0.4383512636025746,0.5761120716730753,-1.6807531515757244,1.2450756231943767,0.1670004700620968
6.25,1.688701993605251e+18,51.25325105794271,-1.4368682503700256,9.698464393615724,-1.3103142976760864,1.688701993605251e+18,51.25325105794271,-1.425125281016032,0.3100699341545502,1.654038627942403,1.688701993605251e+18,51.25325105794271,0.0058969172338644,-9.370889981587728,2.901665528615316,1.6887019935965965e+18,51.244596679687504,0.5295692483584086,-1.385798732439677,1.1566733519236247,1.6887019935965965e+18,51.244596679687504,0.5285511414210001,-1.3813190460205078,1.1590149799982707,,,,,,,,,,,,1.6887019935971922e+18,51.24519228515625,-2.766959881782532,48.86587905883789,10.91655979156494,1.6887019935971922e+18,51.24519228515625,-257.30775451660156,144.33087463378905,-122.2952377319336,1.688701993605251e+18,51.25325105794271,0.4254722098509469,-0.5706780155499777,-0.4170520007610321,0.565019965171814,-1.5681635936101277,1.2764583428700764,-0.016860282048583
6.3,1.6887019936571584e+18,51.30515820312499,-1.4470319350560503,9.165695190429688,-2.1963478724161782,1.6887019936571584e+18,51.30515820312499,-1.6267206172148387,-0.2307079806923866,0.7298109158873558,1.6887019936571584e+18,51.30515820312499,-0.1855346942320466,-9.378898620605469,2.863471349080404,1.688701993648506e+18,51.29650602213542,0.1485420738657315,-1.496161739031474,-0.1385136892398198,1.688701993648506e+18,51.29650602213542,0.1475748643279076,-1.4916820923487346,-0.1361720437804857,,,,,,,,,,,,1.6887019936471928e+18,51.295192871093754,-4.779959774017334,48.69263763427735,11.350879669189451,1.6887019936471928e+18,51.295192871093754,-259.3207580566406,144.1576354980469,-121.8609176635742,1.6887019936571584e+18,51.30515820312499,0.4428867101669311,-0.589911679426829,-0.4012687901655833,0.5427152117093405,-1.6345253388086955,1.28085454305013,-0.0260752780983845
6.35,1.6887019937090578e+18,51.35705777994792,29.33515167236328,-12.855252583821615,-2.4940360387166343,1.6887019937090578e+18,51.35705777994792,28.447471618652344,-22.175284067789715,0.5415754516919454,1.6887019937090578e+18,51.35705777994792,-0.8935257395108541,-9.30252774556478,2.972924073537191,1.6887019937004147e+18,51.34841495768229,-1.1598803997039795,-7.939568201700847,1.834937254587809,1.6887019937004147e+18,51.34841495768229,-1.1607966820398967,-7.935088475545247,1.8373808860778809,1.6887019936831142e+18,51.3311142578125,0.0,0.0,1.0680325031280518,6.428999900817871,1.3166961669921875,267.3929748535156,42.0,-122.7551669,49.1905813,1.688701993697189e+18,51.34518901367187,-6.988159847259522,48.90735931396485,8.757159614562989,1.688701993697189e+18,51.34518901367187,-261.528955078125,144.3723602294922,-124.45463714599607,1.6887019937090578e+18,51.35705777994792,0.5076750814914703,-0.6731093327204386,-0.2980466485023498,0.4436091085275014,-1.8598874807357788,1.2550052007039387,-0.1600265180071195
6.4,1.6887019937523205e+18,51.40032067871094,4.2496771812438965,-11.600021839141846,5.0718913078308105,1.6887019937523205e+18,51.40032067871094,3.291327476501465,-20.654545783996586,8.822636127471924,1.6887019937523205e+18,51.40032067871094,-0.9641956686973572,-9.037020206451416,3.688057065010071,1.6887019937523162e+18,51.40031616210937,-1.5022195080916088,0.1920152902603148,-1.4839443763097129,1.6887019937523162e+18,51.40031616210937,-1.5031866282224655,0.196494976679484,-1.4815518359343212,,,,,,,,,,,,1.6887019937471946e+18,51.39519448242188,-12.339079666137696,48.53159790039062,2.461959969997406,1.6887019937471946e+18,51.39519448242188,-266.8798767089844,143.99659729003906,-130.74983825683594,1.6887019937523205e+18,51.40032067871094,0.5125671327114105,-0.701638400554657,-0.2347396463155746,0.4355804473161697,-1.8201974630355835,1.1779609322547913,-0.3125213086605071
6.45,1.6887019937955766e+18,51.44357666015625,-1.7726887464523315,-4.235704739888509,7.0548873742421465,1.6887019937955766e+18,51.44357666015625,-3.019941528638204,-13.289936383565268,10.7214404741923,1.6887019937955766e+18,51.44357666015625,-1.253098726272583,-9.03672726949056,3.603865385055542,1.6887019938042248e+18,51.452224772135416,1.1237374941507976,4.213086684544881,-0.9788606564203898,1.6887019938042248e+18,51.452224772135416,1.122770329316457,4.2175155480702715,-0.9765189985434214,,,,,,,,,,,,1.688701993797196e+18,51.44519604492187,-7.168719959259033,49.444158935546874,2.7498799562454224,1.688701993797196e+18,51.44519604492187,-261.7095092773437,144.9091552734375,-130.4619171142578,1.6887019937955766e+18,51.44357666015625,0.4769297043482461,-0.6926995118459066,-0.2862709561983744,0.4579285979270935,-1.903594096501668,1.1782277425130208,-0.104743211219708
6.5,1.6887019938474831e+18,51.49548307291667,-2.1898831923802695,5.8093492190043134,0.450408140818278,1.6887019938474831e+18,51.49548307291667,-2.870988368988037,-3.310470183690389,4.102095603942871,1.6887019938474831e+18,51.49548307291667,-0.686951200167338,-9.102314949035645,3.5890000661214194,1.688701993856131e+18,51.504131103515626,0.0283034245173136,3.418503761291504,0.0151189143459002,1.688701993856131e+18,51.504131103515626,0.0272344152132669,3.422983487447103,0.0174605641514062,,,,,,,,,,,,1.688701993847194e+18,51.49519404296875,-5.241119861602783,49.71743927001953,5.7315598487854,1.688701993847194e+18,51.49519404296875,-259.78192138671875,145.18243713378905,-127.48023681640623,1.6887019938474831e+18,51.49548307291667,0.4404995441436767,-0.6410699685414633,-0.3507713675498962,0.5208852291107178,-1.7597945928573608,1.196584939956665,-0.0251236818730831
6.55,1.6887019938993938e+18,51.54739371744791,-3.0521888732910156,-0.5888525644938151,4.180053790410359,1.6887019938993938e+18,51.54739371744791,-3.4675989151000977,-9.565308570861816,8.20997397104899,1.6887019938993938e+18,51.54739371744791,-0.4212560355663299,-8.958951314290365,3.9672324657440186,1.6887019939080376e+18,51.55603784179687,-1.3346896568934123,0.3478368471066156,-0.9773334860801696,1.6887019939080376e+18,51.55603784179687,-1.3357077439626055,0.3522656212250392,-0.974940945704778,,,,,,,,,,,,1.688701993897189e+18,51.54518916015625,-4.184599924087524,49.67839889526367,5.746199893951416,1.688701993897189e+18,51.54518916015625,-258.72539672851565,145.14339599609374,-127.4655975341797,1.6887019938993938e+18,51.54739371744791,0.4043385485808055,-0.6197920838991801,-0.3701951702435811,0.5613714853922526,-1.6764370203018188,1.1604175170262654,0.0110721716191619
6.6,1.6887019939512965e+18,51.59929622395833,-0.1165294647216796,1.527657985687256,0.0419940153757731,1.6887019939512965e+18,51.59929622395833,-1.31365962823232,-7.131209850311279,4.580460627873738,1.6887019939512965e+18,51.59929622395833,-1.2029761870702107,-8.641363143920898,4.475779215494792,1.6887019939512973e+18,51.599297241210934,-0.8853728175163269,-1.472490668296814,-1.3968961238861084,1.6887019939512973e+18,51.599297241210934,-0.8863654732704163,-1.4679855704307556,-1.3945289850234983,,,,,,,,,,,,1.6887019939471926e+18,51.59519262695312,-0.8613199949264526,49.873599243164065,2.4668399810791017,1.6887019939471926e+18,51.59519262695312,-255.40211791992184,145.3385986328125,-130.74495849609374,1.6887019939512965e+18,51.59929622395833,0.3724887371063232,-0.6555998126665751,-0.3620443046092987,0.547825813293457,-1.8349384466807048,1.0867613554000854,0.1422512133916218
6.65,1.6887019940032054e+18,51.65120540364583,1.6164875030517578,4.497826894124349,-2.821656068166097,1.6887019940032054e+18,51.65120540364583,-0.4225325956940651,-3.81376051902771,2.058625102043152,1.6887019940032054e+18,51.65120540364583,-2.04486612478892,-8.294082959493002,4.8175937334696455,1.6887019939945503e+18,51.64255037434896,-1.0803660949071248,-1.2075787981351216,-1.1145236492156982,1.6887019939945503e+18,51.64255037434896,-1.081282377243042,-1.2030991117159526,-1.112080176671346,,,,,,,,,,,,1.688701993997192e+18,51.64519194335937,1.971519947052002,49.84675979614258,0.3294000148773193,1.688701993997192e+18,51.64519194335937,-252.56927490234375,145.31175537109374,-132.8823974609375,1.6887019940032054e+18,51.65120540364583,0.3501429657141368,-0.6949979066848755,-0.3474273284276326,0.5229922334353129,-1.97560715675354,1.0163334806760151,0.2228619257609049
