seconds_elapsed_rounded,accelerometer_time,accelerometer_seconds_elapsed,accelerometer_z,accelerometer_y,accelerometer_x,accelerometeruncalibrated_time,accelerometeruncalibrated_seconds_elapsed,accelerometeruncalibrated_z,accelerometeruncalibrated_y,accelerometeruncalibrated_x,gravity_time,gravity_seconds_elapsed,gravity_z,gravity_y,gravity_x,gyroscope_time,gyroscope_seconds_elapsed,gyroscope_z,gyroscope_y,gyroscope_x,gyroscopeuncalibrated_time,gyroscopeuncalibrated_seconds_elapsed,gyroscopeuncalibrated_z,gyroscopeuncalibrated_y,gyroscopeuncalibrated_x,location_time,location_seconds_elapsed,location_bearingAccuracy,location_speedAccuracy,location_verticalAccuracy,location_horizontalAccuracy,location_speed,location_bearing,location_altitude,location_longitude,location_latitude,magnetometer_time,magnetometer_seconds_elapsed,magnetometer_z,magnetometer_y,magnetometer_x,magnetometeruncalibrated_time,magnetometeruncalibrated_seconds_elapsed,magnetometeruncalibrated_z,magnetometeruncalibrated_y,magnetometeruncalibrated_x,orientation_time,orientation_seconds_elapsed,orientation_qz,orientation_qy,orientation_qx,orientation_qw,orientation_roll,orientation_pitch,orientation_yaw
0.0,1.6887549783418524e+18,179.9988523763021,-8.296556313832602,9.931087176005043,-1.4062930742899578,1.6887549783418524e+18,179.9988523763021,-2.99780797958374,1.9060826698939008,0.6378866036732992,1.6887549783418524e+18,179.9988523763021,5.29290231068929,-8.007500489552816,1.981492241223653,1.688754978350507e+18,180.00750699869795,-0.339437445004781,-3.0599258740743003,2.4999659856160483,1.6887549783375316e+18,179.9945314941406,-0.2256128986676534,-3.269859870274862,2.765794277191162,,,,,,,,,,,,1.688754978338072e+18,179.99507221679687,-25.58827934265137,35.20675811767578,-25.910359573364257,1.688754978338072e+18,179.99507221679687,-280.1168701171875,128.5245574951172,-157.91435546875,1.6887549783418524e+18,179.9988523763021,-0.6630133787790934,0.2763406485319137,-0.3914066751797994,0.5744326909383138,-0.3566220502058665,0.956006129582723,1.899336616198222
0.05,1.688754978393761e+18,180.05076114908854,-3.5169073740641275,7.937445958455403,0.5647953351338705,1.688754978393761e+18,180.05076114908854,2.098106622695923,0.355932354927063,3.3742787837982178,1.688754978393761e+18,180.05076114908854,5.60916789372762,-7.564009030659993,2.746796051661174,1.6887549783937674e+18,180.0507674560547,0.2323578707873821,-1.5368605852127075,0.1538616865873336,1.688754978389433e+18,180.04643326822918,0.1522072553634643,-1.7041613260904949,0.4912374814351399,,,,,,,,,,,,1.6887549783880686e+18,180.04506860351563,-25.15639991760254,32.70575942993164,-29.406879425048828,1.6887549783880686e+18,180.04506860351563,-279.68499145507815,126.0235580444336,-161.41087646484374,1.688754978393761e+18,180.05076114908854,-0.6518872976303101,0.2128124882777531,-0.4108719527721405,0.6006932854652405,-0.4554744958877563,0.8806740442911783,1.8700432777404783
0.1,1.6887549784456663e+18,180.10266642252603,-1.3397162755330403,4.019920031229655,0.9365228017171224,1.6887549784456663e+18,180.10266642252603,3.650849183400472,-4.031307935714722,3.587239980697632,1.6887549784456663e+18,180.10266642252603,4.984719435373942,-8.033723513285318,2.5880297819773355,1.6887549784370153e+18,180.09401538085936,1.019432266553243,0.0287615706523259,-1.9815450112024944,1.688754978441342e+18,180.0983419596354,1.090648988882701,0.1312342137098312,-2.1653136809666953,,,,,,,,,,,,1.6887549784380677e+18,180.095067578125,-22.340639495849608,34.23807830810547,-29.53131980895996,1.6887549784380677e+18,180.095067578125,-276.86923828125,127.55587921142578,-161.53531799316406,1.6887549784456663e+18,180.10266642252603,-0.6281270782152811,0.2364654839038848,-0.4356165627638499,0.5994847814242045,-0.4786973297595978,0.960849404335022,1.8704276084899905
0.15,1.68875497849757e+18,180.1545702311198,8.086108207702637,-4.176962057749431,-0.0389734506607055,1.68875497849757e+18,180.1545702311198,11.928021589914955,-12.974681695302328,2.1112672090530396,1.68875497849757e+18,180.1545702311198,3.8360673586527505,-8.78021494547526,2.0875532627105713,1.6887549784889208e+18,180.14592081705732,0.8695666855201125,0.1743002161383628,-2.761110901832581,1.6887549784932472e+18,180.15024715169272,0.7112507869799933,0.1723149099076787,-2.4189754724502563,,,,,,,,,,,,1.6887549784880653e+18,180.1450652832031,-17.170279884338377,38.35435943603515,-27.413399505615235,1.6887549784880653e+18,180.1450652832031,-271.69887084960936,131.67215576171876,-159.41739807128906,1.68875497849757e+18,180.1545702311198,-0.5965829888979594,0.2949245969454447,-0.4662773609161377,0.582666834195455,-0.4989817440509796,1.1093518336613972,1.9078520933787029
0.2,1.6887549785494766e+18,180.20647664388025,6.941717942555745,-5.355769157409668,1.421379566192627,1.6887549785494766e+18,180.20647664388025,10.858629067738852,-14.01635750134786,3.974677880605062,1.6887549785494766e+18,180.20647664388025,3.911065101623535,-8.643083572387695,2.490610917409261,1.688754978540828e+18,180.19782788085936,-0.0383827003339926,-2.868674159049988,1.598583420117696,1.688754978545149e+18,180.20214868164064,0.0473420669635136,-3.0909780661265054,1.5983289082845051,,,,,,,,,,,,1.6887549785380667e+18,180.1950668457031,-15.010879707336423,39.08391952514648,-27.459759140014647,1.6887549785380667e+18,180.1950668457031,-269.5394775390625,132.40171813964844,-159.46375732421876,1.6887549785494766e+18,180.20647664388025,-0.5769498348236084,0.2537025759617487,-0.4857172270615895,0.6051161686579386,-0.5664403438568115,1.0784774621327715,1.8679583072662351
0.25,1.6887549785927311e+18,180.2497309570313,-3.3849449157714844,-1.765895128250122,10.287534713745115,1.6887549785927311e+18,180.2497309570313,0.4390830993652344,-10.418648958206177,13.010075569152832,1.6887549785927311e+18,180.2497309570313,3.818181991577149,-8.635249614715576,2.6598528623580933,1.6887549785927283e+18,180.2497283528646,0.3542509364585082,-0.290619154771169,-0.8163704772790273,1.6887549785970537e+18,180.25405395507812,0.2966768878201644,0.0272853225469588,-0.9001099529365698,,,,,,,,,,,,1.6887549785880645e+18,180.2450642089844,-12.788039779663086,38.976559448242185,-29.267799377441406,1.6887549785880645e+18,180.2450642089844,-267.31663818359374,132.2943572998047,-161.27179565429688,1.6887549785927311e+18,180.2497309570313,-0.5534304976463318,0.2291927337646483,-0.502856433391571,0.623117059469223,-0.6085331439971924,1.0766621232032776,1.823338747024536
0.3,1.688754978635984e+18,180.2929842936198,-6.0629738966623945,-1.9204565684000652,-4.51953125,1.688754978635984e+18,180.2929842936198,-2.4386850198109946,-10.73420238494873,-2.060220241546631,1.688754978635984e+18,180.2929842936198,3.61844253540039,-8.79624112447103,2.396623690923055,1.688754978644636e+18,180.30163598632817,0.280234436194102,1.754506786664327,-0.8463538053135077,1.6887549786489628e+18,180.3059628092448,0.3398955998321374,1.8198184967041016,-1.0422888100147247,,,,,,,,,,,,1.6887549786380654e+18,180.2950654785156,-13.798199462890626,39.506039428710935,-28.250319290161137,1.6887549786380654e+18,180.2950654785156,-268.32679443359376,132.82383422851564,-160.2543151855469,1.688754978635984e+18,180.2929842936198,-0.5624934236208597,0.260271668434143,-0.4977028965950012,0.6066048343976339,-0.5843538244565328,1.112393498420715,1.864986777305603
0.35,1.6887549786878917e+18,180.34489143880208,-5.8529289563496905,0.4662033716837565,-0.0618885358174641,1.6887549786878917e+18,180.34489143880208,-3.008575588464737,-8.773483594258627,1.7092729806900024,1.6887549786878917e+18,180.34489143880208,2.8385074138641357,-9.222182273864746,1.7084741195042927,1.6887549786965414e+18,180.35354142252604,0.5429064730803171,3.839898904164632,-3.5200600624084473,1.6887549786922168e+18,180.3492169189453,0.6550766229629517,4.0380483865737915,-3.348763227462769,,,,,,,,,,,,1.688754978688062e+18,180.3450620605469,-12.71239948272705,41.27991943359375,-25.73955955505371,1.688754978688062e+18,180.3450620605469,-267.2409973144531,134.59771728515625,-157.74356079101562,1.6887549786878917e+18,180.34489143880208,-0.5690857370694479,0.3391489287217458,-0.489166259765625,0.5660198132197062,-0.5407679875691732,1.2260470787684123,1.9619096914927163
0.4,1.6887549787397878e+18,180.3967877604167,-4.0251041650772095,0.1187032063802083,-1.4731057286262512,1.6887549787397878e+18,180.3967877604167,-2.802593469619751,-9.53918711344401,-0.1304088433583577,1.6887549787397878e+18,180.3967877604167,1.216664711634318,-9.640385627746582,1.2800094683965046,1.6887549787484434e+18,180.4054432779948,-0.7889324923356374,3.3792046705881753,-3.3031519254048667,1.6887549787354668e+18,180.3924668782552,-0.4242459187904994,3.534822622934977,-3.723325490951538,,,,,,,,,,,,1.6887549787380654e+18,180.3950653808594,-9.31591968536377,43.06599884033203,-23.428879928588863,1.6887549787380654e+18,180.3950653808594,-263.8445129394531,136.38379516601563,-155.43287658691406,1.6887549787397878e+18,180.3967877604167,-0.5758743683497111,0.448927491903305,-0.4857374926408132,0.4792067309220632,-0.8371293544769287,1.3866760730743408,2.4680078824361167
0.45,1.6887549787917018e+18,180.44870166015625,-2.2473867336908975,-2.219898223876953,-2.569218635559082,1.6887549787917018e+18,180.44870166015625,-2.121436725060145,-11.901501019795736,-0.8434699873129526,1.6887549787917018e+18,180.44870166015625,0.1201039602359135,-9.664098103841146,1.663061261177063,1.6887549788003471e+18,180.45734724934897,-0.6606507574518522,0.3702352494001388,-1.7481945355733235,1.6887549787873774e+18,180.44437752278645,-0.9877181947231292,1.4669419825077057,-1.934101144472758,,,,,,,,,,,,1.6887549787880655e+18,180.4450654785157,-7.197999763488769,42.87567901611328,-24.844079971313477,1.6887549787880655e+18,180.4450654785157,-261.7265869140625,136.1934783935547,-156.84807739257812,1.6887549787917018e+18,180.44870166015625,-0.5871476729710897,0.5044740736484528,-0.4892338116963704,0.4014871617158254,-1.4917401472727458,1.3983227809270222,-0.9242485364278158
0.5,1.6887549788435963e+18,180.5005965169271,3.5745901266733804,0.9053624471028646,-1.966975490252177,1.6887549788435963e+18,180.5005965169271,2.828914483388265,-8.754740079243978,-0.2739781861503919,1.6887549788435963e+18,180.5005965169271,-0.7515216072400411,-9.642597834269209,1.6303099393844604,1.6887549788435953e+18,180.50059521484377,0.5052618980407715,0.0082466900348663,-1.6753742694854736,1.688754978839271e+18,180.4962705078125,0.4288273950417836,-0.1497637927532195,-1.6699528296788533,,,,,,,,,,,,1.6887549788380595e+18,180.49505942382817,-3.3135198831558226,43.06843948364258,-25.41015968322754,1.6887549788380595e+18,180.49505942382817,-257.8421142578125,136.3862335205078,-157.41415710449218,1.6887549788435963e+18,180.5005965169271,-0.5618108113606771,0.5293464064598083,-0.5079635580380758,0.3821101586023966,-2.00227427482605,1.3856723308563232,-2.5078185399373374
0.55,1.6887549788955003e+18,180.55250081380208,1.9263261556625368,2.6648815472920737,-1.250924030939738,1.6887549788955003e+18,180.55250081380208,0.6356931924819946,-6.979265371958415,0.176869474351406,1.6887549788955003e+18,180.55250081380208,-1.2964789867401123,-9.626642227172852,1.3651061058044434,1.6887549788868516e+18,180.5438515625,0.7182248036066691,2.0064886808395386,-1.3670655091603596,1.688754978891177e+18,180.54817700195312,0.6881905992825826,2.020538647969564,-1.3365731636683147,1.688754978882527e+18,180.53952685546875,0.0,0.0,2.569831371307373,6.313000202178955,1.3162050247192385,158.6403350830078,332.79998779296875,-122.9167335,49.278537,1.6887549788880586e+18,180.54505859375,-0.9662400007247924,43.91755981445313,-23.960799789428712,1.6887549788880586e+18,180.54505859375,-255.49483642578124,137.2353546142578,-155.964794921875,1.6887549788955003e+18,180.55250081380208,-0.5568400025367737,0.5732947389284769,-0.4870463808377583,0.3517836431662242,-2.328098694483439,1.377116560935974,-2.09051783879598
0.6,1.6887549789474068e+18,180.60440673828128,0.6757764418919882,1.834008057912191,-0.711368461449941,1.6887549789474068e+18,180.60440673828128,-1.123829007148743,-7.731409231821696,0.6871389200290045,1.6887549789474068e+18,180.60440673828128,-1.805451472600301,-9.54791259765625,1.335819959640503,1.688754978938756e+18,180.59575602213545,0.0491746515035629,1.0111347039540608,-1.223613977432251,1.6887549789430822e+18,180.6000822753906,-0.0136426587899525,0.899295449256897,-1.2484049399693806,,,,,,,,,,,,1.6887549789380608e+18,180.59506083984377,-0.4782399892807006,44.24939880371094,-23.026279067993165,1.6887549789380608e+18,180.59506083984377,-255.0068328857422,137.56719665527345,-155.0302764892578,1.6887549789474068e+18,180.60440673828128,-0.5525769591331482,0.6057568788528442,-0.474377304315567,0.3202749093373616,-2.5019331773122153,1.339582125345866,-1.8422279755274455
0.65,1.6887549789993114e+18,180.65631136067705,3.2700745264689126,-0.7501586278279623,-1.492586612701416,1.6887549789993114e+18,180.65631136067705,0.7212365865707397,-10.122237841288248,0.035692940155665,1.6887549789993114e+18,180.65631136067705,-2.5546839237213135,-9.35457452138265,1.46559210618337,1.6887549789906604e+18,180.64766031901044,-0.3956879675388336,-0.4965825428565343,-1.6457727750142417,1.688754978994987e+18,180.65198706054687,-0.4286237855752309,-0.5772676592071851,-1.6233235200246174,,,,,,,,,,,,1.6887549789880596e+18,180.64505961914065,2.347279930114746,43.937078857421874,-23.71679916381836,1.6887549789880596e+18,180.64505961914065,-252.1813171386719,137.25487670898437,-155.72079467773438,1.6887549789993114e+18,180.65631136067705,-0.5295013984044393,0.6224038402239481,-0.4926862418651581,0.2989012400309245,-2.6182082494099936,1.2655869722366333,-1.7275677522023518
0.7,1.688754979042566e+18,180.69956616210936,3.3615017533302307,-3.994137763977051,-5.682773113250732,1.688754979042566e+18,180.69956616210936,0.5054838061332703,-13.250554084777832,-3.981058716773987,1.688754979042566e+18,180.69956616210936,-2.8618639707565308,-9.238911628723145,1.639026939868927,1.688754979042566e+18,180.6995657552083,-0.5636759102344513,-0.3227913777033488,-0.097076656917731,1.6887549790468936e+18,180.70389363606773,-0.4986187517642975,-0.3693698421120643,0.0549778739611307,,,,,,,,,,,,1.6887549790380603e+18,180.69506044921877,6.01703987121582,43.02695999145508,-24.246279525756837,1.6887549790380603e+18,180.69506044921877,-248.5115539550781,136.34476013183593,-156.25027465820312,1.688754979042566e+18,180.69956616210936,-0.5194106698036194,0.6220220029354095,-0.5088549256324768,0.2904517352581024,-2.620916724205017,1.2278258204460144,-1.7424857020378113
0.75,1.6887549790858248e+18,180.74282478841147,2.3319170475006104,-7.353757222493489,-5.14728577931722,1.6887549790858248e+18,180.74282478841147,-0.4199403822422027,-16.670396486918133,-3.624528090159098,1.6887549790858248e+18,180.74282478841147,-2.7577035427093506,-9.299135208129885,1.460070292154948,1.6887549790944717e+18,180.75147167968748,0.935081958770752,-0.4920519391695659,0.4876740798354149,1.6887549790988055e+18,180.7558055826823,1.029613375663757,-0.3423390512665112,0.5989024539788564,,,,,,,,,,,,1.6887549790880614e+18,180.74506137695312,6.736839866638183,42.9952392578125,-24.29019966125488,1.6887549790880614e+18,180.74506137695312,-247.79175415039063,136.31304016113282,-156.29419555664063,1.6887549790858248e+18,180.74282478841147,-0.5148694713910421,0.6152792771657308,-0.511807401974996,0.3071068922678628,-2.655022621154785,1.2467262347539263,-1.740666747093201
0.8,1.6887549791377364e+18,180.7947364095052,1.9787609974543257,-2.261451085408529,1.0576837062835691,1.6887549791377364e+18,180.7947364095052,0.0231306254863739,-11.83310604095459,2.0652053703864417,1.6887549791377364e+18,180.7947364095052,-1.961476445198059,-9.554150263468424,0.9448342521985372,1.6887549791463867e+18,180.8033868001302,0.5437209916611512,-0.0669406528274218,3.2461379369099936,1.688754979142062e+18,180.79906225585935,0.6785949468612671,-0.0186313912272453,3.2375857830047607,,,,,,,,,,,,1.6887549791380705e+18,180.7950703125,3.5160398691892625,44.39823913574219,-22.4601993560791,1.6887549791380705e+18,180.7950703125,-251.01255493164064,137.7160400390625,-154.46419677734374,1.6887549791377364e+18,180.7947364095052,-0.5314355889956156,0.60640416542689,-0.4816633661588033,0.3424768050511678,-2.679473082224528,1.3462982177734375,-1.7158180872599285
0.85,1.6887549791896392e+18,180.84663932291664,-2.4482760429382324,-4.489403088887532,4.929387092590332,1.6887549791896392e+18,180.84663932291664,-2.6679972807566323,-14.2638152440389,5.870391607284546,1.6887549791896392e+18,180.84663932291664,-0.2255672613779703,-9.75690778096517,0.8783168196678162,1.688754979198291e+18,180.8552910970052,0.1128064443667729,0.1717549413442611,3.487022399902344,1.688754979185319e+18,180.8423186035156,-0.0091629748543103,0.0265217268218596,3.4776558081309,,,,,,,,,,,,1.6887549791880653e+18,180.84506533203125,-4.357839918136596,44.91307830810547,-22.218639373779297,1.6887549791880653e+18,180.84506533203125,-258.8864288330078,138.2308807373047,-154.2226348876953,1.6887549791896392e+18,180.84663932291664,-0.5816929141680399,0.5572229226430258,-0.4480035305023193,0.3871238927046458,-1.776625633239746,1.4671436548233032,-0.5359807809193929
0.9,1.6887549792415437e+18,180.89854353841145,-4.407710154851277,-3.6864134470621743,5.601936976114909,1.6887549792415437e+18,180.89854353841145,-2.858426014582316,-13.334602355957031,6.599803606669108,1.6887549792415437e+18,180.89854353841145,1.5434380968411765,-9.63068421681722,0.9351791143417358,1.6887549792501932e+18,180.9071932779948,-0.6275113398830096,-1.7237089822689693,3.4418692588806152,1.6887549792372193e+18,180.8942194824219,-0.236506645878156,-0.756505717833837,3.618765672047933,,,,,,,,,,,,1.6887549792380672e+18,180.8950671875,-12.758759498596191,43.575959014892575,-22.3235595703125,1.6887549792380672e+18,180.8950671875,-267.287353515625,136.8937561035156,-154.32755432128906,1.6887549792415437e+18,180.89854353841145,-0.6286660035451254,0.498595784107844,-0.4150447050730387,0.4280194938182831,-0.5658502479394277,1.3848316669464111,2.423102537790934
0.95,1.6887549792934513e+18,180.9504510904948,0.5878859361012777,-4.912533442179362,-0.2419816255569458,1.6887549792934513e+18,180.9504510904948,3.525026520093282,-14.142379442850748,1.432104269663493,1.6887549792934513e+18,180.9504510904948,2.9312945206960044,-9.21234130859375,1.611398458480835,1.6887549792934574e+18,180.95045739746092,-0.5565745979547501,-2.033035904169082,3.0889928340911865,1.6887549792891277e+18,180.94612752278644,-0.6478225886821747,-2.162972037990888,3.1037044525146484,,,,,,,,,,,,1.6887549792880584e+18,180.94505815429687,-17.997439575195312,39.74515914916992,-25.63463897705078,1.6887549792880584e+18,180.94505815429687,-272.5260375976562,133.06295776367188,-157.63863525390624,1.6887549792934513e+18,180.9504510904948,-0.6491463979085287,0.4093640546003977,-0.427294800678889,0.4772977530956268,-0.5062065720558167,1.2222679456075032,2.233416159947714
1.0,1.688754979345358e+18,181.00235799153643,-8.242039362589518,2.3553268114725747,-3.148810784022013,1.688754979345358e+18,181.00235799153643,-3.958925167719523,-6.357530434926351,-1.592423439025879,1.688754979345358e+18,181.00235799153643,4.277268091837565,-8.695352554321289,1.4936999877293904,1.6887549793367053e+18,180.9937053222656,0.5823581914107004,-0.1014545410871505,2.9082276026407876,1.6887549793410322e+18,180.9980323079427,0.5975789129734039,-0.3771074612935383,2.8413379192352295,,,,,,,,,,,,1.688754979338066e+18,180.995066015625,-23.323959732055663,37.12703857421875,-25.488239669799803,1.688754979338066e+18,180.995066015625,-277.85255126953126,130.44483642578126,-157.49223937988282,1.688754979345358e+18,181.00235799153643,-0.6712585886319479,0.3597232202688853,-0.3903459012508392,0.5169468323389689,-0.3378865122795105,1.0902605454126997,2.036060889561971
1.05,1.6887549793972613e+18,181.05426131184893,-7.527759234110515,9.982938448588053,-2.1840831438700357,1.6887549793972613e+18,181.05426131184893,-2.438685099283854,1.8187445998191831,-0.1385843356450398,1.6887549793972613e+18,181.05426131184893,5.08322795232137,-8.146689414978027,1.982811411221822,1.6887549793886036e+18,181.0456037597656,-0.1175406550367673,-2.624277035395304,2.3011293411254883,1.688754979392933e+18,181.04993318684896,-0.1589776786665121,-2.62493888537089,2.224516669909159,,,,,,,,,,,,1.6887549793880653e+18,181.0450653808594,-26.00551986694336,35.04327926635742,-27.113279342651367,1.6887549793880653e+18,181.0450653808594,-280.53411254882815,128.36107482910157,-159.11727905273438,1.6887549793972613e+18,181.05426131184893,-0.6660482287406921,0.2895672520001729,-0.3958128690719604,0.5615557034810384,-0.3713627258936564,0.9804513255755106,1.9401676257451377
1.1,1.6887549794491666e+18,181.10616650390625,-4.010452588399251,7.9502644538879395,-0.5931057532628378,1.6887549794491666e+18,181.10616650390625,1.1894322633743286,0.0239281853040059,2.0558334589004517,1.6887549794491666e+18,181.10616650390625,5.1940388679504395,-7.90883191426595,2.5862518151601157,1.6887549794405158e+18,181.09751578776044,0.1603012134631475,-1.7143932978312175,0.1561269611120224,1.6887549794448422e+18,181.10184212239585,0.249945692718029,-1.5759814381599426,-0.0768163005510966,,,,,,,,,,,,1.6887549794380654e+18,181.09506547851564,-24.624479675292967,33.25475997924805,-29.921719360351563,1.6887549794380654e+18,181.09506547851564,-279.1530700683594,126.57255859375,-161.92571411132812,1.6887549794491666e+18,181.10616650390625,-0.6526735623677572,0.2436475654443105,-0.419363925854365,0.581961989402771,-0.4623882273832957,0.93777197599411,1.922653317451477
1.15,1.688754979492416e+18,181.1494158935547,1.582594394683838,5.2904534339904785,-0.5846546292304993,1.688754979492416e+18,181.1494158935547,6.194718599319458,-3.0460633039474487,1.8756738305091856,1.688754979492416e+18,181.1494158935547,4.60627818107605,-8.31901216506958,2.3976410627365112,1.6887549794924224e+18,181.1494225260417,1.2969687779744463,-0.1088358288009961,-2.463823159535726,1.6887549794967473e+18,181.15374739583336,1.3199779987335205,-0.0090102578202883,-2.66337251663208,,,,,,,,,,,,1.6887549794880676e+18,181.145067578125,-21.591559600830077,35.211638641357425,-29.82899932861328,1.6887549794880676e+18,181.145067578125,-276.1201538085937,128.5294387817383,-161.83299560546874,1.688754979492416e+18,181.1494158935547,-0.6284090578556061,0.2657245397567749,-0.4410372972488403,0.5829350352287292,-0.4799874126911163,1.0127659440040588,1.9156086444854736
1.2,1.6887549795356716e+18,181.1926716308594,6.208334843317668,-7.668983777364095,4.187146623929341,1.6887549795356716e+18,181.1926716308594,9.79103144009908,-16.583656628926594,6.300501465797424,1.6887549795356716e+18,181.1926716308594,3.576850732167562,-8.897168477376303,2.050667325655619,1.6887549795443218e+18,181.20132161458332,-0.0096720357735951,-1.017446977396806,-1.1085676749547324,1.6887549795486454e+18,181.2056454264323,-0.1222748557726541,-1.4143565893173218,-0.5952372153600058,,,,,,,,,,,,1.688754979538066e+18,181.19506591796875,-15.530599975585938,39.11563873291016,-28.626079559326172,1.688754979538066e+18,181.19506591796875,-270.05919189453124,132.43343505859374,-160.630078125,1.6887549795356716e+18,181.1926716308594,-0.603317141532898,0.3146510819594065,-0.4674752453962962,0.5641388893127441,-0.5221107602119446,1.1366229057312012,1.9764433701833088
1.25,1.688754979587579e+18,181.2445787760417,7.321640332539876,-2.700229008992514,1.6928483645121255,1.688754979587579e+18,181.2445787760417,10.978469689687094,-11.457632144292196,4.303890387217204,1.688754979587579e+18,181.2445787760417,3.6509831746419272,-8.739898999532064,2.548354705174764,1.6887549795962248e+18,181.25322493489583,0.3841833428790172,-2.414597590764364,1.140180009106795,1.6887549796005535e+18,181.2575536295573,0.4294382557272911,-2.0981693863868713,0.8656469583511353,,,,,,,,,,,,1.68875497958807e+18,181.24506987304687,-13.049119758605958,38.51539916992188,-30.15107955932617,1.68875497958807e+18,181.24506987304687,-267.5777160644531,131.83320007324218,-162.155078125,1.688754979587579e+18,181.2445787760417,-0.5789996186892191,0.2638792594273885,-0.4939426879088084,0.592142383257548,-0.6092771689097086,1.0995925267537434,1.929152886072795
1.3,1.6887549796394831e+18,181.29648315429688,-7.110894600550335,-1.897276242574056,4.122989734013875,1.6887549796394831e+18,181.29648315429688,-3.680360635121664,-10.757333358128866,6.6869423389434814,1.6887549796394831e+18,181.29648315429688,3.4246880213419595,-8.84255282084147,2.501264810562134,1.6887549796481318e+18,181.30513159179688,0.4176791111628214,1.2988012929757438,-1.3906856179237366,1.6887549796438024e+18,181.30080236816409,0.4940372705459595,1.0916161835193634,-1.7389042377471924,,,,,,,,,,,,1.6887549796380618e+18,181.29506186523437,-11.048319625854491,38.99607925415039,-30.024199295043942,1.6887549796380618e+18,181.29506186523437,-265.5769104003906,132.31387634277343,-162.0281982421875,1.6887549796394831e+18,181.29648315429688,-0.5615074435869852,0.2620340089003244,-0.5065385301907858,0.5993559161822001,-0.6310239235560099,1.1235952377319334,1.9111551841100056
1.35,1.6887549796913897e+18,181.3483895670573,-2.418093204498291,-1.1260073979695635,-2.748841166496277,1.6887549796913897e+18,181.3483895670573,0.6977072755495707,-10.23370361328125,-0.7174479762713114,1.6887549796913897e+18,181.3483895670573,3.109954595565796,-9.090191523234049,1.9687058130900064,1.6887549797000348e+18,181.35703474934897,0.3179553523659705,3.124117612838745,-1.9145535230636597,1.6887549796870628e+18,181.3440628255208,0.2115629985928535,2.9266045093536377,-1.1568769415219624,,,,,,,,,,,,1.6887549796880684e+18,181.34506826171875,-11.30695972442627,39.869599151611325,-28.506518936157228,1.6887549796880684e+18,181.34506826171875,-265.83555297851564,133.1873992919922,-160.51051635742186,1.6887549796913897e+18,181.3483895670573,-0.5767114559809366,0.3188965618610382,-0.4892039000988006,0.5707450906435648,-0.5632084012031555,1.185985803604126,1.9662249485651653
1.4,1.6887549797433006e+18,181.4003005371094,-7.3367509841918945,2.1670400301615396,-0.3083906968434651,1.6887549797433006e+18,181.4003005371094,-5.651049455006917,-7.401598771413167,1.1136595408121746,1.6887549797433006e+18,181.4003005371094,1.6798554460207622,-9.55113410949707,1.3593628406524658,1.6887549797432965e+18,181.40029626464843,0.3197879418730736,3.2026901245117188,-4.511468887329102,1.6887549797389722e+18,181.39597233072917,0.3448843384782473,3.222874085108439,-4.2065199216206866,,,,,,,,,,,,1.688754979738062e+18,181.39506201171872,-10.42123966217041,41.74595947265625,-25.92987976074219,1.688754979738062e+18,181.39506201171872,-264.9498291015625,135.06375732421876,-157.93387756347656,1.6887549797433006e+18,181.4003005371094,-0.5761647820472717,0.4207228521505992,-0.4862086772918701,0.5030230482419332,-0.7111149231592814,1.3463472922643025,2.2894740104675293
1.45,1.688754979795203e+18,181.452203125,-4.354852546006441,-0.966070810953776,-1.7790317138036091,1.688754979795203e+18,181.452203125,-4.090729758143425,-10.660822868347168,-0.1499502261479695,1.688754979795203e+18,181.452203125,0.2582767816881339,-9.677247365315756,1.5663940111796062,1.688754979786547e+18,181.44354695638015,-1.1323914527893066,3.1111876169840493,-2.446057120958964,1.6887549797908767e+18,181.44787679036455,-1.2072224418322246,2.949613730112711,-2.2083797057469687,,,,,,,,,,,,1.6887549797880663e+18,181.44506630859377,-6.326919841766357,42.82199935913086,-25.37111930847168,1.6887549797880663e+18,181.44506630859377,-260.8555114746094,136.139794921875,-157.3751190185547,1.688754979795203e+18,181.452203125,-0.5852654576301575,0.4988868832588196,-0.4876731832822163,0.4125074247519175,-1.3958563009897869,1.4067099889119463,-1.0372210343678792
1.5,1.6887549798471063e+18,181.50410620117188,2.393679698308309,-2.216684023539225,-3.5905446211496987,1.6887549798471063e+18,181.50410620117188,1.7726828058560689,-11.848260561625162,-1.7028921047846477,1.6887549798471063e+18,181.50410620117188,-0.6268429855505625,-9.6140718460083,1.8249651193618777,1.6887549798384556e+18,181.495455485026,-0.2130901633451382,-0.0774780735373497,-1.9975802898406985,1.6887549798427784e+18,181.49977856445312,-0.066889743010203,-0.125481901379923,-2.0319923559824624,,,,,,,,,,,,1.6887549798380672e+18,181.49506704101563,-4.413959884643555,42.02899856567383,-27.03519973754883,1.6887549798380672e+18,181.49506704101563,-258.94255981445315,135.3467987060547,-159.03919372558593,1.6887549798471063e+18,181.50410620117188,-0.574607272942861,0.5279911955197653,-0.5030351281166077,0.3711990515391032,-1.8972524801890056,1.3706051508585613,-2.5851163069407144
1.55,1.6887549798990088e+18,181.5560086263021,2.9115957419077554,2.286844571431478,-1.3056352535883586,1.6887549798990088e+18,181.5560086263021,1.5244274139404297,-7.320442199707031,0.2711865504582723,1.6887549798990088e+18,181.5560086263021,-1.393014391263326,-9.589782079060871,1.514134407043457,1.6887549798903606e+18,181.5473607584635,0.9243409434954324,1.656819264094035,-1.6827810208002727,1.6887549798946875e+18,181.55168725585935,0.943430463473002,1.7634152173995972,-1.6701055765151978,,,,,,,,,,,,1.688754979888069e+18,181.54506918945313,-0.3855199992656708,43.00743942260742,-25.859119415283203,1.688754979888069e+18,181.54506918945313,-254.91411743164065,136.3252380371094,-157.8631164550781,1.6887549798990088e+18,181.5560086263021,-0.5574272871017456,0.5733263691266378,-0.4919276932875315,0.3438222010930379,-2.311679204305013,1.3585125207901,-2.102893670399984
1.6,1.688754979942266e+18,181.59926599121093,1.1269258856773376,2.6756796836853027,-0.5856797397136688,1.688754979942266e+18,181.59926599121093,-0.6921239290386438,-6.87816858291626,0.8769694864749908,1.688754979942266e+18,181.59926599121093,-1.8248958587646489,-9.536343574523926,1.3999618291854858,1.6887549799422618e+18,181.59926180013025,0.1972585767507553,1.4022411704063416,-1.0774644613265991,1.6887549799465925e+18,181.60359228515625,0.1042543376485506,1.291063666343689,-1.017090618610382,1.688754979920641e+18,181.5776411132813,0.0,0.0,2.579448699951172,6.184999942779541,1.2851078510284424,152.37896728515625,332.79998779296875,-122.9167112,49.278532,1.688754979938066e+18,181.59506586914063,0.6221999883651733,43.81507949829101,-24.661079788208006,1.688754979938066e+18,181.59506586914063,-253.9063934326172,137.13287963867188,-156.66507568359376,1.688754979942266e+18,181.59926599121093,-0.555069774389267,0.6077032089233398,-0.4729163795709609,0.3144790232181549,-2.4863234758377075,1.3341018557548523,-1.8457435965538025
1.65,1.6887549799855132e+18,181.64251302083335,0.6874422629674276,0.0978034337361653,-0.5087611873944601,1.6887549799855132e+18,181.64251302083335,-1.4885350465774536,-9.3527463277181,1.1224332451820374,1.6887549799855132e+18,181.64251302083335,-2.1818233331044516,-9.433045069376629,1.5685070355733235,1.6887549799941714e+18,181.65117122395836,-0.5020803312460581,-0.0552833129962285,-1.342020034790039,1.688754979998495e+18,181.65549503580732,-0.5114469130833944,-0.2101885452866554,-1.4320717255274455,,,,,,,,,,,,1.6887549799880666e+18,181.64506655273436,1.5127999573945998,43.55643844604492,-24.995359802246092,1.6887549799880666e+18,181.64506655273436,-253.0157958984375,136.87423706054688,-156.99935607910157,1.6887549799855132e+18,181.64251302083335,-0.5505432486534119,0.6206604639689127,-0.4753047923247019,0.2927096287409463,-2.5169437726338706,1.2932544549306233,-1.7854572534561155
1.7,1.6887549800374182e+18,181.69441853841144,5.489045143127441,-3.180213292439779,-3.9103863636652623,1.6887549800374182e+18,181.69441853841144,2.5870400269826255,-12.412368456522625,-2.1595225234826407,1.6887549800374182e+18,181.69441853841144,-2.907851060231527,-9.214650472005207,1.6881763537724812,1.6887549800460762e+18,181.7030762532552,-0.4283183515071869,-0.7203628321488699,-0.6192137400309246,1.688754980050397e+18,181.70739680989584,-0.3897829353809356,-0.5528330504894257,-0.4031710525353749,,,,,,,,,,,,1.6887549800380636e+18,181.6950636230469,5.521719980239868,42.67803955078125,-26.186079025268555,1.6887549800380636e+18,181.6950636230469,-249.00687561035156,135.99583740234374,-158.19007873535156,1.6887549800374182e+18,181.69441853841144,-0.5226205190022787,0.6290283997853597,-0.5024302701155344,0.2804556290308634,-2.6143875122070312,1.2208492358525591,-1.7212953170140584
1.75,1.6887549800893307e+18,181.74633072916663,3.081494410832723,-6.3672835032145185,-3.935569206873576,1.6887549800893307e+18,181.74633072916663,0.2476571500301361,-15.627923647562662,-2.221735864877701,1.6887549800893307e+18,181.74633072916663,-2.839683214823405,-9.243135770161947,1.6511458953221638,1.688754980097981e+18,181.7549807128906,0.8937976658344269,0.8233445485432943,0.2591086824735005,1.688754980093657e+18,181.7506572265625,0.8916341662406922,0.958218514919281,0.0334448665380477,,,,,,,,,,,,1.688754980088066e+18,181.7450659667969,5.482679843902588,42.516999053955075,-26.21780014038086,1.688754980088066e+18,181.7450659667969,-249.04591369628903,135.8347961425781,-158.2218017578125,1.6887549800893307e+18,181.74633072916663,-0.5257197618484497,0.630385955174764,-0.4971945683161418,0.280956745147705,-2.6146095593770347,1.2292681137720745,-1.7118525505065918
1.8,1.688754980141235e+18,181.79823502604168,1.5085349480311077,-3.3077942530314126,0.8088319698969523,1.688754980141235e+18,181.79823502604168,-0.5515456274151802,-12.815359751383465,2.1581265926361084,1.688754980141235e+18,181.79823502604168,-2.0659266312917075,-9.490060806274414,1.2866072257359822,1.688754980149885e+18,181.8068848470052,0.4833471179008484,-0.2483676299452781,3.622685432434082,1.688754980136908e+18,181.7939079589844,0.6580036878585815,0.0194458713134129,2.699515382448832,,,,,,,,,,,,1.6887549801380654e+18,181.795065625,2.4985599160194396,43.66135864257812,-24.61227951049805,1.6887549801380654e+18,181.795065625,-252.03003540039063,136.97915954589843,-156.61627197265625,1.688754980141235e+18,181.79823502604168,-0.5488819281260172,0.6229273478190104,-0.4657766719659169,0.3050777812798818,-2.5670825640360513,1.318782965342204,-1.738218824068705
1.85,1.6887549801931384e+18,181.85013834635416,-2.664769490559896,-3.3175376256306968,0.85521266857783,1.6887549801931384e+18,181.85013834635416,-2.865604559580485,-13.076576232910156,1.9780667424201963,1.6887549801931384e+18,181.85013834635416,-0.2066811372836431,-9.741533915201822,1.0601666768391926,1.6887549801931412e+18,181.85014123535151,0.4061490297317505,-1.2153164148330688,3.351283073425293,1.688754980188816e+18,181.8458158365885,0.4016438921292622,-1.0227411389350891,3.5802811781565347,,,,,,,,,,,,1.6887549801880653e+18,181.8450654785156,-5.136199855804444,44.107878875732425,-23.836359405517577,1.6887549801880653e+18,181.8450654785156,-259.664794921875,137.4256805419922,-155.84035949707032,1.6887549801931384e+18,181.85013834635416,-0.596172054608663,0.5649749437967936,-0.4370761513710022,0.365758329629898,-1.7242188056310015,1.4532530705134077,-2.6272477308909097
1.9,1.6887549802450424e+18,181.90204272460937,-2.357162356376648,-5.510048866271973,4.658025503158569,1.6887549802450424e+18,181.90204272460937,-1.018146009494861,-15.173885663350424,5.788636843363444,1.6887549802450424e+18,181.90204272460937,1.3331703146298726,-9.646332105000814,1.0679240226745603,1.6887549802363932e+18,181.89339306640625,-0.1656972020864486,0.0232637921969095,3.2581516901652017,1.6887549802407186e+18,181.89771842447917,-0.2261219521363575,0.1294016242027282,3.3978870709737143,,,,,,,,,,,,1.688754980238063e+18,181.89506328125,-11.50947971343994,42.97571868896485,-23.76072006225586,1.688754980238063e+18,181.89506328125,-266.03806762695314,136.29351806640625,-155.76471862792968,1.6887549802450424e+18,181.90204272460937,-0.6350526412328085,0.5113849143187205,-0.4124309619267781,0.4054643114407857,-0.7176130016644796,1.392901102701823,2.619855006535848
1.95,1.6887549802969485e+18,181.95394832356772,-2.0474241574605307,-4.450552622477214,1.5475032329559326,1.6887549802969485e+18,181.95394832356772,1.005384298662345,-13.677174886067707,3.0247271756331124,1.6887549802969485e+18,181.95394832356772,3.0469624201456704,-9.209117571512856,1.414536476135254,1.6887549802883018e+18,181.9453016764323,-0.272191380461057,-1.7701347830394905,3.525405168533325,1.6887549802926257e+18,181.94962573242188,-0.1939497093359629,-1.914248029390971,3.42445961634318,,,,,,,,,,,,1.6887549802880676e+18,181.94506757812505,-18.421999740600587,40.18191833496094,-24.87091941833496,1.6887549802880676e+18,181.94506757812505,-272.9505920410156,133.49971923828124,-156.87491760253906,1.6887549802969485e+18,181.95394832356772,-0.674541711807251,0.4342936178048451,-0.3943863908449808,0.4472544888655343,-0.4363411764303842,1.2208584149678547,2.2792840003967285
2.0,1.6887549803488566e+18,182.0058565266927,-6.793315966924031,0.9054228464762368,-2.181978384653727,1.6887549803488566e+18,182.0058565266927,-2.536192576090494,-7.852047602335612,-0.8151549299558004,1.6887549803488566e+18,182.0058565266927,4.251277367273967,-8.739965756734213,1.304136037826538,1.6887549803402022e+18,181.99720231119792,0.8903361161549886,-0.607912706832091,2.654005845387777,1.6887549803445322e+18,182.0015322265625,0.9147707025210062,-0.6853399177392324,2.5568273464838662,,,,,,,,,,,,1.6887549803380654e+18,181.9950653808594,-22.640759658813476,37.33443908691406,-25.683439254760746,1.6887549803380654e+18,181.9950653808594,-277.1693603515625,130.65223999023436,-157.68743591308595,1.6887549803488566e+18,182.0058565266927,-0.6835293571154276,0.3786786099274953,-0.3738199273745219,0.4993171493212382,-0.2995384534200032,1.0998200178146362,2.0650486946105957
2.05,1.688754980392111e+18,182.0491112060547,-11.13615655899048,9.191383361816406,-2.2427799701690674,1.688754980392111e+18,182.0491112060547,-6.284748792648315,0.784247636795044,-0.6535396873950958,1.688754980392111e+18,182.0491112060547,4.845561981201172,-8.389631271362305,1.5265528559684751,1.688754980392111e+18,182.04911108398437,0.1510364388426144,-2.8510608673095703,2.275574882825216,1.6887549803964347e+18,182.05343457031253,0.0561996065080166,-2.8747318585713706,2.341242790222168,,,,,,,,,,,,1.6887549803880689e+18,182.0450689453125,-24.704999923706055,35.91923828125,-26.33003959655762,1.6887549803880689e+18,182.0450689453125,-279.2335998535156,129.2370391845703,-158.33403625488282,1.688754980392111e+18,182.0491112060547,-0.6737025678157806,0.3291986733675003,-0.3800609707832336,0.5413293838500977,-0.3051821291446686,1.0261216163635254,1.960573136806488
2.1,1.688754980435367e+18,182.0923663736979,-4.854959011077881,10.142867088317873,0.6164067983627319,1.688754980435367e+18,182.0923663736979,0.5537389914194742,2.2400808334350586,2.8715866009394326,1.688754980435367e+18,182.0923663736979,5.4028520584106445,-7.885281721750896,2.192492405573527,1.688754980444016e+18,182.10101611328125,-0.029270626604557,-1.730224887530009,0.993572324514389,1.688754980448342e+18,182.10534212239585,0.0561996044901509,-1.5664111375808716,0.6775004863739014,,,,,,,,,,,,1.6887549804380677e+18,182.0950673828125,-25.24179916381836,33.22547988891601,-29.54351959228516,1.6887549804380677e+18,182.0950673828125,-279.7703918457031,126.54327697753908,-161.54751586914062,1.688754980435367e+18,182.0923663736979,-0.669975201288859,0.2648825248082478,-0.3926893770694732,0.5713680585225424,-0.385179728269577,0.933892031510671,1.9251258373260496
2.15,1.688754980487271e+18,182.14427067057292,-2.200392246246338,6.500698407491048,0.3194700082143147,1.688754980487271e+18,182.14427067057292,2.909273624420166,-1.556730588277181,2.7178476651509604,1.688754980487271e+18,182.14427067057292,5.103819847106934,-8.039924621582031,2.3356902599334717,1.68875498049592e+18,182.15292016601563,1.0752755602200823,-0.0858774756391843,-2.156405289967855,1.6887549805002478e+18,182.15724788411455,1.1421144008636477,-0.0278961832324664,-2.3157902161280313,,,,,,,,,,,,1.6887549804880676e+18,182.145067578125,-22.28695945739746,34.27711944580078,-30.241358947753906,1.6887549804880676e+18,182.145067578125,-276.8155517578125,127.59491729736328,-162.24535217285157,1.688754980487271e+18,182.14427067057292,-0.6519633332888285,0.2608772764603296,-0.4142787456512451,0.5788103143374125,-0.4292125304539998,0.9613029956817628,1.915855884552002
2.2,1.6887549805391767e+18,182.1961765950521,7.373013655344645,-0.1598916053771972,-0.7363406419754028,1.6887549805391767e+18,182.1961765950521,11.344970067342125,-8.94257656733195,1.203789185732603,1.6887549805391767e+18,182.1961765950521,3.9661103089650473,-8.765180587768555,1.877442439397176,1.6887549805478267e+18,182.2048267415365,0.3413209716478984,-0.0327831034859021,-2.1326833218336105,1.6887549805435067e+18,182.2005067138672,0.6523277387022972,0.0736856162548065,-2.923906445503235,,,,,,,,,,,,1.6887549805380628e+18,182.19506289062505,-16.76279983520508,38.432438659667966,-28.53823890686035,1.6887549805380628e+18,182.19506289062505,-271.29140014648436,131.75023803710937,-160.542236328125,1.6887549805391767e+18,182.1961765950521,-0.6171337962150574,0.3156261742115021,-0.4448939065138499,0.5667363206545512,-0.4433216154575347,1.106577714284261,1.9330222606658936
2.25,1.6887549805910822e+18,182.24808203125,5.340641339619954,-15.30262025197347,3.16633677482605,1.6887549805910822e+18,182.24808203125,9.112666447957356,-24.092733065287273,5.473581790924072,1.6887549805910822e+18,182.24808203125,3.766179084777832,-8.772607803344727,2.2445576190948486,1.6887549805997304e+18,182.2567305501302,0.0703513026237487,-3.0591113567352295,1.677334149678548,1.6887549805867569e+18,182.2437566731771,-0.2874630093574524,-2.586708883444468,1.416851043701172,,,,,,,,,,,,1.6887549805880704e+18,182.2450705078125,-15.008439826965333,38.359239959716795,-29.65575942993164,1.6887549805880704e+18,182.2450705078125,-269.5370300292969,131.67703857421876,-161.65975646972657,1.6887549805910822e+18,182.24808203125,-0.6011242071787516,0.2934599121411641,-0.4705370664596557,0.5747764905293783,-0.5365591247876486,1.1072044372558594,1.952135721842448
2.3,1.6887549806429868e+18,182.299986735026,-1.922010103861491,0.7287507057189941,5.053647359212239,1.6887549806429868e+18,182.299986735026,1.9910279115041096,-7.941977659861247,7.581259727478027,1.6887549806429868e+18,182.299986735026,3.9071919123331704,-8.653223673502604,2.464924971262614,1.6887549806429865e+18,182.299986328125,0.4004221707582474,-0.3126866519451141,-0.5842925943434238,1.6887549806386616e+18,182.29566170247395,0.4528038700421651,-0.6725117564201355,-0.1162680188814799,,,,,,,,,,,,1.6887549806380618e+18,182.29506186523437,-12.736799812316894,38.14939804077149,-30.553679275512696,1.6887549806380618e+18,182.29506186523437,-267.26539306640626,131.46719665527343,-162.55767822265625,1.6887549806429868e+18,182.299986735026,-0.5792065262794495,0.2570361196994781,-0.4844986001650492,0.603045920530955,-0.562810480594635,1.0803995529810588,1.873817245165507
2.35,1.6887549806948943e+18,182.35189420572917,-4.475143909454346,0.9548004468282064,-2.7646913131078086,1.6887549806948943e+18,182.35189420572917,-0.8640083471934,-7.956135272979736,-0.6779664556185404,1.6887549806948943e+18,182.35189420572917,3.605289538701375,-8.893431027730307,2.0240374008814492,1.6887549806862408e+18,182.34324072265625,0.4777984420458476,1.7267123858133953,-0.899906317392985,1.688754980690563e+18,182.34756339518228,0.4872159461180369,1.895413080851237,-0.958193023999532,,,,,,,,,,,,1.688754980688071e+18,182.34507080078123,-12.285399818420412,39.33279876708984,-29.563039016723632,1.688754980688071e+18,182.34507080078123,-266.8139953613281,132.65059814453124,-161.56703491210936,1.6887549806948943e+18,182.35189420572917,-0.5800469716389974,0.295659989118576,-0.478038877248764,0.5892948905626932,-0.5102612674236298,1.1354414621988933,1.884383996327718
2.4,1.6887549807467968e+18,182.4037967936198,-5.5800700187683105,1.9295501708984375,0.5066672166188558,1.6887549807467968e+18,182.4037967936198,-2.827319343884786,-7.408777236938477,1.823729674021403,1.6887549807467968e+18,182.4037967936198,2.746904532114665,-9.320822715759276,1.2543750603993733,1.6887549807381455e+18,182.39514575195312,0.5229006558656693,3.314096689224243,-2.8144088983535767,1.6887549807424768e+18,182.39947680664065,0.4523457114895184,3.313434918721517,-3.034473101298014,,,,,,,,,,,,1.6887549807380657e+18,182.39506552734375,-12.77827968597412,40.930998992919925,-26.53499984741211,1.6887549807380657e+18,182.39506552734375,-267.3068786621094,134.2488006591797,-158.53899841308595,1.6887549807467968e+18,182.4037967936198,-0.5865622361501058,0.3818542857964833,-0.4618676304817199,0.5436485211054484,-0.4302998383839925,1.257434328397115,1.9633171558380127
2.45,1.6887549807987044e+18,182.45570426432292,-4.313528060913086,1.0473912556966145,-0.32197900613149,1.6887549807987044e+18,182.45570426432292,-3.1962127685546875,-8.63848876953125,0.9168498714764914,1.6887549807987044e+18,182.45570426432292,1.1114692290623982,-9.668375333150228,1.1761414607365923,1.688754980790044e+18,182.44704394531252,-0.8093455533186594,3.3032538096110025,-3.4442617893218994,1.6887549807943744e+18,182.45137443033855,-0.9274970690409342,3.336851437886556,-3.2983668645222983,,,,,,,,,,,,1.688754980788065e+18,182.44506518554687,-9.3939998626709,42.787838745117185,-24.99047966003418,1.688754980788065e+18,182.44506518554687,-263.9226013183594,136.1056335449219,-156.99447631835938,1.6887549807987044e+18,182.45570426432292,-0.590147872765859,0.4743211766084035,-0.4668569068113963,0.4556726018587748,-0.8330694238344828,1.401636838912964,2.5464526812235513
2.5,1.6887549808506028e+18,182.50760270182295,-1.4259966413180034,-3.677954355875651,-3.245917320251465,1.6887549808506028e+18,182.50760270182295,-1.2602199117342632,-13.363914489746094,-1.5465610424677532,1.6887549808506028e+18,182.50760270182295,0.1599307159582773,-9.668455441792808,1.636668841044108,1.688754980841956e+18,182.4989561360677,-1.0308351318041484,0.9536116123199464,-1.7171422243118286,1.688754980846282e+18,182.5032821451823,-0.9289733370145162,0.5287547707557678,-1.6244943141937256,,,,,,,,,,,,1.688754980838069e+18,182.4950690917969,-7.605479907989502,42.519438934326175,-26.41299934387207,1.688754980838069e+18,182.4950690917969,-262.1340759277344,135.83724060058594,-158.4169952392578,1.6887549808506028e+18,182.50760270182295,-0.5979250272115072,0.5162425637245178,-0.4746008217334747,0.3880416055520375,-1.468307375907898,1.400840202967326,-0.896572987238566
2.55,1.6887549808938624e+18,182.55086254882815,3.655481934547424,0.2680492401123047,-2.759639263153076,1.6887549808938624e+18,182.55086254882815,3.1531420946121216,-9.405587196350098,-1.0480563044548037,1.6887549808938624e+18,182.55086254882815,-0.508185938000679,-9.656131744384766,1.6488956212997437,1.6887549808938578e+18,182.55085791015628,0.3849469274282455,-0.3003420829772949,-1.5786285400390625,1.688754980898188e+18,182.55518782552085,0.4775439091026783,-0.0093666017055511,-1.5997033913930256,,,,,,,,,,,,1.6887549808880658e+18,182.5450658203125,-3.398919939994812,42.0851188659668,-27.579319381713866,1.6887549808880658e+18,182.5450658203125,-257.9275207519531,135.40291442871094,-159.58331298828125,1.6887549808938624e+18,182.55086254882815,-0.5727732181549072,0.5268732607364655,-0.4982559531927109,0.3821315914392471,-1.8701691031455991,1.393424153327942,-2.621649265289306
2.6,1.6887549809371123e+18,182.59411222330732,0.9563592473665872,3.316096782684326,-1.583020607630412,1.6887549809371123e+18,182.59411222330732,-0.133200466632843,-6.3527445793151855,-0.1593221326669057,1.6887549809371123e+18,182.59411222330732,-1.0954057375590007,-9.651336669921877,1.3610110680262248,1.6887549809457664e+18,182.6027666015625,0.7533495624860128,1.762804349263509,-1.6227126121520996,1.688754980950087e+18,182.60708666992187,0.7219918171564738,1.7035504579544067,-1.6448055903116865,1.688754980958745e+18,182.6157451171875,0.0,0.0,2.5898351669311523,6.146999835968018,1.2757906913757324,146.91539001464844,332.79998779296875,-122.9166915,49.2785262,1.6887549809380677e+18,182.59506762695312,-1.146799957752228,42.97083969116211,-25.754199981689453,1.6887549809380677e+18,182.59506762695312,-255.67539978027344,136.28863525390625,-157.75819396972656,1.6887549809371123e+18,182.59411222330732,-0.5613622864087423,0.5657305518786112,-0.485303779443105,0.3591210643450419,-2.245404322942098,1.390723745028178,-2.18216880162557
2.65,1.68875498098902e+18,182.6460198567709,1.7301198244094849,1.8961876233418784,-0.0849970380465189,1.68875498098902e+18,182.6460198567709,-0.129013025027234,-7.673183917999268,1.1902298728624978,1.68875498098902e+18,182.6460198567709,-1.8649788697560628,-9.55186684926351,1.212539513905843,1.688754980997672e+18,182.65467179361977,-0.1887573699156443,0.0936150985459486,-1.506851851940155,1.6887549809933478e+18,182.65034777832028,-0.1272126883268356,0.1327104708179831,-1.661018967628479,,,,,,,,,,,,1.688754980988063e+18,182.64506303710937,0.7027200013399124,43.93463973999023,-24.697679138183595,1.688754980988063e+18,182.64506303710937,-253.8258728027344,137.25244140625,-156.70167846679686,1.68875498098902e+18,182.6460198567709,-0.5452576279640198,0.6056289672851562,-0.4776934385299682,0.3279980917771657,-2.560703992843628,1.3417434692382812,-1.802419940630595
2.7,1.688754981040926e+18,182.6979262695312,3.584007898966471,-1.1094690958658855,-0.8443346420923868,1.688754981040926e+18,182.6979262695312,1.1264212802052498,-10.51944637298584,0.6027918954690297,1.688754981040926e+18,182.6979262695312,-2.4634326299031577,-9.392472585042318,1.3844391107559204,1.688754981049574e+18,182.70657389322915,-0.5240714848041534,-0.442928201208512,-1.1471031109491985,1.6887549810366016e+18,182.6936015625,-0.5239696701367696,-0.5404121279716492,-1.134834905465444,,,,,,,,,,,,1.6887549810380682e+18,182.69506806640624,3.969879913330078,43.13187942504883,-25.615119552612303,1.6887549810380682e+18,182.69506806640624,-250.5587127685547,136.44967346191407,-157.6191162109375,1.688754981040926e+18,182.6979262695312,-0.5263828039169312,0.6142070293426514,-0.4982304871082306,0.3119879464308421,-2.6283508936564126,1.278522292772929,-1.7485313415527344
2.75,1.6887549810928284e+18,182.7498284505208,1.6315288543701172,-4.357242584228516,-6.1200151443481445,1.6887549810928284e+18,182.7498284505208,-1.0648059844970703,-13.661820729573568,-4.421736876169841,1.6887549810928284e+18,182.7498284505208,-2.7021809418996177,-9.287073453267416,1.63559087117513,1.6887549810928333e+18,182.74983337402344,-0.5306128263473511,0.8198574781417847,0.1982257813215256,1.688754981088501e+18,182.74550122070312,-0.505745530128479,0.5475897838672003,-0.0437786752978961,,,,,,,,,,,,1.6887549810880653e+18,182.7450653808594,5.597359943389892,42.082678985595706,-27.118159103393555,1.6887549810880653e+18,182.7450653808594,-248.93123779296872,135.40047912597657,-159.12215576171874,1.6887549810928284e+18,182.7498284505208,-0.5239861210187277,0.6164486408233643,-0.5076245466868082,0.2961593270301819,-2.596797625223795,1.2428264617919922,-1.7726823886235554
2.8,1.6887549811447296e+18,182.8017295735677,3.124281167984009,-5.848680178324382,-2.834835966428121,1.6887549811447296e+18,182.8017295735677,0.5670989751815796,-15.239488283793133,-1.4414762655893962,1.6887549811447296e+18,182.8017295735677,-2.563028256098429,-9.373303731282553,1.3306724230448406,1.6887549811360858e+18,182.79308544921875,0.8468119402726492,-0.7637342909971873,0.2540690302848816,1.6887549811404114e+18,182.7974113769531,0.961043745279312,-0.7530441284179686,0.2913318226734797,,,,,,,,,,,,1.688754981138069e+18,182.79506918945313,5.870639991760254,42.470639038085935,-26.598439407348632,1.688754981138069e+18,182.79506918945313,-248.657958984375,135.78843383789064,-158.6024383544922,1.6887549811447296e+18,182.8017295735677,-0.5197182695070902,0.614419420560201,-0.503051886955897,0.3149918516476949,-2.6641174952189126,1.2715444962183635,-1.7272168397903442
2.85,1.6887549811966415e+18,182.8536417643229,1.65725572903951,-3.158268610636393,1.4296974937121074,1.6887549811966415e+18,182.8536417643229,0.1976072862744331,-12.81735356648763,2.421337127685547,1.6887549811966415e+18,182.8536417643229,-1.4654943943023682,-9.6415802637736,0.9289522767066956,1.6887549811879854e+18,182.84498551432293,0.4065308241794507,-0.5500841438770294,3.121979554494222,1.6887549811923182e+18,182.84931819661455,0.2868012338876724,-0.52646404504776,3.3173036575317383,,,,,,,,,,,,1.6887549811880648e+18,182.84506494140624,2.87187996506691,43.834599304199216,-24.47807922363281,1.6887549811880648e+18,182.84506494140624,-251.6567138671875,137.15239868164062,-156.4820770263672,1.6887549811966415e+18,182.8536417643229,-0.5421430071194967,0.5871047178904215,-0.4792337914307912,0.3619477947552998,-2.5356170336405435,1.3905181884765625,-1.886423389116923
2.9,1.688754981248544e+18,182.90554410807297,-3.205066680908203,-3.908376057942709,2.7957266569137573,1.688754981248544e+18,182.90554410807297,-3.0546375115712485,-13.679966608683268,3.8129629294077554,1.688754981248544e+18,182.90554410807297,0.1445831308762232,-9.754085858662924,0.9545488754908243,1.6887549812398866e+18,182.89688655598957,-0.0766126811504363,-0.3686571816603343,3.0327423413594565,1.6887549812442232e+18,182.90122322591148,-0.076154535015424,-0.3619376520315806,3.024750232696533,,,,,,,,,,,,1.6887549812380677e+18,182.89506757812495,-3.9283998727798464,44.00539932250977,-24.724519729614254,1.6887549812380677e+18,182.89506757812495,-258.4569915771484,137.3231994628906,-156.728515625,1.688754981248544e+18,182.90554410807297,-0.5854769746462504,0.5352409482002258,-0.4537536005179087,0.4054621954758962,-1.446806867917379,1.4642527898152669,-0.90855606396993
2.95,1.688754981300452e+18,182.9574520670573,-2.4395325978597007,-3.530884106953939,5.206753094991048,1.688754981300452e+18,182.9574520670573,-0.5571288565794627,-13.093525568644203,6.4233330090840655,1.688754981300452e+18,182.9574520670573,1.87655774752299,-9.54513676961263,1.1538925170898438,1.688754981291801e+18,182.9488012695313,-0.4169664457440376,-0.5955427090326945,3.77728525797526,1.68875498129613e+18,182.9531298014323,-0.4928155293067296,-0.6405431230862936,3.796629269917806,,,,,,,,,,,,1.6887549812880635e+18,182.94506337890624,-10.235799884796142,42.90251922607422,-25.12711944580078,1.6887549812880635e+18,182.94506337890624,-264.76439208984374,136.2203155517578,-157.13111877441406,1.688754981300452e+18,182.9574520670573,-0.6291549801826477,0.4703860978285472,-0.4272906184196472,0.4467177589734395,-0.5685959756374359,1.343267281850179,2.366922458012899
3.0,1.6887549813437066e+18,183.00070678710935,-3.2084463834762573,-3.680510044097901,1.288620412349701,1.6887549813437066e+18,183.00070678710935,-0.085842490196228,-12.86082363128662,2.940778970718384,1.6887549813437066e+18,183.00070678710935,3.116757869720459,-9.162808895111084,1.5894712209701538,1.6887549813437084e+18,183.00070857747392,-0.3182098964850108,-1.7575102249781291,2.9205466906229653,1.6887549813480302e+18,183.00503002929688,-0.1958841284116109,-1.7458019653956096,2.8479555447896323,,,,,,,,,,,,1.688754981338064e+18,182.99506411132813,-16.567599487304687,39.92083892822266,-26.966879653930665,1.688754981338064e+18,182.99506411132813,-271.0961975097656,133.23863830566407,-158.9708740234375,1.6887549813437066e+18,183.00070678710935,-0.6542662978172302,0.4047679305076599,-0.4208694994449615,0.4803411066532135,-0.471825748682022,1.2059953212738037,2.2032564878463745
3.05,1.6887549813869576e+18,183.04395735677085,-5.060423453648885,2.030827363332113,-3.210923353830973,1.6887549813869576e+18,183.04395735677085,-1.0151549975077312,-6.783253351847331,-1.5902300278345745,1.6887549813869576e+18,183.04395735677085,4.039422194163005,-8.796576182047525,1.5580060084660847,1.6887549813956083e+18,183.0526079915365,0.6913976569970449,-0.8198829690615336,2.57342259089152,1.6887549813999322e+18,183.05693245442708,0.6471099158128103,-0.9688322398190696,2.5438974698384604,,,,,,,,,,,,1.6887549813880676e+18,183.0450676269531,-19.65908012390137,37.98591918945313,-27.51099967956543,1.6887549813880676e+18,183.0450676269531,-274.18767700195315,131.30371704101563,-159.51499938964844,1.6887549813869576e+18,183.04395735677085,-0.6598023176193237,0.3608062962690989,-0.404630849758784,0.5200003584225973,-0.3708612322807312,1.11297074953715,2.0402209758758545
3.1,1.6887549814388623e+18,183.0958623860677,-8.120781421661377,8.271877765655518,-2.7716697454452515,1.6887549814388623e+18,183.0958623860677,-3.246462126572927,-0.0528414994478225,-0.8572287162144979,1.6887549814388623e+18,183.0958623860677,4.868473370869954,-8.307214736938477,1.85175363222758,1.688754981447517e+18,183.10451692708332,-0.1940515240033467,-2.6521733601888022,1.9144516388575237,1.6887549814431823e+18,183.1001823730469,-0.290237359702587,-2.7546204328536987,2.1210004687309265,,,,,,,,,,,,1.6887549814380677e+18,183.09506767578125,-21.69647979736328,36.26815948486328,-28.199079513549805,1.6887549814380677e+18,183.09506767578125,-276.22507934570314,129.58595581054686,-160.203076171875,1.6887549814388623e+18,183.0958623860677,-0.6559497912724813,0.3001320958137512,-0.4016369183858235,0.5636995236078898,-0.3624726931254069,1.0104805827140808,1.9234760602315264
3.15,1.6887549814907707e+18,183.1477706705729,-3.5561651388804116,7.465578079223633,0.0063901742299397,1.6887549814907707e+18,183.1477706705729,1.439282814661662,-0.6370890190203985,2.5084757804870605,1.6887549814907707e+18,183.1477706705729,4.989601929982503,-8.085162480672201,2.439398209253947,1.6887549814994176e+18,183.1564176432292,0.6919066806634268,-1.228704531987508,-0.7024950335423151,1.6887549814864453e+18,183.14344539388023,0.4309654273092747,-1.7427476644515991,-0.0064140930771828,,,,,,,,,,,,1.6887549814880712e+18,183.14507094726565,-20.820519638061523,34.90419921875,-30.665919494628906,1.6887549814880712e+18,183.14507094726565,-275.3491149902344,128.2219985961914,-162.66991271972657,1.6887549814907707e+18,183.1477706705729,-0.6382394234339396,0.2515113850434621,-0.4270335038503011,0.588976780573527,-0.4550551076730092,0.9687973459561666,1.89357324441274
3.2,1.6887549815426634e+18,183.19966333007812,1.0879931449890137,5.243941942850749,0.4331244627634684,1.6887549815426634e+18,183.19966333007812,5.352943738301595,-3.3308091958363852,2.6691936254501343,1.6887549815426634e+18,183.19966333007812,4.259104569753011,-8.557246526082357,2.173381765683492,1.688754981542667e+18,183.1996669921875,1.2620475888252258,0.2112066522240638,-2.368171811103821,1.688754981538342e+18,183.1953420410156,1.189405520757039,0.0596611723303794,-2.2363775968551636,,,,,,,,,,,,1.6887549815380598e+18,183.19505981445312,-16.860399436950683,37.058718872070315,-29.999799728393555,1.6887549815380598e+18,183.19505981445312,-271.3889892578125,130.37651672363282,-162.00379943847656,1.6887549815426634e+18,183.19966333007812,-0.608613133430481,0.2794019381205241,-0.4522854685783386,0.5887113610903422,-0.4717255036036173,1.061236063639323,1.884227434794108
3.25,1.6887549815945756e+18,183.2515755208333,7.922050396601359,-15.57439867655436,4.764422098795573,1.6887549815945756e+18,183.2515755208333,11.36949666341146,-24.58525562286377,6.697909434636434,1.6887549815945756e+18,183.2515755208333,3.4416004021962485,-8.993352572123209,1.870799779891968,1.688754981585924e+18,183.2429239908854,0.2757547597090403,0.0816523482402167,-1.2409727573394775,1.6887549815902515e+18,183.24725146484377,0.1848885483729343,-0.2607376277446747,-0.7857763171195984,,,,,,,,,,,,1.6887549815880627e+18,183.24506289062495,-12.736799812316894,40.12091979980469,-28.030719375610353,1.6887549815880627e+18,183.24506289062495,-267.2653869628906,133.43871459960937,-160.034716796875,1.6887549815945756e+18,183.2515755208333,-0.5881746013959249,0.3181707461675008,-0.4725004335244496,0.5739623506863912,-0.4976351658503214,1.1599944432576497,1.9251515070597331
3.3,1.6887549816464868e+18,183.30348697916665,4.944170395533244,2.49902073542277,4.08755087852478,1.6887549816464868e+18,183.30348697916665,8.699904123942057,-6.28275461991628,6.464409828186035,1.6887549816464868e+18,183.30348697916665,3.749887784322103,-8.764270782470703,2.314171632130941,1.688754981637836e+18,183.2948358561198,0.3677408844232559,-3.298774083455404,1.3561207950115204,1.6887549816421624e+18,183.29916243489583,0.4021020606160164,-3.0179797410964966,1.1675161868333817,,,,,,,,,,,,1.6887549816380664e+18,183.2950663574219,-11.014159965515136,39.79395980834961,-28.577278900146485,1.6887549816380664e+18,183.2950663574219,-265.5427551269531,133.11175537109375,-160.5812774658203,1.6887549816464868e+18,183.30348697916665,-0.5612651109695435,0.258120596408844,-0.4920037388801574,0.6131632129351298,-0.5526750087738037,1.1048991680145264,1.828618009885152
3.35,1.6887549816983887e+18,183.3553885091146,-5.002923687299092,-3.547916889190674,-2.598362445831299,1.6887549816983887e+18,183.3553885091146,-1.4217354853947957,-12.46102221806844,-0.4642075697580973,1.6887549816983887e+18,183.3553885091146,3.5753421783447266,-8.895600954691568,2.071467558542887,1.6887549816897377e+18,183.34673754882817,0.2486221591631571,1.8453221122423809,-0.6994407027959824,1.6887549816940677e+18,183.35106770833332,0.2327396571636199,2.0709859132766724,-0.6986262102921804,,,,,,,,,,,,1.6887549816880676e+18,183.34506752929687,-10.035719871520996,40.32587890625,-28.66999931335449,1.6887549816880676e+18,183.34506752929687,-264.56431274414064,133.6436767578125,-160.6739959716797,1.6887549816983887e+18,183.3553885091146,-0.5601269404093424,0.2782747447490691,-0.4899547497431437,0.6069851517677307,-0.5243900517622629,1.1356939474741616,1.829550862312317
3.4,1.6887549817502938e+18,183.4072937825521,-6.495985507965088,4.8366743723551435,1.6776679356892903,1.6887549817502938e+18,183.4072937825521,-3.209373394648234,-4.323232173919678,3.06500639518102,1.6887549817502938e+18,183.4072937825521,3.280766248703003,-9.142402013142904,1.324651062488556,1.6887549817416492e+18,183.39864916992187,0.5779294421275457,3.4009412924448648,-1.4323771993319194,1.688754981745973e+18,183.4029729003906,0.6132069031397501,3.5905640920003257,-1.6624188423156738,,,,,,,,,,,,1.6887549817380677e+18,183.3950676269531,-11.614399909973145,41.414119720458984,-26.676519775390624,1.6887549817380677e+18,183.3950676269531,-266.1429931640625,134.73191528320314,-158.680517578125,1.6887549817502938e+18,183.4072937825521,-0.5788955489794413,0.3461890518665313,-0.4604697028795878,0.576072613398234,-0.37916894753774,1.201077938079834,1.836272120475769
3.45,1.6887549817935514e+18,183.45055151367188,-4.023979663848877,0.1474137306213379,1.0165787935256958,1.6887549817935514e+18,183.45055151367188,-1.994716823101044,-9.425926685333252,1.9127625823020935,1.6887549817935514e+18,183.45055151367188,2.023416757583618,-9.555835723876951,0.8334963619709015,1.688754981793548e+18,183.45054801432295,-0.267508069674174,3.098308483759562,-4.011806567509969,1.6887549817978816e+18,183.45488142903648,-0.4181372597813606,3.109915018081665,-4.037055651346843,,,,,,,,,,,,1.6887549817880632e+18,183.4450633300781,-10.27239999771118,43.18799896240235,-23.83391914367676,1.6887549817880632e+18,183.4450633300781,-264.8009948730469,136.50580139160155,-155.83791809082032,1.6887549817935514e+18,183.45055151367188,-0.5794363021850586,0.4320170134305954,-0.4581850469112396,0.5168707072734833,-0.3992513567209244,1.3453328609466553,2.0066383481025696
3.5,1.688754981836809e+18,183.4938088378906,-6.495346864064534,0.7101105054219564,-0.9018203218777976,1.688754981836809e+18,183.4938088378906,-5.799404462178548,-9.020542621612549,0.2857428888479869,1.688754981836809e+18,183.4938088378906,0.6900961995124817,-9.713148434956867,1.1248758435249329,1.688754981845453e+18,183.5024532063802,-1.702379624048869,3.442174752553304,-2.4988969564437866,1.688754981849784e+18,183.50678393554688,-1.724472602208455,3.180419087409973,-2.335745096206665,,,,,,,,,,,,1.6887549818380677e+18,183.49506757812495,-7.190679836273193,43.5466796875,-24.57323989868164,1.6887549818380677e+18,183.49506757812495,-261.7192749023437,136.8644775390625,-156.57723999023438,1.688754981836809e+18,183.4938088378906,-0.591852088769277,0.5027257204055786,-0.4601863026618957,0.4288635452588399,-1.0207357009251912,1.4303845564524331,0.7036217053731283
3.55,1.688754981888712e+18,183.54571199544273,0.185960590839386,-4.495730082194011,-4.999379793802897,1.688754981888712e+18,183.54571199544273,-0.0263210733731587,-14.159128824869793,-3.1824541886647544,1.688754981888712e+18,183.54571199544273,-0.2181276579697927,-9.645894368489584,1.754238208134969,1.6887549818973573e+18,183.554357421875,-0.547793393333753,-0.7573711176713308,-1.662215232849121,1.688754981893038e+18,183.5500380859375,-0.7008151412010193,-0.956691324710846,-1.6360498666763306,,,,,,,,,,,,1.688754981888065e+18,183.54506494140625,-5.067879962921142,42.25103988647461,-27.001039505004883,1.688754981888065e+18,183.54506494140625,-259.5964721679687,135.56883850097657,-159.00503845214843,1.688754981888712e+18,183.54571199544273,-0.5970566471417745,0.5340149402618408,-0.475209375222524,0.3637615839640299,-1.6865833202997844,1.3879882494608562,-2.731414556503296
3.6,1.688754981940616e+18,183.5976157226563,2.4325770139694214,1.3701416651407878,-2.7740668455759683,1.688754981940616e+18,183.5976157226563,1.325623780488968,-8.25284512837728,-1.0755737721920011,1.688754981940616e+18,183.5976157226563,-1.1127992471059165,-9.60548210144043,1.6358057260513306,1.688754981949266e+18,183.60626578776044,0.8868236343065897,0.936609129110972,-1.7408641179402669,1.6887549819362918e+18,183.5932915852865,0.6539821525414785,0.3725768725077311,-1.780824899673462,,,,,,,,,,,,1.6887549819380677e+18,183.59506767578125,-0.2879199922084808,42.39987869262696,-27.003479766845704,1.6887549819380677e+18,183.59506767578125,-254.81651611328124,135.71767883300782,-159.00747680664062,1.688754981940616e+18,183.5976157226563,-0.5664583245913187,0.5600259105364481,-0.4928654730319977,0.3497884074846903,-2.166480223337809,1.3662585814793904,-2.259600559870402
3.65,1.6887549819925217e+18,183.6495215657552,3.1567420959472656,3.386751174926758,0.3502280712127685,1.6887549819925217e+18,183.6495215657552,1.2983057101567586,-6.173681894938151,1.694916049639384,1.6887549819925217e+18,183.6495215657552,-1.864282488822937,-9.542928377787272,1.2820005814234416,1.6887549819925166e+18,183.64951647949215,0.7450265288352966,1.328097403049469,-1.8606191277503967,1.6887549819881912e+18,183.6451911621094,0.7802785336971283,1.3456343015034993,-1.801543394724528,1.6887549819968453e+18,183.65384521484376,0.0,0.0,2.6002190113067627,6.076000213623047,1.2780870199203491,143.84326171875,332.79998779296875,-122.9166691,49.2785202,1.6887549819880635e+18,183.64506342773436,2.2374799489974975,43.52228012084961,-25.16371955871582,1.6887549819880635e+18,183.64506342773436,-252.2911163330078,136.84007568359374,-157.16771545410157,1.6887549819925217e+18,183.6495215657552,-0.5485780040423075,0.6070974667867025,-0.4756996730963389,0.3224103947480519,-2.5345002015431723,1.3374558289845784,-1.8158531188964844
3.7,1.688754982044427e+18,183.7014268391927,1.6921225786209106,-0.2438217798868815,0.4498366912206015,1.688754982044427e+18,183.7014268391927,-0.7375875761111578,-9.660024325052897,1.909273068110148,1.688754982044427e+18,183.7014268391927,-2.435556173324585,-9.39869785308838,1.3967489798863728,1.6887549820357706e+18,183.69277075195313,-0.3565925955772399,0.3408118883768717,-1.0439686973889668,1.688754982040098e+18,183.69709790039065,-0.4204279979070027,0.1863648096720377,-0.9749918381373088,,,,,,,,,,,,1.6887549820380654e+18,183.6950654296875,3.9942800045013422,43.42223892211914,-24.797719955444336,1.6887549820380654e+18,183.6950654296875,-250.53431396484376,136.7400329589844,-156.80171813964844,1.688754982044427e+18,183.7014268391927,-0.5375860929489136,0.6294041077295939,-0.4774500330289205,0.2946903010209401,-2.62101419766744,1.2805241743723552,-1.68962562084198
3.75,1.688754982096327e+18,183.7533271484375,4.163611809412639,-2.6917848587036133,-4.678617874781291,1.688754982096327e+18,183.7533271484375,1.341974673171838,-11.96152114868164,-2.9948168794314065,1.688754982096327e+18,183.7533271484375,-2.8274832566579184,-9.25223159790039,1.621113657951355,1.6887549820876813e+18,183.744681640625,-0.6710354685783386,-0.4771875590085983,-0.7440338631470998,1.688754982092007e+18,183.74900691731773,-0.6656394799550375,-0.362650324900945,-0.6618215839068095,,,,,,,,,,,,1.688754982088066e+18,183.745066015625,6.163439846038818,42.62679901123047,-26.25439910888672,1.688754982088066e+18,183.745066015625,-248.3651550292969,135.94459838867186,-158.25839538574218,1.688754982096327e+18,183.7533271484375,-0.5240278840065002,0.6282097895940145,-0.4994435310363769,0.2850871483484903,-2.6212375164031982,1.2321008443832395,-1.715907375017802
3.8,1.6887549821482373e+18,183.8052373046875,2.109201987584432,-7.660055160522461,-5.01080338160197,1.6887549821482373e+18,183.8052373046875,-0.7026922504107157,-16.93619950612386,-3.3483564456303916,1.6887549821482373e+18,183.8052373046875,-2.8177403608957925,-9.25864028930664,1.599759578704834,1.6887549821395835e+18,183.79658365885416,0.3101159234841664,0.0705549369255701,0.0551305885116259,1.6887549821439135e+18,183.80091365559895,0.4533638258775075,0.0436768624931574,0.089898998538653,,,,,,,,,,,,1.6887549821380682e+18,183.7950682128906,7.000359916687012,41.98995819091797,-27.025439453125,1.6887549821380682e+18,183.7950682128906,-247.52823791503903,135.3077606201172,-159.02943725585936,1.6887549821482373e+18,183.8052373046875,-0.5245069861412048,0.6293068925539652,-0.4975449442863464,0.2850863436857859,-2.6257103284200034,1.2340136369069417,-1.7079086303710938
3.85,1.6887549822001377e+18,183.85713777669267,2.5483773946762085,-3.878670692443848,1.4024049838383992,1.6887549822001377e+18,183.85713777669267,0.5162514845530192,-13.416157722473145,2.573081930478414,1.6887549822001377e+18,183.85713777669267,-2.0379718939463296,-9.51998233795166,1.1079895496368408,1.6887549821914918e+18,183.8484915364583,0.9943867921829224,0.072031194033722,2.338341255982717,1.688754982195812e+18,183.85281193033856,0.915483385324478,0.0989601699790606,2.6397014061609902,,,,,,,,,,,,1.6887549821880676e+18,183.84506762695315,6.178079891204834,43.20507965087891,-25.112479400634765,1.6887549821880676e+18,183.84506762695315,-248.35051879882812,136.5228759765625,-157.1164764404297,1.6887549822001377e+18,183.85713777669267,-0.5423769156138102,0.6198591788609823,-0.4684135715166728,0.3187496066093445,-2.630709409713745,1.3312815030415852,-1.7015109062194824
3.9,1.688754982243392e+18,183.90039221191407,-2.2578081488609314,-1.8735313415527344,2.576609492301941,1.688754982243392e+18,183.90039221191407,-2.783750057220459,-11.630613803863524,3.648157238960266,1.688754982243392e+18,183.90039221191407,-0.5317879170179367,-9.739577770233154,1.0088603794574738,1.6887549822433928e+18,183.90039290364584,0.0222965826590856,0.1354593659440676,3.4903313318888345,1.6887549822477197e+18,183.9047197265625,-0.0043778667847315,0.1643227506428956,3.421099901199341,,,,,,,,,,,,1.688754982238063e+18,183.89506318359375,-1.776319980621338,44.28112030029297,-24.00227928161621,1.688754982238063e+18,183.89506318359375,-256.30491333007814,137.5989227294922,-156.0062744140625,1.688754982243392e+18,183.90039221191407,-0.5871404707431793,0.5776747763156891,-0.4396746307611465,0.3578334897756576,-2.034457743167877,1.4514060020446775,-2.307853579521179
3.95,1.688754982286649e+18,183.94364892578128,-3.542795976003011,-4.910210291544597,5.180686632792155,1.688754982286649e+18,183.94364892578128,-2.6622145573298135,-14.630315780639648,6.273980935414632,1.688754982286649e+18,183.94364892578128,0.8747353156407675,-9.702600797017416,1.0306069056193037,1.6887549822952965e+18,183.95229646809895,-0.0858265683054924,-0.2223040250440438,3.805639505386353,1.6887549822996293e+18,183.95662906901043,-0.1603012126870453,-0.429845521847407,3.856595993041992,,,,,,,,,,,,1.6887549822880612e+18,183.94506123046875,-10.01131992340088,43.47591934204102,-23.777799987792967,1.6887549822880612e+18,183.94506123046875,-264.5399230957031,136.79371643066406,-155.78179931640625,1.688754982286649e+18,183.94364892578128,-0.6294798652331034,0.5352603395779928,-0.4105444351832072,0.3847044308980306,-0.9342987736066184,1.4263978004455566,0.783356507619222
4.0,1.6887549823385485e+18,183.99554858398437,-0.5315699577331543,-4.469557762145996,2.565359592437744,1.6887549823385485e+18,183.99554858398437,2.004188338915507,-13.844273567199709,4.075774550437927,1.6887549823385485e+18,183.99554858398437,2.5299123922983804,-9.357211112976074,1.4477274417877195,1.6887549823471964e+18,184.0041964518229,-0.5497278074423472,-2.2343923753748336,3.2417092323303223,1.6887549823428716e+18,183.99987170410157,-0.7019605338573456,-3.2456798553466797,3.1377856731414795,,,,,,,,,,,,1.6887549823380608e+18,183.99506079101565,-16.5627197265625,40.69431838989258,-25.578519821166992,1.6887549823380608e+18,183.99506079101565,-271.0913146972656,134.01211547851562,-157.58251953125,1.6887549823385485e+18,183.99554858398437,-0.6646417776743571,0.4537681937217712,-0.4055213332176208,0.4323293666044871,-0.5200328826904297,1.2688627243041992,2.37556521097819
4.05,1.6887549823904517e+18,184.04745157877605,-5.989842812220256,-0.1889672279357911,-2.232996940612793,1.6887549823904517e+18,184.04745157877605,-2.0472591718037925,-9.063613414764404,-0.699701209863027,1.6887549823904517e+18,184.04745157877605,3.936737775802612,-8.857141494750977,1.4706083536148071,1.6887549823991063e+18,184.05610644531248,0.7152723073959351,-0.0432187318801879,2.6023877461751304,1.688754982386129e+18,184.04312915039063,0.5587889949480692,0.5286529858907064,2.8109473387400308,,,,,,,,,,,,1.6887549823880627e+18,184.0450627929687,-21.196279525756836,38.19575958251953,-25.88595962524414,1.6887549823880627e+18,184.0450627929687,-275.7248779296875,131.51355895996093,-157.88995971679688,1.6887549823904517e+18,184.04745157877605,-0.6899858713150024,0.3941173752148946,-0.3792378505071004,0.4737397134304046,-0.3608379165331523,1.1272296110788982,2.16914693514506
4.1,1.688754982442357e+18,184.09935709635417,-9.914755503336588,8.58785343170166,-2.5493573347727456,1.688754982442357e+18,184.09935709635417,-4.984050114949544,0.2500499933958053,-0.8675975898901621,1.688754982442357e+18,184.09935709635417,4.924859205881755,-8.320298830668131,1.619072357813517,1.6887549824423593e+18,184.0993594970703,0.0914770700037479,-2.631378412246704,2.8590784072875977,1.6887549824380337e+18,184.09503385416664,0.1841249590118726,-2.4353670279184976,2.774244546890259,,,,,,,,,,,,1.6887549824380603e+18,184.095060546875,-24.656199645996093,36.26083831787109,-25.954279327392577,1.6887549824380603e+18,184.095060546875,-279.18479614257814,129.57864074707032,-157.9582733154297,1.688754982442357e+18,184.09935709635417,-0.6926897366841634,0.3341567019621531,-0.3698912858963012,0.5205655495325724,-0.3168510198593139,1.0135225057601929,2.029469648996989
4.15,1.688754982494264e+18,184.1512638346354,-3.686844984690348,8.487980365753174,0.2861297130584717,1.688754982494264e+18,184.1512638346354,1.7996020118395488,0.6616154437263807,2.6301108996073403,1.688754982494264e+18,184.1512638346354,5.480600992838542,-7.8088603019714355,2.281293789545695,1.6887549824856113e+18,184.142611328125,0.1258891448378562,-2.135534008344014,1.3036881983280184,1.6887549824899377e+18,184.14693758138023,0.2029090722401937,-2.01229190826416,1.0245228360096614,1.6887549825158927e+18,184.1728928222656,0.0,0.0,2.6097850799560547,6.130000114440918,1.2867413759231567,138.71697998046875,332.79998779296875,-122.9166449,49.2785169,1.6887549824880602e+18,184.1450601074219,-24.98559913635254,33.85500030517578,-28.901799392700195,1.6887549824880602e+18,184.1450601074219,-279.5141906738281,127.17279663085938,-160.90579528808593,1.688754982494264e+18,184.1512638346354,-0.6850907206535339,0.2668135861555734,-0.3864879608154296,0.556691586971283,-0.3943177958329518,0.9207714597384136,1.9742963314056396
4.2,1.6887549825461678e+18,184.20316796875,-1.0319087505340576,6.773939291636149,0.1761772632598876,1.6887549825461678e+18,184.20316796875,3.913062651952108,-1.4311073223749795,2.3986052672068277,1.6887549825461678e+18,184.20316796875,4.939125378926595,-8.18754212061564,2.159740606943766,1.6887549825375163e+18,184.1945163574219,1.1087204217910769,-0.1332704297577341,-1.901012659072876,1.6887549825418437e+18,184.19884375,1.1589641173680625,0.0095702161391575,-2.099238395690918,,,,,,,,,,,,1.6887549825380608e+18,184.19506079101564,-22.11127967834473,35.43611831665039,-29.084799575805665,1.6887549825380608e+18,184.19506079101564,-276.6398681640625,128.75391540527343,-161.08879699707032,1.6887549825461678e+18,184.20316796875,-0.6590130925178528,0.2835778991381327,-0.4093564649422963,0.563332200050354,-0.4115485747655232,0.9886325200398765,1.9508921305338545
4.25,1.688754982598073e+18,184.2550731608073,8.123867511749268,-4.479023615519206,1.4309793710708618,1.688754982598073e+18,184.2550731608073,11.869397481282553,-13.385848919550575,3.267598728338877,1.688754982598073e+18,184.2550731608073,3.7396838665008545,-8.889321009318033,1.7739319403966267,1.6887549825894218e+18,184.2464220377604,0.4853833317756653,0.1497128841777642,-2.9547551472981772,1.6887549825937482e+18,184.25074837239583,0.3242167433102925,0.1165225474784771,-2.6326764822006226,,,,,,,,,,,,1.68875498258806e+18,184.24505986328128,-17.104399490356446,39.27179870605469,-27.08887939453125,1.68875498258806e+18,184.24505986328128,-271.63299560546875,132.589599609375,-159.09287719726564,1.688754982598073e+18,184.2550731608073,-0.6276103059450785,0.3406947751839955,-0.4395306607087453,0.544623335202535,-0.4441004991531372,1.1350093682607014,1.99864927927653
4.3,1.6887549826499845e+18,184.306984375,6.115394910176595,-10.853220462799072,4.491625467936198,1.6887549826499845e+18,184.306984375,9.990832010904947,-19.579869389533997,6.8666032155354815,1.6887549826499845e+18,184.306984375,3.869591395060221,-8.709144274393717,2.31229019165039,1.6887549826413343e+18,184.2983341471354,-0.1305215408404668,-3.303661068280538,2.0313305060068765,1.6887549826456607e+18,184.3026608072917,-0.0220929533243178,-3.5158857504526773,2.071749488512675,,,,,,,,,,,,1.6887549826380672e+18,184.29506723632812,-14.215439796447754,39.83055953979492,-27.97703971862793,1.6887549826380672e+18,184.29506723632812,-268.74403076171876,133.1483612060547,-159.9810333251953,1.6887549826499845e+18,184.306984375,-0.6097682317097982,0.2920632660388946,-0.4656819105148315,0.5701331496238708,-0.537495493888855,1.093231836954753,1.970041553179423
4.35,1.688754982693242e+18,184.35024206542968,-2.903355598449707,0.5129857063293457,4.066280126571655,1.688754982693242e+18,184.35024206542968,1.081855058670044,-8.117052555084229,6.62213659286499,1.688754982693242e+18,184.35024206542968,3.979364514350891,-8.612533569335938,2.493169069290161,1.688754982693242e+18,184.3502421061198,0.3910555591185887,-0.1875356336434682,-0.4922555685043335,1.6887549826975685e+18,184.35456852213545,0.3538946062326431,0.1992438634236653,-0.6175338725248972,,,,,,,,,,,,1.688754982688067e+18,184.34506713867188,-12.912479782104493,39.352317810058594,-29.39223976135254,1.688754982688067e+18,184.34506713867188,-267.4410705566406,132.6701171875,-161.3962371826172,1.688754982693242e+18,184.35024206542968,-0.5921367108821869,0.2626710832118988,-0.4776604622602463,0.5934516489505768,-0.5594223141670227,1.0717400908470154,1.9065247774124143
4.4,1.6887549827364964e+18,184.3934962565104,-5.829436858495076,-0.2741748491923014,-3.5788216590881348,1.6887549827364964e+18,184.3934962565104,-2.0031913618246713,-9.084550698598228,-1.4470595121383667,1.6887549827364964e+18,184.3934962565104,3.820399363835653,-8.792871157328287,2.0690747499465942,1.6887549827451436e+18,184.40214371744796,0.5329799354076385,2.786970853805542,-0.6729698677857717,1.6887549827494735e+18,184.40647371419269,0.5820018649101257,2.94493039449056,-0.7943793584903082,,,,,,,,,,,,1.6887549827380654e+18,184.3950654296875,-13.31507968902588,39.94280014038086,-28.038039779663087,1.6887549827380654e+18,184.3950654296875,-267.8436706542969,133.260595703125,-160.0420379638672,1.6887549827364964e+18,184.3934962565104,-0.599934458732605,0.2992266416549682,-0.4641445477803547,0.5785477956136068,-0.4952161113421122,1.1116442282994587,1.9184068044026692
4.45,1.6887549827883948e+18,184.4453946940104,-5.599636952082316,1.8848455746968584,2.4742950598398843,1.6887549827883948e+18,184.4453946940104,-2.4145574271678925,-7.321837902069092,3.7463626066843663,1.6887549827883948e+18,184.4453946940104,3.1792333920796714,-9.189178784688314,1.209380110104879,1.68875498279705e+18,184.4540499674479,0.36606099208196,2.571844458580017,-3.425121466318766,1.688754982792727e+18,184.44972705078123,0.4766275957226753,2.4921011328697205,-3.3112714290618896,,,,,,,,,,,,1.6887549827880648e+18,184.44506479492188,-14.56923999786377,41.836238861083984,-24.678159713745117,1.6887549827880648e+18,184.44506479492188,-269.09783325195315,135.15403747558594,-156.68215942382812,1.6887549827883948e+18,184.4453946940104,-0.607002317905426,0.3796760340531667,-0.4395128985246022,0.5415797233581543,-0.3631244401137034,1.2163437207539876,1.9394464492797852
4.5,1.6887549828403044e+18,184.4973044433594,-3.934714953104655,1.7700800895690918,0.3512769142786662,1.6887549828403044e+18,184.4973044433594,-2.4452653725941977,-7.878368536631267,1.4719847838083904,1.6887549828403044e+18,184.4973044433594,1.4836033980051675,-9.63094393412272,1.0580204923947651,1.6887549828489526e+18,184.50595279947916,-1.2830206354459126,4.003050883611043,-3.1424944400787354,1.688754982835984e+18,184.4929840494792,-0.8385652601718903,3.5651113986968994,-3.538996934890747,,,,,,,,,,,,1.6887549828380634e+18,184.49506333007815,-9.828319931030274,43.67599945068359,-23.370319747924803,1.6887549828380634e+18,184.49506333007815,-264.35691528320314,136.9937957763672,-155.37431640625,1.6887549828403044e+18,184.4973044433594,-0.6025207241376241,0.471900463104248,-0.4485346575578053,0.4600612123807271,-0.6412617464860281,1.3816941181818645,2.378835439682007
4.55,1.688754982892212e+18,184.5492119140625,-3.7342984477678938,-3.999665578206381,-3.5701005458831787,1.688754982892212e+18,184.5492119140625,-3.384448210398356,-13.672588666280111,-1.8358931839466095,1.688754982892212e+18,184.5492119140625,0.3440041840076446,-9.655418395996094,1.6715198755264282,1.688754982892212e+18,184.54921191406248,-1.590845823287964,1.9447658956050873,-2.1067978143692017,1.6887549828878843e+18,184.54488444010417,-1.6196582714716594,2.288861175378164,-2.2493585348129272,,,,,,,,,,,,1.6887549828880689e+18,184.54506884765624,-7.778719806671143,43.40271835327148,-24.626919555664063,1.6887549828880689e+18,184.54506884765624,-262.30731811523435,136.72051391601562,-156.63091430664062,1.688754982892212e+18,184.5492119140625,-0.6216738820075989,0.5322932004928589,-0.4461936453978221,0.3614848256111145,-1.3566514650980632,1.393621524175008,-0.9118722279866536
4.6,1.6887549829441126e+18,184.6011127929687,2.090707778930664,-0.2156817118326822,-3.761155764261882,1.6887549829441126e+18,184.6011127929687,1.4632110595703125,-9.843873023986816,-1.8522441188494363,1.6887549829441126e+18,184.6011127929687,-0.6333427528540293,-9.610686620076498,1.8462241490681963,1.6887549829354652e+18,184.59246541341145,-5.089739958445231e-05,-0.4080579876899719,-1.9026416142781577,1.6887549829397934e+18,184.59679345703125,0.1308778872092565,-0.290619154771169,-1.883246620496114,,,,,,,,,,,,1.6887549829380623e+18,184.59506240234376,-3.2232398986816406,42.95131988525391,-26.254399871826173,1.6887549829380623e+18,184.59506240234376,-257.75184326171876,136.2691192626953,-158.2583984375,1.6887549829441126e+18,184.6011127929687,-0.5973439415295919,0.5589288870493571,-0.4688595632712045,0.3328322271505991,-1.90066921710968,1.3689255317052205,-2.4534096717834473
4.65,1.6887549829960233e+18,184.6530232747396,1.3847490151723223,3.4386960665384927,-1.4316388368606567,1.6887549829960233e+18,184.6530232747396,-0.0323031096098323,-6.160521348317464,0.1649053667982419,1.6887549829960233e+18,184.6530232747396,-1.4228981733322144,-9.58171272277832,1.533856749534607,1.6887549829873672e+18,184.6443671061198,0.8335765401522318,1.5945618947347004,-1.8141679763793943,1.6887549829916915e+18,184.6486915690104,0.8322529792785645,1.6430747906366985,-1.8264870643615725,,,,,,,,,,,,1.6887549829880676e+18,184.645067578125,-0.4074799954891205,43.912679290771486,-25.031959533691406,1.6887549829880676e+18,184.645067578125,-254.9360778808594,137.23048095703126,-157.03595886230468,1.6887549829960233e+18,184.6530232747396,-0.5779180924097697,0.6046755711237589,-0.4546286761760711,0.3055184880892435,-2.3153157234191895,1.3547821839650471,-1.9688298304875689
4.7,1.6887549830479263e+18,184.70492618815103,2.464905261993408,1.5781038602193196,0.5947209199269613,1.6887549830479263e+18,184.70492618815103,0.2480559373895327,-7.885746479034424,2.0807586510976157,1.6887549830479263e+18,184.70492618815103,-2.222695469856262,-9.446345647176107,1.4233503341674805,1.6887549830392778e+18,184.69627775065103,0.1794925679763158,0.635401671131452,-1.747430960337321,1.6887549830436014e+18,184.70060131835933,0.0909680103262265,0.5194390739003817,-1.66252068678538,1.6887549830349537e+18,184.69195336914063,0.0,0.0,2.6097850799560547,6.251999855041504,1.2963078022003174,136.6072235107422,332.79998779296875,-122.9166338,49.2785139,1.6887549830380672e+18,184.69506723632813,2.4765999794006346,44.4982795715332,-23.62163963317871,1.6887549830380672e+18,184.69506723632813,-252.05199584960937,137.81607666015626,-155.62563781738282,1.6887549830479263e+18,184.70492618815103,-0.5578011473019918,0.6432172854741415,-0.4467263122399648,0.2746992905934651,-2.570454994837443,1.2981709639231365,-1.6529677311579387
4.75,1.6887549830998326e+18,184.75683260091145,3.4110937118530273,-0.7837956746419271,-1.5307952960332234,1.6887549830998326e+18,184.75683260091145,0.7108677426973978,-10.086345354715982,0.1682952145735422,1.6887549830998326e+18,184.75683260091145,-2.7060720125834146,-9.285044987996418,1.6364030838012695,1.6887549830911803e+18,184.7481806640625,-0.6517932116985321,-0.2714277903238932,-0.8983791470527649,1.6887549830955052e+18,184.75250520833333,-0.692466656366984,-0.2611958061655362,-0.8870272437731425,,,,,,,,,,,,1.68875498308807e+18,184.7450697265625,4.828759956359863,44.03468017578125,-24.324359130859374,1.68875498308807e+18,184.7450697265625,-249.6998321533203,137.35247802734375,-156.32835693359374,1.6887549830998326e+18,184.75683260091145,-0.5433017611503601,0.6507604122161865,-0.4630890488624573,0.2584895491600036,-2.5983216762542725,1.2424769401550293,-1.6304349104563396
4.8,1.688754983143082e+18,184.80008190917968,2.173922896385193,-3.522552490234375,-6.401692628860474,1.688754983143082e+18,184.80008190917968,-0.731306441128254,-12.710673809051514,-4.42612361907959,1.688754983143082e+18,184.80008190917968,-2.9110753536224365,-9.170616626739502,1.9128816723823547,1.6887549831430935e+18,184.80009334309895,-0.5592471261819204,0.3116430938243865,-0.2975422783444325,1.6887549831474176e+18,184.80441772460935,-0.4706207613150279,0.2874120913135509,-0.2434298035999138,,,,,,,,,,,,1.6887549831380623e+18,184.79506230468752,6.099999809265137,43.20507965087891,-25.907919692993165,1.6887549831380623e+18,184.79506230468752,-248.42859497070313,136.5228759765625,-157.91192016601562,1.688754983143082e+18,184.80008190917968,-0.540756106376648,0.651482343673706,-0.4732735455036163,0.2432233914732933,-2.560586929321289,1.2077223658561709,-1.6632668375968933
4.85,1.6887549831863378e+18,184.84333789062495,1.5042381286621094,-8.195613861083984,-5.545955578486125,1.6887549831863378e+18,184.84333789062495,-1.4673984448115032,-17.385252634684246,-3.689533273379008,1.6887549831863378e+18,184.84333789062495,-2.977482636769613,-9.17213503519694,1.793734868367513,1.6887549831949916e+18,184.8519915364583,0.9064222176869712,-0.5597052772839864,-0.0524835089842478,1.688754983199318e+18,184.8563180338542,0.981864054997762,-0.5751805305480957,0.1008436729510625,,,,,,,,,,,,1.688754983188064e+18,184.8450640625,7.190679836273193,42.74147872924805,-25.517519378662108,1.688754983188064e+18,184.8450640625,-247.3379150390625,136.05927734375,-157.52151489257812,1.6887549831863378e+18,184.84333789062495,-0.5362067818641663,0.655343492825826,-0.4714841941992442,0.2462591379880905,-2.599947373072306,1.2081674337387085,-1.6259512503941853
4.9,1.6887549832382423e+18,184.89524243164064,1.665946125984192,-4.707022031148274,0.3508881330490112,1.6887549832382423e+18,184.89524243164064,-0.7218348582585653,-14.147164980570476,1.6474583844343822,1.6887549832382423e+18,184.89524243164064,-2.3936270475387573,-9.422638575236002,1.2338828643163045,1.6887549832469005e+18,184.9039006347656,0.804916779200236,-0.1439096791048844,3.178891897201538,1.6887549832425718e+18,184.89957165527343,0.8265006840229034,0.1267545372247695,3.0369166135787964,,,,,,,,,,,,1.6887549832380695e+18,184.8950693847656,5.616879892349243,44.59832000732422,-23.289799880981445,1.6887549832380695e+18,184.8950693847656,-248.9117126464844,137.9161163330078,-155.29379577636718,1.6887549832382423e+18,184.89524243164064,-0.5453965663909912,0.6468197305997213,-0.4510810474554698,0.2831420799096425,-2.6595405737559,1.2921432654062908,-1.5860222975413003
4.95,1.6887549832901486e+18,184.9471484375,-1.3675164381663003,-2.5025402704874673,3.321711540222168,1.6887549832901486e+18,184.9471484375,-1.946760614713033,-12.256037712097168,4.308875322341919,1.6887549832901486e+18,184.9471484375,-0.5850901709248623,-9.735992749532064,0.9244764645894368,1.6887549832988027e+18,184.9558028157552,0.3381139189004898,-0.1061887418230374,3.656384785970052,1.6887549832858286e+18,184.94282861328125,0.4653266022602717,-0.4060726910829544,3.7881790002187095,,,,,,,,,,,,1.688754983288067e+18,184.94506704101565,-1.7836398869752883,45.65727920532227,-22.096639251708982,1.688754983288067e+18,184.94506704101565,-256.3122314453125,138.97507934570314,-154.100634765625,1.6887549832901486e+18,184.9471484375,-0.5905411839485168,0.589467187722524,-0.426827996969223,0.3477319180965423,-2.047421415646871,1.4511876503626506,-2.2558865944544473
5.0,1.688754983342052e+18,184.9990517578125,-6.129174788792928,-4.954570452372233,8.024469216664633,1.688754983342052e+18,184.9990517578125,-4.962714115778605,-14.66281827290853,8.97946548461914,1.688754983342052e+18,184.9990517578125,1.1606146693229675,-9.690743128458658,0.8923084139823914,1.6887549833420572e+18,184.9990572509765,-0.0228310897946357,-0.1955532431602478,3.3367749452590942,1.6887549833377329e+18,184.9947326660156,-0.0172060330708821,-0.2466368327538172,3.3402112325032554,,,,,,,,,,,,1.688754983338065e+18,184.9950648925781,-10.455399799346925,44.52023849487305,-21.24751968383789,1.688754983338065e+18,184.9950648925781,-264.98399658203124,137.83804016113282,-153.251513671875,1.688754983342052e+18,184.9990517578125,-0.6393957535425822,0.5340216755867004,-0.3943882584571838,0.3872007727622986,-0.6978252728780111,1.4190572500228882,2.6642094453175864
5.05,1.6887549833939612e+18,185.0509611002604,0.6533350944519044,-2.007981618245443,0.7911629676818849,1.6887549833939612e+18,185.0509611002604,3.195415178934733,-11.362916628519692,2.381057898203532,1.6887549833939612e+18,185.0509611002604,2.536233981450399,-9.337430318196615,1.5272075335184734,1.688754983385314e+18,185.04231388346352,-0.8552113473415375,-3.865707953770955,3.3573662439982095,1.688754983389638e+18,185.04663793945312,-0.891761432091395,-3.641622185707092,3.474397897720337,,,,,,,,,,,,1.6887549833880655e+18,185.04506552734375,-14.788839530944824,42.73659896850586,-23.74607963562012,1.6887549833880655e+18,185.04506552734375,-269.317431640625,136.0543975830078,-155.7500793457031,1.6887549833939612e+18,185.0509611002604,-0.6536931991577148,0.4397542874018351,-0.4201906124750773,0.4488307734330495,-0.5434626539548238,1.2640958627065022,2.341807126998902
5.1,1.6887549834458637e+18,185.10286393229163,-5.68217666943868,2.1784469286600747,-3.896138429641723,1.6887549834458637e+18,185.10286393229163,-1.5190435790767272,-6.568896452585856,-2.2195424238840737,1.6887549834458637e+18,185.10286393229163,4.157286961873372,-8.729838689168295,1.6139086087544758,1.6887549834372096e+18,185.09420963541663,0.3789909780025482,0.2349285880724589,3.368565559387207,1.688754983441542e+18,185.09854223632817,0.5131777090330919,0.1308778822422027,3.222823143005371,,,,,,,,,,,,1.6887549834380654e+18,185.0950655273437,-20.38131980895996,39.0961196899414,-25.541919708251953,1.6887549834380654e+18,185.0950655273437,-274.9099182128906,132.413916015625,-157.54591674804686,1.6887549834458637e+18,185.10286393229163,-0.6850780646006266,0.3717483282089233,-0.3870647847652435,0.4921658138434092,-0.3736990888913472,1.0983609358469646,2.1274059613545737
5.15,1.6887549834977738e+18,185.1547737630208,-8.867772420247396,8.65511671702067,-3.103134870529175,1.6887549834977738e+18,185.1547737630208,-3.945365746815999,0.3579263985157013,-1.1864412029584248,1.6887549834977738e+18,185.1547737630208,4.9165604909261065,-8.279685656229654,1.8540062109629312,1.688754983489122e+18,185.1461219075521,0.1897754594683647,-2.51355775197347,1.984192132949829,1.6887549834934497e+18,185.1504493815104,0.100181903069218,-2.6462682088216147,1.9404643376668296,,,,,,,,,,,,1.6887549834880668e+18,185.14506684570316,-24.465879440307617,36.98796005249024,-25.700519943237303,1.6887549834880668e+18,185.14506684570316,-278.9944702148438,130.30576171875,-157.70451965332032,1.6887549834977738e+18,185.1547737630208,-0.6791499058405558,0.3141520619392394,-0.387867917617162,0.537642776966095,-0.3604833881060282,1.0052857001622515,2.0017669598261514
5.2,1.6887549835496773e+18,185.20667732747395,-3.4393776257832847,7.872106552124023,-0.03093949953715,1.6887549835496773e+18,185.20667732747395,1.6570297442376614,-0.1463609933853149,2.541177670160929,1.6887549835496773e+18,185.20667732747395,5.090561389923096,-8.00096321105957,2.5094297726949057,1.688754983541026e+18,185.1980262858073,0.2101376354694366,-2.0867156982421875,0.6343835691610972,1.6887549835453504e+18,185.20235042317708,0.3041090865929921,-1.870163977146149,0.4017457167307536,1.6887549835540055e+18,185.21100561523437,0.0,0.0,2.56416654586792,6.317999839782715,1.307515263557434,134.5561981201172,332.79998779296875,-122.9166214,49.2785125,1.688754983538064e+18,185.1950637695313,-23.792439651489257,34.90175933837891,-28.923759841918944,1.688754983538064e+18,185.1950637695313,-278.32102661132814,128.21955413818358,-160.9277587890625,1.6887549835496773e+18,185.20667732747395,-0.6619933843612671,0.260104219118754,-0.4159109493096669,0.5665757457415262,-0.4584093391895294,0.9540793299674988,1.9658199151357016
5.25,1.6887549835929324e+18,185.24993225097657,0.5054662227630615,6.500123023986816,0.5611399412155151,1.6887549835929324e+18,185.24993225097657,5.170291423797607,-1.8388842344284055,2.9117660522460938,1.6887549835929324e+18,185.24993225097657,4.658979177474976,-8.321502685546875,2.287938714027405,1.6887549835929252e+18,185.24992521158853,1.1489357153574626,0.4966334452231725,-2.1508564551671348,1.6887549835972498e+18,185.25424967447915,1.1563679377237956,0.6173811517655848,-2.3519839445749917,,,,,,,,,,,,1.6887549835880658e+18,185.24506567382815,-20.9059196472168,36.58047866821289,-28.643159484863283,1.6887549835880658e+18,185.24506567382815,-275.434521484375,129.89827575683594,-160.64715881347655,1.6887549835929324e+18,185.24993225097657,-0.6424633264541626,0.2796732783317565,-0.4293749779462814,0.569673478603363,-0.4562445878982543,1.0134819447994232,1.9469947814941408
5.3,1.6887549836361777e+18,185.29317757161456,6.374887625376384,-2.66788911819458,2.499590436617533,1.6887549836361777e+18,185.29317757161456,10.037691434224447,-11.582458019256592,4.452245394388835,1.6887549836361777e+18,185.29317757161456,3.6569577852884927,-8.897064526875814,1.8899676005045576,1.688754983644839e+18,185.30183837890627,-0.0963130841652551,-0.3770565713445346,-1.8393152157465615,1.6887549836491653e+18,185.30616544596353,-0.2437352240085601,-0.7710137416919073,-1.351590275764465,,,,,,,,,,,,1.6887549836380636e+18,185.29506372070313,-16.27967948913574,40.28927993774414,-26.315399169921875,1.6887549836380636e+18,185.29506372070313,-270.8082763671875,133.6070770263672,-158.31940002441405,1.6887549836361777e+18,185.29317757161456,-0.6208696166674296,0.3337156077226003,-0.4496114750703175,0.5483010609944662,-0.4793467621008555,1.1376337210337322,2.0057425101598105
5.35,1.688754983688092e+18,185.34509195963545,7.368647654851277,-9.346603393554688,1.899598677953084,1.688754983688092e+18,185.34509195963545,11.049057960510254,-18.130217512448628,4.374279300371806,1.688754983688092e+18,185.34509195963545,3.6745643615722656,-8.766109148661295,2.4119930267333984,1.6887549836967365e+18,185.35373616536455,0.2872084677219391,-2.8046859900156655,1.806939383347829,1.6887549836924186e+18,185.34941857910155,0.1508837193250656,-3.1321352124214172,2.2760838866233826,,,,,,,,,,,,1.6887549836880676e+18,185.34506752929687,-14.483839797973634,39.567039489746094,-28.499199295043944,1.6887549836880676e+18,185.34506752929687,-269.01243286132814,132.88483581542968,-160.5031951904297,1.688754983688092e+18,185.34509195963545,-0.6035507321357727,0.2912060221036274,-0.4770208895206451,0.5679731766382853,-0.5805344184239706,1.1064183712005615,1.9965824286142984
5.4,1.6887549837399913e+18,185.39699153645833,-6.254202842712402,0.6749397913614908,5.812813917795817,1.6887549837399913e+18,185.39699153645833,-2.6376882791519165,-8.115657011667887,8.35713243484497,1.6887549837399913e+18,185.39699153645833,3.6106682618459063,-8.773092269897461,2.481630722681681,1.688754983748649e+18,185.4056490071615,0.247858577563117,0.5925901929537455,-1.6151786247889202,1.6887549837356657e+18,185.39266560872397,0.4868086737891038,-0.398284117380778,-1.1928671300411224,,,,,,,,,,,,1.6887549837380654e+18,185.3950654785156,-13.349239540100095,39.928158569335935,-28.687079620361327,1.6887549837380654e+18,185.3950654785156,-267.87783203125,133.24595947265624,-160.69107971191406,1.6887549837399913e+18,185.39699153645833,-0.5807903011639913,0.2712522149085998,-0.492297758658727,0.5886592070261637,-0.6031394402186075,1.107943336168925,1.938165545463562
5.45,1.688754983791903e+18,185.4489030761719,-2.5661354064941406,-1.6117793718973796,-3.6663313706715903,1.688754983791903e+18,185.4489030761719,0.7750751177469889,-10.6257274945577,-1.5736796408891678,1.688754983791903e+18,185.4489030761719,3.3353644212086997,-8.996443748474121,2.0299644072850547,1.6887549838005496e+18,185.45754972330732,0.3939062754313151,2.8519771099090576,-0.9971866011619568,1.688754983787578e+18,185.4445779622396,0.2416481015582879,2.8338547547658286,-0.6556620399157206,,,,,,,,,,,,1.6887549837880694e+18,185.4450691894531,-13.55907974243164,40.90659942626953,-27.43535957336426,1.6887549837880694e+18,185.4450691894531,-268.0876770019531,134.22439880371093,-159.43935546875,1.688754983791903e+18,185.4489030761719,-0.5955602129300436,0.3211262027422586,-0.476040780544281,0.5613051652908325,-0.5455111265182495,1.161346475283305,1.9929227431615193
5.5,1.6887549838438075e+18,185.50080769856768,-4.417943636576335,0.2901827494303385,0.4222952524820964,1.6887549838438075e+18,185.50080769856768,-2.145364890495936,-9.153743108113607,1.8975083827972412,1.6887549838438075e+18,185.50080769856768,2.266732692718506,-9.426421165466309,1.412525733311971,1.688754983843802e+18,185.50080212402344,0.1891391463577747,3.683135747909546,-3.920762300491333,1.6887549838394852e+18,185.4964854329427,0.2380338162183761,3.4591263135274253,-3.673896312713623,,,,,,,,,,,,1.688754983838064e+18,185.49506396484375,-12.65139980316162,42.38767929077149,-24.526879501342773,1.688754983838064e+18,185.49506396484375,-267.17999267578125,135.70547790527343,-156.53087463378907,1.6887549838438075e+18,185.50080769856768,-0.5997942686080933,0.4103172322114308,-0.4639859795570373,0.5049695273240408,-0.5657973686854044,1.2948270638783772,2.1779778003692627
5.55,1.6887549838957046e+18,185.5527045084635,-8.028382619222006,0.2813933690388997,-2.1786062121391296,1.6887549838957046e+18,185.5527045084635,-7.308477878570557,-9.419944445292154,-0.7734799285729727,1.6887549838957046e+18,185.5527045084635,0.7140588959058126,-9.683833122253418,1.3424388567606609,1.688754983887062e+18,185.54406201171875,-0.8060875833034515,3.6462037563323975,-3.281822601954142,1.6887549838913864e+18,185.5483862304687,-0.8922704855600992,3.3578244845072427,-3.123812119166056,,,,,,,,,,,,1.6887549838880676e+18,185.545067578125,-9.3451997756958,44.120079040527344,-22.88231964111328,1.6887549838880676e+18,185.545067578125,-263.87379760742186,137.43787841796876,-154.88631591796874,1.6887549838957046e+18,185.5527045084635,-0.6081358989079794,0.508713295062383,-0.4524536033471425,0.4072299599647522,-1.0938982168833415,1.410746177037557,0.82905117670695
5.6,1.688754983947618e+18,185.60461808268232,2.550561447938283,-1.961334228515625,-2.4088619550069175,1.688754983947618e+18,185.60461808268232,2.3694926301638284,-11.642677307128906,-0.6871388852596283,1.688754983947618e+18,185.60461808268232,-0.1869148313999176,-9.663838386535645,1.6590356429417927,1.6887549839389673e+18,185.59596728515623,-0.5014185694356759,-0.7427612543106079,-1.430697321891785,1.6887549839432942e+18,185.60029443359372,-0.3916155323386192,-0.9621636470158896,-1.438180406888326,,,,,,,,,,,,1.6887549839380657e+18,185.5950655273437,-6.246399879455566,44.002959442138675,-23.96323928833008,1.6887549839380657e+18,185.5950655273437,-260.7749938964844,137.3207550048828,-155.9672393798828,1.688754983947618e+18,185.60461808268232,-0.5941440264383951,0.5330009659131368,-0.474847416083018,0.3703873852888743,-1.6819604237874348,1.3978887399037678,-2.74649715423584
5.65,1.6887549839995228e+18,185.6565229492188,3.2763330141703286,1.6878329912821453,-0.8722587625185648,1.6887549839995228e+18,185.6565229492188,2.3174487749735513,-7.979265689849853,0.660219649473826,1.6887549839995228e+18,185.6565229492188,-0.9647302230199178,-9.64959398905436,1.469791014989217,1.688754983990873e+18,185.64787304687505,0.6281731029351553,0.9707157611846924,-1.622814416885376,1.6887549839951926e+18,185.65219254557292,0.6879360874493917,1.2750793897236388,-1.5743524233500164,,,,,,,,,,,,1.6887549839880673e+18,185.64506738281247,-1.8226799726486207,44.25183944702148,-24.29507942199707,1.6887549839880673e+18,185.64506738281247,-256.3512786865234,137.56963806152345,-156.29907836914063,1.6887549839995228e+18,185.6565229492188,-0.5694792071978251,0.5624978144963583,-0.4823796649773915,0.3553541203339894,-2.1522697607676187,1.3894737561543782,-2.263542970021566
5.7,1.6887549840427776e+18,185.69977783203123,1.2348146438598633,4.446422576904297,-0.8069879412651062,1.6887549840427776e+18,185.69977783203123,-0.1555334739387035,-5.199304580688477,0.5117649435997009,1.6887549840427776e+18,185.69977783203123,-1.3961941599845886,-9.628222465515137,1.2560654878616333,1.6887549840427745e+18,185.6997744954427,0.553087572256724,2.20389993985494,-1.2816462119420369,1.688754984047104e+18,185.7041040852865,0.4667010431488355,2.167909781138102,-1.2580260435740154,,,,,,,,,,,,1.6887549840380636e+18,185.69506367187495,-0.2854799896478653,45.29127960205078,-22.67003974914551,1.6887549840380636e+18,185.69506367187495,-254.81407470703124,138.60907592773438,-154.67403564453124,1.6887549840427776e+18,185.69977783203123,-0.5688875913619995,0.6028208434581757,-0.455902948975563,0.3240382522344589,-2.4088319540023804,1.3777523636817932,-1.907345414161682
5.75,1.688754984086032e+18,185.7430321451823,-0.1456249157587687,1.7040232022603352,-0.6878751715024313,1.688754984086032e+18,185.7430321451823,-1.9750757217407229,-7.850651582082112,0.7435696323712667,1.688754984086032e+18,185.7430321451823,-1.835296829541524,-9.53717009226481,1.3687574068705242,1.688754984094684e+18,185.7516839192708,-0.4702644447485606,0.1258891349037488,-1.2942198514938354,1.6887549840990134e+18,185.75601318359375,-0.5126177668571472,-0.104457954565684,-1.3083715438842771,1.688754984073047e+18,185.73004711914064,0.0,0.0,2.56416654586792,6.394999980926514,1.3073272705078125,132.3491668701172,332.79998779296875,-122.9166121,49.2785116,1.6887549840880678e+18,185.7450679199219,0.6368399858474731,45.53527984619141,-22.36747932434082,1.6887549840880678e+18,185.7450679199219,-253.89175415039065,138.85307922363282,-154.37147521972656,1.688754984086032e+18,185.7430321451823,-0.5662566622098287,0.6272885600725809,-0.4473910530408223,0.292568176984787,-2.499332348505656,1.3348185221354167,-1.7522008419036863
5.8,1.688754984137937e+18,185.79493717447917,4.471841176350911,-1.3846073150634766,-1.7574291427930195,1.688754984137937e+18,185.79493717447917,1.8837496042251587,-10.735199292500814,-0.167098785440127,1.688754984137937e+18,185.79493717447917,-2.593937635421753,-9.3330872853597,1.5276430050532024,1.688754984146587e+18,185.80358707682296,-0.537510504325231,-1.0418306589126587,-1.502066731452942,1.6887549841422556e+18,185.79925561523436,-0.5119814276695251,-1.3904820084571838,-1.7753271460533142,,,,,,,,,,,,1.6887549841380652e+18,185.79506508789063,4.4554399967193605,44.78863906860352,-23.46547927856445,1.6887549841380652e+18,185.79506508789063,-250.07315368652343,138.10643920898437,-155.4694793701172,1.688754984137937e+18,185.79493717447917,-0.5374541282653809,0.6360554099082947,-0.477142443259557,0.280479351679484,-2.606619119644165,1.2582470178604126,-1.681564450263977
5.85,1.6887549841898422e+18,185.84684228515627,3.5101444721221924,-5.604007403055827,-5.576655387878418,1.6887549841898422e+18,185.84684228515627,0.6654041409492494,-14.855839093526203,-3.83210555712382,1.6887549841898422e+18,185.84684228515627,-2.850586414337158,-9.23432731628418,1.681862473487854,1.6887549841984932e+18,185.85549324544272,0.1372919728358586,0.7386887967586517,0.3096068650484085,1.6887549841855148e+18,185.84251448567707,-0.2185879449049631,0.6307183603445689,0.0944804946581522,,,,,,,,,,,,1.6887549841880663e+18,185.8450663574219,6.961319828033448,43.94195938110352,-24.314599609375,1.6887549841880663e+18,185.8450663574219,-247.56727294921876,137.25975646972657,-156.31859436035157,1.6887549841898422e+18,185.84684228515627,-0.5303040146827698,0.6383183399836222,-0.4877974192301432,0.270797997713089,-2.6081902980804443,1.2262498537699382,-1.6849449078241985
5.9,1.6887549842417477e+18,185.8987478027344,3.268414894739786,-5.939249038696289,-1.293435017267863,1.6887549842417477e+18,185.8987478027344,0.8406783081591129,-15.35135300954183,0.1676969528198242,1.6887549842417477e+18,185.8987478027344,-2.4335825443267822,-9.394599596659342,1.3984446128209431,1.6887549842503967e+18,185.9073965657552,0.7861326535542806,-0.0860810969800999,2.2826507091522217,1.6887549842374234e+18,185.89442317708335,0.8547531763712565,-0.1051706373691558,1.3474669059117634,,,,,,,,,,,,1.6887549842380677e+18,185.8950676757813,4.555479907989502,45.04239959716797,-23.111679458618163,1.6887549842380677e+18,185.8950676757813,-249.97311706542968,138.36019897460938,-155.1156768798828,1.6887549842417477e+18,185.8987478027344,-0.5424063404401144,0.6372249722480774,-0.4669081568717956,0.2854286034901936,-2.6183677514394126,1.2801185448964436,-1.658677101135254
5.95,1.6887549842936494e+18,185.9506494140625,0.3508045673370362,-3.913398106892904,2.94525146484375,1.6887549842936494e+18,185.9506494140625,-0.3605186144510904,-13.63011614481608,4.171288013458252,1.6887549842936494e+18,185.9506494140625,-0.7171692103147507,-9.69921334584554,1.1633492310841878,1.688754984293653e+18,185.9506529541015,0.2889392599463462,1.268614411354065,3.8641045093536377,1.6887549842893284e+18,185.94632845052084,0.345342477162679,1.106786032517751,3.828241507212321,,,,,,,,,,,,1.688754984288064e+18,185.94506396484377,-3.0695199728012086,45.54747848510742,-22.081999588012696,1.688754984288064e+18,185.94506396484377,-257.5981201171875,138.8652770996094,-154.08599853515625,1.6887549842936494e+18,185.9506494140625,-0.5983908375104269,0.5977806647618612,-0.4230340917905171,0.3237638771533966,-2.0595469077428183,1.4229599634806316,-2.1982887983322144
6.0,1.6887549843455508e+18,186.00255086263024,-4.6785768667856855,-6.265330632527669,6.196296691894531,1.6887549843455508e+18,186.00255086263024,-3.6135610739390054,-15.971692085266112,7.272585550944011,1.6887549843455508e+18,186.00255086263024,1.0591697692871094,-9.688857396443684,1.0136015017827351,1.688754984336907e+18,185.99390698242183,0.4002694437901179,1.4415401617685957,3.260849634806315,1.688754984341233e+18,185.99823291015628,0.3915137151877085,1.3164146343866985,3.2555044492085776,,,,,,,,,,,,1.6887549843380677e+18,185.99506762695313,-12.77827968597412,44.90087890625,-20.50575981140137,1.6887549843380677e+18,185.99506762695313,-267.3068786621094,138.2186767578125,-152.50975952148437,1.6887549843455508e+18,186.00255086263024,-0.6611534555753072,0.5580920179684957,-0.3665423989295959,0.3412872850894928,-0.8109611471494039,1.416101296742757,0.8061842918395996
6.05,1.6887549843974633e+18,186.05446329752604,-1.8425378799438477,-5.09137757619222,2.0215855042139688,1.6887549843974633e+18,186.05446329752604,0.7208378712336222,-14.469198862711588,3.45882511138916,1.6887549843974633e+18,186.05446329752604,2.5575297673543296,-9.360316594441732,1.3745522896448772,1.688754984388807e+18,186.045806640625,-0.6835072934627533,-2.4538456797599792,3.2352441946665444,1.6887549843931397e+18,186.05013972981772,-0.7148141264915466,-2.731178522109986,3.199304978052775,,,,,,,,,,,,1.6887549843880689e+18,186.0450687988281,-19.49803962707519,42.45355911254883,-21.01327934265137,1.6887549843880689e+18,186.0450687988281,-274.0266357421875,135.7713623046875,-153.01727600097655,1.6887549843974633e+18,186.05446329752604,-0.696317454179128,0.4851898451646169,-0.365460197130839,0.3809154530366261,-0.4920311570167541,1.2701967159907024,2.5066338380177817
6.1,1.688754984449368e+18,186.10636791992184,-4.222094694773356,-0.7989584604899088,-4.103566328684489,1.688754984449368e+18,186.10636791992184,-0.3499503930409749,-9.7064847946167,-2.5970102151234946,1.688754984449368e+18,186.10636791992184,3.8662984371185303,-8.890021642049154,1.4438687960306804,1.6887549844407176e+18,186.09771769205727,0.802422434091568,-0.6181956355770429,3.009631315867106,1.6887549844450406e+18,186.10204044596352,0.899600883324941,-0.4572835564613342,3.026073773701986,,,,,,,,,,,,1.6887549844380657e+18,186.0950654785156,-23.24099998474121,39.127838897705075,-23.272719192504884,1.6887549844380657e+18,186.0950654785156,-277.76959228515625,132.4456359863281,-155.27671813964844,1.688754984449368e+18,186.10636791992184,-0.7130042711893717,0.41810937722524,-0.3577149709065754,0.4340036710103352,-0.3625393807888031,1.1355181137720745,2.282725969950358
6.15,1.6887549844926226e+18,186.14962268066404,-11.008156299591064,8.689319133758545,-2.03370749950409,1.6887549844926226e+18,186.14962268066404,-6.209972858428955,0.2464607954025268,-0.4767699092626571,1.6887549844926226e+18,186.14962268066404,4.792337417602539,-8.42535400390625,1.494250237941742,1.688754984492622e+18,186.1496221516927,0.1612175156672795,-2.606205622355143,2.8101837635040283,1.6887549844969492e+18,186.1539493001302,0.0497346110641956,-2.7389161586761475,2.783254782358805,,,,,,,,,,,,1.6887549844880666e+18,186.1450666015625,-27.645199584960935,36.331599426269534,-22.992119598388673,1.6887549844880666e+18,186.1450666015625,-282.1737976074219,129.6493927001953,-154.9961181640625,1.6887549844926226e+18,186.14962268066404,-0.7179600596427917,0.3653740882873535,-0.3494586646556854,0.4781295508146286,-0.3024562150239944,1.0335293412208555,2.1392542123794556
6.2,1.6887549845358774e+18,186.19287719726563,-6.747674465179443,10.64245573679606,0.1449214220046996,1.6887549845358774e+18,186.19287719726563,-1.3337992827097576,2.76450777053833,2.465803782145182,1.6887549845358774e+18,186.19287719726563,5.408029079437256,-7.860443592071533,2.2581949631373086,1.6887549845445263e+18,186.2015262858073,-0.2063197425256172,-2.233323335647583,1.6366606950759888,1.688754984548851e+18,186.20585099283855,-0.1413134932518005,-2.074752847353617,1.408044437567393,,,,,,,,,,,,1.6887549845380652e+18,186.1950650390625,-28.831039428710938,32.57643928527832,-26.918079376220703,1.6887549845380652e+18,186.1950650390625,-283.35963134765626,125.89423828125,-158.9220764160156,1.6887549845358774e+18,186.19287719726563,-0.7163245677947998,0.2940923968950907,-0.370875726143519,0.5121778051058451,-0.3949605127175649,0.9301266272862752,2.099913279215494
6.25,1.6887549845877788e+18,186.24477897135415,-3.0504918098449707,5.634965101877849,-0.4604833523432414,1.6887549845877788e+18,186.24477897135415,2.339183489481608,-2.1505493422349296,2.221935232480367,1.6887549845877788e+18,186.24477897135415,5.383829275767009,-7.768009980519612,2.6197311878204346,1.6887549845964296e+18,186.2534296061198,1.0322604576746623,-0.446491594115893,-1.424741397301356,1.6887549845921083e+18,186.24910876464844,0.9098837673664092,-0.5063309371471405,-1.2279155254364014,1.6887549845921098e+18,186.2491098632813,0.0,0.0,2.5737409591674805,6.465000152587891,1.31159770488739,130.28564453125,332.79998779296875,-122.9166029,49.278511,1.6887549845880645e+18,186.2450646484375,-27.31335906982422,31.829799270629884,-28.93351936340332,1.6887549845880645e+18,186.2450646484375,-281.8419494628906,125.14759826660156,-160.93751525878906,1.6887549845877788e+18,186.24477897135415,-0.7032942374547323,0.2685667773087819,-0.3918095628420512,0.5287723541259766,-0.453035016854604,0.9144521752993264,2.078041156133016
6.3,1.6887549846396877e+18,186.2966876627604,4.100286960601807,2.750640869140625,0.7606154282887777,1.6887549846396877e+18,186.2966876627604,8.510472615559896,-5.780062357584636,2.8586254914601645,1.6887549846396877e+18,186.2966876627604,4.404339710871379,-8.513198534647623,2.035322666168213,1.6887549846483384e+18,186.30533846028644,1.425708572069804,0.0496837049722671,-2.812678098678589,1.688754984635362e+18,186.2923618977865,1.6783013741175334,0.1567378460119167,-2.8657216231028237,,,,,,,,,,,,1.6887549846380682e+18,186.295068359375,-23.611879348754883,35.93387908935547,-27.354839706420897,1.6887549846380682e+18,186.295068359375,-278.1404724121094,129.25167694091795,-159.358837890625,1.6887549846396877e+18,186.2966876627604,-0.6666900118192037,0.32400048772494,-0.412578543027242,0.5289139548937479,-0.432000865538915,1.0530722935994463,2.053681214650472
6.35,1.6887549846915924e+18,186.3485926920573,8.021591822306315,-15.102763811747232,0.7376441558202108,1.6887549846915924e+18,186.3485926920573,11.79502042134603,-23.957738240559895,2.7740790843963623,1.6887549846915924e+18,186.3485926920573,3.767582416534424,-8.837470372517904,1.9737475315729776,1.68875498470024e+18,186.3572401529948,0.0774271761377652,-2.99838117758433,1.1927143683036168,1.6887549846872666e+18,186.3442663574219,0.0488183138271172,-2.2911009987195334,0.2380847334861756,,,,,,,,,,,,1.688754984688065e+18,186.3450650390625,-19.87867965698242,38.95215911865235,-25.802999114990236,1.688754984688065e+18,186.3450650390625,-274.40728149414065,132.26995849609375,-157.80699462890624,1.6887549846915924e+18,186.3485926920573,-0.6370529333750407,0.3370620409647624,-0.4404735664526621,0.5347223480542501,-0.4814034501711527,1.1223225593566897,2.050994316736857
6.4,1.6887549847434926e+18,186.4004926757813,2.724175135294596,-1.4810266494750977,5.473693927129109,1.6887549847434926e+18,186.4004926757813,6.676772912343342,-10.176874160766602,7.846862872441609,1.6887549847434926e+18,186.4004926757813,3.946751753489176,-8.678342819213867,2.310481230417887,1.688754984743498e+18,186.40049792480468,0.6123160570859909,-1.2365440241992474,0.0083230435848236,1.6887549847391736e+18,186.3961737467448,0.5901467303435007,-1.5203927159309387,0.3195334374904633,,,,,,,,,,,,1.688754984738064e+18,186.3950641113281,-17.275199508666994,38.647158813476565,-28.35767936706543,1.688754984738064e+18,186.3950641113281,-271.8037902832031,131.96495666503907,-160.36167907714844,1.6887549847434926e+18,186.4004926757813,-0.6097445289293925,0.2884225447972615,-0.4644267757733662,0.5738099416097006,-0.5294773777325948,1.086029291152954,1.9558579524358113
6.45,1.6887549847954017e+18,186.45240161132813,-8.31892983118693,2.9086764653523765,-0.57476806640625,1.6887549847954017e+18,186.45240161132813,-4.487738957007727,-5.905685663223267,1.538584937651952,1.6887549847954017e+18,186.45240161132813,3.825344880421957,-8.796857515970865,2.050665775934855,1.6887549847867507e+18,186.44375089518232,0.0069740389784176,1.6446019808451335,-0.3871867557366689,1.688754984791078e+18,186.44807836914063,-0.0066686185697714,1.6726508537928264,-0.3891720573107401,,,,,,,,,,,,1.6887549847880622e+18,186.44506215820311,-17.90227928161621,39.26203918457031,-27.31579933166504,1.6887549847880622e+18,186.44506215820311,-272.4308837890625,132.5798370361328,-159.31979675292968,1.6887549847954017e+18,186.45240161132813,-0.6161544322967529,0.3132479886213938,-0.4548154671986897,0.561440904935201,-0.4914564291636149,1.1126453479131062,1.9730151096979776
6.5,1.6887549848473083e+18,186.5043085123698,-2.8572473526000977,0.0814533233642578,-0.0749849677085876,1.6887549848473083e+18,186.5043085123698,0.1383849655588468,-9.166903813680014,1.3359926144282024,1.6887549848473083e+18,186.5043085123698,2.9897863070170083,-9.230852444966636,1.3482901652654011,1.6887549848386573e+18,186.49565747070312,0.6639596124490103,3.05631160736084,-3.0265827973683677,1.6887549848429844e+18,186.4999844563802,0.6970990498860677,3.318678140640259,-3.2358550230662027,,,,,,,,,,,,1.688754984838065e+18,186.4950648925781,-17.797359466552734,40.46251831054688,-24.900199508666994,1.688754984838065e+18,186.4950648925781,-272.3259582519531,133.7803161621094,-156.9041961669922,1.6887549848473083e+18,186.5043085123698,-0.617535670598348,0.3913535078366597,-0.439813494682312,0.5201704601446787,-0.4206516246000926,1.2295557260513306,2.040862957636515
6.55,1.68875498489921e+18,186.55620996093748,-7.105494658152263,1.669197718302409,-0.8634591499964396,1.68875498489921e+18,186.55620996093748,-5.827719608942668,-8.023333867390951,0.0965105171004931,1.68875498489921e+18,186.55620996093748,1.2719289064407349,-9.675026893615724,0.8972822427749634,1.6887549848905628e+18,186.5475627441406,-0.4457789063453674,4.057621558507283,-3.7560576597849527,1.6887549848948892e+18,186.55188916015624,-0.654389371474584,3.854508717854818,-3.619630972544352,,,,,,,,,,,,1.6887549848880635e+18,186.54506381835935,-14.661959838867189,43.73455963134766,-21.157239532470705,1.6887549848880635e+18,186.54506381835935,-269.1905517578125,137.05235595703124,-153.16123962402344,1.68875498489921e+18,186.55620996093748,-0.6182341972986857,0.5063920418421427,-0.4222391545772552,0.4263832072416941,-0.6532308955987295,1.4078574975331624,2.5019006729125977
6.6,1.688754984942468e+18,186.5994681396484,-4.850165963172913,-2.34792423248291,-2.9200319051742554,1.688754984942468e+18,186.5994681396484,-4.517948269844055,-12.050853252410889,-1.345065414905548,1.688754984942468e+18,186.5994681396484,0.3263717144727707,-9.685424327850342,1.5122790932655334,1.6887549849424617e+18,186.5994615885417,-1.7002925475438435,0.2619084517161051,-1.5987361669540403,1.6887549849467945e+18,186.60379443359375,-1.5965471863746643,-0.1338303883870442,-1.5031357606252034,,,,,,,,,,,,1.6887549849380677e+18,186.5950677734375,-11.116639709472656,43.641839599609376,-22.426039505004884,1.6887549849380677e+18,186.5950677734375,-265.6452392578125,136.9596405029297,-154.43003540039064,1.688754984942468e+18,186.5994681396484,-0.6232137382030487,0.5420043468475342,-0.4353426098823547,0.3580765277147293,-1.3511491417884829,1.4113798141479492,-2.986053466796875
