seconds_elapsed_rounded,accelerometer_time,accelerometer_seconds_elapsed,accelerometer_z,accelerometer_y,accelerometer_x,accelerometeruncalibrated_time,accelerometeruncalibrated_seconds_elapsed,accelerometeruncalibrated_z,accelerometeruncalibrated_y,accelerometeruncalibrated_x,gravity_time,gravity_seconds_elapsed,gravity_z,gravity_y,gravity_x,gyroscope_time,gyroscope_seconds_elapsed,gyroscope_z,gyroscope_y,gyroscope_x,gyroscopeuncalibrated_time,gyroscopeuncalibrated_seconds_elapsed,gyroscopeuncalibrated_z,gyroscopeuncalibrated_y,gyroscopeuncalibrated_x,location_time,location_seconds_elapsed,location_bearingAccuracy,location_speedAccuracy,location_verticalAccuracy,location_horizontalAccuracy,location_speed,location_bearing,location_altitude,location_longitude,location_latitude,magnetometer_time,magnetometer_seconds_elapsed,magnetometer_z,magnetometer_y,magnetometer_x,magnetometeruncalibrated_time,magnetometeruncalibrated_seconds_elapsed,magnetometeruncalibrated_z,magnetometeruncalibrated_y,magnetometeruncalibrated_x,orientation_time,orientation_seconds_elapsed,orientation_qz,orientation_qy,orientation_qx,orientation_qw,orientation_roll,orientation_pitch,orientation_yaw
0.0,1.68870210735752e+18,165.00552001953125,0.6696832974751791,-0.0590928395589192,1.874904712041219,1.688702107348869e+18,164.9968693033854,-1.4953147570292156,-9.254839738210045,6.413562297821045,1.68870210735752e+18,165.00552001953125,-2.370046536127726,-8.64464282989502,3.9814534982045497,1.68870210735752e+18,165.00552001953125,-0.9433286388715107,1.8236363728841145,-1.206458846728007,1.68870210735752e+18,165.00552001953125,-0.9443976680437725,1.8283196687698364,-1.2043208281199138,1.68870210735752e+18,165.00551977539064,0.0,0.0,1.1931312084197998,6.929999828338623,1.4588788747787476,126.41051483154295,42.900001525878906,-122.7560537,49.1898551,1.688702107347183e+18,164.995183203125,-26.25927963256836,40.48203964233399,-17.455759811401368,1.688702107347183e+18,164.995183203125,-280.8000793457031,135.94703674316406,-150.6675567626953,1.68870210735752e+18,165.00552001953125,0.6032141248385111,-0.7682083249092102,0.165550336241722,0.1353015427788098,-2.0944837729136148,1.080629785855611,-1.0911505222320557
0.05,1.6887021074094216e+18,165.05742171223957,-1.371441125869751,4.451722145080566,-1.988041083017985,1.688702107400775e+18,165.04877465820311,-3.6879379749298096,-4.236292997996013,3.1503504117329917,1.6887021074094216e+18,165.05742171223957,-2.5165602366129556,-8.231826464335123,4.695444742838542,1.6887021074094216e+18,165.05742171223957,-1.3689999183019002,1.2474886377652483,-1.5674292643864949,1.6887021074094216e+18,165.05742171223957,-1.370068947474162,1.2522228558858235,-1.5652912855148315,,,,,,,,,,,,1.688702107397185e+18,165.0451850097656,-26.06895942687988,40.68699951171875,-17.133679580688476,1.688702107397185e+18,165.0451850097656,-280.60975341796876,136.15199584960936,-150.34547729492186,1.6887021074094216e+18,165.05742171223957,0.5811928709348043,-0.7748722036679586,0.1565829614798227,0.1921976059675216,-2.0505297978719077,0.9986762801806132,-1.0384700298309326
0.1,1.6887021074526776e+18,165.1006776123047,0.0254350900650024,1.6345343589782717,-3.5117485523223877,1.68870210745268e+18,165.10067985026043,-3.143171946207682,-6.136393706003825,1.847059686978658,1.6887021074526776e+18,165.1006776123047,-3.1347720623016357,-7.693004608154297,5.214665174484253,1.6887021074526776e+18,165.1006776123047,-1.4875332117080688,-0.3325397633016109,-1.6771305203437803,1.6887021074526776e+18,165.1006776123047,-1.4886786341667175,-0.3278055489063262,-1.6749925017356873,,,,,,,,,,,,1.688702107447185e+18,165.09518481445315,-22.728599548339844,41.40923919677734,-19.080799865722657,1.688702107447185e+18,165.09518481445315,-277.2694030761719,136.87424011230468,-152.29259643554687,1.6887021074526776e+18,165.1006776123047,0.5431115329265594,-0.7923032641410828,0.1694196015596389,0.2202119454741477,-2.10153067111969,0.9043979048728944,-0.9640369415283204
0.15,1.6887021074959352e+18,165.14393538411457,0.6536511580149332,-3.5571133295694985,-2.930011431376139,1.6887021075045814e+18,165.1525811360677,-3.029114007949829,-11.582258542378744,2.9471598466237388,1.6887021074959352e+18,165.14393538411457,-3.7603959242502847,-7.147021929423015,5.560844739278157,1.6887021074959352e+18,165.14393538411457,-1.9013689359029131,-1.690874973932902,-0.8470664819081625,1.6887021074959352e+18,165.14393538411457,-1.9024380048116047,-1.6861916780471802,-0.844877560933431,,,,,,,,,,,,1.688702107497181e+18,165.14518100585937,-18.93927993774414,40.8138786315918,-23.243439865112304,1.688702107497181e+18,165.14518100585937,-273.4800720214844,136.27887878417968,-156.45523986816406,1.6887021074959352e+18,165.14393538411457,0.5118054648240408,-0.8034058809280396,0.2067531396945316,0.2224145531654357,-2.1555659770965576,0.819380005200704,-0.962370733420054
0.2,1.6887021075478362e+18,165.19583618164063,7.948743184407551,-8.632747491200766,-1.803560256958008,1.688702107556489e+18,165.20448901367186,3.8153558373451233,-15.347763697306316,3.60159683227539,1.6887021075478362e+18,165.19583618164063,-4.959373474121094,-6.3363949457804365,5.577564557393392,1.6887021075478362e+18,165.19583618164063,-2.126778244972229,-4.420526345570882,-2.139301002025604,1.6887021075478362e+18,165.19583618164063,-2.127949078877766,-4.41584308942159,-2.1371629436810813,,,,,,,,,,,,1.6887021075471852e+18,165.19518515625,-13.576159858703614,38.77647933959961,-29.738719940185547,1.6887021075471852e+18,165.19518515625,-268.11695556640626,134.2414794921875,-162.9505157470703,1.6887021075478362e+18,165.19583618164063,0.4615150491396586,-0.818131665388743,0.2827101548512776,0.1905797819296519,-2.287297089894613,0.7053351402282715,-0.9986256957054138
0.25,1.688702107599744e+18,165.2477439778646,15.339070638020834,-12.573413530985514,0.0053332646687824,1.6887021076083958e+18,165.25639591471352,5.771487871805827,-15.666407903035482,6.187440713246663,1.688702107599744e+18,165.2477439778646,-6.6454111735026045,-3.919758319854736,5.953317801157634,1.688702107599744e+18,165.2477439778646,0.0183259348074595,5.179577271143596,-6.7955193519592285,1.688702107599744e+18,165.2477439778646,0.0172060628732045,5.184209664662679,-6.793381532033284,,,,,,,,,,,,1.6887021075971889e+18,165.24518896484375,1.4469199895858764,36.29255905151367,-34.652880096435545,1.6887021075971889e+18,165.24518896484375,-253.0938720703125,131.75755310058594,-167.86467895507812,1.688702107599744e+18,165.2477439778646,0.3135914107163747,-0.8654747009277344,0.2939414481321971,0.2454758882522582,-2.4078290462493896,0.4153547982374827,-0.812733014424642
0.3,1.688702107651651e+18,165.29965120442708,-4.600743293762207,-5.7271528244018555,-10.420830249786375,1.6887021076516388e+18,165.29963891601562,-8.665607213973999,-8.62313461303711,-4.121337920427322,1.688702107651651e+18,165.29965120442708,-4.383371988932292,-4.161628166834514,7.707692623138428,1.688702107651651e+18,165.29965120442708,1.5134186347325642,3.673387289047241,1.5274685819943743,1.688702107651651e+18,165.29965120442708,1.5122477809588115,3.678070545196533,1.529606560866038,,,,,,,,,,,,1.6887021076471862e+18,165.29518603515623,-6.929599761962891,37.88588027954101,-31.98351974487305,1.6887021076471862e+18,165.29518603515623,-261.47039794921875,133.35087890625,-165.19531860351563,1.688702107651651e+18,165.29965120442708,0.3513160149256388,-0.8263653914133707,0.1941790382067362,0.3939110835393269,-2.0816943645477295,0.4420285820960998,-0.7242676417032877
0.35,1.6887021077035515e+18,165.3515516764323,13.654470920562744,-12.619296391805014,-3.29626989364624,1.6887021076949046e+18,165.34290486653646,4.023730595906575,-16.85284932454427,2.084547241528829,1.6887021077035515e+18,165.3515516764323,-4.672475973765056,-4.875470956166585,7.097990989685059,1.6887021077035515e+18,165.3515516764323,1.2675963044166565,-2.8821641206741333,2.0204368432362876,1.6887021077035515e+18,165.3515516764323,1.2664255102475483,-2.877480745315552,2.0225748221079507,,,,,,,,,,,,1.6887021076971848e+18,165.34518481445315,-10.443199920654298,37.8273193359375,-31.43451919555664,1.6887021076971848e+18,165.34518481445315,-264.98399658203124,133.29231872558594,-164.6463165283203,1.6887021077035515e+18,165.3515516764323,0.3933983147144317,-0.8264704346656799,0.2287307778994242,0.3299907942612965,-2.1476184527079263,0.5236001710096995,-0.8279298345247904
0.4,1.6887021077554586e+18,165.40345841471353,0.7666518688201904,-7.448410511016846,-0.538265069325765,1.688702107746803e+18,165.39480281575518,-1.505683660507202,-13.801801045735678,5.50648307800293,1.6887021077554586e+18,165.40345841471353,-3.4761881033579507,-6.789924303690593,6.102898279825847,1.6887021077554586e+18,165.40345841471353,5.444947401682536,2.8910215695699057,2.3457734187444053,1.6887021077554586e+18,165.40345841471353,5.44372574488322,2.895755728085836,2.347962419191996,,,,,,,,,,,,1.6887021077471803e+18,165.39518051757813,-14.000719833374024,41.138397979736325,-25.91523971557617,1.6887021077471803e+18,165.39518051757813,-268.54151611328126,136.6033966064453,-159.12703552246094,1.6887021077554586e+18,165.40345841471353,0.4792779286702474,-0.8098516662915548,0.1313613007465997,0.3079471190770467,-2.078851064046224,0.7713161706924438,-0.7912594477335612
0.45,1.6887021078073644e+18,165.4553645019531,4.612043698628743,-11.491570154825846,6.988813241322835,1.6887021077987054e+18,165.44670548502606,1.5619149208068848,-19.267008463541668,10.159924983978271,1.6887021078073644e+18,165.4553645019531,-2.7778090635935464,-8.210177262624105,4.583200454711914,1.6887021078073644e+18,165.4553645019531,2.544711947441101,-0.5729915996392568,1.0201958616574605,1.6887021078073644e+18,165.4553645019531,2.543490171432495,-0.5683083037535349,1.0223338802655535,,,,,,,,,,,,1.6887021077971784e+18,165.44517841796875,-19.65420036315918,44.58855972290039,-13.795759582519532,1.6887021077971784e+18,165.44517841796875,-274.19500122070315,140.05355834960938,-147.00755615234374,1.6887021078073644e+18,165.4553645019531,0.5421086152394613,-0.7976958354314169,0.0500637503961721,0.2588605632384618,-2.107647657394409,0.9957549571990968,-0.7247205972671509
0.5,1.6887021078592678e+18,165.50726798502603,0.9175354242324828,-1.5350515047709148,7.080708901087443,1.6887021078506217e+18,165.49862166341146,-0.4887340314065416,-12.82273801167806,12.601003011067707,1.6887021078592678e+18,165.50726798502603,-1.9281675418217976,-8.785235404968262,3.897884448369344,1.6887021078592678e+18,165.50726798502603,1.4536556402842205,-0.4675664231181144,2.53249462445577,1.6887021078592678e+18,165.50726798502603,1.452586650848389,-0.4628831520676613,2.5346835454305015,1.6887021078631227e+18,165.51112280273438,0.0,0.0,1.1931312084197998,6.888000011444092,1.4621516466140747,126.67169189453124,42.900001525878906,-122.7560464,49.189853,1.688702107847186e+18,165.4951859375,-24.126719665527343,44.300638580322264,-9.013359832763673,1.688702107847186e+18,165.4951859375,-278.6675170898437,139.76563720703126,-142.22515563964845,1.6887021078592678e+18,165.50726798502603,0.5943079590797424,-0.7705357074737549,0.0417028628289699,0.2256062775850295,-2.01622998714447,1.1134577989578247,-0.8574446638425192
0.55,1.688702107902526e+18,165.55052575683595,-1.7233418226242063,7.0040435791015625,1.1210415363311768,1.6887021079025254e+18,165.55052555338543,-3.1166515350341797,-2.425325175126394,4.675575415293376,1.688702107902526e+18,165.55052575683595,-1.0545892119407654,-9.165204048156738,3.32853627204895,1.688702107902526e+18,165.55052575683595,1.569618284702301,0.6868416219949721,2.0159316062927246,1.688702107902526e+18,165.55052575683595,1.5684728622436523,0.691575825214386,2.0180697441101074,,,,,,,,,,,,1.6887021078971853e+18,165.54518525390623,-29.538639068603516,41.702039337158205,-5.292359828948975,1.6887021078971853e+18,165.54518525390623,-284.0794372558594,137.167041015625,-138.50415649414063,1.688702107902526e+18,165.55052575683595,0.6374757587909698,-0.7417738139629364,0.0258976016193628,0.2064201161265372,-1.8610114455223083,1.2084287405014038,-1.020300209522247
0.6,1.68870210794578e+18,165.5937801106771,-5.3773261706034345,9.167064984639486,0.5929365952809652,1.6887021079544292e+18,165.60242936197918,-5.316652536392212,-0.0873380241294701,3.2819557189941406,1.68870210794578e+18,165.5937801106771,-0.1423808485269546,-9.382860819498696,2.838295857111613,1.68870210794578e+18,165.5937801106771,1.2692761818567913,0.1457931697368621,2.452369451522827,1.68870210794578e+18,165.5937801106771,1.268054405848185,0.1505273878574371,2.4545584519704184,,,,,,,,,,,,1.6887021079471816e+18,165.59518139648438,-34.40643997192383,38.752079010009766,-1.6323599815368652,1.6887021079471816e+18,165.59518139648438,-288.9472351074219,134.21708068847656,-134.84415588378906,1.68870210794578e+18,165.5937801106771,0.675959587097168,-0.7100198666254679,0.0074786764259139,0.1963223417599995,-1.5946881771087646,1.2756719986597698,-1.2760593096415205
0.65,1.6887021079976788e+18,165.64567903645835,-2.831655263900757,9.546368598937988,-0.4695411523183186,1.6887021080063365e+18,165.65433626302084,-1.6073785622914631,0.3054836839437484,1.80717933177948,1.6887021079976788e+18,165.64567903645835,0.7480414311091105,-9.466251691182457,2.458898544311523,1.6887021079976788e+18,165.64567903645835,0.7175121307373047,-0.5881614089012146,1.4616986910502117,1.6887021079976788e+18,165.64567903645835,0.7163922190666199,-0.5834781130154928,1.463887671629588,,,,,,,,,,,,1.6887021079971848e+18,165.6451849121094,-38.84723892211914,34.982279205322264,-0.3635599955916405,1.6887021079971848e+18,165.6451849121094,-293.3880310058594,130.44727783203126,-133.5753601074219,1.6887021079976788e+18,165.64567903645835,0.7153068780899048,-0.6771788199742635,0.0123259707664449,0.1718113968769708,-1.2521322170893352,1.3035869201024373,-1.66138756275177
0.7,1.688702108049592e+18,165.6975920410156,-1.5011261701583862,9.963615417480469,-1.4013292789459229,1.6887021080582418e+18,165.70624178059896,-1.203191007177035,0.3365903993447621,0.5579264859358469,1.688702108049592e+18,165.6975920410156,0.7164164384206136,-9.504834175109863,2.3147141138712564,1.688702108049592e+18,165.6975920410156,0.3547090962529182,-0.9674069484074912,-0.5704972296953202,1.688702108049592e+18,165.6975920410156,0.3535891622304916,-0.9627236127853394,-0.5683591887354851,,,,,,,,,,,,1.6887021080471826e+18,165.69518271484375,-39.15467910766601,34.479638671875,-0.6246399819850922,1.6887021080471826e+18,165.69518271484375,-293.6954772949219,129.94463806152345,-133.83643798828126,1.688702108049592e+18,165.6975920410156,0.7186349829037985,-0.6780673861503601,0.0202181010196606,0.152604709068934,-1.2468993663787842,1.3187564214070635,-1.7056831121444702
0.75,1.688702108101496e+18,165.7494960123698,15.85192855199178,0.3867390950520833,-0.8676080703735352,1.688702108101496e+18,165.74949609375,3.056830883026123,-10.712666779756544,-0.2662014961242677,1.688702108101496e+18,165.7494960123698,-0.942113999898235,-9.421282768249512,2.467134714126587,1.688702108101496e+18,165.7494960123698,-1.392009198665619,-9.417251269022625,-1.4758504231770833,1.688702108101496e+18,165.7494960123698,-1.3931290705998738,-9.41261879603068,-1.4736615816752117,,,,,,,,,,,,1.6887021080971845e+18,165.74518461914062,-34.58943977355957,37.50523986816406,-7.161399865150452,1.6887021080971845e+18,165.74518461914062,-289.13023681640624,132.9702362060547,-140.37319946289062,1.688702108101496e+18,165.7494960123698,0.239202598730723,-0.2335519989331563,-0.0166538655757903,0.0720513068760434,-1.8864944378534951,1.290082931518555,-1.3205386797587078
0.8,1.6887021081533944e+18,165.80139436848958,16.52165985107422,-15.208633740743002,7.0210466384887695,1.6887021081447483e+18,165.79274861653644,22.81157573064168,-23.939990361531574,8.971489588419596,1.6887021081533944e+18,165.80139436848958,-1.5522244771321614,-9.203784306844076,2.998623450597127,1.6887021081533944e+18,165.80139436848958,-2.342770059903463,-2.1515183051427207,0.255138024687767,1.6887021081533944e+18,165.80139436848958,-2.343940854072571,-2.1468350092569985,0.2572761277357738,,,,,,,,,,,,1.6887021081471836e+18,165.79518364257814,-27.713519668579103,35.34095840454101,-24.80991973876953,1.6887021081471836e+18,165.79518364257814,-282.2543151855469,130.80595703125,-158.02171630859374,1.6887021081533944e+18,165.80139436848958,-0.6494313279787699,0.7047218481699625,-0.2820861041545867,0.0401804136733213,-2.0316789150238037,1.2177956501642864,-1.577216108640035
0.85,1.6887021082053038e+18,165.85330395507813,-0.7069589296976725,-5.002195676167806,7.047053496042888,1.6887021081966502e+18,165.84465022786458,-1.3830514624714851,-15.900705337524414,11.2019993464152,1.6887021082053038e+18,165.85330395507813,-1.8271036545435588,-9.047704378763834,3.3219682375590005,1.6887021082053038e+18,165.85330395507813,0.8575020730495453,3.791131416956583,-1.759546438852946,1.6887021082053038e+18,165.85330395507813,0.8564331034819285,3.795865774154663,-1.7573066155115764,,,,,,,,,,,,1.6887021081971784e+18,165.84517841796875,-27.281639862060548,35.39951858520508,-26.100679779052733,1.6887021081971784e+18,165.84517841796875,-281.8224304199219,130.86451721191406,-159.3124755859375,1.6887021082053038e+18,165.85330395507813,0.2126082976659139,-0.2494785785675048,0.0622800240914026,0.0227457090901831,-2.057081858317057,1.1737583080927532,-1.416057030359904
0.9,1.6887021082572111e+18,165.9052109375,0.3224364121754964,4.44584306081136,0.3607234954833984,1.6887021082485606e+18,165.89656054687498,-2.8155545790990195,-5.857629617055257,4.511268297831218,1.6887021082572111e+18,165.9052109375,-2.619609514872233,-8.814781188964844,3.4053048292795816,1.6887021082572111e+18,165.9052109375,0.0114028172101825,0.134543073674043,-2.304387331008911,1.6887021082572111e+18,165.9052109375,0.0103338062763214,0.1392263695597648,-2.30219837029775,,,,,,,,,,,,1.688702108247184e+18,165.89518388671874,-26.05675926208496,38.57639923095703,-21.48175926208496,1.688702108247184e+18,165.89518388671874,-280.59755249023436,134.04139709472656,-154.6935546875,1.6887021082572111e+18,165.9052109375,0.6046916643778483,-0.7646910945574442,0.2140670915444691,0.0594093526403108,-2.2104581197102866,1.1182217597961426,-1.1560444831848145
0.95,1.68870210830911e+18,165.95711027018228,1.4024113019307454,5.540249347686768,-1.3869396448135376,1.6887021083004672e+18,165.94846736653645,-1.8731813430786133,-2.3353949387868247,1.8695920705795288,1.68870210830911e+18,165.95711027018228,-3.127500375111898,-8.612078348795572,3.503316084543864,1.68870210830911e+18,165.95711027018228,-0.256868839263916,1.0178542236487071,-0.6983207662900289,1.68870210830911e+18,165.95711027018228,-0.2580396582682927,1.0224865972995758,-0.6961827476819357,,,,,,,,,,,,1.688702108297188e+18,165.9451880371094,-22.333319854736327,40.57719955444336,-20.53747978210449,1.688702108297188e+18,165.9451880371094,-276.8741149902344,136.04219665527344,-153.74927673339843,1.68870210830911e+18,165.95711027018228,0.5808217326800028,-0.7839508056640625,0.2047899415095647,0.0776777764161427,-2.287142356236776,1.0736355781555176,-1.0401692787806194
1.0,1.6887021083523717e+18,166.00037170410155,-1.1797513961791992,-2.3124632835388184,1.8362905979156496,1.6887021083523727e+18,166.00037255859377,-3.6478581031163535,-10.335199356079102,5.796812216440837,1.6887021083523717e+18,166.00037170410155,-2.7371631860733032,-8.437435150146484,4.1811842918396,1.6887021083523717e+18,166.00037170410155,-1.387885808944702,3.249115824699402,0.6856198683381081,1.6887021083523717e+18,166.00037170410155,-1.3890312314033508,3.2537736892700195,0.6877578943967819,,,,,,,,,,,,1.6887021083471857e+18,165.99518549804688,-23.54599952697754,40.50887908935547,-20.217839813232423,1.6887021083471857e+18,165.99518549804688,-278.0867919921875,135.973876953125,-153.42963562011718,1.6887021083523717e+18,166.00037170410155,0.5883902609348297,-0.7742685675621033,0.1923916414380073,0.1304653696715831,-2.139032483100891,1.03722882270813,-1.093366801738739
1.05,1.6887021083956155e+18,166.0436155598958,-1.4648605187733967,-0.5351268450419108,-0.5698022047678629,1.6887021084042683e+18,166.05226855468752,-2.79980190594991,-7.659624735514323,3.5774691899617515,1.6887021083956155e+18,166.0436155598958,-1.731016953786214,-8.399715423583984,4.753377914428711,1.6887021083956155e+18,166.0436155598958,-0.7094690998395284,1.5022703508536022,1.6829846700032551,1.6887021083956155e+18,166.0436155598958,-0.7106399138768514,1.5069027245044708,1.6851226886113484,1.6887021083956155e+18,166.04361547851562,0.0,0.0,1.2035114765167236,6.817999839782715,1.465235710144043,127.3459701538086,42.900001525878906,-122.7560316,49.1898498,1.6887021083971825e+18,166.04518251953124,-28.95059928894043,37.93711929321289,-19.3589599609375,1.6887021083971825e+18,166.04518251953124,-283.49138793945315,133.40211486816406,-152.5707550048828,1.6887021083956155e+18,166.0436155598958,0.6198544104894003,-0.7426943778991699,0.1829567452271779,0.1745752791563669,-1.9079044262568157,1.0287578105926514,-1.245991309483846
1.1,1.6887021084475318e+18,166.09553157552082,0.4144707123438517,3.3902007738749185,-3.233535130818685,1.6887021084561797e+18,166.1041796061198,-0.8354939023653666,-5.264010588328044,1.8055840730667112,1.6887021084475318e+18,166.09553157552082,-1.5533182621002195,-8.253655433654785,5.064766883850098,1.6887021084475318e+18,166.09553157552082,-0.7895942529042562,-0.3816889623800913,-0.9415978689988456,1.6887021084475318e+18,166.09553157552082,-0.790714164574941,-0.3769547641277313,-0.9394089380900064,,,,,,,,,,,,1.688702108447182e+18,166.09518208007813,-30.85867919921875,36.058319091796875,-19.910400009155275,1.688702108447182e+18,166.09518208007813,-285.39947509765625,131.5233184814453,-153.1221954345703,1.6887021084475318e+18,166.09553157552082,0.6236540079116821,-0.7333731055259705,0.1954775651295979,0.1867566655079523,-1.8559834559758503,1.0004504720369976,-1.2984657287597656
1.15,1.6887021084994332e+18,166.14743318684896,1.61853023370107,-1.761781374613444,-2.8960794607798257,1.6887021085080876e+18,166.15608780924478,-1.093918780485789,-10.326226234436035,2.68534517288208,1.6887021084994332e+18,166.14743318684896,-2.7091224988301597,-7.743350505828857,5.357620557149251,1.6887021084994332e+18,166.14743318684896,-1.1995357275009155,-1.5359188516934712,-2.733214775721232,1.6887021084994332e+18,166.14743318684896,-1.2006047169367473,-1.5312354962031047,-2.731076637903849,,,,,,,,,,,,1.6887021084971835e+18,166.1451833984375,-25.151519775390625,37.90783920288086,-23.29955940246582,1.6887021084971835e+18,166.1451833984375,-279.6923095703125,133.37283630371093,-156.51136169433593,1.6887021084994332e+18,166.14743318684896,0.5713674624760946,-0.7663521567980448,0.2181625813245773,0.1950400819381077,-2.0264971256256104,0.911772926648458,-1.1497428019841511
1.2,1.6887021085513375e+18,166.1993376464844,3.1122700373331704,-5.783416906992595,-2.1992805004119873,1.688702108551337e+18,166.19933691406248,-1.4001003503799438,-12.526127338409424,3.155235767364502,1.6887021085513375e+18,166.1993376464844,-4.548226356506348,-6.8433512051900225,5.323434034983317,1.6887021085513375e+18,166.1993376464844,-1.285718599955241,-3.017012596130371,-3.194774309794108,1.6887021085513375e+18,166.1993376464844,-1.2868894735972087,-3.0123292605082193,-3.192636330922445,,,,,,,,,,,,1.688702108547183e+18,166.19518310546874,-15.842919921875,39.32059936523437,-27.82087936401367,1.688702108547183e+18,166.19518310546874,-270.3837097167969,134.7855987548828,-161.03267517089844,1.6887021085513375e+18,166.1993376464844,0.4876884818077087,-0.8131076296170553,0.2601192245880763,0.1797478149334589,-2.267187515894572,0.7750800450642904,-0.9981245398521424
1.25,1.6887021086032474e+18,166.25124723307292,25.143377383550007,-8.959823926289877,2.0277021725972495,1.688702108594594e+18,166.24259431966144,19.441683928171795,-13.85085391998291,6.087540149688721,1.6887021086032474e+18,166.25124723307292,-6.372944037119548,-5.161262194315593,5.304030418395996,1.6887021086032474e+18,166.25124723307292,-0.4050036569436391,3.2465453147888184,-5.357084592183431,1.6887021086032474e+18,166.25124723307292,-0.406174490849177,3.2512284914652505,-5.354946533838908,,,,,,,,,,,,1.6887021085971827e+18,166.24518266601564,-2.420479951798916,38.74231872558594,-31.778559112548827,1.6887021085971827e+18,166.24518266601564,-256.9612701416016,134.2073181152344,-164.9903564453125,1.6887021086032474e+18,166.25124723307292,0.3691688577334086,-0.8618771433830261,0.2815133035182953,0.1942761490742365,-2.4430082639058432,0.5584159096082052,-0.8383224209149679
1.3,1.6887021086551503e+18,166.30315047200523,-5.261372884114583,-5.525001843770345,-5.488929430643718,1.6887021086465032e+18,166.29450301106772,-10.472786585489908,-11.679168065388998,3.56769851843516,1.6887021086551503e+18,166.30315047200523,-4.292035102844238,-4.972353458404541,7.2707093556722,1.6887021086551503e+18,166.30315047200523,1.2196942667166393,5.120119730631511,0.4312708675861358,1.6887021086551503e+18,166.30315047200523,1.2185743550459545,5.124752104282379,0.4334597984949748,,,,,,,,,,,,1.6887021086471857e+18,166.295185546875,-9.210999870300292,39.747599029541014,-29.523999404907222,1.6887021086471857e+18,166.295185546875,-263.7517944335938,135.21259765625,-162.7357971191406,1.6887021086551503e+18,166.30315047200523,0.3885866999626159,-0.8262025117874146,0.1825982928276061,0.3636254767576853,-2.0980821450551352,0.534959594408671,-0.7479454676310221
1.35,1.6887021087070482e+18,166.35504833984376,-1.944525162378947,-7.790881792704265,-6.666911919911702,1.6887021086984026e+18,166.34640250651043,-6.5962144533793134,-12.1978120803833,0.3591227978467941,1.6887021087070482e+18,166.35504833984376,-3.8912338415781655,-5.506275335947673,7.119279543558757,1.6887021087070482e+18,166.35504833984376,0.009264792005221,-2.928742527961731,2.996141274770101,1.6887021087070482e+18,166.35504833984376,0.0080939680337906,-2.924008369445801,2.998279333114624,,,,,,,,,,,,1.688702108697181e+18,166.34518105468752,-14.735159492492675,39.93791885375977,-27.42803955078125,1.688702108697181e+18,166.34518105468752,-269.2759521484375,135.40291748046874,-160.63983764648438,1.6887021087070482e+18,166.35504833984376,0.4309254388014475,-0.8102092544237772,0.1975020517905553,0.343030701080958,-2.0653807322184243,0.5989867051442465,-0.8423178791999817
1.4,1.6887021087589568e+18,166.40695654296874,16.12808354695638,-8.891828536987305,-3.1933634281158447,1.6887021087503045e+18,166.39830436197917,10.791829109191896,-15.08395512898763,2.0243280132611594,1.6887021087589568e+18,166.40695654296874,-4.689258416493733,-6.162657737731934,6.013229688008626,1.6887021087589568e+18,166.40695654296874,1.5892168482144673,-1.4713199138641355,0.581034650405248,1.6887021087589568e+18,166.40695654296874,1.587995131810506,-1.46673846244812,0.5831726789474487,,,,,,,,,,,,1.6887021087471803e+18,166.39518037109374,-13.471239852905274,38.49831924438477,-29.77531967163086,1.6887021087471803e+18,166.39518037109374,-268.0120422363281,133.96331787109375,-162.98711547851562,1.6887021087589568e+18,166.40695654296874,0.452213317155838,-0.8243663708368937,0.2383307168881098,0.2423369834820429,-2.2268157800038657,0.6818717320760092,-0.9085570176442463
1.45,1.6887021088022124e+18,166.45021240234377,0.7750698328018187,-8.164244413375854,1.1698753833770752,1.6887021088022075e+18,166.45020760091143,-2.222134590148926,-15.410176595052084,6.7316083908081055,1.6887021088022124e+18,166.45021240234377,-3.2921831607818604,-7.276483774185181,5.671328783035278,1.6887021088022124e+18,166.45021240234377,4.336455941200256,4.660519957542419,2.697046399116516,1.6887021088022124e+18,166.45021240234377,4.335310697555542,4.66525411605835,2.699184536933899,,,,,,,,,,,,1.6887021087971784e+18,166.44517841796875,-16.960439491271973,40.99687957763672,-24.307279205322267,1.6887021087971784e+18,166.44517841796875,-271.50123291015626,136.46187744140624,-157.51907653808593,1.6887021088022124e+18,166.45021240234377,0.5150227546691895,-0.8005618751049042,0.154176041483879,0.2629556059837341,-2.0873732566833496,0.839338093996048,-0.8895686566829681
1.5,1.6887021088454643e+18,166.49346402994792,0.9228860139846802,-6.621589342753093,4.012638568878174,1.688702108854117e+18,166.50211718749998,-0.975274622440338,-15.064414024353027,9.5152587890625,1.6887021088454643e+18,166.49346402994792,-2.5223519007364907,-8.311062494913736,4.545814673105876,1.6887021088454643e+18,166.49346402994792,2.9101110696792603,-0.1702277859052022,0.7552330692609152,1.6887021088454643e+18,166.49346402994792,2.9089911381403604,-0.1656462947527567,0.7574220101038615,,,,,,,,,,,,1.6887021088471772e+18,166.4951771484375,-23.489879608154297,43.61499938964844,-14.051959800720216,1.6887021088471772e+18,166.4951771484375,-278.0306701660156,139.0799987792969,-147.26375427246094,1.6887021088454643e+18,166.49346402994792,0.5636605421702067,-0.7869763573010763,0.0808805525302886,0.2367632091045379,-2.069871187210083,1.01432470480601,-0.8418850898742676
1.55,1.6887021088973714e+18,166.54537133789063,2.565196434656779,-1.8514898618062336,6.354723930358887,1.6887021089060216e+18,166.55402132161458,0.3768695791562398,-8.923234462738037,8.927820523579916,1.6887021088973714e+18,166.54537133789063,-2.0021488666534424,-8.804190635681152,3.8200804392496743,1.6887021088973714e+18,166.54537133789063,1.2085968852043152,-0.6626869862278303,2.182468891143799,1.6887021088973714e+18,166.54537133789063,1.2074260711669922,-0.6581055025259653,2.184657772382101,1.6887021089146757e+18,166.5626755371094,0.0,0.0,1.2131072282791138,6.789000034332275,1.4680434465408323,127.61515045166016,42.900001525878906,-122.7560264,49.1898484,1.6887021088971791e+18,166.54517900390624,-25.432119369506836,42.86103973388672,-11.23131980895996,1.6887021088971791e+18,166.54517900390624,-279.97291870117186,138.32603759765624,-144.4431182861328,1.6887021088973714e+18,166.54537133789063,0.6014007329940796,-0.7708208958307902,0.0723981037735938,0.1962905228137969,-2.040246685345968,1.1171841224034629,-0.9212179978688558
1.6,1.688702108949273e+18,166.59727319335937,-1.00589923063914,5.667855739593506,0.491567850112915,1.6887021089579282e+18,166.60592814127605,-2.6666014194488525,-2.988635460535685,3.2789645989735923,1.688702108949273e+18,166.59727319335937,-1.202340563138326,-9.215856234232584,3.1298940976460776,1.688702108949273e+18,166.59727319335937,1.6311629215876262,0.0120645922919114,1.1483248472213743,1.688702108949273e+18,166.59727319335937,1.629992087682088,0.0166969833274682,1.150513768196106,,,,,,,,,,,,1.6887021089471775e+18,166.5951775390625,-29.56547966003418,41.17011947631836,-8.354559898376465,1.6887021089471775e+18,166.5951775390625,-284.1062744140625,136.63511657714844,-141.566357421875,1.688702108949273e+18,166.59727319335937,0.6426729957262675,-0.7454790075620016,0.0538622550666331,0.1678337653477986,-1.9222583373387656,1.2234012683232625,-1.0554922024408977
1.65,1.688702109001179e+18,166.6491787923177,-3.107679764429728,8.438656330108643,-0.2652627229690551,1.688702109001178e+18,166.64917822265625,-4.625924348831177,-0.9242277443408966,2.297408938407898,1.688702109001179e+18,166.6491787923177,-1.0122260451316831,-9.444482485453287,2.4464447498321533,1.688702109001179e+18,166.6491787923177,1.2224431832631428,-0.7887288530667623,0.6235916117827097,1.688702109001179e+18,166.6491787923177,1.22127232948939,-0.7840964247783025,0.625729630390803,,,,,,,,,,,,1.6887021089971802e+18,166.64518007812498,-31.461358642578126,40.54791946411133,-5.228919887542725,1.6887021089971802e+18,166.64518007812498,-286.0021545410156,136.01292114257814,-138.4407196044922,1.688702109001179e+18,166.6491787923177,0.6574837565422058,-0.7400113741556803,0.0361789713303247,0.1366263404488563,-1.9447919925053911,1.2991230885187786,-1.053277889887492
1.7,1.688702109053093e+18,166.70109301757813,0.3596065739790599,9.054373423258465,-0.07623024781545,1.6887021090444342e+18,166.69243416341146,-0.766700267791748,-0.46999025841554,1.983450611432393,1.688702109053093e+18,166.70109301757813,-0.8252733747164408,-9.537567138671877,2.142158031463623,1.688702109053093e+18,166.70109301757813,0.2801835231754618,-0.7094181577364603,0.4511748912433783,1.688702109053093e+18,166.70109301757813,0.2790636098749625,-0.7047857741514841,0.4533129222691059,,,,,,,,,,,,1.6887021090471803e+18,166.69518041992188,-33.32307891845703,39.723199462890626,-4.587199974060058,1.6887021090471803e+18,166.69518041992188,-287.86387329101564,135.18820190429688,-137.7989959716797,1.688702109053093e+18,166.70109301757813,0.6699391603469849,-0.7330479621887207,0.0445136452714601,0.1087072069446245,-1.915659467379252,1.3358865181605022,-1.1344870328903198
1.75,1.6887021091049964e+18,166.75299633789064,-0.4141828020413716,8.174860000610352,-0.1424914598464965,1.6887021090963476e+18,166.7443478190104,-1.1074780821800232,-0.8685946265856425,2.293321132659912,1.6887021091049964e+18,166.75299633789064,-1.159360905488332,-9.46164321899414,2.3039327462514243,1.6887021091049964e+18,166.75299633789064,-0.6747006724278132,-1.3648256460825603,-1.0538952747980754,1.6887021091049964e+18,166.75299633789064,-0.6758714665969213,-1.3601932724316914,-1.0517572561899822,,,,,,,,,,,,1.6887021090971858e+18,166.74518559570313,-32.100638961791994,39.857398986816406,-5.753519821166992,1.6887021090971858e+18,166.74518559570313,-286.6414367675781,135.32239685058593,-138.96531982421874,1.6887021091049964e+18,166.75299633789064,0.6581897139549255,-0.742997944355011,0.0644492966433365,0.1017071853081384,-2.0124420722325644,1.3058359622955322,-1.07601002852122
1.8,1.6887021091569009e+18,166.80490079752602,21.167070190111797,-11.308611551920572,0.1104755401611328,1.688702109148255e+18,166.79625472005208,15.315061728159586,-15.88734531402588,2.3086750507354736,1.6887021091569009e+18,166.80490079752602,-1.8829776843388877,-9.21606731414795,2.7735981146494546,1.6887021091569009e+18,166.80490079752602,-2.8676559925079346,-7.3545122146606445,1.8183931509653728,1.6887021091569009e+18,166.80490079752602,-2.8687758445739746,-7.349777857462565,1.820531169573466,,,,,,,,,,,,1.688702109147183e+18,166.7951830566406,-28.133200073242183,40.11115951538086,-14.862039756774902,1.688702109147183e+18,166.7951830566406,-282.6739929199219,135.57615661621094,-148.07383422851564,1.6887021091569009e+18,166.80490079752602,0.2053190469741821,-0.2638078530629476,0.0242570986350377,0.0323818602288762,-2.153080463409424,1.2219199736913045,-1.226685921351115
1.85,1.6887021092088054e+18,166.85680533854168,9.2363068262736,-7.079783121744792,2.403059720993042,1.6887021092001554e+18,166.8481554361979,10.772089004516602,-19.060228029886883,5.623930931091309,1.6887021092088054e+18,166.85680533854168,-1.9001755317052205,-9.083377838134766,3.1769275665283203,1.6887021092088054e+18,166.85680533854168,-0.1806124895811081,-0.7426085273424784,-0.8757262527942657,1.6887021092088054e+18,166.85680533854168,-0.1817324211200079,-0.7379251817862192,-0.8735882341861725,,,,,,,,,,,,1.6887021091971878e+18,166.84518774414065,-25.84691925048828,35.59715881347656,-26.32271957397461,1.6887021091971878e+18,166.84518774414065,-280.3877197265625,131.0621551513672,-159.53451843261718,1.6887021092088054e+18,166.85680533854168,-0.6361318429311117,0.717367927233378,-0.2830036183198293,0.023051503424843,-2.095461050669352,1.182862361272176,-1.4908925692240398
1.9,1.688702109252058e+18,166.90005798339843,0.3284817934036255,-5.77983283996582,6.986168384552002,1.6887021092520604e+18,166.90006030273435,-1.66719917456309,-14.056636492411297,9.699306646982828,1.688702109252058e+18,166.90005798339843,-2.131038546562195,-9.037863731384276,3.1637104749679565,1.688702109252058e+18,166.90005798339843,0.5296201705932617,3.2061262130737305,-0.939434379339218,1.688702109252058e+18,166.90005798339843,0.5285511612892151,3.210707664489746,-0.9372200071811676,,,,,,,,,,,,1.6887021092471803e+18,166.89518037109377,-24.892879486083984,37.15387878417969,-25.415039443969725,1.6887021092471803e+18,166.89518037109377,-279.4336730957031,132.61887817382814,-158.62683715820313,1.688702109252058e+18,166.90005798339843,0.0015234053134918,-0.0024540424346923,-0.011244460940361,0.0112809976562857,-2.150367856025696,1.1714439988136292,-1.347793996334076
1.95,1.688702109295318e+18,166.94331795247396,-0.3172473907470703,1.8219571113586424,2.5845840771993003,1.688702109303964e+18,166.95196402994793,-2.3461625973383584,-5.011966546376546,4.334000031153361,1.688702109295318e+18,166.94331795247396,-2.177333553632101,-8.969759941101074,3.317835728327433,1.688702109295318e+18,166.94331795247396,0.3639229734738667,2.2023728688557944,-1.5615242719650269,1.688702109295318e+18,166.94331795247396,0.3628030518690745,2.2070561250050864,-1.5593862533569336,,,,,,,,,,,,1.6887021092971812e+18,166.94518100585938,-25.978679275512697,38.96191940307617,-20.76927986145019,1.6887021092971812e+18,166.94518100585938,-280.51947021484375,134.42691650390626,-153.9810791015625,1.688702109295318e+18,166.94331795247396,0.6228471000989279,-0.7528477708498637,0.2043519516785939,0.0568183461825052,-2.1382339795430503,1.1547420422236123,-1.2169981797536211
2.0,1.6887021093472228e+18,166.99522306315103,0.612984299659729,6.158981959025065,-1.1634239355723064,1.6887021093558712e+18,167.00387125651042,-1.8925233284632368,-3.336791197458903,2.5036900838216147,1.6887021093472228e+18,166.99522306315103,-2.64375646909078,-8.826822598775228,3.3649449348449707,1.6887021093472228e+18,166.99522306315103,0.0931060363849004,1.1566733121871948,-1.0861693024635315,1.6887021093472228e+18,166.99522306315103,0.0919352223475774,1.1613566478093464,-1.0840312838554382,,,,,,,,,,,,1.6887021093471852e+18,166.99518510742186,-24.155999374389648,41.294559478759766,-18.248759841918947,1.6887021093471852e+18,166.99518510742186,-278.69678955078126,136.75955810546876,-151.46055908203124,1.6887021093472228e+18,166.99522306315103,0.6001544793446859,-0.7753623525301615,0.176557218035062,0.0856801221768061,-2.225395679473877,1.120905836423238,-1.0481215715408323
2.05,1.688702109399129e+18,167.04712947591145,0.0576163132985433,-2.027904828389486,1.992914040883382,1.6887021094077798e+18,167.05577978515626,-2.679562568664551,-11.271989186604818,6.177271048227946,1.688702109399129e+18,167.04712947591145,-2.520691712697347,-8.618204434712728,3.9396157264709473,1.688702109399129e+18,167.04712947591145,-1.1437942584355671,2.018349607785543,0.2605849305788676,1.688702109399129e+18,167.04712947591145,-1.1448632876078289,2.022931178410848,0.2627738714218139,,,,,,,,,,,,1.6887021093971868e+18,167.04518681640624,-24.651319122314455,41.07983932495117,-17.885199356079102,1.6887021093971868e+18,167.04518681640624,-279.1921142578125,136.54483642578126,-151.0969970703125,1.688702109399129e+18,167.04712947591145,0.5967569748560587,-0.7735363841056824,0.1664180010557174,0.1322930057843526,-2.1310645739237466,1.074329495429993,-1.0602856079737346
2.1,1.6887021094510328e+18,167.09903287760417,0.0654934247334798,1.7810834248860676,-0.9095383485158284,1.688702109459684e+18,167.10768383789062,-1.3206386764844258,-5.591029644012451,3.1549366315205893,1.6887021094510328e+18,167.09903287760417,-1.806135853131612,-8.532674789428711,4.48733123143514,1.6887021094510328e+18,167.09903287760417,-0.6731226046880087,0.9479101498921711,0.775493415693442,1.6887021094510328e+18,167.09903287760417,-0.6742425163586935,0.9524916211764016,0.7776314367850622,1.688702109433732e+18,167.08173217773438,0.0,0.0,1.2131072282791138,6.749000072479248,1.4703208208084106,127.9183120727539,42.900001525878906,-122.7560136,49.1898441,1.6887021094471834e+18,167.0951833984375,-27.95507926940918,39.43039932250976,-17.809559631347657,1.6887021094471834e+18,167.0951833984375,-282.4958740234375,134.89539794921876,-151.02135620117187,1.6887021094510328e+18,167.09903287760417,0.6171268622080485,-0.7503873507181803,0.1628572593132654,0.1716562062501907,-1.9437260230382285,1.055648684501648,-1.184993306795756
2.15,1.688702109502936e+18,167.15093619791665,1.0689518849054973,3.513678232828776,-2.7597391605377197,1.6887021095029325e+18,167.1509326171875,-0.751645416021347,-4.444967150688171,2.1897318363189697,1.688702109502936e+18,167.15093619791665,-1.969713568687439,-8.222397168477377,4.966843446095784,1.688702109502936e+18,167.15093619791665,-1.050840934117635,0.8766425450642904,-2.0005837281545005,1.688702109502936e+18,167.15093619791665,-1.051960865656535,0.8813258409500122,-1.998394767443339,,,,,,,,,,,,1.6887021094971845e+18,167.14518442382814,-28.46503944396973,38.80087890625,-17.931559371948243,1.6887021094971845e+18,167.14518442382814,-283.0058349609375,134.26587524414063,-151.1433563232422,1.688702109502936e+18,167.15093619791665,0.5993910233179728,-0.755847175916036,0.1631657928228378,0.2060178418954213,-1.938503901163737,0.9954476753870646,-1.1397924820582073
2.2,1.6887021095548403e+18,167.20284033203123,0.8441235621770223,-2.0537590980529785,-2.208402077356974,1.6887021095461888e+18,167.19418880208335,-2.012363831202189,-8.968897660573324,3.1336007118225098,1.6887021095548403e+18,167.20284033203123,-2.990349451700846,-7.598930199940999,5.419694264729817,1.6887021095548403e+18,167.20284033203123,-1.2458596626917522,-0.6749551768104235,-2.6811384359995523,1.6887021095548403e+18,167.20284033203123,-1.24703049659729,-0.6702719057599703,-2.6790003776550293,,,,,,,,,,,,1.6887021095471854e+18,167.19518544921874,-23.768039321899415,40.655279541015624,-19.58343963623047,1.6887021095471854e+18,167.19518544921874,-278.3088317871094,136.12027893066406,-152.79523620605468,1.6887021095548403e+18,167.20284033203123,0.5423449079195658,-0.7884900768597921,0.1680358499288558,0.2354521503051121,-2.0660219192504883,0.8885462085405985,-0.9743650952974956
2.25,1.6887021096067494e+18,167.25474951171876,1.9580573240915935,-5.843115488688151,-1.9717218081156416,1.688702109598096e+18,167.24609594726562,-2.4121646086374917,-12.064013799031576,3.652444362640381,1.6887021096067494e+18,167.25474951171876,-4.421930392583211,-6.707680702209473,5.6077399253845215,1.6887021096067494e+18,167.25474951171876,-1.978338082631429,-2.7736336390177407,-2.0108666022618613,1.6887021096067494e+18,167.25474951171876,-1.9795597394307456,-2.7689503033955893,-2.00867760181427,,,,,,,,,,,,1.6887021095971825e+18,167.245182421875,-16.27967948913574,41.52635955810547,-24.15356025695801,1.6887021095971825e+18,167.245182421875,-270.8204772949219,136.991357421875,-157.3653564453125,1.6887021096067494e+18,167.25474951171876,0.4744730095068614,-0.8233235081036886,0.2120933185021082,0.2263238728046417,-2.231008529663086,0.7556799252827963,-0.888988216718038
2.3,1.6887021096586534e+18,167.30665356445311,26.33197768529256,-11.64785893758138,-1.34806489944458,1.688702109650004e+18,167.2980040690104,17.312271277109783,-15.758531252543133,3.556133270263672,1.6887021096586534e+18,167.30665356445311,-6.239908059438069,-5.1828999519348145,5.445897897084554,1.6887021096586534e+18,167.30665356445311,-1.509244402249654,0.2249510288238525,-4.476776838302612,1.6887021096586534e+18,167.30665356445311,-1.5103134512901306,0.2296854654947916,-4.474638859430949,,,,,,,,,,,,1.6887021096471877e+18,167.29518779296876,-5.956039714813232,39.60607833862305,-30.20963935852051,1.6887021096471877e+18,167.29518779296876,-260.49683837890626,135.07107849121093,-163.42143859863282,1.6887021096586534e+18,167.30665356445311,0.3733230630556742,-0.8607841928799947,0.2739108204841613,0.2051261961460113,-2.418649752934774,0.5605171819527944,-0.8337395787239075
2.35,1.688702109701908e+18,167.34990783691407,-5.000046253204346,-8.375691413879395,-3.644475936889648,1.6887021097019057e+18,167.34990551757812,-9.773484071095783,-13.189038594563804,2.868196725845337,1.688702109701908e+18,167.34990783691407,-4.810988664627075,-4.8932507038116455,6.9882707595825195,1.688702109701908e+18,167.34990783691407,2.0344103574752808,7.383680820465088,1.2356276363134384,1.688702109701908e+18,167.34990783691407,2.033264935016632,7.388338804244995,1.2377657294273376,,,,,,,,,,,,1.688702109697183e+18,167.34518276367186,-6.319599723815918,38.94239883422851,-30.74887924194336,1.688702109697183e+18,167.34518276367186,-260.8603942871094,134.4073974609375,-163.96067504882814,1.688702109701908e+18,167.34990783691407,0.3816247582435607,-0.836573451757431,0.207476645708084,0.3323665112257004,-2.168428659439087,0.5248145312070847,-0.7692614197731018
2.4,1.6887021097451635e+18,167.39316365559895,-1.5930771827697754,-7.567973136901856,-8.760780016581217,1.688702109753811e+18,167.40181111653646,-0.0648056666056315,-14.211771647135416,-0.7457630137602488,1.6887021097451635e+18,167.39316365559895,-3.9036986033121743,-5.5010684331258135,7.119826793670654,1.6887021097451635e+18,167.39316365559895,0.3062471101681391,-1.1046988566716511,1.5280284881591797,1.6887021097451635e+18,167.39316365559895,0.3050253788630168,-1.100015600522359,1.5302683512369792,,,,,,,,,,,,1.6887021097471857e+18,167.39518564453124,-13.681079483032226,39.81591873168945,-28.128319549560548,1.6887021097471857e+18,167.39518564453124,-268.2218811035156,135.28092041015626,-161.34011535644532,1.6887021097451635e+18,167.39316365559895,0.4254542787869771,-0.8136932849884033,0.1864612102508544,0.3488981823126475,-2.0677858193715415,0.5975666443506876,-0.8129672408103943
2.45,1.6887021097970678e+18,167.44506770833334,11.789150476455688,-9.179622650146484,-2.3855783144632974,1.6887021098057196e+18,167.4537194824219,3.5684961875279746,-15.55195140838623,4.914857705434163,1.6887021097970678e+18,167.44506770833334,-3.581034501393636,-6.3458512624104815,6.5294731458028155,1.6887021097970678e+18,167.44506770833334,3.222263216972351,2.6868907809257507,1.2736031711101532,1.6887021097970678e+18,167.44506770833334,3.2210923433303833,2.6915740172068277,1.2757411499818168,,,,,,,,,,,,1.6887021097971825e+18,167.44518247070312,-15.559879684448244,41.113999938964845,-24.84407958984375,1.6887021097971825e+18,167.44518247070312,-270.1006713867188,136.57899780273436,-158.05587768554688,1.6887021097970678e+18,167.44506770833334,0.4654290775458017,-0.8080643018086752,0.1624762838085491,0.3197289903958638,-2.0645023187001548,0.7069995204607645,-0.8322085539499918
2.5,1.688702109848974e+18,167.49697403971354,1.6116046905517578,-6.936782677968343,0.579655647277832,1.6887021098576212e+18,167.50562141927082,0.4568296869595845,-15.205190976460775,6.559125741322835,1.688702109848974e+18,167.49697403971354,-2.258328358332316,-8.002249876658121,5.172215938568115,1.688702109848974e+18,167.49697403971354,4.301662127176921,0.6267986347277958,1.1699087619781494,1.688702109848974e+18,167.49697403971354,4.3004913330078125,0.6314819610367218,1.172046780586243,,,,,,,,,,,,1.6887021098471854e+18,167.49518544921875,-21.679399490356445,43.96147918701172,-13.393159866333008,1.6887021098471854e+18,167.49518544921875,-276.2201904296875,139.42647705078124,-146.6049591064453,1.688702109848974e+18,167.49697403971354,0.5433467030525208,-0.7809982299804688,0.0513644504050413,0.3020878434181213,-1.9767615000406904,0.9586286346117656,-0.7906798322995504
2.55,1.6887021099008796e+18,167.54887947591146,3.680773893992106,-5.997973442077637,6.663354237874349,1.6887021099095265e+18,167.55752628580728,1.2301102379957836,-13.33181126912435,10.695119857788086,1.6887021099008796e+18,167.54887947591146,-1.7095502614974976,-8.677849133809408,4.23707389831543,1.6887021099008796e+18,167.54887947591146,1.2224940260251362,0.2869539459546407,1.2260574301083882,1.6887021099008796e+18,167.54887947591146,1.2214250564575195,0.2915863394737243,1.2282464106877644,,,,,,,,,,,,1.6887021098971812e+18,167.54518110351563,-23.743639755249024,44.34211959838867,-7.610359859466553,1.6887021098971812e+18,167.54518110351563,-278.28443603515626,139.80711669921874,-140.82215576171876,1.6887021099008796e+18,167.54887947591146,0.582870622475942,-0.7648070653279623,0.01079389359802,0.2739892999331156,-1.9452805121739705,1.0879820585250854,-0.810581624507904
2.6,1.6887021099527793e+18,167.60077921549478,-0.6910296678543091,3.5370238622029624,1.9099092483520508,1.6887021099527846e+18,167.60078466796875,-1.5804593563079834,-5.42572546005249,5.330909967422485,1.6887021099527793e+18,167.60077921549478,-1.0296725630760193,-9.06767717997233,3.5869272549947104,1.6887021099527793e+18,167.60077921549478,1.838857094446818,-0.000203621884187,1.2432635227839153,1.6887021099527793e+18,167.60077921549478,1.8377881050109863,0.00442877287666,1.2454524437586467,1.6887021099527818e+18,167.60078173828126,0.0,0.0,1.2234947681427002,6.741000175476074,1.4737778902053833,127.92786407470705,42.900001525878906,-122.7560083,49.1898423,1.6887021099471882e+18,167.5951881835937,-27.3841194152832,42.91959915161133,-4.306600046157837,1.6887021099471882e+18,167.5951881835937,-281.92491455078124,138.3846008300781,-137.51839904785157,1.6887021099527793e+18,167.60077921549478,0.62058558066686,-0.7418077985445658,-0.0087468502266953,0.2535526603460312,-1.83885391553243,1.1818948984146118,-0.9223312139511108
2.65,1.6887021100046866e+18,167.65268660481772,-3.864255428314209,7.938400268554688,0.9399609565734864,1.6887021099960358e+18,167.64403556315105,-3.910270929336548,-1.873978892962138,3.861018737157186,1.6887021100046866e+18,167.65268660481772,-0.7041050990422567,-9.372940381368002,2.801341454188029,1.6887021100046866e+18,167.65268660481772,1.53581702709198,0.016442447900772,0.6731734871864319,1.6887021100046866e+18,167.65268660481772,1.534646193186442,0.021125758687655,0.6753115355968475,,,,,,,,,,,,1.6887021099971855e+18,167.64518544921876,-29.18971939086914,42.11683807373047,0.1659200072288513,1.6887021099971855e+18,167.64518544921876,-283.7305114746094,137.58183898925782,-133.0458770751953,1.6887021100046866e+18,167.65268660481772,0.6432603796323141,-0.7296018600463867,-0.0379249646017948,0.2288007934888203,-1.8030074834823608,1.2733975648880005,-0.9547963539759318
2.7,1.6887021100565952e+18,167.7045950520833,-2.1839386026064553,9.519464492797852,0.3862524032592773,1.688702110047944e+18,167.69594384765625,-3.357927759488424,-0.1842473496993383,2.937189737955729,1.6887021100565952e+18,167.7045950520833,-0.4209116498629252,-9.523894627888998,2.311579942703247,1.6887021100565952e+18,167.7045950520833,0.7826710939407349,-1.3332642714182537,0.9312640825907388,1.6887021100565952e+18,167.7045950520833,0.7814493576685587,-1.328682820002238,0.9334530035654705,,,,,,,,,,,,1.688702110047184e+18,167.69518388671875,-31.241759490966796,40.55035934448242,2.337519884109497,1.688702110047184e+18,167.69518388671875,-285.7825561523438,136.0153564453125,-130.87427978515626,1.6887021100565952e+18,167.7045950520833,0.6647511720657349,-0.7196822563807169,-0.036132851615548,0.1967447747786839,-1.7325149774551392,1.330052336057027,-1.0757632652918498
2.75,1.6887021101085002e+18,167.75650024414062,-0.0821034510930379,9.25813897450765,-0.5151764949162801,1.688702110099846e+18,167.74784602864585,-0.7427720328172048,-0.2225325008233387,1.9244276285171509,1.6887021101085002e+18,167.75650024414062,-0.5759861667950948,-9.549707412719728,2.1643543243408203,1.6887021101085002e+18,167.75650024414062,0.0951931575934092,-1.6546812454859416,-0.5102251938854655,1.6887021101085002e+18,167.75650024414062,0.0940732459227243,-1.650048851966858,-0.5080871718625227,,,,,,,,,,,,1.6887021100971814e+18,167.7451814453125,-32.676478958129884,39.718319702148435,1.4298399686813354,1.6887021100971814e+18,167.7451814453125,-287.21727294921874,135.18331604003907,-131.7819580078125,1.6887021101085002e+18,167.75650024414062,0.6676936745643616,-0.7258400917053223,-0.0133589935333778,0.164304902156194,-1.8105649948120115,1.341210961341858,-1.0774187644322712
2.8,1.6887021101517548e+18,167.79975488281252,0.4797095656394958,2.8305866718292236,-2.091333508491516,1.6887021101517489e+18,167.7997490234375,8.16470984617869,-8.004789670308432,0.5772684464852015,1.6887021101517548e+18,167.79975488281252,-1.54557603597641,-9.390054225921633,2.3519762754440308,1.6887021101517548e+18,167.79975488281252,-1.9162843227386477,-7.084433436393738,-1.87848699092865,1.6887021101517548e+18,167.79975488281252,-1.9174296855926511,-7.079851984977722,-1.8763489723205569,,,,,,,,,,,,1.688702110147183e+18,167.79518325195312,-30.270639419555664,41.248198699951175,-2.6620399221777915,1.688702110147183e+18,167.79518325195312,-284.8114379882812,136.71319885253905,-135.87383728027345,1.6887021101517548e+18,167.79975488281252,0.6393043398857117,-0.7571546137332916,0.0476463148370384,0.1192001663148403,-2.1290550231933594,1.2803536653518677,-0.910291999578476
2.85,1.6887021101950067e+18,167.84300699869792,25.0419823328654,-15.804328918457031,-0.330315351486206,1.6887021102036603e+18,167.85166031901042,15.79801344871521,-24.99223454793294,4.219742635885875,1.6887021101950067e+18,167.84300699869792,-1.9461239178975425,-9.11117966969808,3.046692132949829,1.6887021101950067e+18,167.84300699869792,-3.2890002727508545,-4.280027409394582,1.153822640577952,1.6887021101950067e+18,167.84300699869792,-3.2901711463928223,-4.275395035743713,1.1559606393178303,,,,,,,,,,,,1.6887021101971858e+18,167.84518569335938,-27.364599227905273,39.569479370117186,-17.653399848937987,1.6887021101971858e+18,167.84518569335938,-281.9053955078125,135.03447875976562,-150.86519470214844,1.6887021101950067e+18,167.84300699869792,0.6331963936487833,-0.746849536895752,0.1960144440333048,0.0430051398773988,-2.132011890411377,1.1929423411687214,-1.230556885401408
2.9,1.6887021102469143e+18,167.89491430664063,1.9542391697565715,-9.621492067972818,6.152734279632568,1.688702110255565e+18,167.90356502278647,0.20717853307724,-16.99163277943929,10.237292925516764,1.6887021102469143e+18,167.89491430664063,-2.1499157746632895,-8.874472618103027,3.5855793952941895,1.6887021102469143e+18,167.89491430664063,0.2360994319121042,1.2646437784036,-0.8470664819081625,1.6887021102469143e+18,167.89491430664063,0.2349285781383514,1.269276142120361,-0.8449284633000692,,,,,,,,,,,,1.6887021102471857e+18,167.895185546875,-25.688319396972656,37.97371978759766,-22.62855987548828,1.6887021102471857e+18,167.895185546875,-280.22910766601564,133.4387176513672,-155.8403533935547,1.6887021102469143e+18,167.89491430664063,0.6233774423599243,-0.7472165028254191,0.2218292752901712,0.0607969462871551,-2.1007444063822427,1.1308045784632366,-1.2747599283854167
2.95,1.6887021102988173e+18,167.9468171386719,1.9465319712956743,3.1552910804748535,1.8734374046325684,1.6887021103074673e+18,167.95546712239585,-2.0598214864730835,-3.9433716932932534,4.081956068674724,1.6887021102988173e+18,167.9468171386719,-2.4243621826171875,-8.80359141031901,3.5775365829467773,1.6887021102988173e+18,167.9468171386719,0.6184501449267069,1.7338391939798992,-2.0268508990605674,1.6887021102988173e+18,167.9468171386719,0.6173302332560221,1.7384206453959148,-2.024712880452474,,,,,,,,,,,,1.6887021102971863e+18,167.945186328125,-24.412199401855467,40.7528793334961,-18.951479721069337,1.6887021102971863e+18,167.945186328125,-278.9529968261719,136.21787719726564,-152.16327514648438,1.6887021102988173e+18,167.9468171386719,0.6070139606793722,-0.7683018445968628,0.1763531565666198,0.098761036992073,-2.1558045546213784,1.1150097449620564,-1.0984677871068318
3.0,1.6887021103507213e+18,167.99872151692708,0.5945887565612793,6.498318513234456,-1.6264114379882812,1.688702110359376e+18,168.0073758138021,-2.004587173461914,-3.161716302235922,2.383051951726278,1.6887021103507213e+18,167.99872151692708,-2.8901666005452475,-8.700356483459473,3.49074387550354,1.6887021103507213e+18,167.99872151692708,0.3388265818357467,0.9836966594060262,-0.5777767250935236,1.6887021103507213e+18,167.99872151692708,0.33765576283137,0.988379955291748,-0.5756386816501617,,,,,,,,,,,,1.6887021103471826e+18,167.99518261718748,-22.264999008178712,42.69511947631836,-16.538319969177245,1.6887021103471826e+18,167.99518261718748,-276.8057922363281,138.16011962890624,-149.75011596679687,1.6887021103507213e+18,167.99872151692708,0.5838503241539001,-0.7897206544876099,0.1469613810380299,0.11747025201718,-2.25374984741211,1.0922791560490923,-0.9307742516199748
3.05,1.6887021104026268e+18,168.0506268717448,-0.933069864908854,-2.357302983601888,2.4660568237304688,1.6887021104026304e+18,168.05063049316405,-3.510869026184082,-11.478370189666748,7.036394119262695,1.6887021104026268e+18,168.0506268717448,-2.354931195576986,-8.593891461690268,4.082624594370524,1.6887021104026268e+18,168.0506268717448,-1.2361367146174114,2.697580893834432,0.9734646677970886,1.6887021104026268e+18,168.0506268717448,-1.237307568391164,2.702162424723307,0.9756026963392892,,,,,,,,,,,,1.6887021103971827e+18,168.04518271484375,-24.700119400024413,42.321800231933594,-15.657479858398435,1.6887021103971827e+18,168.04518271484375,-279.24091796875,137.78679809570312,-148.86927490234376,1.6887021104026268e+18,168.0506268717448,0.5942626794179281,-0.7749625245730082,0.131492073337237,0.1685606986284255,-2.087027827898661,1.0690819025039673,-1.000389893849691
3.1,1.6887021104545364e+18,168.10253645833333,-0.8523789246877036,1.6088093121846516,-0.8042608896891276,1.6887021104458836e+18,168.0938837076823,-2.278764804204305,-8.535995960235596,4.63110876083374,1.6887021104545364e+18,168.10253645833333,-1.2749037742614746,-8.535076777140299,4.659621238708496,1.6887021104545364e+18,168.10253645833333,-0.555429220199585,0.8424849770963192,1.4869478344917295,1.6887021104545364e+18,168.10253645833333,-0.5566509564717611,0.8471174029012521,1.489085853099823,1.6887021104718267e+18,168.11982666015626,0.0,0.0,1.2234947681427002,6.7179999351501465,1.4731738567352295,128.09336853027344,42.900001525878906,-122.7559976,49.1898367,1.6887021104471846e+18,168.0951847167969,-29.06283950805664,39.64511947631836,-15.013319396972657,1.6887021104471846e+18,168.0951847167969,-283.60362548828124,135.11011962890626,-148.2251220703125,1.6887021104545364e+18,168.10253645833333,0.6256952087084452,-0.7392283082008362,0.1278360585371653,0.2134673396746317,-1.8293933471043904,1.0559260447820027,-1.1868897676467896
3.15,1.6887021105064374e+18,168.1544373372396,1.052954018115997,4.025833924611409,-2.737061103185018,1.6887021104977856e+18,168.14578564453126,-0.5665007755160332,-3.916851282119751,2.388635238011678,1.6887021105064374e+18,168.1544373372396,-1.3309836387634275,-8.323186874389648,5.011363824208577,1.6887021105064374e+18,168.1544373372396,-1.002277155717214,-0.1084794832083085,-1.5050192574659984,1.6887021105064374e+18,168.1544373372396,-1.0033970673878987,-0.1037961889621025,-1.5027794341246288,,,,,,,,,,,,1.688702110497184e+18,168.14518393554687,-30.64883918762207,38.41535949707031,-15.606239700317383,1.688702110497184e+18,168.14518393554687,-285.18963012695315,133.88035583496094,-148.81803283691406,1.6887021105064374e+18,168.1544373372396,0.618228018283844,-0.7387060125668844,0.1414105842510859,0.2277765820423761,-1.8212705850601196,1.013985315958659,-1.193180243174235
3.2,1.688702110558346e+18,168.20634602864584,1.2851184209187825,-0.4979489644368489,-2.6138468583424888,1.6887021105496906e+18,168.1976906738281,-1.0061819354693091,-7.611169974009196,2.7982067267100015,1.688702110558346e+18,168.20634602864584,-2.488970994949341,-7.755138715108235,5.449465910593669,1.688702110558346e+18,168.20634602864584,-1.3190616766611736,-0.8731809755166372,-2.8291714191436768,1.688702110558346e+18,168.20634602864584,-1.3201816479365032,-0.8684976796309153,-2.826982577641805,,,,,,,,,,,,1.6887021105471836e+18,168.1951835449219,-25.993319702148437,40.1989990234375,-18.143839645385743,1.6887021105471836e+18,168.1951835449219,-280.53411254882815,135.66399230957032,-151.3556365966797,1.688702110558346e+18,168.20634602864584,0.5601900815963745,-0.7750279108683268,0.1549349278211592,0.2469342698653538,-1.990527391433716,0.9136978983879088,-1.0135024388631184
3.25,1.6887021106015995e+18,168.249599609375,1.67954820394516,-3.984386682510376,-2.446879506111145,1.6887021106016013e+18,168.24960131835937,-2.0666011571884155,-11.102896372477211,3.211566766103109,1.6887021106015995e+18,168.249599609375,-3.750101089477539,-7.075082540512085,5.659069061279297,1.6887021106015995e+18,168.249599609375,-1.4750105142593384,-2.1044307947158813,-2.59235942363739,1.6887021106015995e+18,168.249599609375,-1.4761558175086975,-2.0996965765953064,-2.5902212858200073,,,,,,,,,,,,1.6887021105971814e+18,168.24518134765626,-18.3512393951416,41.57027893066406,-22.157639694213863,1.6887021105971814e+18,168.24518134765626,-272.89203491210935,137.0352752685547,-155.36943664550782,1.6887021106015995e+18,168.249599609375,0.500548243522644,-0.8102300763130188,0.1807602196931838,0.2450659647583961,-2.149943470954895,0.8075294196605682,-0.8936762511730194
3.3,1.6887021106448535e+18,168.292853515625,5.902165651321411,-7.641065915425618,-2.2161307334899902,1.6887021106535058e+18,168.3015059407552,12.226127902666729,-14.899308840433756,2.995614449183146,1.6887021106448535e+18,168.292853515625,-5.206715265909831,-6.199860731760661,5.489835739135742,1.6887021106448535e+18,168.292853515625,-2.0131064653396606,-4.4733662605285645,-3.0323859453201294,1.6887021106448535e+18,168.292853515625,-2.0141754150390625,-4.468682845433553,-3.030248006184896,,,,,,,,,,,,1.6887021106471836e+18,168.29518364257814,-9.486719608306885,41.033478546142575,-27.498799133300786,1.6887021106471836e+18,168.29518364257814,-264.0275146484375,136.49847717285155,-160.71059875488282,1.6887021106448535e+18,168.292853515625,0.435330073038737,-0.8418776988983154,0.2329958726962407,0.2138095796108245,-2.322200298309326,0.6869175831476847,-0.8501565257708231
3.35,1.688702110696758e+18,168.3447578938802,15.041993459065756,-11.430805206298828,-1.1605120499928792,1.68870211070541e+18,168.3534102376302,-3.111068248748779,-15.128621419270834,5.01435923576355,1.688702110696758e+18,168.3447578938802,-5.884725888570149,-4.6458156903584795,6.252363363901774,1.688702110696758e+18,168.3447578938802,0.3861177166302998,6.677266279856364,-2.7296513319015503,1.688702110696758e+18,168.3447578938802,0.3848960002263387,6.681949536005656,-2.7274624506632485,,,,,,,,,,,,1.688702110697184e+18,168.34518413085937,-0.4245599389076232,38.84967956542969,-31.21247978210449,1.688702110697184e+18,168.34518413085937,-254.9653503417969,134.3146759033203,-164.42427978515624,1.688702110696758e+18,168.3447578938802,0.3475609024365743,-0.8632140358289083,0.2285926093657811,0.278977558016777,-2.322557290395101,0.4955412447452545,-0.7356619834899902
3.4,1.688702110748663e+18,168.3966631673177,-3.730245590209961,-7.387446721394856,-8.089286804199219,1.6887021107573135e+18,168.4053134765625,-7.266204516092936,-13.01336638132731,-1.3154542942841847,1.688702110748663e+18,168.3966631673177,-4.192453543345134,-5.2251637776692705,7.164585113525391,1.688702110748663e+18,168.3966631673177,0.4233805139859517,0.1740965843200683,1.7242180109024048,1.688702110748663e+18,168.3966631673177,0.4222096999486287,0.1788308421770731,1.7263561089833577,,,,,,,,,,,,1.6887021107471864e+18,168.39518647460935,-9.808799743652344,40.50399932861328,-28.389399337768555,1.6887021107471864e+18,168.39518647460935,-264.34959716796874,135.9689971923828,-161.6011962890625,1.688702110748663e+18,168.3966631673177,0.3980550666650135,-0.8261046210924784,0.1716982970635096,0.3596553305784861,-2.0964810848236084,0.5637989441553751,-0.7403269410133362
3.45,1.6887021108005711e+18,168.44857080078123,14.162813663482666,-8.937479654947916,-3.722943147023519,1.6887021108092178e+18,168.4572177734375,10.092726270357767,-14.843077659606934,3.771886110305786,1.6887021108005711e+18,168.44857080078123,-4.443430741628011,-5.899857997894287,6.441313902537028,1.6887021108005711e+18,168.44857080078123,1.8828903237978616,0.0307978391647338,1.5886568427085876,1.6887021108005711e+18,168.44857080078123,1.881770352522532,0.0354301532109578,1.5907949010531108,,,,,,,,,,,,1.6887021107971863e+18,168.44518623046875,-10.179679679870606,40.159959411621095,-28.389399337768555,1.6887021107971863e+18,168.44518623046875,-264.72047729492186,135.6249572753906,-161.6011993408203,1.6887021108005711e+18,168.44857080078123,0.4316132167975108,-0.8296339710553488,0.1902883450190226,0.2976559996604919,-2.1698307196299234,0.6475983063379923,-0.8021678328514099
3.5,1.688702110852477e+18,168.50047672526043,-0.1970458030700683,-6.829669157663981,0.1812041600545247,1.6887021108524652e+18,168.5004649658203,-3.2967113256454468,-14.109278678894045,5.546263694763184,1.688702110852477e+18,168.50047672526043,-2.9280439217885337,-7.50457779566447,5.556111017862956,1.688702110852477e+18,168.50047672526043,4.498615185419719,1.6062701418995855,1.9931005636850991,1.688702110852477e+18,168.50047672526043,4.497495253880818,1.6110043562948704,1.9952386220296223,,,,,,,,,,,,1.6887021108471823e+18,168.49518237304687,-16.733519744873046,43.12943954467774,-19.744479751586915,1.6887021108471823e+18,168.49518237304687,-271.27431030273436,138.5944396972656,-152.9562744140625,1.688702110852477e+18,168.50047672526043,0.513785719871521,-0.7990628083546957,0.0912143029272555,0.296497215827306,-2.050321181615194,0.8757284879684448,-0.7812604308128357
3.55,1.688702110904375e+18,168.55237483723957,2.8296199242273965,-8.198440551757812,6.502919991811116,1.6887021108957317e+18,168.5437314453125,-0.376271386941274,-16.689339955647785,9.876575152079264,1.688702110904375e+18,168.55237483723957,-2.2282872200012207,-8.489347457885742,4.3753743171691895,1.688702110904375e+18,168.55237483723957,1.4756468137105303,-0.9687813917795816,1.6705128351847331,1.688702110904375e+18,168.55237483723957,1.474577804406484,-0.9640980760256448,1.6726508537928264,,,,,,,,,,,,1.68870211089718e+18,168.54517993164063,-22.36015968322754,44.634918975830075,-11.694919776916503,1.68870211089718e+18,168.54517993164063,-276.9009582519531,140.09991760253905,-144.9067169189453,1.688702110904375e+18,168.55237483723957,0.5715096195538839,-0.7804436882336935,0.0521148095528284,0.2476270546515782,-2.0350937048594155,1.0480255683263142,-0.819200317064921
3.6,1.6887021109562862e+18,168.60428621419268,1.7650435368220012,1.1072513262430828,3.707297722498576,1.6887021109476352e+18,168.59563517252604,1.407777269681295,-9.515058994293211,8.954540729522705,1.6887021109562862e+18,168.60428621419268,-1.4299123684565227,-8.926839192708334,3.790735960006714,1.6887021109562862e+18,168.60428621419268,1.605913798014323,0.6117815574010214,1.8600846926371255,1.6887021109562862e+18,168.60428621419268,1.604793945948283,0.6165157457192739,1.862222671508789,,,,,,,,,,,,1.688702110947183e+18,168.595183203125,-25.815199661254884,43.500318908691405,-9.225639915466308,1.688702110947183e+18,168.595183203125,-280.3559875488281,138.96531372070314,-142.43743896484375,1.6887021109562862e+18,168.60428621419268,0.6148193677266439,-0.7546632885932922,0.0381888039410113,0.2251092543204625,-1.9200395743052163,1.1454694271087646,-0.9502727389335632
3.65,1.6887021110081915e+18,168.65619156901042,-2.8880303700764975,7.083736260732015,0.3462079366048177,1.6887021109995405e+18,168.64754044596353,-3.057628552118937,-2.80977193514506,3.667200088500977,1.6887021110081915e+18,168.65619156901042,-0.6585951248804728,-9.270819028218588,3.1314852237701416,1.6887021110081915e+18,168.65619156901042,1.316516399383545,0.6820310552914938,1.1619675159454346,1.6887021110081915e+18,168.65619156901042,1.3153964678446453,0.6867143511772156,1.1641055345535278,1.6887021109908895e+18,168.6388896484375,0.0,0.0,1.2330876588821411,6.704999923706055,1.474028468132019,128.34385681152344,42.900001525878906,-122.7559946,49.1898345,1.6887021109971878e+18,168.64518779296876,-29.687479400634764,41.77035903930664,-4.450559854507446,1.6887021109971878e+18,168.64518779296876,-284.228271484375,137.2353546142578,-137.6623565673828,1.6887021110081915e+18,168.65619156901042,0.6503450671831766,-0.7291482090950012,0.0070604126279552,0.2126230398813883,-1.7653493881225586,1.238986651102702,-1.0804075002670288
3.7,1.6887021110514458e+18,168.69944580078123,-5.023688197135925,8.591406345367432,0.1632667779922485,1.688702111051447e+18,168.69944685872397,-4.834100008010864,-0.8715856472651163,2.978465954462687,1.6887021110514458e+18,168.69944580078123,-0.1536457687616348,-9.405706882476808,2.780328392982483,1.6887021110514458e+18,168.69944580078123,0.7715228199958801,-0.4317290186882019,1.6292539834976196,1.6887021110514458e+18,168.69944580078123,0.7703774571418762,-0.4270711541175842,1.631392002105713,,,,,,,,,,,,1.688702111047183e+18,168.69518325195313,-32.759439086914064,40.17947998046875,-1.5054799795150755,1.688702111047183e+18,168.69518325195313,-287.30023803710935,135.64447937011718,-134.71727905273437,1.6887021110514458e+18,168.69944580078123,0.6732000112533569,-0.711323618888855,-0.0029279896407387,0.201869785785675,-1.6124123930931091,1.283077597618103,-1.2354689240455627
3.75,1.688702111094697e+18,168.74269702148436,-1.9852787256240845,8.614274342854818,0.1493574778238932,1.688702111103348e+18,168.7513479817708,-1.4271193146705627,-0.5621139208475748,2.906481901804606,1.688702111094697e+18,168.74269702148436,0.1243970071276028,-9.441635767618816,2.659940481185913,1.688702111094697e+18,168.74269702148436,0.2888374477624893,-0.8616763353347778,0.4876740723848343,1.688702111094697e+18,168.74269702148436,0.2877175360918044,-0.8570439219474792,0.4898121058940888,,,,,,,,,,,,1.6887021110971832e+18,168.74518325195314,-35.153079223632815,38.36411895751953,-1.4859599828720094,1.6887021110971832e+18,168.74518325195314,-289.6938720703125,133.82911682128906,-134.6977569580078,1.688702111094697e+18,168.74269702148436,0.6882741848627726,-0.7012162009874979,0.0078095456119626,0.18564107020696,-1.5102823575337727,1.2957234382629397,-1.376727302869161
3.8,1.6887021111466076e+18,168.79460766601562,-0.5169957876205444,8.82679557800293,-0.7839017311731974,1.6887021111552563e+18,168.80325634765623,-0.9990034302075704,-0.8317052920659384,1.7274185021718342,1.6887021111466076e+18,168.79460766601562,-0.338900476694107,-9.422850608825684,2.6966888109842935,1.6887021111466076e+18,168.79460766601562,-0.1194750567277272,-1.6055065790812175,-1.1109602650006611,1.6887021111466076e+18,168.79460766601562,-0.1205949845413366,-1.6008232831954956,-1.108822246392568,,,,,,,,,,,,1.6887021111471826e+18,168.7951826171875,-34.152679443359375,38.93995971679688,-3.2329999923706056,1.6887021111471826e+18,168.7951826171875,-288.6934753417969,134.4049560546875,-136.44479675292968,1.6887021111466076e+18,168.79460766601562,0.6764605045318604,-0.7171901265780131,0.0294866121063629,0.164123107989629,-1.680052399635315,1.2892796595891316,-1.2689344088236492
3.85,1.688702111198508e+18,168.8465079752604,24.506155570348103,-9.95730972290039,-1.4556721846262617,1.6887021112071557e+18,168.85515551757814,21.558334430058796,-23.557936986287434,2.517648140589396,1.688702111198508e+18,168.8465079752604,-1.5712141593297322,-9.19727897644043,3.014321565628052,1.688702111198508e+18,168.8465079752604,-2.3082560698191323,-7.229081153869629,0.4425717989603678,1.688702111198508e+18,168.8465079752604,-2.3094269831975303,-7.224397818247477,0.4447608391443888,,,,,,,,,,,,1.688702111197184e+18,168.84518398437498,-28.83591918945313,40.66259994506836,-11.33623971939087,1.688702111197184e+18,168.84518398437498,-283.3767150878906,136.12760009765626,-144.54803771972655,1.688702111198508e+18,168.8465079752604,0.6416524251302084,-0.7467572689056396,0.1327647889653841,0.0924868484338124,-2.0374956925710044,1.2168306509653728,-1.1623457670211792
3.9,1.6887021112504087e+18,168.89840885416666,8.685291290283203,-15.187193552652994,6.068631490071614,1.6887021112590574e+18,168.90705761718752,3.822933117548625,-21.620747884114586,10.216953913370768,1.6887021112504087e+18,168.89840885416666,-1.897315462430318,-8.930507977803549,3.5871299107869468,1.6887021112504087e+18,168.89840885416666,-0.8000807265440623,0.07462739944458,-0.7795149485270182,1.6887021112504087e+18,168.89840885416666,-0.8013025224208832,0.0793106655279795,-0.7773260225852331,,,,,,,,,,,,1.688702111247178e+18,168.8951778808594,-26.06895980834961,37.6809196472168,-22.767639923095704,1.688702111247178e+18,168.8951778808594,-280.60975952148436,133.1459167480469,-155.97944030761718,1.6887021112504087e+18,168.89840885416666,0.6344519257545471,-0.7349556088447571,0.2342406411965688,0.0477334310611088,-2.0480872790018716,1.1441402435302734,-1.3642155329386394
3.95,1.6887021113023153e+18,168.95031518554686,-1.2356137832005818,0.3534043629964192,2.998068332672119,1.6887021113023117e+18,168.9503116455078,-2.4658037424087524,-8.439485549926758,6.8431737422943115,1.6887021113023153e+18,168.95031518554686,-1.717791001001994,-8.883062044779459,3.789097706476847,1.6887021113023153e+18,168.95031518554686,0.5070690711339315,4.610709031422933,-1.0358747243881226,1.6887021113023153e+18,168.95031518554686,0.5059491296609243,4.615392525990804,-1.0337366859118144,,,,,,,,,,,,1.6887021112971753e+18,168.94517534179687,-27.23283920288086,39.266919708251955,-19.178399658203126,1.6887021112971753e+18,168.94517534179687,-281.77362670898435,134.73191528320314,-152.39020080566405,1.6887021113023153e+18,168.95031518554686,0.6321296493212382,-0.7466089924176534,0.1667632361253102,0.1182388141751289,-1.9879263242085776,1.132952054341634,-1.2240235010782878
4.0,1.6887021113542216e+18,169.00222151692708,-1.5316237211227417,8.188223838806152,-2.698707183202108,1.688702111345571e+18,168.9935713704427,-3.626721461613973,-0.9599206745624542,1.6261223554611206,1.6887021113542216e+18,169.00222151692708,-1.6205846865971882,-8.855265935262045,3.8978349367777505,1.6887021113542216e+18,169.00222151692708,0.1975640008846918,1.018108715613683,-0.4775439103444417,1.6887021113542216e+18,169.00222151692708,0.1964440792798995,1.0227411389350891,-0.4754058718681335,,,,,,,,,,,,1.6887021113471808e+18,168.99518081054686,-28.501639556884765,40.48203887939453,-13.95923957824707,1.6887021113471808e+18,168.99518081054686,-283.042431640625,135.94703369140626,-147.17103881835936,1.6887021113542216e+18,169.00222151692708,0.6254428029060364,-0.7531017462412516,0.1165349458654721,0.1674635112285613,-1.956289331118266,1.126779556274414,-1.1114489634831748
4.05,1.6887021114061258e+18,169.05412573242188,-0.0931103229522705,1.2941222190856934,1.2644983927408853,1.6887021113974764e+18,169.0454765625,-1.8783657550811768,-5.354738156000773,4.136592189470927,1.6887021114061258e+18,169.05412573242188,-1.678040623664856,-8.735644022623697,4.131041924158732,1.6887021114061258e+18,169.05412573242188,-1.1333077251911163,0.4109087055549025,-0.1399390461544195,1.6887021114061258e+18,169.05412573242188,-1.1344785789648693,0.4156428948044777,-0.1377501152455806,,,,,,,,,,,,1.6887021113971825e+18,169.0451824707031,-28.440639877319335,40.794359588623045,-13.376079750061034,1.6887021113971825e+18,169.0451824707031,-282.98143310546874,136.25936279296874,-146.58787841796874,1.6887021114061258e+18,169.05412573242188,0.6192267338434855,-0.7544917464256287,0.1198816125591595,0.1811412374178568,-1.9491231441497805,1.099665681521098,-1.1033271153767903
4.1,1.688702111458037e+18,169.106037109375,-0.1642137169837951,-2.3799118995666504,1.9638111591339111,1.688702111449385e+18,169.09738476562498,-1.6636099815368652,-12.162717501322428,7.7924262682596845,1.688702111458037e+18,169.106037109375,-1.4153119723002117,-8.431701024373373,4.808399836222331,1.688702111458037e+18,169.106037109375,-0.7392487674951553,1.5437074104944866,-0.0164933626850446,1.688702111458037e+18,169.106037109375,-0.7404195666313171,1.5483907063802085,-0.0143553341428438,,,,,,,,,,,,1.688702111447187e+18,169.09518701171876,-29.099439239501955,40.098959350585936,-14.942560005187987,1.688702111447187e+18,169.09518701171876,-283.64024047851564,135.56395568847657,-148.15435485839845,1.688702111458037e+18,169.106037109375,0.6151096026102701,-0.7447851896286011,0.1246651808420816,0.2264356364806492,-1.8500399589538576,1.03503680229187,-1.1421424547831218
4.15,1.6887021115012915e+18,169.14929162597656,-0.2199276685714721,4.9454498291015625,-2.749942898750305,1.6887021115012913e+18,169.14929117838545,-1.324427366256714,-3.7018960316975913,2.46201511224111,1.6887021115012915e+18,169.14929162597656,-1.3074544668197632,-8.302423477172852,5.058243751525879,1.6887021115012915e+18,169.14929162597656,-0.7351763248443604,1.1782063245773315,-1.059698462486267,1.6887021115012915e+18,169.14929162597656,-0.7363216876983643,1.182787835597992,-1.0575604438781738,1.688702111509945e+18,169.15794506835937,0.0,0.0,1.2330876588821411,6.704999923706055,1.4717642068862915,128.3321533203125,42.900001525878906,-122.7559883,49.1898302,1.6887021114971822e+18,169.1451821777344,-29.511798858642575,39.99647903442383,-14.069039726257325,1.6887021114971822e+18,169.1451821777344,-284.05259399414064,135.46147766113282,-147.2808349609375,1.6887021115012915e+18,169.14929162597656,0.6082099974155426,-0.7431260943412781,0.1119654513895511,0.2554212734103203,-1.8167728781700136,1.0099433064460754,-1.1132778525352478
4.2,1.6887021115445422e+18,169.19254231770833,0.0388203064600626,1.9287476539611816,-3.305234909057617,1.6887021115531896e+18,169.20118953450523,-1.8743777672449748,-6.914459705352783,2.4713870684305825,1.6887021115445422e+18,169.19254231770833,-1.770090897878011,-7.916828950246175,5.507952372233073,1.6887021115445422e+18,169.19254231770833,-1.401783029238383,-0.0070758548875649,-1.6955074071884155,1.6887021115445422e+18,169.19254231770833,-1.4029029607772827,-0.0024943699439366,-1.693318486213684,,,,,,,,,,,,1.6887021115471808e+18,169.19518076171877,-26.99615936279297,41.14327850341797,-15.574519729614256,1.6887021115471808e+18,169.19518076171877,-281.5369567871094,136.6082763671875,-148.78631591796875,1.6887021115445422e+18,169.19254231770833,0.5757927497227987,-0.75827028354009,0.1155210162202516,0.2826571067174275,-1.874759117762248,0.9407057166099548,-1.0175545811653135
4.25,1.6887021115964526e+18,169.24445255533854,0.7050938606262207,-2.932481606801351,-2.819988568623861,1.6887021116051018e+18,169.25310196940106,-2.105285088221232,-10.82333501180013,3.2097721099853516,1.6887021115964526e+18,169.24445255533854,-2.822605848312378,-7.328582922617595,5.8649795850118,1.6887021115964526e+18,169.24445255533854,-1.4258612791697185,-2.350609461466471,-1.5038484732309978,1.6887021115964526e+18,169.24445255533854,-1.426981250445048,-2.3458751837412515,-1.501710375150045,,,,,,,,,,,,1.6887021115971812e+18,169.24518110351562,-21.967319869995116,41.4702392578125,-19.93723945617676,1.6887021115971812e+18,169.24518110351562,-276.50811157226565,136.93524169921875,-153.14903564453124,1.6887021115964526e+18,169.24445255533854,0.5288441181182861,-0.7868226766586304,0.1507499416669209,0.2792497177918752,-2.0128050247828164,0.8454122145970663,-0.9342266718546548
4.3,1.6887021116483564e+18,169.29635628255207,4.807037512461345,-6.850320339202881,-1.8729239304860432,1.6887021116570038e+18,169.3050038248698,3.635694699982802,-14.098910013834637,3.79820720354716,1.6887021116483564e+18,169.29635628255207,-4.576791683832805,-6.530386447906494,5.657496611277263,1.6887021116483564e+18,169.29635628255207,-1.9135353962580364,-5.619603951772054,-2.522211750348409,1.6887021116483564e+18,169.29635628255207,-1.9146552483240764,-5.614869912465413,-2.5200736920038858,,,,,,,,,,,,1.6887021116471782e+18,169.29517807617188,-13.71523962020874,40.77483901977539,-26.337359619140624,1.6887021116471782e+18,169.29517807617188,-268.25603637695315,136.23983764648438,-159.54915771484374,1.6887021116483564e+18,169.29635628255207,0.4652990003426869,-0.8246838053067526,0.2250821739435195,0.2247121135393778,-2.243051290512085,0.7307517131169637,-0.8998898466428121
4.35,1.6887021117002606e+18,169.3482606608073,19.361247062683105,-11.732960065205893,0.3637585639953613,1.6887021117089124e+18,169.35691227213542,5.195815404256185,-15.3571351369222,6.240082820256551,1.6887021117002606e+18,169.3482606608073,-6.330596764882405,-4.616243203481038,5.82460355758667,1.6887021117002606e+18,169.3482606608073,0.162439255664746,4.928053776423137,-4.945666948954265,1.6887021117002606e+18,169.3482606608073,0.1612683969239393,4.932686169942221,-4.943477988243103,,,,,,,,,,,,1.6887021116971853e+18,169.34518520507814,0.724679970741272,39.15223922729492,-31.63459930419922,1.6887021116971853e+18,169.34518520507814,-253.81611328125,134.61723937988282,-164.84639587402344,1.6887021117002606e+18,169.3482606608073,0.3375702599684397,-0.872379720211029,0.2436071981986363,0.2469554245471953,-2.3964590231577554,0.4923604925473531,-0.7379576365152994
4.4,1.688702111752165e+18,169.4001650390625,-3.0959479014078775,-4.393349806467692,-8.300994237263998,1.688702111752167e+18,169.40016687011718,-6.641578435897827,-8.344969272613525,-1.6710875332355497,1.688702111752165e+18,169.4001650390625,-4.436122894287109,-4.935111999511719,7.21776819229126,1.688702111752165e+18,169.4001650390625,0.862948993841807,2.291304588317871,1.0513500173886616,1.688702111752165e+18,169.4001650390625,0.8617781003316244,2.295987844467163,1.053538938363393,,,,,,,,,,,,1.688702111747185e+18,169.39518486328126,-7.341959714889526,40.88951873779297,-28.4552791595459,1.688702111747185e+18,169.39518486328126,-261.88275756835935,136.3545166015625,-161.66707458496094,1.688702111752165e+18,169.4001650390625,0.372473527987798,-0.836076021194458,0.1597148030996322,0.369350403547287,-2.11834987004598,0.5293043454488119,-0.6798599163691202
4.45,1.6887021118040712e+18,169.45207120768228,11.810980161031088,-10.69583002726237,-5.775006930033366,1.6887021117954204e+18,169.44342049153644,4.736392815907796,-15.449459075927734,0.9637093345324198,1.6887021118040712e+18,169.45207120768228,-4.540451844533284,-5.338916460673015,6.856886386871338,1.6887021118040712e+18,169.45207120768228,0.528907467921575,-0.7067710955937704,1.8877263466517131,1.6887021118040712e+18,169.45207120768228,0.5277366240819296,-0.7020369370778403,1.8899152676264448,,,,,,,,,,,,1.688702111797181e+18,169.4451809082031,-8.959679985046387,40.32099838256836,-29.133599090576173,1.688702111797181e+18,169.4451809082031,-263.50047607421874,135.78599548339844,-162.34539794921875,1.6887021118040712e+18,169.45207120768228,0.4013872841993968,-0.8335637251536051,0.1871600945790608,0.3296381632486979,-2.151974360148112,0.5775136152903239,-0.7598556081453959
4.5,1.688702111855974e+18,169.50397403971354,0.6640310684839885,-6.6417131423950195,-3.14129376411438,1.6887021118473257e+18,169.49532592773437,-1.8642082611719768,-13.52004591623942,2.81974204381307,1.688702111855974e+18,169.50397403971354,-3.3135472933451333,-6.716261863708496,6.301937898000081,1.688702111855974e+18,169.50397403971354,3.8862737814585366,1.442558328310649,1.9881627957026164,1.688702111855974e+18,169.50397403971354,3.8851539293924966,1.447241557141145,1.990351676940918,,,,,,,,,,,,1.688702111847181e+18,169.49518120117187,-14.544839668273926,41.84355926513672,-24.65863952636719,1.688702111847181e+18,169.49518120117187,-269.08563232421875,137.30855712890624,-157.8704376220703,1.688702111855974e+18,169.50397403971354,0.4743416210015614,-0.807503322760264,0.1214752544959385,0.3271449903647105,-2.0501283009847007,0.757884701093038,-0.7734748919804891
4.55,1.6887021119078728e+18,169.5558728841146,2.3930424054463706,-7.671289126078288,2.495627244313558,1.6887021118992228e+18,169.54722257486978,-0.5413761412103971,-15.102299690246582,6.344369888305664,1.6887021119078728e+18,169.5558728841146,-2.506565491358439,-8.120585759480795,4.876783529917399,1.6887021119078728e+18,169.5558728841146,2.7796913782755532,-1.1427761316299438,2.377793073654175,1.6887021119078728e+18,169.5558728841146,2.7784696420033774,-1.13814377784729,2.3799309730529785,,,,,,,,,,,,1.6887021118971802e+18,169.54518017578124,-20.25199966430664,44.00783920288086,-16.735959434509276,1.6887021118971802e+18,169.54518017578124,-274.79279174804685,139.47283935546875,-149.9477569580078,1.6887021119078728e+18,169.5558728841146,0.5505512952804565,-0.7879182497660319,0.07279701034228,0.2646983067194621,-2.0400885740915933,0.978417952855428,-0.816535751024882
4.6,1.6887021119511383e+18,169.59913818359374,3.9503040313720703,-7.006690502166748,8.220454454421997,1.6887021119511327e+18,169.59913240559897,1.5842479864756267,-14.973685582478842,11.781461079915363,1.6887021119511383e+18,169.59913818359374,-1.9096885323524475,-8.68019962310791,4.149066686630249,1.6887021119511383e+18,169.59913818359374,1.5490779280662537,0.5239696926437319,1.2773191928863523,1.6887021119511383e+18,169.59913818359374,1.547932505607605,0.5286275208927691,1.2794572710990906,,,,,,,,,,,,1.6887021119471836e+18,169.5951834472656,-24.7903995513916,43.712599182128905,-12.375679779052737,1.6887021119471836e+18,169.5951834472656,-279.331201171875,139.17759704589844,-145.5874755859375,1.6887021119511383e+18,169.59913818359374,0.591993123292923,-0.7697879374027252,0.0559190325438975,0.2318672984838485,-1.9953594207763672,1.0876697301864624,-0.8892615437507629
4.65,1.6887021119943852e+18,169.64238517252605,0.7698928713798523,3.0707701047261557,3.442120313644409,1.6887021120030433e+18,169.65104345703125,-0.9423733477791152,-4.93080997467041,6.059823354085286,1.6887021119943852e+18,169.64238517252605,-1.2481219967206318,-9.038911501566568,3.589512507120768,1.6887021119943852e+18,169.64238517252605,1.6756542921066284,0.8149960438410441,1.3760757843653362,1.6887021119943852e+18,169.64238517252605,1.6744834184646606,0.819679339726766,1.3782138029734294,,,,,,,,,,,,1.6887021119971832e+18,169.64518310546876,-27.66471939086914,43.20995864868164,-7.729919910430908,1.6887021119971832e+18,169.64518310546876,-282.20551147460935,138.67495727539062,-140.94171752929688,1.6887021119943852e+18,169.64238517252605,0.6224756836891174,-0.7492162982622782,0.0238669334600368,0.2244622359673181,-1.895193338394165,1.1736348470052085,-0.956002414226532
4.7,1.688702112046297e+18,169.69429720052082,-4.368943611780803,7.059453964233398,0.4747501214345296,1.6887021120549486e+18,169.70294856770832,-5.460022449493408,-1.9828524192174275,3.3336007595062256,1.688702112046297e+18,169.69429720052082,-0.5720992386341095,-9.307154973347982,3.040630022684733,1.688702112046297e+18,169.69429720052082,1.097572127978007,0.1783217489719391,1.2648473978042605,1.688702112046297e+18,169.69429720052082,1.096401333808899,0.1829541325569152,1.2669854164123535,1.6887021120289974e+18,169.67699731445313,0.0,0.0,1.2434706687927246,6.702000141143799,1.468163251876831,128.31947326660156,42.900001525878906,-122.7559832,49.1898264,1.688702112047184e+18,169.6951837890625,-31.024599838256837,42.12171936035156,-3.923519992828369,1.688702112047184e+18,169.6951837890625,-285.5653930664063,137.58671875,-137.13531799316405,1.688702112046297e+18,169.69429720052082,0.6529629429181417,-0.7262999614079794,-0.001360772177577,0.2145121544599532,-1.744882345199585,1.2503713766733806,-1.0862006346384685
4.75,1.6887021120982016e+18,169.74620182291667,-2.554773132006327,8.583722750345865,0.1292930444081624,1.6887021121068536e+18,169.75485384114583,-1.739781419436137,-0.6903293430805206,2.8448667526245117,1.6887021120982016e+18,169.74620182291667,-0.1766973212361335,-9.439000447591146,2.664850393931071,1.6887021120982016e+18,169.74620182291667,0.650571475426356,-0.853124221165975,0.9366600314776102,1.6887021120982016e+18,169.74620182291667,0.6494515637556711,-0.8484409054120382,0.9387980500857036,,,,,,,,,,,,1.688702112097181e+18,169.74518090820314,-34.11851959228515,40.19655914306641,-2.23503999710083,1.688702112097181e+18,169.74518090820314,-288.65932006835936,135.66155700683595,-135.44683837890625,1.6887021120982016e+18,169.74620182291667,0.6759618520736694,-0.7122764388720194,0.0018561063334345,0.1888522754112879,-1.6243125597635906,1.29524560769399,-1.2494852145512898
4.8,1.6887021121501012e+18,169.7981014811198,-0.7792093356450399,8.724800745646158,-0.1421515941619873,1.688702112158751e+18,169.80675113932293,-0.837687353293101,-0.7593223849932352,2.3054846127827964,1.6887021121501012e+18,169.7981014811198,-0.1987208773692449,-9.461234410603842,2.5835530757904053,1.6887021121501012e+18,169.7981014811198,0.1076649973789851,-0.9038260380427042,-0.180816113948822,1.6887021121501012e+18,169.7981014811198,0.1065450757741928,-0.8991427421569824,-0.178678090373675,,,,,,,,,,,,1.688702112147183e+18,169.7951830566406,-34.423519134521484,39.857398986816406,-2.9206799507141112,1.688702112147183e+18,169.7951830566406,-288.9643188476563,135.32239685058593,-136.13247680664062,1.6887021121501012e+18,169.7981014811198,0.6798561811447144,-0.7128911813100179,0.0142005281522869,0.1712471942106882,-1.6346245209376018,1.303529898325602,-1.2823981046676636
4.85,1.6887021122020052e+18,169.85000528971352,3.2556118170420327,1.11244535446167,-0.8332382043202718,1.6887021122020017e+18,169.85000170898437,-5.066502809524536,-5.043771028518677,1.7356937527656555,1.6887021122020052e+18,169.85000528971352,-1.120080848534902,-9.27979056040446,2.916713317235311,1.6887021122020052e+18,169.85000528971352,-1.935017506281535,-5.820375005404155,-1.5557719270388286,1.6887021122020052e+18,169.85000528971352,-1.936188280582428,-5.815640846888225,-1.553633948167165,,,,,,,,,,,,1.6887021121971784e+18,169.84517836914063,-32.205559158325194,40.99443893432617,-7.017439937591552,1.6887021121971784e+18,169.84517836914063,-286.74635620117186,136.45943603515624,-140.22923889160157,1.6887021122020052e+18,169.85000528971352,0.6513653596242269,-0.7405283053716024,0.0717422446856895,0.1393971219658851,-1.9101856549580891,1.2435891230901082,-1.1346048911412556
4.9,1.6887021122539077e+18,169.90190747070312,22.81798044840495,-16.26306978861491,1.555422067642212,1.688702112245256e+18,169.893255859375,27.247469584147137,-27.34836769104004,5.231308619181315,1.6887021122539077e+18,169.90190747070312,-1.9604075749715169,-8.979058583577475,3.4291510581970215,1.6887021122539077e+18,169.90190747070312,-1.3506231034795444,-2.559372663497925,0.8500699202219647,1.6887021122539077e+18,169.90190747070312,-1.3517938827474911,-2.554689407348633,0.8522588213284811,,,,,,,,,,,,1.6887021122471762e+18,169.895176171875,-26.73263931274414,39.903759765625,-21.41831970214844,1.6887021122471762e+18,169.895176171875,-281.27342529296874,135.36875915527344,-154.63011779785157,1.6887021122539077e+18,169.90190747070312,0.6311954061190287,-0.7438308993975321,0.2121447126070658,0.0559197813272475,-2.082212845484416,1.156442364056905,-1.285656730333964
4.95,1.6887021123058127e+18,169.95381298828124,-0.9271667798360188,-1.660004297892253,1.0780998865763347,1.6887021122971617e+18,169.94516162109375,-1.8697915077209473,-10.500303904215494,3.965305964152018,1.6887021123058127e+18,169.95381298828124,-2.0031073490778604,-8.895377159118652,3.617938836415609,1.6887021123058127e+18,169.95381298828124,-0.0372118732581535,1.9913697640101116,-0.935438315073649,1.6887021123058127e+18,169.95381298828124,-0.0383826935042937,1.996002157529195,-0.9333002964655558,,,,,,,,,,,,1.6887021122971776e+18,169.94517768554687,-26.38127899169922,39.752478790283206,-22.330879974365235,1.6887021122971776e+18,169.94517768554687,-280.9220764160156,135.21747741699218,-155.5426788330078,1.6887021123058127e+18,169.95381298828124,0.6261340777079264,-0.7503105799357096,0.1938058435916899,0.0848406751950581,-2.0688300132751465,1.1359224319458008,-1.2307371298472087
5.0,1.6887021123577172e+18,170.00571752929687,0.2706773678461711,0.0100135803222656,1.7429519494374592,1.6887021123490683e+18,169.99706860351563,-2.1762721935908,-10.297113418579102,6.465606212615967,1.6887021123577172e+18,170.00571752929687,-2.076324780782064,-8.788325627644857,3.829857031504313,1.6887021123577172e+18,170.00571752929687,-0.0074321950475374,0.4877758920192718,-0.9725992878278096,1.6887021123577172e+18,170.00571752929687,-0.0086030190189679,0.4925101300080617,-0.9704612692197164,,,,,,,,,,,,1.688702112347178e+18,169.99517788085936,-27.65251922607422,40.70895919799805,-20.427679443359377,1.688702112347178e+18,169.99517788085936,-282.1933166503906,136.17395629882813,-153.63947448730468,1.6887021123577172e+18,170.00571752929687,0.6179463466008505,-0.7579119404157003,0.1727818399667739,0.117384744187196,-2.0599807103474936,1.1109224160512288,-1.1620926062266033
5.05,1.6887021124096233e+18,170.05762329101563,1.8576668898264568,3.669492721557617,-0.2711234887440999,1.688702112400972e+18,170.04897208658855,-0.5545366406440734,-4.553740898768107,3.343171993891398,1.6887021124096233e+18,170.05762329101563,-2.565208117167155,-8.680704434712728,3.7809203465779624,1.6887021124096233e+18,170.05762329101563,0.1086831142505009,0.4825835575660069,-0.9160433610280356,1.6887021124096233e+18,170.05762329101563,0.1076140900452931,0.4872159337004026,-0.9139053424199424,,,,,,,,,,,,1.688702112397178e+18,170.04517788085937,-25.2564395904541,42.10463943481445,-19.639559936523437,1.688702112397178e+18,170.04517788085937,-279.79722900390624,137.56963500976562,-152.85135803222656,1.6887021124096233e+18,170.05762329101563,0.596524178981781,-0.7758184472719828,0.1653722822666168,0.1218987132112184,-2.160258134206136,1.0871349970499675,-1.0446614821751912
5.1,1.6887021124528865e+18,170.10088635253908,0.8677520751953125,-2.250122547149658,2.6183788776397705,1.6887021124528824e+18,170.10088232421876,-1.6536398728688555,-10.35254700978597,6.455636024475098,1.6887021124528865e+18,170.10088635253908,-2.537507176399231,-8.531779289245605,4.121429443359375,1.6887021124528865e+18,170.10088635253908,-0.9026297628879548,1.8978819251060488,-0.2973386496305465,1.6887021124528865e+18,170.10088635253908,-0.9037751257419586,1.9026161432266235,-0.2952006310224533,,,,,,,,,,,,1.6887021124471793e+18,170.09517905273438,-24.07791938781738,43.08551864624023,-18.724559783935547,1.6887021124471793e+18,170.09517905273438,-278.61871337890625,138.5505157470703,-151.9363555908203,1.6887021124528865e+18,170.10088635253908,0.590470016002655,-0.7770074307918549,0.1552515104413032,0.1529731601476669,-2.1169235706329346,1.0555475950241089,-1.0279824137687683
5.15,1.6887021124961416e+18,170.1441417643229,0.681238055229187,0.134779135386149,-0.2058711846669515,1.6887021125047905e+18,170.1527902018229,-1.365304708480835,-7.340781052907308,3.811567147572835,1.6887021124961416e+18,170.1441417643229,-2.188181479771932,-8.397039095560709,4.57309611638387,1.6887021124961416e+18,170.1441417643229,-0.6413576006889343,1.4223488171895344,0.1250237512091795,1.6887021124961416e+18,170.1441417643229,-0.6425793369611105,1.4270830353101094,0.1272126883268355,,,,,,,,,,,,1.6887021124971853e+18,170.14518525390625,-26.125079345703124,42.45111846923828,-18.363439559936523,1.6887021124971853e+18,170.14518525390625,-280.665869140625,137.9161163330078,-151.5752380371094,1.6887021124961416e+18,170.1441417643229,0.5941601991653442,-0.7674655318260193,0.1449693739414214,0.1919636478026707,-2.01159938176473,1.028227925300598,-1.0609782536824544
5.2,1.688702112548044e+18,170.1960440266927,1.1355981429417927,2.744913419087728,-2.6238916714986167,1.6887021125566935e+18,170.204693359375,-0.8107680479685465,-5.645466168721517,2.263410806655884,1.688702112548044e+18,170.1960440266927,-2.0202083190282187,-8.244061152140299,4.9175364176432295,1.688702112548044e+18,170.1960440266927,-0.7290676633516947,-0.1517491191625595,0.0260126776993274,1.688702112548044e+18,170.1960440266927,-0.7302384972572327,-0.1470149060090382,0.0281507049997647,1.6887021125480364e+18,170.19603637695312,0.0,0.0,1.2434706687927246,6.559999942779541,1.4643502235412598,128.2986297607422,42.900001525878906,-122.7559708,49.1898205,1.6887021125471854e+18,170.1951854003906,-27.53783950805664,41.27259826660156,-18.722119903564455,1.6887021125471854e+18,170.1951854003906,-282.0786376953125,136.7375946044922,-151.9339141845703,1.688702112548044e+18,170.1960440266927,0.5948176781336466,-0.7605844736099243,0.1515508194764454,0.2114373544851938,-1.9551033576329548,0.9986739555994668,-1.098186691602071
5.25,1.6887021125999483e+18,170.24794881184894,1.8447767893473308,0.5043156941731771,-3.1500048637390137,1.688702112608603e+18,170.2566027018229,-0.5716852148373922,-7.881758213043213,2.0183458725611367,1.6887021125999483e+18,170.24794881184894,-2.4492273330688477,-7.976345698038737,5.152323404947917,1.6887021125999483e+18,170.24794881184894,-0.9378817677497864,-1.1673634847005208,-1.116610765457153,1.6887021125999483e+18,170.24794881184894,-0.9390526016553244,-1.1626293063163755,-1.11447270711263,,,,,,,,,,,,1.688702112597186e+18,170.24518618164063,-26.032359313964843,41.17255859375,-20.86443939208984,1.688702112597186e+18,170.24518618164063,-280.5731567382812,136.6375518798828,-154.07623291015625,1.6887021125999483e+18,170.24794881184894,0.5766898592313131,-0.7695114413897196,0.1764765232801436,0.2096192489067713,-2.008637309074402,0.9503441254297892,-1.083770473798116
5.3,1.6887021126518548e+18,170.29985481770834,2.6802422205607095,-2.381915887196859,-3.1836934089660645,1.6887021126518574e+18,170.29985754394534,-0.9828519225120544,-9.739087104797362,2.1131615042686462,1.6887021126518548e+18,170.29985481770834,-3.662359873453776,-7.387622674306233,5.294685999552409,1.6887021126518548e+18,170.29985481770834,-1.0616328716278076,-1.8360573053359983,-2.542217493057251,1.6887021126518548e+18,170.29985481770834,-1.0628037452697754,-1.831373969713847,-2.5400795936584473,,,,,,,,,,,,1.6887021126471823e+18,170.29518227539063,-20.503319549560548,41.64835968017578,-24.48540000915527,1.6887021126471823e+18,170.29518227539063,-275.04412231445315,137.1133575439453,-157.69719848632812,1.6887021126518548e+18,170.29985481770834,0.5228346784909567,-0.8013412753740946,0.2072920451561609,0.2023978779713312,-2.16973884900411,0.8542294303576151,-0.979357143243154
5.35,1.6887021127037612e+18,170.35176098632812,6.648533900578816,-6.928018093109131,-1.3298794428507488,1.6887021126951084e+18,170.34310823567708,-0.2027917106946309,-12.867005030314129,3.6161532402038574,1.6887021127037612e+18,170.35176098632812,-5.351089159647624,-6.478411356608073,5.018539746602376,1.6887021127037612e+18,170.35176098632812,-0.9168068965276084,-3.3087515830993652,-3.522961695988973,1.6887021127037612e+18,170.35176098632812,-0.9178759256998698,-3.3041701316833496,-3.520772854487101,,,,,,,,,,,,1.688702112697181e+18,170.34518095703123,-10.04303994178772,42.2973991394043,-28.967679977416992,1.688702112697181e+18,170.34518095703123,-264.58384399414064,137.76239929199218,-162.17947692871093,1.6887021127037612e+18,170.35176098632812,0.4434177080790201,-0.843352754910787,0.2449366549650828,0.1758834570646285,-2.3820830980936685,0.7233625849088033,-0.8671028017997742
5.4,1.688702112755664e+18,170.40366406249998,14.7776464621226,-9.182446479797363,0.0366217295328776,1.688702112747017e+18,170.39501676432292,10.148559570312498,-14.493326822916666,5.693920930226644,1.688702112755664e+18,170.40366406249998,-6.202431678771973,-5.015010356903076,5.638081391652425,1.688702112755664e+18,170.40366406249998,0.6537276208400725,6.3847126960754395,-3.4825937251249948,1.688702112755664e+18,170.40366406249998,0.6525568266709646,6.389446973800659,-3.480455627044042,,,,,,,,,,,,1.6887021127471818e+18,170.39518193359373,1.2785599678754809,41.82891998291016,-31.26615982055664,1.6887021127471818e+18,170.39518193359373,-253.26223754882812,137.2939208984375,-164.4779541015625,1.688702112755664e+18,170.40366406249998,0.3513211707274119,-0.8752032319704691,0.2191641082366307,0.2415352215369542,-2.4021871089935303,0.5382965604464213,-0.702231208483378
5.45,1.688702112807567e+18,170.45556705729166,-1.8895141283671064,-5.960959593454997,-6.844990412394206,1.688702112798919e+18,170.44691853841144,-6.893123785654704,-10.784052848815918,0.5078765846168002,1.688702112807567e+18,170.45556705729166,-4.530093669891357,-5.292727470397949,6.905333995819092,1.688702112807567e+18,170.45556705729166,0.5497787147760391,1.8818721771240232,0.4761185546716054,1.688702112807567e+18,170.45556705729166,0.5487097253402073,1.8865045309066772,0.4783074806133906,,,,,,,,,,,,1.6887021127971827e+18,170.4451828125,-7.163840055465698,43.60523910522461,-28.04047966003418,1.6887021127971827e+18,170.4451828125,-261.7046264648437,139.0702362060547,-161.25227966308594,1.688702112807567e+18,170.45556705729166,0.3801793754100799,-0.8425347010294596,0.1407220562299092,0.3545670012633006,-2.148658990859986,0.5715026458104452,-0.6466683745384216
5.5,1.6887021128594788e+18,170.50747875976563,9.070686340332031,-10.293268839518229,-6.563461780548096,1.6887021128508265e+18,170.49882649739584,4.127020835876465,-16.227325439453125,0.0751745179295539,1.6887021128594788e+18,170.50747875976563,-4.1646660168965655,-5.893222490946452,6.627394517262776,1.6887021128594788e+18,170.50747875976563,1.3362677345673244,0.087150086959203,2.594548304875692,1.6887021128594788e+18,170.50747875976563,1.3350968807935717,0.0918333927790323,2.596686363220215,,,,,,,,,,,,1.6887021128471854e+18,170.49518530273437,-10.089399909973144,43.412478637695315,-27.166959381103517,1.6887021128471854e+18,170.49518530273437,-264.63019409179685,138.87748107910156,-160.37875671386718,1.6887021128594788e+18,170.50747875976563,0.421255886554718,-0.8304107586542765,0.1460626224676767,0.3331346114476521,-2.1279208660125732,0.6465665300687155,-0.7169642647107443
5.55,1.6887021129027318e+18,170.55073193359374,1.9413065910339355,-6.267569303512573,-2.0929266214370728,1.6887021129027346e+18,170.55073470052082,-1.4015958309173584,-13.611172993977863,3.6572300593058262,1.6887021129027318e+18,170.55073193359374,-3.38882827758789,-7.111442804336548,5.833930015563965,1.6887021129027318e+18,170.55073193359374,3.130455255508423,-1.128344476222992,3.0893746614456177,1.6887021129027318e+18,170.55073193359374,3.1292335987091064,-1.123686581850052,3.091512680053711,,,,,,,,,,,,1.6887021128971812e+18,170.54518100585938,-16.340679550170897,44.08347854614258,-22.40651931762695,1.6887021128971812e+18,170.54518100585938,-270.8814758300781,139.54847717285156,-155.61831665039062,1.6887021129027318e+18,170.55073193359374,0.4917256832122803,-0.8104318976402283,0.1208848059177398,0.2938678860664367,-2.0934780836105347,0.8129054605960846,-0.7838551998138428
5.6,1.6887021129459868e+18,170.59398689778644,2.8243625164031982,-7.565037250518799,3.4467639923095703,1.6887021129546312e+18,170.60263110351562,0.88255275785923,-16.19262981414795,9.554739952087402,1.6887021129459868e+18,170.59398689778644,-2.5101685523986816,-8.149070898691813,4.8279398282368975,1.6887021129459868e+18,170.59398689778644,2.240704615910848,-0.7101817429065704,2.96580171585083,1.6887021129459868e+18,170.59398689778644,2.239584724108378,-0.7054984718561172,2.9679905573527017,,,,,,,,,,,,1.6887021129471834e+18,170.5951834472656,-22.31867904663086,43.83215942382813,-17.11659965515137,1.6887021129471834e+18,170.5951834472656,-276.85947875976564,139.29715881347656,-150.3283935546875,1.6887021129459868e+18,170.59398689778644,0.5622313221295675,-0.7844325105349222,0.1058838392297426,0.2380812962849934,-2.043968756993612,0.9827829996744792,-0.901808520158132
5.65,1.688702112997892e+18,170.64589200846353,5.050034840901692,-2.278963883717855,6.987515767415364,1.688702113006543e+18,170.65454329427084,2.407378931840261,-9.418349424997963,10.15573755900065,1.688702112997892e+18,170.64589200846353,-1.6233766078948977,-8.764952341715494,4.0837992032368975,1.688702112997892e+18,170.64589200846353,1.8561649322509768,2.341904560724894,0.751924196879069,1.688702112997892e+18,170.64589200846353,1.8549941380818684,2.3465879758199057,0.7540622353553772,,,,,,,,,,,,1.688702112997182e+18,170.64518178710938,-26.493519592285157,43.38563919067383,-12.24391975402832,1.688702112997182e+18,170.64518178710938,-281.0343078613281,138.85063781738282,-145.45571594238282,1.688702112997892e+18,170.64589200846353,0.6064512530962626,-0.7597107887268066,0.0618696572879949,0.2250602394342422,-1.9414439996083577,1.106468995412191,-0.9624971548716228
5.7,1.6887021130497976e+18,170.69779760742188,-2.8359665870666504,4.744373480478923,1.2116111914316814,1.6887021130584502e+18,170.7064501139323,-4.280360857645671,-3.995016892751058,4.098506371180217,1.6887021130497976e+18,170.69779760742188,-0.822323719660441,-9.15079911549886,3.4289937019348145,1.6887021130497976e+18,170.69779760742188,1.683188279469808,1.2475395798683169,0.8814276456832886,1.6887021130497976e+18,170.69779760742188,1.6820683479309082,1.252222826083501,0.883616586526235,1.688702113067102e+18,170.71510205078124,0.0,0.0,1.253079533576965,6.434999942779541,1.4653942584991455,128.22808837890625,42.900001525878906,-122.755966,49.1898184,1.688702113047186e+18,170.69518583984376,-29.094559478759766,42.82931976318359,-4.616479825973511,1.688702113047186e+18,170.69518583984376,-283.6353515625,138.29431762695313,-137.82827758789062,1.6887021130497976e+18,170.69779760742188,0.6340189774831136,-0.7351759473482767,-0.0019723754376173,0.2394616703192392,-1.7975789705912273,1.203571359316508,-0.9949612418810526
5.75,1.688702113101702e+18,170.74970182291668,-5.621489842732747,7.074230829874675,-0.3777028719584147,1.6887021131017032e+18,170.749703125,-6.65952467918396,-2.3572293519973755,2.60967218875885,1.688702113101702e+18,170.74970182291668,-0.3917365372180938,-9.374773343404136,2.857788324356079,1.688702113101702e+18,170.74970182291668,1.0232501824696858,-0.8775079424182574,1.2425508101781209,1.688702113101702e+18,170.74970182291668,1.022130290667216,-0.8728246092796326,1.2447397311528523,,,,,,,,,,,,1.688702113097183e+18,170.74518295898437,-31.227119064331056,41.54343948364258,-1.1785199880599977,1.688702113097183e+18,170.74518295898437,-285.767919921875,137.00843811035156,-134.39031982421875,1.688702113101702e+18,170.74970182291668,0.6586198806762695,-0.7199610670407613,-0.0169993819048006,0.2177325089772541,-1.696740984916687,1.2726189295450847,-1.107524315516154
5.8,1.6887021131536074e+18,170.80160725911458,-0.9240376899639764,7.7899783452351885,-1.2651357253392537,1.6887021131449528e+18,170.79295263671875,-1.3413764635721843,-1.7645073334376018,1.231107234954834,1.6887021131536074e+18,170.80160725911458,-0.1416293531656265,-9.49610392252604,2.456287384033203,1.6887021131536074e+18,170.80160725911458,0.6568837563196818,-0.7082982659339905,0.5174028724431992,1.6887021131536074e+18,170.80160725911458,0.655763844648997,-0.7036149303118387,0.5195917959014574,,,,,,,,,,,,1.688702113147183e+18,170.79518310546877,-33.423119354248044,39.78907928466797,-0.8173999905586242,1.688702113147183e+18,170.79518310546877,-287.963916015625,135.25408020019532,-134.0291961669922,1.6887021131536074e+18,170.80160725911458,0.6784765720367432,-0.711212952931722,-0.0080071684593955,0.1836989820003508,-1.61752192179362,1.3173515796661377,-1.2498996257781982
5.85,1.688702113205514e+18,170.85351399739582,-0.8127438823382059,8.237711747487387,-0.2965524196624755,1.6887021131968576e+18,170.84485774739582,-1.1870394349098206,-1.2887343565622966,2.1561325788497925,1.688702113205514e+18,170.85351399739582,-0.326502501964569,-9.48401673634847,2.481523116429647,1.688702113205514e+18,170.85351399739582,-0.40021854514877,-0.7283549805482229,-0.5897394915421804,1.688702113205514e+18,170.85351399739582,-0.4013384580612182,-0.7236716945966085,-0.5875505606333414,,,,,,,,,,,,1.6887021131971802e+18,170.84517998046874,-33.576838684082034,39.64511947631836,-0.9320799827575684,1.6887021131971802e+18,170.84517998046874,-288.1176330566406,135.11011352539063,-134.1438781738281,1.688702113205514e+18,170.85351399739582,0.673721452554067,-0.7178029616673788,0.0009655792382546,0.1754198024670282,-1.6892733176549275,1.312721888224284,-1.2028901974360149
5.9,1.688702113257414e+18,170.9054138183594,15.00755629936854,-3.757579485575358,-2.460000197092692,1.6887021132487675e+18,170.896767578125,10.653444210688273,-9.94098194440206,0.6779664158821106,1.688702113257414e+18,170.9054138183594,-0.8592581351598104,-9.32402483622233,2.920942147572835,1.688702113257414e+18,170.9054138183594,-1.534442623456319,-5.319669246673584,1.254971702893575,1.688702113257414e+18,170.9054138183594,-1.5355624755223591,-5.3149856726328535,1.2572115659713743,,,,,,,,,,,,1.688702113247183e+18,170.89518305664063,-32.09575881958008,40.084319305419925,-5.485119771957398,1.688702113247183e+18,170.89518305664063,-286.6365478515625,135.5493133544922,-138.69691467285156,1.688702113257414e+18,170.9054138183594,0.6625694831212362,-0.7313992579778036,0.0773479597022135,0.1332405929764111,-1.8491867780685425,1.255144119262695,-1.212348262468974
5.95,1.688702113309321e+18,170.95732080078128,12.619490464528402,-14.30792268117269,2.4578990936279297,1.6887021133006725e+18,170.94867252604163,15.414364020029703,-24.00579388936361,4.58883551756541,1.688702113309321e+18,170.95732080078128,-0.9168568054835,-9.141982078552246,3.430562893549601,1.688702113309321e+18,170.95732080078128,-1.0703377226988475,-1.680592159430186,-0.5977825323740641,1.688702113309321e+18,170.95732080078128,-1.0715594391028087,-1.6759087642033894,-0.5955936113993326,,,,,,,,,,,,1.688702113297181e+18,170.9451808105469,-32.0957592010498,37.451559448242186,-16.311399269104005,1.688702113297181e+18,170.9451808105469,-286.63654174804685,132.91655578613282,-149.5231964111328,1.688702113309321e+18,170.95732080078128,0.6695937514305115,-0.7165320515632629,0.1789674460887908,0.0776016066471735,-1.823070724805196,1.1994943618774414,-1.4645367860794067
6.0,1.688702113352578e+18,171.00057788085937,1.908856451511383,-8.158607006072998,8.213751316070557,1.6887021133525742e+18,171.0005743001302,0.2909273306528726,-16.45284907023112,10.750553131103516,1.688702113352578e+18,171.00057788085937,-1.2988497614860537,-9.024394989013672,3.6206754446029663,1.688702113352578e+18,171.00057788085937,0.3611740618944168,3.5077409744262695,-1.7023287415504456,1.688702113352578e+18,171.00057788085937,0.359952338039875,3.512322425842285,-1.7001907229423523,,,,,,,,,,,,1.688702113347185e+18,170.99518486328125,-29.733839416503905,38.30311889648438,-18.290239524841308,1.688702113347185e+18,170.99518486328125,-284.27463989257814,133.76811828613282,-151.50203552246094,1.688702113352578e+18,171.00057788085937,0.6498423516750336,-0.7347451448440552,0.1580176204442977,0.1119405515491962,-1.9087337255477903,1.167798936367035,-1.2993890643119812
6.05,1.688702113395826e+18,171.043826171875,-2.7244857947031655,5.220439592997233,0.6246293385823566,1.6887021134044808e+18,171.052480875651,-3.6019957065582275,-2.419343094031016,3.2193435430526733,1.688702113395826e+18,171.043826171875,-0.9900359710057576,-9.080902735392252,3.5733033816019693,1.688702113395826e+18,171.043826171875,0.7268278400103251,4.194557110468547,-0.4463897896930575,1.688702113395826e+18,171.043826171875,0.7257078886032104,4.1992402871449785,-0.4442517378677924,,,,,,,,,,,,1.688702113397185e+18,171.0451849121094,-30.451199340820313,40.113599395751955,-11.094679641723634,1.688702113397185e+18,171.0451849121094,-284.99200439453125,135.57859497070314,-144.3064758300781,1.688702113395826e+18,171.043826171875,0.6479396025339762,-0.7361106276512146,0.082762736827135,0.1749628484249115,-1.8337748050689695,1.183134396870931,-1.1748205423355105
6.1,1.688702113447737e+18,171.0957372233073,-1.8509880701700847,6.822837511698405,-1.657323916753133,1.6887021134563848e+18,171.1043848470052,-2.5046871503194175,-3.4386855363845825,2.475574493408203,1.688702113447737e+18,171.0957372233073,-0.6956368486086527,-9.123579343159994,3.5370102723439536,1.688702113447737e+18,171.0957372233073,-0.0616973986228307,1.0836240351200104,-0.16844609247831,1.688702113447737e+18,171.0957372233073,-0.0628682151436806,1.0883582333723705,-0.1663080655659238,,,,,,,,,,,,1.6887021134471852e+18,171.09518515625,-31.22467918395996,40.430799102783205,-6.221999835968018,1.6887021134471852e+18,171.09518515625,-285.765478515625,135.8957946777344,-139.4337951660156,1.688702113447737e+18,171.0957372233073,0.6480999191602071,-0.7299056251843771,0.0372765759627023,0.2139519353707631,-1.758019248644511,1.1949295202891033,-1.1285399595896404
6.15,1.6887021134996365e+18,171.14763631184897,-2.198736071586609,-2.32504940032959,2.714903990427653,1.6887021135082934e+18,171.15629321289063,-2.8999017079671225,-11.74098269144694,7.171289443969727,1.6887021134996365e+18,171.14763631184897,-0.8234622478485107,-8.820561726888021,4.203069845835368,1.6887021134996365e+18,171.14763631184897,-2.008728543917338,-0.7133888130386671,0.029677867423743,1.6887021134996365e+18,171.14763631184897,-2.009899377822876,-0.7087054823835691,0.0318668114487082,,,,,,,,,,,,1.688702113497183e+18,171.14518291015625,-31.28811912536621,40.399079132080075,-8.774239635467529,1.688702113497183e+18,171.14518291015625,-285.82891235351565,135.86407775878905,-141.98603515625,1.6887021134996365e+18,171.14763631184897,0.6346964438756307,-0.7323894302050272,0.0635792252918084,0.2375595768292744,-1.7585065762201946,1.119174639383952,-1.1299692392349243
6.2,1.6887021135515423e+18,171.19954207356773,-0.2776927550633748,1.6980161666870115,-0.980819304784139,1.688702113551548e+18,171.1995478515625,-1.141376405954361,-6.493821620941162,3.42562484741211,1.6887021135515423e+18,171.19954207356773,-1.0113044182459514,-8.627872784932455,4.557216326395671,1.6887021135515423e+18,171.19954207356773,-0.3516547630230586,-2.483268976211548,0.7881179849306742,1.6887021135515423e+18,171.19954207356773,-0.3528764843940735,-2.4786366621653237,0.7902560035387675,,,,,,,,,,,,1.6887021135471854e+18,171.19518525390626,-31.14171943664551,38.89603881835937,-13.546879768371582,1.6887021135471854e+18,171.19518525390626,-285.68251342773436,134.36103515625,-146.75867614746093,1.6887021135515423e+18,171.19954207356773,0.6342864036560059,-0.7326266566912333,0.1154280081391334,0.2173319061597187,-1.7837534348169963,1.0750131607055664,-1.2090219259262085
6.25,1.688702113603453e+18,171.2514529622396,1.2800884644190471,2.039762814839681,-2.303395668665568,1.6887021135947988e+18,171.24279866536455,-0.4628117779890696,-5.812764326731364,2.322034994761149,1.688702113603453e+18,171.2514529622396,-1.5088658332824707,-8.498432477315268,4.656063397725423,1.688702113603453e+18,171.2514529622396,-0.8478809595108032,-3.275052229563395,0.0230092629790305,1.688702113603453e+18,171.2514529622396,-0.8489499688148499,-3.270368973414103,0.0251981889208157,1.6887021135861512e+18,171.23415112304687,0.0,0.0,1.253079533576965,6.264999866485596,1.463245868682861,128.11325073242188,42.900001525878906,-122.7559556,49.1898137,1.6887021135971832e+18,171.24518315429685,-30.090079498291015,37.50523910522461,-18.54888000488281,1.6887021135971832e+18,171.24518315429685,-284.63087768554686,132.9702392578125,-151.76067810058595,1.688702113603453e+18,171.2514529622396,0.6290891369183859,-0.7366032004356384,0.1809513568878173,0.1683545857667922,-1.8782281875610352,1.047885497411092,-1.281886299451192
6.3,1.6887021136553582e+18,171.30335791015625,3.948207457860311,-2.0563201904296875,-2.5052738189697266,1.6887021136467067e+18,171.29470686848958,0.9710871974627177,-9.898110389709473,2.286940256754557,1.6887021136553582e+18,171.30335791015625,-2.8477718035380044,-8.188791910807291,4.560433864593506,1.6887021136553582e+18,171.30335791015625,-0.3417282005151112,-2.690301497777303,-2.6932030518849692,1.6887021136553582e+18,171.30335791015625,-0.3427972098191579,-2.6856180826822915,-2.6910651127497354,,,,,,,,,,,,1.6887021136471834e+18,171.29518330078128,-25.01243934631348,37.78827819824219,-24.270679473876953,1.6887021136471834e+18,171.29518330078128,-279.55324096679686,133.25328063964844,-157.48247375488282,1.6887021136553582e+18,171.30335791015625,0.5825784603754679,-0.7676924069722494,0.2332587093114852,0.1268694847822189,-2.1213036378224692,0.9883737762769064,-1.1776394844055176
6.35,1.6887021137072632e+18,171.35526334635415,12.378643671671549,-4.176898956298828,-0.8631148338317871,1.6887021136986092e+18,171.34660904947918,1.5172489285469055,-11.193624178568522,2.531606356302897,1.6887021137072632e+18,171.35526334635415,-5.192861080169678,-7.158143997192383,4.159152825673421,1.6887021137072632e+18,171.35526334635415,-0.1621847258259852,-1.946878453095754,-5.815080801645915,1.6887021137072632e+18,171.35526334635415,-0.163355549176534,-1.9421951373418171,-5.812942822774251,,,,,,,,,,,,1.688702113697183e+18,171.3451828613281,-13.036920070648192,40.37223892211914,-27.3841194152832,1.688702113697183e+18,171.3451828613281,-267.5777160644531,135.8372314453125,-160.59591674804688,1.6887021137072632e+18,171.35526334635415,0.4720137914021809,-0.8349481026331583,0.2571274240811665,0.1095055143038431,-2.4569427172342935,0.8210679888725281,-0.909705380598704
6.4,1.6887021137591652e+18,171.4071648763021,8.257226626078287,-6.4362921714782715,2.192781925201416,1.6887021137505134e+18,171.39851326497396,10.642477989196776,-12.244671821594238,8.42373275756836,1.6887021137591652e+18,171.4071648763021,-5.413819471995036,-5.8712334632873535,5.622500101725261,1.6887021137591652e+18,171.4071648763021,0.7613417009512582,9.018203417460125,-2.970179478327433,1.6887021137591652e+18,171.4071648763021,0.7602727065483729,9.022835731506348,-2.9680415391921997,,,,,,,,,,,,1.6887021137471895e+18,171.39518955078125,-2.232599973678589,41.73375930786133,-27.940439987182614,1.6887021137471895e+18,171.39518955078125,-256.7733917236328,137.19875793457032,-161.15223693847656,1.6887021137591652e+18,171.4071648763021,0.3988744715849558,-0.8602732022603353,0.1827453672885894,0.2495824595292409,-2.33594544728597,0.6429948210716248,-0.6991209983825684
6.45,1.6887021138024187e+18,171.45041857910155,-5.48889422416687,-5.528401136398315,-4.89259934425354,1.688702113802424e+18,171.4504239908854,-9.380662441253662,-11.576077143351236,2.064407706260681,1.6887021138024187e+18,171.45041857910155,-4.294922590255737,-5.939044713973999,6.520141839981079,1.6887021138024187e+18,171.45041857910155,0.848720908164978,1.4964671335183084,-0.0145080685615539,1.6887021138024187e+18,171.45041857910155,0.8475755155086517,1.5010486040264368,-0.0123700201511383,,,,,,,,,,,,1.688702113797178e+18,171.44517802734376,-8.474119758605957,43.25387954711914,-24.35607986450195,1.688702113797178e+18,171.44517802734376,-263.0149169921875,138.7188751220703,-157.56787719726563,1.6887021138024187e+18,171.45041857910155,0.405558168888092,-0.8401917517185211,0.1092564463615416,0.3429965078830719,-2.1508607864379883,0.6517213881015778,-0.6197928488254547
6.5,1.688702113845678e+18,171.49367814127604,-1.650347391764323,-8.999755700429281,-1.2078333695729573,1.6887021138543245e+18,171.50232438151042,-5.788437525431315,-15.673985163370768,5.793621857961019,1.688702113845678e+18,171.49367814127604,-4.328582127888997,-6.109965165456136,6.3369730313618975,1.688702113845678e+18,171.49367814127604,-0.3691153228282928,-1.385798732439677,0.6740388969580332,1.688702113845678e+18,171.49367814127604,-0.3702861418326695,-1.3811153968175252,0.6761769205331802,,,,,,,,,,,,1.6887021138471854e+18,171.49518530273437,-9.647759628295898,43.61987838745117,-23.49720001220703,1.6887021138471854e+18,171.49518530273437,-264.1885559082031,139.08487854003906,-156.70899353027343,1.688702113845678e+18,171.49367814127604,0.4193144341309865,-0.8391600449879965,0.1237466533978779,0.3233109712600707,-2.1675399939219155,0.6736767490704855,-0.6595191955566406
6.55,1.6887021138975823e+18,171.54558235677084,6.446792284647624,-5.392661094665527,-1.2041842142740886,1.6887021139062354e+18,171.5542352701823,3.6620155970255537,-10.560124397277832,4.367300033569336,1.6887021138975823e+18,171.54558235677084,-5.161710739135742,-5.978672981262207,5.802515824635823,1.6887021138975823e+18,171.54558235677084,-0.2291762779156367,-3.3169473807017007,-0.3108795086542765,1.6887021138975823e+18,171.54558235677084,-0.2303980017701784,-3.3122640450795493,-0.3087414503097533,,,,,,,,,,,,1.6887021138971853e+18,171.54518520507813,-6.9003198623657225,43.18067932128906,-25.095399475097658,1.6887021138971853e+18,171.54518520507813,-261.44111328125,138.6456787109375,-158.30719604492188,1.6887021138975823e+18,171.54558235677084,0.4022500912348429,-0.8600670099258423,0.1489218672116597,0.2748731821775436,-2.2952149709065757,0.6566862463951111,-0.6475223501523336
