seconds_elapsed_rounded,accelerometer_time,accelerometer_seconds_elapsed,accelerometer_z,accelerometer_y,accelerometer_x,accelerometeruncalibrated_time,accelerometeruncalibrated_seconds_elapsed,accelerometeruncalibrated_z,accelerometeruncalibrated_y,accelerometeruncalibrated_x,gravity_time,gravity_seconds_elapsed,gravity_z,gravity_y,gravity_x,gyroscope_time,gyroscope_seconds_elapsed,gyroscope_z,gyroscope_y,gyroscope_x,gyroscopeuncalibrated_time,gyroscopeuncalibrated_seconds_elapsed,gyroscopeuncalibrated_z,gyroscopeuncalibrated_y,gyroscopeuncalibrated_x,location_time,location_seconds_elapsed,location_altitude,location_speedAccuracy,location_bearingAccuracy,location_latitude,location_altitudeAboveMeanSeaLevel,location_bearing,location_horizontalAccuracy,location_verticalAccuracy,location_longitude,location_speed,magnetometer_time,magnetometer_seconds_elapsed,magnetometer_z,magnetometer_y,magnetometer_x,magnetometeruncalibrated_time,magnetometeruncalibrated_seconds_elapsed,magnetometeruncalibrated_z,magnetometeruncalibrated_y,magnetometeruncalibrated_x,orientation_time,orientation_seconds_elapsed,orientation_yaw,orientation_qx,orientation_qz,orientation_roll,orientation_qw,orientation_qy,orientation_pitch
0.0,1.6904262476609196e+18,59.99891953125,-3.706729196834565,2.716692557377219,-0.0959775298254191,1.6904262476621732e+18,60.00017314453125,-0.2759490966796875,1.2441009521484374,-0.243438720703125,1.6904262476609196e+18,59.99891953125,0.7963377172008157,9.53686146682322,-2.113242036884725,1.6904262476609196e+18,59.99891953125,-0.9431083559989928,-0.2172675464302301,-2.301798439025879,1.6904262476571635e+18,59.995163476562496,-0.9414889574050904,-0.2390286652371286,-2.3600186347961425,,,,,,,,,,,,,1.6904262476609196e+18,59.99891953125,10.794601440429688,3.061325454711914,30.778521728515624,1.690426247661365e+18,59.99936499023438,53.160952758789065,29.714694213867187,143.43225708007813,1.6904262476609196e+18,59.99891953125,-2.6824016066313803,-0.707204077010117,-0.3217334789120194,-1.9199206107098463,0.5964133752098674,0.200824232483558,-1.3368435544818276
0.05,1.6904262477110172e+18,60.049017089843744,-2.5890465960296987,0.8603444423305987,1.4674216581137478,1.6904262477122708e+18,60.050270898437496,-0.0518341064453125,1.0215301513671875,-0.082513427734375,1.6904262477110172e+18,60.049017089843744,1.7580490104058384,9.30139477306068,-2.5475057359212636,1.6904262477110172e+18,60.049017089843744,-0.9364861249923706,-0.5794847756624222,-1.6321211576461792,1.6904262477072612e+18,60.045261132812506,-0.95245840549469,-0.4963605418801308,-1.680471158027649,,,,,,,,,,,,,1.6904262477110172e+18,60.049017089843744,6.860085296630859,-15.23635711669922,5.301222229003907,1.690426247713372e+18,60.05137202148437,57.77110900878906,14.516082763671877,117.45958251953124,1.6904262477110172e+18,60.049017089843744,-2.929044864120805,-0.7425721142890659,-0.3207652183394637,-2.1717218987048055,0.5544108009891474,0.1952634396386009,-1.2492786515166776
0.1,1.6904262477611146e+18,60.09911469726562,-2.3073321504159265,0.5055369664901495,0.5983009410965442,1.6904262477623688e+18,60.100368798828114,0.0205902099609375,0.9391387939453124,-0.2686553955078125,1.6904262477611146e+18,60.09911469726562,2.5260123691938814,9.051636869808435,-2.795010774906278,1.6904262477611146e+18,60.09911469726562,-0.6652209162712097,-1.3174132108688354,-1.1367899179458618,1.6904262477573586e+18,60.095358740234374,-0.6675014495849609,-1.288514232635498,-1.1703498840332032,,,,,,,,,,,,,1.6904262477611146e+18,60.09911469726562,29.594810485839844,-18.48456802368164,-4.90089111328125,1.6904262477653786e+18,60.103378515625,82.65836181640626,15.937271118164062,115.81654357910156,1.6904262477611146e+18,60.09911469726562,-3.016495906924232,-0.7727260114542251,-0.305725207777432,-2.304284899136749,0.5269406905295246,0.1777256145229351,-1.1762087365696683
0.15,1.6904262478112128e+18,60.14921274414062,-3.379530209600925,-0.6170663149386644,0.8882024633321166,1.6904262478124662e+18,60.15046625976562,-0.0305816650390625,0.8274993896484375,-0.15595703125,1.6904262478112128e+18,60.14921274414062,3.106591278795302,8.835043803341984,-2.9055266793024535,1.6904262478112128e+18,60.14921274414062,-0.6468647241592407,-1.1674111127853393,-0.6080502510070801,1.6904262478074568e+18,60.14545678710938,-0.652598249912262,-1.195865702629089,-0.6480069637298584,,,,,,,,,,,,,1.6904262478112128e+18,60.14921274414062,47.068711853027345,-8.87716293334961,8.155209350585938,1.6904262478121864e+18,60.150186401367186,95.42574691772462,25.914417266845703,129.48321533203125,1.6904262478112128e+18,60.14921274414062,-3.037697237500164,-0.7965559938783988,-0.2849073938401784,-2.3892332381727956,0.5102936758484306,0.1543328120846687,-1.1220595923659942
0.2,1.6904262478613105e+18,60.19931040039063,-3.2487795017841457,-1.3445993175303934,3.404565808205902,1.690426247862564e+18,60.20056411132813,0.0308685302734375,0.7297332763671875,0.0587554931640625,1.6904262478613105e+18,60.19931040039063,3.3913238739603755,8.704314547478557,-2.983694908514619,1.6904262478613105e+18,60.19931040039063,-0.3544210970401763,-0.7133360683918,-0.0416848223656416,1.6904262478575542e+18,60.195554296875,-0.3871019631624221,-0.747771430015564,-0.0817307077348232,,,,,,,,,,,,,1.6904262478613105e+18,60.19931040039063,50.23235321044922,2.3842395782470702,22.059371948242188,1.6904262478589947e+18,60.196994628906246,96.6201171875,35.8305419921875,141.4434051513672,1.6904262478613105e+18,60.19931040039063,-3.0186010991087224,-0.8093040147139199,-0.2712437692344046,-2.420020646576343,0.503496446743757,0.133835921731131,-1.0921080492071529
0.25,1.690426247911408e+18,60.24940815429687,-2.5217665483176708,-1.970782069669366,2.9783623737671965,1.6904262479126618e+18,60.25066171875,0.0984588623046875,0.6920166015625,-0.020513916015625,1.690426247911408e+18,60.24940815429687,3.377753847578167,8.717104704755545,-2.9615431071045992,1.690426247911408e+18,60.24940815429687,0.0677843905985355,-0.3589615821838379,0.4093344777822494,1.690426247907652e+18,60.24565209960938,0.0398270435631275,-0.3548176348209381,0.3812709182500839,,,,,,,,,,,,,1.690426247911408e+18,60.24940815429687,46.70756530761719,8.875089263916015,28.252182006835938,1.6904262479110006e+18,60.24900043945313,92.2243896484375,42.441567993164064,147.5681610107422,1.690426247911408e+18,60.24940815429687,-2.9934595220229747,-0.810501033855895,-0.2638396613656214,-2.4217456138839992,0.5080940664603284,0.1237013594603917,-1.0949577111984272
0.3,1.6904262479615058e+18,60.29950571289063,-1.2923024363210796,-1.7273723079478742,1.6867893038600683,1.6904262479627597e+18,60.30075966796875,0.2342529296875,0.7431671142578125,-0.1400543212890625,1.6904262479615058e+18,60.29950571289063,3.183123314333856,8.845813502255082,-2.789019951606691,1.6904262479615058e+18,60.29950571289063,0.4284371197223663,-0.2312987864017486,0.6122221350669861,1.6904262479577498e+18,60.29574970703125,0.4147041440010071,-0.2438967674970626,0.6151815891265869,,,,,,,,,,,,,1.6904262479615058e+18,60.29950571289063,42.70470581054688,11.846363067626951,32.087493896484375,1.6904262479630062e+18,60.30100620117188,88.229541015625,44.852239990234374,151.80873107910156,1.6904262479615058e+18,60.29950571289063,-2.9756080715856137,-0.8047081264994409,-0.2554374152894695,-2.4221090411753963,0.5219497320772767,0.12138135100094,-1.1245508519683267
0.35,1.6904262480116037e+18,60.349603515625006,0.8499238783422112,-0.3301476663583517,-0.2035409264785051,1.690426248012857e+18,60.3508572265625,0.3990997314453125,0.8983428955078125,-0.29317626953125,1.6904262480116037e+18,60.349603515625006,2.95371443007946,8.994913345876336,-2.554968385339081,1.6904262480116037e+18,60.349603515625006,0.5051409661769867,-0.0704359848052263,0.4799072980880737,1.6904262480078474e+18,60.34584755859375,0.5029059588909149,-0.0762466742657124,0.4953656435012817,1.6904262479995574e+18,60.33755737304688,76.07604552619159,4.171515194883219,180.0,49.28006515964032,95.25747443549336,344.6899614838686,22.30991354252174,1.1826640928844974,-122.96820926336744,0.2231818467359303,1.6904262480116037e+18,60.349603515625006,39.703521728515625,12.540414428710935,36.90348510742187,1.6904262480150144e+18,60.353014355468744,85.40709838867187,45.359619140625,156.77579345703126,1.6904262480116037e+18,60.349603515625006,-2.9747163593940606,-0.7967732811839768,-0.2479866427029517,-2.4285271894949885,0.5365517592213532,0.1254672874476091,-1.1611734671392888
0.4,1.690426248061701e+18,60.399701123046874,2.4568807607179877,-0.4820633857309818,-0.6332253349007666,1.690426248062955e+18,60.40095512695312,0.5842498779296875,0.8934600830078125,-0.3043487548828125,1.690426248061701e+18,60.399701123046874,2.792196828077137,9.107803110570908,-2.327354655486196,1.690426248061701e+18,60.399701123046874,0.4074792921543121,-0.2512052562087774,0.2942025661468505,1.690426248057945e+18,60.3959451171875,0.4229304373264312,-0.1944141130894422,0.3033240914344787,,,,,,,,,,,,,1.690426248061701e+18,60.399701123046874,36.55418090820312,13.481975555419922,41.763214111328125,1.6904262480618217e+18,60.399821655273435,82.34667587280273,46.324066162109375,161.07351303100586,1.690426248061701e+18,60.399701123046874,-2.9902080403910065,-0.7906074260058504,-0.2411319089012876,-2.446875651933552,0.5472470588602818,0.1315297577204456,-1.191052181283478
0.45,1.690426248111799e+18,60.44979916992188,4.848935588877797,1.7166900535094736,-2.1956937886349857,1.6904262481130527e+18,60.45105268554687,0.7747833251953125,1.1357147216796877,-0.464801025390625,1.690426248111799e+18,60.44979916992188,2.7748613701337574,9.15756497879684,-2.146699689911157,1.690426248111799e+18,60.44979916992188,-0.0409696623682975,-0.6331189870834351,-0.0119649574160575,1.690426248108043e+18,60.446043115234374,0.0122746165841817,-0.6469014286994934,0.0159352373797446,,,,,,,,,,,,,1.690426248111799e+18,60.44979916992188,30.26923828125,15.415155792236328,45.30066528320312,1.6904262481086267e+18,60.446626708984375,76.15512084960938,48.2492919921875,163.94122619628905,1.690426248111799e+18,60.44979916992188,-3.000208040277559,-0.7906749103426858,-0.2278467808860507,-2.4831371181251556,0.5537093063406177,0.1276813543920146,-1.2049263915142856
0.5,1.690426248161897e+18,60.49989677734375,2.155234557057321,-0.2152403659093379,0.1915181879904866,1.6904262481631506e+18,60.50115053710938,0.417840576171875,0.8329742431640625,-0.1034637451171875,1.690426248161897e+18,60.49989677734375,2.8147390901094673,9.12630930740714,-2.226110671112984,1.690426248161897e+18,60.49989677734375,-0.3849754244089126,-0.2144716575741767,0.2261495441198349,1.690426248158141e+18,60.49614072265625,-0.4000270307064056,-0.237121844291687,0.1729028016328811,,,,,,,,,,,,,1.690426248161897e+18,60.49989677734375,23.71344146728516,18.11715316772461,43.51444702148437,1.6904262481606326e+18,60.4986326171875,69.61803894042968,51.06495666503906,161.45082397460936,1.690426248161897e+18,60.49989677734375,-2.9665504923452692,-0.7937618458256962,-0.2238342711873565,-2.4724734243828532,0.5535208532855164,0.1159369846569773,-1.196119461983272
0.55,1.6904262482119946e+18,60.5499947265625,-0.1336561907738446,1.575614760198593,5.003384100050628,1.6904262482132485e+18,60.55124814453124,0.3088836669921875,1.264996337890625,0.29486083984375,1.6904262482119946e+18,60.5499947265625,2.5398587575255336,9.19461115783453,-2.2720189618767797,1.6904262482119946e+18,60.5499947265625,0.3579485952854156,0.6353205978870392,0.7002845942974091,1.6904262482082386e+18,60.546238671874995,0.2990213751792908,0.5783860146999359,0.7179287433624267,,,,,,,,,,,,,1.6904262482119946e+18,60.5499947265625,20.9539306640625,19.565302276611327,39.75160522460938,1.6904262482126392e+18,60.55063935546875,67.1003204345703,52.272637939453126,157.09517822265624,1.6904262482119946e+18,60.5499947265625,-2.909974215720916,-0.7851466872044064,-0.2294680382167714,-2.411252639935033,0.5637567004353083,0.1140520049425448,-1.215812801226053
0.6,1.6904262482620923e+18,60.60009213867188,3.0187177065789697,6.251040286819935,2.5463276612786947,1.6904262482633462e+18,60.60134609375,0.4927825927734375,1.4742156982421877,-0.060491943359375,1.6904262482620923e+18,60.60009213867188,2.3310361497040093,9.288734847260711,-2.110104031119943,1.6904262482620923e+18,60.60009213867188,0.5947864651679993,0.9028900146484377,-0.3227231405675411,1.6904262482583365e+18,60.596336132812496,0.5983003735542297,0.8492830872535706,-0.2315811946988105,,,,,,,,,,,,,1.6904262482620923e+18,60.60009213867188,21.072955322265624,18.65415802001953,35.77164306640625,1.690426248264647e+18,60.602646582031255,68.062255859375,50.66156921386719,153.0796325683594,1.6904262482620923e+18,60.60009213867188,-2.944891426367099,-0.7751253359789281,-0.2373719554571897,-2.4059830976825984,0.5699105726471765,0.1340888397801537,-1.2443603795988198
0.65,1.6904262483121902e+18,60.6501900390625,-4.940873634054064,-3.8187434646427634,1.1281939994949102,1.6904262483134438e+18,60.65144375,-0.4194610595703125,0.474041748046875,-0.03037109375,1.6904262483121902e+18,60.6501900390625,2.3893729540516433,9.303350817112326,-1.9754420535305144,1.6904262483121902e+18,60.6501900390625,0.8312024474143982,1.799565029144287,-0.002604595106095,1.6904262483084342e+18,60.64643413085937,0.7967049717903136,1.794595766067505,-0.1346750974655151,,,,,,,,,,,,,1.6904262483121902e+18,60.6501900390625,24.00673828125,15.975230407714845,31.410733032226563,1.690426248311454e+18,60.64945391845703,71.21471405029297,48.09983825683594,149.10528182983398,1.6904262483121902e+18,60.6501900390625,-3.06796290719677,-0.7699771635161398,-0.2542442959995328,-2.4507587433293643,0.5599022201063227,0.1697155247129001,-1.2491288392549549
0.7,1.6904262483622876e+18,60.700287744140624,-7.657633528352974,0.6538520310223103,-1.7468576081754268,1.6904262483635415e+18,60.701541503906256,-0.5323333740234375,1.146136474609375,-0.4728240966796875,1.6904262483622876e+18,60.700287744140624,1.8657602034187315,9.467246780231594,-1.7350597352583703,1.6904262483622876e+18,60.700287744140624,0.7712071895599365,1.5038673043251038,1.2487730979919434,1.6904262483585316e+18,60.69653173828125,0.8282336354255676,1.593652856349945,1.2147618055343627,,,,,,,,,,,,,1.6904262483622876e+18,60.700287744140624,27.684001159667968,14.46941146850586,28.311032104492188,1.690426248358262e+18,60.696261914062504,74.42603149414063,47.07869873046875,146.60756225585936,1.6904262483622876e+18,60.700287744140624,-3.0964310816886917,-0.7431101506802755,-0.2783914832769043,-2.389637601304757,0.5720916246959449,0.2067861615405935,-1.3077318474956905
0.75,1.6904262484123855e+18,60.75038540039062,-3.509410272063017,-0.3449889109462499,-3.090422380413264,1.6904262484136392e+18,60.75163896484376,-0.1688934326171875,0.8969451904296875,-0.3854339599609375,1.6904262484123855e+18,60.75038540039062,1.0649903928285092,9.61147697198987,-1.608048652361333,1.6904262484123855e+18,60.75038540039062,0.1822897657752036,0.6406090795993805,1.773750638961792,1.6904262484086292e+18,60.74662939453125,0.1980595022439956,0.6305396497249603,1.752431058883667,,,,,,,,,,,,,1.6904262484123855e+18,60.75038540039062,29.317791748046876,15.953414916992188,27.1206787109375,1.6904262484102715e+18,60.74827182617188,75.8600067138672,48.80760803222656,145.5372314453125,1.6904262484123855e+18,60.75038540039062,-2.894506488058626,-0.7122117804164692,-0.2970791631331014,-2.1469576831039188,0.5977824202705141,0.2167200082197717,-1.37160173783083
0.8,1.6904262484624827e+18,60.80048251953125,2.6043601927566526,-0.1306325759428739,0.8766874990096687,1.6904262484637366e+18,60.801736572265625,0.2829833984375,0.9845062255859376,-0.054888916015625,1.6904262484624827e+18,60.80048251953125,0.2926834025591704,9.671974987572431,-1.58683760970667,1.6904262484624827e+18,60.80048251953125,0.020039861719124,1.3094376921653748,0.8337363779544831,1.690426248458727e+18,60.7967265625,0.03179446849972,1.2555527210235595,0.9345966875553132,,,,,,,,,,,,,1.6904262484624827e+18,60.80048251953125,30.19866027832031,18.4336311340332,26.487347412109376,1.690426248462282e+18,60.80028193359375,77.05438842773438,51.41557006835937,144.62973327636718,1.6904262484624827e+18,60.80048251953125,-2.5408323304908547,-0.682390337090375,-0.3197604805422704,-1.7519420513365602,0.6186838657539971,0.2218267875826388,-1.40489806550817
0.85,1.6904262485125804e+18,60.85058037109375,-0.5265785927816108,0.1481539702993631,-0.1917128630058467,1.6904262485138342e+18,60.85183413085938,-0.0605682373046875,0.996722412109375,-0.226513671875,1.6904262485125804e+18,60.85058037109375,-0.0956742974503722,9.67316121629536,-1.6059434675495323,1.6904262485125804e+18,60.85058037109375,-0.0305162872653454,1.2051164865493775,0.5719368517398834,1.6904262485088243e+18,60.846824316406256,-0.0343746975064277,1.279427909851074,0.5571778237819671,,,,,,,,,,,,,1.6904262485125804e+18,60.85058037109375,32.24794921875,19.80450439453125,24.647982788085937,1.6904262485142892e+18,60.85228935546875,79.27617492675782,52.85662841796875,142.59607543945313,1.6904262485125804e+18,60.85058037109375,-2.368779749122474,-0.6619578092342293,-0.34713221579111,-1.5116933249875109,0.619943834525601,0.2385156961441475,-1.4056141223246883
0.9,1.6904262485626783e+18,60.900678173828126,2.2162508681994675,-0.7373222244870663,-1.6111325898513198,1.690426248563932e+18,60.90193198242188,0.1760498046875,0.90220947265625,-0.33568115234375,1.6904262485626783e+18,60.900678173828126,-0.3771746589537709,9.67104664990723,-1.5803979905001817,1.6904262485626783e+18,60.900678173828126,0.0784179471433162,0.422611403465271,0.1897431712597608,1.6904262485589222e+18,60.896922119140626,0.0792869932949542,0.4648397445678711,0.2257142995047615,,,,,,,,,,,,,1.6904262485626783e+18,60.900678173828126,33.80929260253906,21.160399627685543,23.582244873046875,1.6904262485610982e+18,60.89909814453125,80.54965591430664,54.010555267333984,142.01631927490234,1.6904262485626783e+18,60.900678173828126,-2.2310178531228635,-0.6477600617839252,-0.362235831423047,-1.3364380918756582,0.6229066639924566,0.2473246937151284,-1.4043071157780185
0.95,1.690426248612776e+18,60.95077587890624,-1.4629710792195796,-0.9544289687901736,-1.202544423984587,1.6904262486140296e+18,60.9520294921875,-0.2431549072265625,0.88043212890625,-0.2219085693359375,1.690426248612776e+18,60.95077587890624,-0.5400480375596508,9.666689156123995,-1.5572218729306757,1.690426248612776e+18,60.95077587890624,0.0451206815429032,0.2666855603456497,0.6156257510185241,1.69042624860902e+18,60.94701997070312,0.0273973748087883,0.2893349260091781,0.5546415835618973,,,,,,,,,,,,,1.690426248612776e+18,60.95077587890624,34.7305404663086,22.345718383789062,23.86070861816406,1.690426248607908e+18,60.9459080078125,81.24608459472657,55.10490417480469,142.37034301757814,1.690426248612776e+18,60.95077587890624,-2.1476439867842982,-0.640128742188274,-0.3687807577231327,-1.2378273729713054,0.6257187692744548,0.250374241461456,-1.4016662292843238
1.0,1.6904262486628736e+18,61.000873535156245,-0.872187820276767,-1.47921096778512,1.257741527453959,1.6904262486641275e+18,61.00212749023437,-0.1839599609375,0.83438720703125,-0.0207794189453125,1.6904262486628736e+18,61.000873535156245,-0.9935236340163648,9.651998367470505,-1.411000185868144,1.6904262486628736e+18,61.000873535156245,0.569143432378769,0.1054433293640613,1.138211154937744,1.6904262486591176e+18,60.99711757812499,0.5343270421028137,0.1056160166859626,1.1096072316169738,,,,,,,,,,,,,1.6904262486628736e+18,61.000873535156245,33.87924499511719,24.351515197753905,24.70970458984375,1.6904262486599183e+18,60.997918359375,80.22725524902344,57.16343383789062,143.2836120605469,1.6904262486628736e+18,61.000873535156245,-1.8722555202784856,-0.6223671902127834,-0.3723121267641491,-0.9587840567934176,0.6418711277651666,0.2489216380271452,-1.3929866504944632
1.05,1.6904262487129715e+18,61.05097138671876,0.1670797661741077,-0.6517119794797896,-0.429372229894027,1.6904262487142252e+18,61.052225195312495,-0.1293243408203125,0.9323333740234376,-0.186517333984375,1.6904262487129715e+18,61.05097138671876,-1.6417283360275623,9.609467502637504,-1.0377347216343134,1.6904262487129715e+18,61.05097138671876,0.8363758563995362,0.2384880274534225,1.442023468017578,1.6904262487092155e+18,61.04721533203125,0.8365087032318115,0.2449485540390014,1.4392102479934692,,,,,,,,,,,,,1.6904262487129715e+18,61.05097138671876,32.22166900634765,26.406777954101564,26.23873291015625,1.6904262487119273e+18,61.04992734374999,78.46699829101563,59.29896545410156,144.91591796875,1.6904262487129715e+18,61.05097138671876,-1.4858698247867514,-0.5942575902110365,-0.3712198419079212,-0.5695416837678164,0.6677103991044028,0.2511371123336205,-1.370221197605876
1.1,1.6904262487630692e+18,61.10106918945312,3.0979898053798083,0.6213183609730005,-2.6783001367492973,1.690426248764323e+18,61.10232294921875,0.1446990966796875,1.059649658203125,-0.3638458251953125,1.6904262487630692e+18,61.10106918945312,-2.2425414353016015,9.521537524058818,-0.6808245305870473,1.6904262487630692e+18,61.10106918945312,0.5102362990379333,0.0061360334977507,0.7995911359786987,1.6904262487593132e+18,61.09731313476563,0.550707733631134,0.0371014028787613,0.8986326277256012,,,,,,,,,,,,,1.6904262487630692e+18,61.10106918945312,30.424974060058595,27.986170959472656,27.664849853515623,1.6904262487639375e+18,61.1019375,76.26351318359374,61.03478088378906,146.60087890625,1.6904262487630692e+18,61.10106918945312,-1.2135296620010276,-0.5673387103821359,-0.3689561129578578,-0.2963696754331715,0.6915097662575336,0.2525144284470105,-1.329241995197472
1.15,1.690426248813167e+18,61.151167041015626,2.281764753795713,1.1666444339203834,-3.4681676350226995,1.6904262488144205e+18,61.15242060546875,-0.0874053955078125,1.0733306884765623,-0.395330810546875,1.690426248813167e+18,61.151167041015626,-2.3292597876812513,9.50817324938178,-0.5815345444388688,1.690426248813167e+18,61.151167041015626,-0.0773230992257594,-0.0372403092682361,-0.214308039844036,1.690426248809411e+18,61.14741088867188,-0.0312363225035369,-0.0575065433979034,-0.193058832688257,,,,,,,,,,,,,1.690426248813167e+18,61.151167041015626,28.56809387207031,28.864870452880854,29.159222412109376,1.6904262488159475e+18,61.15394750976562,74.65455322265625,61.60558471679688,147.81171875,1.690426248813167e+18,61.151167041015626,-1.156724738610264,-0.5633386383338472,-0.3652244028708855,-0.2447582241291398,0.6966841907074625,0.2527610588838185,-1.3234622147885244
1.2,1.6904262488632645e+18,61.20126450195313,1.0808877077275514,0.8115037806028127,-0.5501049485608934,1.6904262488645184e+18,61.20251835937499,-0.1065826416015625,1.0911468505859374,-0.1208709716796875,1.6904262488632645e+18,61.20126450195313,-2.214751774135083,9.52737724844992,-0.7008054615379125,1.6904262488632645e+18,61.20126450195313,-0.3000794053077698,0.0864440754055976,-0.3170350521802902,1.6904262488595085e+18,61.19750854492187,-0.3160856366157532,0.1270048782229423,-0.2978368580341338,,,,,,,,,,,,,1.6904262488632645e+18,61.20126450195313,27.18882293701172,29.3639778137207,29.162969970703124,1.6904262488627556e+18,61.20075561523438,73.47663879394531,62.10067367553711,147.55398559570312,1.6904262488632645e+18,61.20126450195313,-1.2256504738286478,-0.5684475435193382,-0.3698108376208378,-0.3067162867960979,0.690038547494553,0.2528696660494991,-1.3315929932086463
1.25,1.6904262489133624e+18,61.2513623046875,1.2661734895214436,1.942728058478236,-3.756225867479145,1.690426248914616e+18,61.25261611328125,-0.035986328125,1.17855224609375,-0.5345947265625,1.6904262489133624e+18,61.2513623046875,-1.9384653449194136,9.574609422841666,-0.8467464173498749,1.6904262489133624e+18,61.2513623046875,-0.2231392860412597,-1.1624607264995577,-0.9001397490501404,1.6904262489096064e+18,61.24760639648438,-0.206852301955223,-1.0123874127864838,-0.8239132761955261,,,,,,,,,,,,,1.6904262489133624e+18,61.2513623046875,25.541419982910156,28.993376159667967,29.072265625,1.6904262489095634e+18,61.24756333007813,71.83470458984375,61.55821228027344,147.56041259765624,1.6904262489133624e+18,61.2513623046875,-1.314660766303344,-0.5829295638153721,-0.3641150624146362,-0.4143303703817544,0.6828037078819992,0.2475548846537684,-1.353073173733767
1.3,1.69042624896346e+18,61.30146015625,2.654664614200592,3.582226151235699,-3.2457506847083564,1.690426248964714e+18,61.30271391601563,0.1740966796875,1.3574310302734376,-0.344097900390625,1.69042624896346e+18,61.30146015625,-1.096907136555873,9.669261286247371,-1.1567968913535027,1.69042624896346e+18,61.30146015625,-0.4002281308174133,-2.491599988937378,-2.246057558059692,1.6904262489597043e+18,61.29770419921874,-0.4054309606552124,-2.466702604293823,-2.132781720161438,,,,,,,,,,,,,1.69042624896346e+18,61.30146015625,22.169212341308594,27.126340484619146,29.812600708007817,1.6904262489615662e+18,61.29956640625001,68.36280822753906,59.56265563964844,148.35182495117186,1.69042624896346e+18,61.30146015625,-1.6393277814222202,-0.6279921175101969,-0.3306588937175573,-0.8330570843513858,0.6681148950455369,0.2221048163242621,-1.4040575215613915
1.35,1.6904262490135578e+18,61.351557812500005,-1.7281949640554188,1.8268075477856396,1.2940592753127216,1.6904262490148116e+18,61.35281157226562,-0.211773681640625,1.1425445556640623,-0.0134185791015625,1.6904262490135578e+18,61.351557812500005,0.3420119610550161,9.689122404823898,-1.4161036757130918,1.6904262490135578e+18,61.351557812500005,-0.5140583753585816,-1.617593765258789,-2.7154207706451414,1.6904262490098017e+18,61.3478017578125,-0.4883440136909485,-1.72542564868927,-2.753684425354004,1.6904262489995497e+18,61.3375498046875,76.6060146195814,5.052286290034812,180.0,49.280063741812974,95.78744352888316,344.68997746316944,20.478589445899424,1.178107480940383,-122.96816788100254,0.4735148103054383,1.6904262490135578e+18,61.351557812500005,20.043241882324217,24.336331176757813,29.90538635253906,1.690426249013572e+18,61.351571875000005,66.24777221679688,56.26451416015625,148.1337158203125,1.6904262490135578e+18,61.351557812500005,-2.487807660203406,-0.6908884706670795,-0.28742872722732,-1.782448268624514,0.632228963119741,0.1995772499608229,-1.4166135360316665
1.4,1.6904262490636557e+18,61.40165556640625,-4.106181344017684,1.4157942005985975,-0.5138318289484083,1.6904262490649093e+18,61.402909375,-0.2375946044921875,1.098492431640625,-0.268255615234375,1.6904262490636557e+18,61.40165556640625,1.5629107029959557,9.524868948116898,-1.7045456467901172,1.6904262490636557e+18,61.40165556640625,-0.8663201212882996,-0.647162675857544,-2.0415588855743407,1.6904262490598994e+18,61.39789946289062,-0.8356747508049012,-0.6624189257621765,-2.0894706726074217,,,,,,,,,,,,,1.6904262490636557e+18,61.40165556640625,19.497509765625,21.811555480957033,28.377072143554688,1.6904262490655785e+18,61.40357841796875,66.03874206542969,53.855767822265626,146.26911315917968,1.6904262490636557e+18,61.40165556640625,-2.9672051508475317,-0.737724226224404,-0.2682232864405569,-2.3054031268603676,0.5901127198827602,0.1879399539322474,-1.3321485988552615
1.45,1.690426249113753e+18,61.451753320312505,-3.759330146330893,0.0258244108951091,-0.4720844572563468,1.6904262491150072e+18,61.45300717773438,-0.1098388671875,0.933404541015625,-0.2693695068359375,1.690426249113753e+18,61.451753320312505,2.4561964317156373,9.265414294332263,-2.0568209738044443,1.690426249113753e+18,61.451753320312505,-0.9682958841323852,-1.375230598449707,-1.3570599794387816,1.6904262491099973e+18,61.44799736328125,-0.9704280972480774,-1.2887214183807374,-1.409646701812744,,,,,,,,,,,,,1.690426249113753e+18,61.451753320312505,19.280442810058595,20.47114028930664,26.1711669921875,1.6904262491123853e+18,61.4503853149414,65.54501342773438,53.01653671264648,144.24610137939453,1.690426249113753e+18,61.451753320312505,-3.0621274640557603,-0.772526871330831,-0.2568473777734446,-2.442735922372924,0.5556184676988479,0.1681766758526064,-1.237800640871539
1.5,1.6904262491638513e+18,61.50185107421875,-3.016791180882752,-0.1971510500848293,-1.3786626229128245,1.690426249165105e+18,61.503104931640635,0.0149871826171875,0.880023193359375,-0.3733856201171875,1.6904262491638513e+18,61.50185107421875,3.1242310972866414,9.01439721402526,-2.2625290444150563,1.6904262491638513e+18,61.50185107421875,-1.028877019882202,-1.9022863864898685,-0.7500370621681214,1.6904262491600952e+18,61.49809521484375,-1.0141448020935058,-1.8911998987197876,-0.7947484612464905,,,,,,,,,,,,,1.6904262491638513e+18,61.50185107421875,17.527526092529296,19.999088287353516,24.868902587890624,1.690426249159194e+18,61.497194189453126,63.83649597167969,52.64146423339844,143.2426544189453,1.6904262491638513e+18,61.50185107421875,-3.046389648182815,-0.8010584576108648,-0.2323203521283682,-2.514250284932012,0.5354068216235366,0.1319436791151124,-1.1664189986023514
1.55,1.690426249213949e+18,61.551948730468744,-4.354311762972474,-1.1459856767731904,-0.7375769591265916,1.6904262492152026e+18,61.5532025390625,-0.110302734375,0.7709381103515625,-0.2943389892578125,1.690426249213949e+18,61.551948730468744,3.5436946436241263,8.824698934938311,-2.3935300152789054,1.690426249213949e+18,61.551948730468744,-1.1054072856903077,-2.248554563522339,2.734810113909081e-05,1.6904262492101926e+18,61.54819282226563,-1.1029887199401855,-2.2162946701049804,-0.066292943060398,,,,,,,,,,,,,1.690426249213949e+18,61.551948730468744,14.83880386352539,20.593394470214843,23.856686401367188,1.690426249211202e+18,61.54920219726563,61.099606323242185,53.30284729003906,142.26691284179688,1.690426249213949e+18,61.551948730468744,-2.9689081784641265,-0.8205024882474679,-0.203355558233553,-2.547443500140139,0.5271490403022197,0.0849433497713924,-1.1195521142104998
1.6,1.6904262492640466e+18,61.60204653320312,-4.859074004150033,-1.4633964942508937,0.5086047711759806,1.6904262492653002e+18,61.603300292968754,-0.1109161376953125,0.74974365234375,-0.189178466796875,1.6904262492640466e+18,61.60204653320312,3.6071761173838377,8.782292105650304,-2.4550906624308224,1.6904262492640466e+18,61.60204653320312,-1.010718011856079,-2.2413626670837403,0.9719404458999634,1.6904262492602906e+18,61.59829057617187,-1.025712299346924,-2.2455591201782226,0.9055797934532166,,,,,,,,,,,,,1.6904262492640466e+18,61.60204653320312,12.031005859375,21.781548309326173,22.99873046875,1.69042624926321e+18,61.60121015625,57.931146240234376,54.665890502929685,141.3124267578125,1.6904262492640466e+18,61.60204653320312,-2.8376961454476186,-0.8262843758975256,-0.1710736205964025,-2.543937808198247,0.5354546476548462,0.030378284801635,-1.109666894369188
1.65,1.6904262493141445e+18,61.6521443359375,-3.3363267354294655,-1.0797743104320765,1.5941843484337626,1.690426249315398e+18,61.65339819335937,0.0321502685546875,0.8134552001953125,-0.063055419921875,1.6904262493141445e+18,61.6521443359375,3.315078020339012,8.90324663576126,-2.4284438876891135,1.6904262493141445e+18,61.6521443359375,-0.5598148345947266,-2.2347815990448,1.4559797048568726,1.6904262493103882e+18,61.64838833007813,-0.5983374059200287,-2.216340112686157,1.444902777671814,,,,,,,,,,,,,1.6904262493141445e+18,61.6521443359375,8.544200897216797,22.96998748779297,22.09700927734375,1.6904262493152212e+18,61.65322133789063,53.816064453125,55.892333984375,140.34902648925782,1.6904262493141445e+18,61.6521443359375,-2.6756396410372316,-0.8175319477326113,-0.1364741192921761,-2.5091264882016757,0.5587270453095197,-0.0216587891779986,-1.1383550738875374
1.7,1.6904262493642422e+18,61.7022421875,-0.9676861006048322,-0.0734260031211376,1.5051123017609118,1.690426249365496e+18,61.70349594726563,0.214202880859375,0.9510986328125,-0.0847900390625,1.6904262493642422e+18,61.7022421875,2.932039072461724,9.0842433712852,-2.2432445859088004,1.6904262493642422e+18,61.7022421875,-0.2639282643795013,-2.2614402294158937,1.4319812059402466,1.690426249360486e+18,61.69848608398438,-0.2777780383825302,-2.268471193313599,1.424150466918945,,,,,,,,,,,,,1.6904262493642422e+18,61.7022421875,4.457439422607422,23.522157287597658,21.666986083984376,1.6904262493620278e+18,61.700027709960935,50.2650146484375,56.1523323059082,140.10513305664062,1.6904262493642422e+18,61.7022421875,-2.5285283617621905,-0.8030868061988106,-0.0940721474457675,-2.488326285016794,0.5843453912231823,-0.0662115124057572,-1.184788050566185
1.75,1.69042624941434e+18,61.75233994140625,0.8663110664239525,1.5745805071669818,0.0009756547121702,1.6904262494155935e+18,61.753593554687505,0.4058258056640625,1.139495849609375,-0.2602020263671875,1.69042624941434e+18,61.75233994140625,2.4791071471211312,9.276899214229584,-1.9835840927407145,1.69042624941434e+18,61.75233994140625,0.0346702590584754,-2.5148030281066895,1.4997392177581788,1.690426249410584e+18,61.748583984375,0.0203993352130055,-2.4545310974121093,1.531021094322205,,,,,,,,,,,,,1.69042624941434e+18,61.75233994140625,0.24561767578125,23.63096923828125,21.099920654296874,1.6904262494088333e+18,61.74683330078125,46.3857666015625,56.27191162109375,139.51310119628906,1.69042624941434e+18,61.75233994140625,-2.3821515998179663,-0.7842739403663075,-0.0466945030867191,-2.466637358603883,0.6092163492213201,-0.1056321858031413,-1.2410427425084314
1.8,1.6904262494644375e+18,61.80243754882813,2.5743370442235465,1.637838752017021,-1.5911427011024952,1.6904262494656916e+18,61.80369150390625,0.4329803466796875,1.0729888916015624,-0.2780609130859375,1.6904262494644375e+18,61.80243754882813,2.2273841689540443,9.40942634252131,-1.6319017047312854,1.6904262494644375e+18,61.80243754882813,-0.0752417609095573,-3.095338296890259,0.5827496439218521,1.6904262494606817e+18,61.798681640625,-0.0453052159398794,-3.10031852722168,0.6628804415464401,,,,,,,,,,,,,1.6904262494644375e+18,61.80243754882813,-3.771314239501953,23.001681518554687,20.404824829101564,1.690426249460839e+18,61.79883876953125,42.415277099609376,55.57980041503906,138.80140686035156,1.6904262494644375e+18,61.80243754882813,-2.2746408437085663,-0.7685498971981183,0.013556385783693,-2.5097942424964828,0.6212471561712061,-0.1506226697382718,-1.28527170363817
1.85,1.6904262495145354e+18,61.852535546875,0.1527994580176472,-1.1781375371241567,1.3426745453998443,1.690426249515789e+18,61.853789111328126,0.2525665283203125,0.82823486328125,-0.0072479248046875,1.6904262495145354e+18,61.852535546875,2.3567433347341415,9.412845678671598,-1.4173136944769322,1.6904262495145354e+18,61.852535546875,-0.3008943796157836,-2.5063267230987547,-0.0528176538646221,1.6904262495107796e+18,61.84877958984375,-0.2945103049278258,-2.5458938121795653,-0.0403353851288556,,,,,,,,,,,,,1.6904262495145354e+18,61.852535546875,-6.45322265625,22.262918853759764,18.925198364257813,1.6904262495128463e+18,61.85084633789063,39.87838134765625,54.85043029785156,137.25868530273436,1.6904262495145354e+18,61.852535546875,-2.221829745292194,-0.7620054984558693,0.0646470222491679,-2.5998979960742687,0.6127778495557923,-0.198369092194444,-1.2864574648566258
1.9,1.690426249564633e+18,61.90263315429687,-1.614850733591616,0.4765056346994638,0.1977771314808726,1.6904262495658872e+18,61.90388720703125,-0.0232177734375,1.0369110107421875,-0.0809112548828125,1.690426249564633e+18,61.90263315429687,2.4916376013225316,9.39236449927449,-1.3211065936793387,1.690426249564633e+18,61.90263315429687,-0.4014004170894623,-1.851589274406433,0.2540065668523311,1.690426249560877e+18,61.89887709960938,-0.4066564381122589,-1.9129112720489505,0.1961494313552975,,,,,,,,,,,,,1.690426249564633e+18,61.90263315429687,-7.543870544433593,21.698236083984373,17.45762939453125,1.6904262495648566e+18,61.90285654296874,38.68238220214844,54.17903442382813,135.59280700683593,1.690426249564633e+18,61.90263315429687,-2.1628420175715517,-0.7548994248320133,0.1013183853587185,-2.654056412905851,0.6021776587636192,-0.2388573217711102,-1.2790922778536653
1.95,1.690426249614731e+18,61.952731103515625,-4.017849155926704,1.989465961160064,2.0781417896699903,1.690426249615985e+18,61.95398481445312,-0.0835968017578125,1.19345703125,0.01123046875,1.690426249614731e+18,61.952731103515625,2.282053156896084,9.4501789748615,-1.28275792451486,1.690426249614731e+18,61.952731103515625,-0.1067774165421723,-0.8081822514533996,0.853159499168396,1.690426249610975e+18,61.94897509765625,-0.1181403297930955,-0.872962474822998,0.8543406367301941,,,,,,,,,,,,,1.690426249614731e+18,61.952731103515625,-8.572294616699219,20.86203536987305,16.401229858398438,1.6904262496116636e+18,61.949663635253906,37.712276458740234,53.30323028564453,134.73717498779297,1.690426249614731e+18,61.952731103515625,-2.067643818636796,-0.740085659106588,0.1262555316136899,-2.6289850002180004,0.6063552116456467,-0.2619035079856344,-1.3005294702912529
2.0,1.690426249664829e+18,62.00282875976562,-2.2323052879694103,0.7005587202352286,-2.928021770418286,1.6904262496660826e+18,62.00408256835938,-0.06864013671875,1.0023681640625,-0.36932373046875,1.690426249664829e+18,62.00282875976562,1.9654120086166265,9.518253796986937,-1.305345603898019,1.690426249664829e+18,62.00282875976562,-0.2686228990554809,-0.7833157837390899,0.6775949001312256,1.6904262496610726e+18,61.99907265624999,-0.2680483311414718,-0.6783416271209717,0.6759688138961792,,,,,,,,,,,,,1.690426249664829e+18,62.00282875976562,-9.605398559570313,19.770563507080077,15.754251098632812,1.6904262496584696e+18,61.99646962890624,36.81109619140625,52.33699340820313,134.16484985351562,1.690426249664829e+18,62.00282875976562,-1.9603798874596865,-0.7254781066814943,0.1393220713889393,-2.5547796087296777,0.6167339672424609,-0.2717611549360926,-1.327736110838627
2.05,1.6904262497149266e+18,62.0529265625,-2.4742891962192948,-0.6277837575948237,0.7667401444425433,1.6904262497161805e+18,62.05418037109375,-0.0766876220703125,0.902734375,-0.088714599609375,1.6904262497149266e+18,62.0529265625,1.6931209034213424,9.5788355161041,-1.2410614208402484,1.6904262497149266e+18,62.0529265625,-0.029167795786634,-1.708487629890442,0.8641970872879028,1.6904262497111706e+18,62.049170605468746,-0.0271362802945077,-1.7165481805801392,0.8483391523361206,,,,,,,,,,,,,1.6904262497149266e+18,62.0529265625,-11.027777099609375,18.81168594360351,15.02149658203125,1.6904262497104763e+18,62.04847631835937,35.306094360351565,51.37853393554688,133.44098205566405,1.6904262497149266e+18,62.0529265625,-1.8401962324147816,-0.707298991878776,0.167972284538536,-2.508648909824632,0.6207670025203654,-0.2932137261924344,-1.3550414849937935
2.1,1.6904262497650245e+18,62.103024365234376,-1.578548694758639,-0.1667960100227594,-2.262868330145925,1.690426249766278e+18,62.10427807617187,-0.0053192138671875,0.984356689453125,-0.3887420654296875,1.6904262497650245e+18,62.103024365234376,1.315934393286258,9.64603846537888,-1.1734993413164465,1.6904262497650245e+18,62.103024365234376,-0.203660961985588,-1.4152283668518066,1.0682607412338256,1.6904262497612682e+18,62.09926835937499,-0.1884576350450515,-1.4197347640991211,1.0603127479553225,,,,,,,,,,,,,1.6904262497650245e+18,62.103024365234376,-12.839146423339844,17.853118896484375,14.192208862304687,1.6904262497624832e+18,62.10048325195312,33.49533386230469,50.41787109375,132.58742065429686,1.6904262497650245e+18,62.103024365234376,-1.6616243496376026,-0.6841279969617586,0.2007651042773262,-2.4109119640600354,0.6265179961277204,-0.3146076594589605,-1.3898041827272605
2.15,1.6904262498151222e+18,62.15312216796875,-0.8389711363993584,0.1669124467831849,-2.384475625077188,1.6904262498163758e+18,62.154375976562505,-0.0139373779296875,0.9983154296875,-0.340264892578125,1.6904262498151222e+18,62.15312216796875,0.8967011485733092,9.688279407354594,-1.2215212047811597,1.6904262498151222e+18,62.15312216796875,-0.2942465901374816,-1.6060604572296142,0.9698308706283568,1.690426249811366e+18,62.149366113281246,-0.2928092300891876,-1.5697319746017455,0.9828081250190734,,,,,,,,,,,,,1.6904262498151222e+18,62.15312216796875,-14.669477844238282,16.926151275634766,13.381674194335938,1.690426249814488e+18,62.15248803710938,31.489456176757812,49.446295166015624,131.6738311767578,1.6904262498151222e+18,62.15312216796875,-1.3755252036954682,-0.6575297570379995,0.2296933594742531,-2.202127092495079,0.6336000067767315,-0.3365495794022026,-1.4153384974340275
2.2,1.6904262498652198e+18,62.20321992187501,-1.8311305547773835,-0.3658548226511478,-1.014973395410776,1.6904262498664735e+18,62.204473632812494,-0.1312286376953125,0.953118896484375,-0.223095703125,1.6904262498652198e+18,62.20321992187501,0.5496640071668848,9.70374924678266,-1.3018657697321472,1.6904262498652198e+18,62.20321992187501,-0.2890592992305755,-1.9211063623428344,0.9704788208007812,1.6904262498614638e+18,62.199463916015624,-0.2906371057033539,-1.9026986837387083,0.9671453714370728,,,,,,,,,,,,,1.6904262498652198e+18,62.20321992187501,-16.389260864257814,16.48179397583008,12.256582641601565,1.6904262498612933e+18,62.199293395996094,29.749736785888672,49.069332122802734,130.46205520629883,1.6904262498652198e+18,62.20321992187501,-1.0499718506173457,-0.6288824476341172,0.2619880229657553,-1.9695189659793724,0.6350123787118552,-0.3638519747148199,-1.425813368296862
2.25,1.6904262499153175e+18,62.25331748046875,-1.1616030495262144,0.0451152699160575,-0.4946486096334457,1.6904262499165716e+18,62.25457158203125,-0.10048828125,0.999456787109375,-0.19425048828125,1.6904262499153175e+18,62.25331748046875,0.2395363452210928,9.705869658389688,-1.379711956609189,1.6904262499153175e+18,62.25331748046875,-0.1884719133377074,-2.0051333904266357,0.8023842096328735,1.6904262499115617e+18,62.2495615234375,-0.1908456921577453,-1.989804172515869,0.822517728805542,,,,,,,,,,,,,1.6904262499153175e+18,62.25331748046875,-18.290625381469727,15.850264739990234,10.597061157226562,1.6904262499080975e+18,62.24609765625,28.035061645507813,48.44296875,128.92804870605468,1.6904262499153175e+18,62.25331748046875,-0.7214678592031436,-0.5984072992048397,0.2970212037083555,-1.7429244915437727,0.6320323051990446,-0.3924123314300604,-1.427310007981175
2.3,1.6904262499654157e+18,62.303415527343745,-1.6205397097873686,0.0541789832419156,-0.2870368973585963,1.690426249966669e+18,62.304669140625,-0.1577911376953125,1.0010467529296876,-0.155389404296875,1.6904262499654157e+18,62.303415527343745,0.0566771980607241,9.697853057577014,-1.455013924283087,1.6904262499654157e+18,62.303415527343745,-0.1846401631832122,-2.297758865356445,0.5896314144134521,1.6904262499616596e+18,62.29965952148437,-0.1842409998178481,-2.275310182571411,0.6056893825531006,,,,,,,,,,,,,1.6904262499654157e+18,62.303415527343745,-20.183755111694335,15.274471282958984,8.738809204101562,1.6904262499601052e+18,62.298105078125005,26.173529052734377,47.87132568359375,127.04736022949218,1.6904262499654157e+18,62.303415527343745,-0.4788344498043035,-0.5687732678402148,0.3323914598142385,-1.6101013397789756,0.6216941024355905,-0.4233446588147454,-1.421718603594366
2.35,1.690426250015513e+18,62.35351313476563,-0.6373951679313181,0.4190750730895995,1.0188259207335115,1.6904262500167672e+18,62.35476708984375,-0.059466552734375,1.0205596923828124,-0.0450653076171875,1.690426250015513e+18,62.35351313476563,0.0058349780904831,9.686640291071532,-1.529389453987926,1.690426250015513e+18,62.35351313476563,-0.1129575327038764,-1.9616857051849368,0.2700329393148422,1.690426250011757e+18,62.349757226562495,-0.1193662896752356,-2.004015493392944,0.2952977418899535,1.6904262499995412e+18,62.33754125976562,76.23870350420475,5.115343013989676,180.0,49.280072882732235,95.42013241350652,344.68997482148967,23.24937371031653,1.1736789415586772,-122.9681710193335,0.4575957182883846,1.690426250015513e+18,62.35351313476563,-21.596048736572264,15.11151123046875,6.362405395507812,1.6904262500121098e+18,62.350109912109374,24.79001770019531,47.757467651367186,124.6425323486328,1.690426250015513e+18,62.35351313476563,-0.3310306192012529,-0.5409048356654378,0.3654957003585213,-1.5745703169916574,0.6050030464242403,-0.4556424095293376,-1.4141993486107058
2.4,1.6904262500656113e+18,62.4036111328125,-1.0855481007540226,-0.1232478432929515,0.6084438864134252,1.6904262500668646e+18,62.40486445312499,-0.114111328125,0.9695465087890623,-0.118548583984375,1.6904262500656113e+18,62.4036111328125,0.0375162912705982,9.683264794062971,-1.5502629937034844,1.6904262500656113e+18,62.4036111328125,0.0158046229742467,-1.6128793239593506,0.2577222406864166,1.6904262500618552e+18,62.39985512695313,0.0089345328509807,-1.6176449537277222,0.2402666091918945,,,,,,,,,,,,,1.6904262500656113e+18,62.4036111328125,-22.447474670410156,15.081563568115234,4.333995056152344,1.6904262500641162e+18,62.402116064453125,23.97392883300781,47.7269287109375,122.66194152832033,1.6904262500656113e+18,62.4036111328125,-0.2632611151431132,-0.5207030785577824,0.3904753759505558,-1.594989405785859,0.5878326960856441,-0.4803289883091309,-1.4119996564250097
2.45,1.690426250115709e+18,62.453708740234376,-1.3609833491939305,-0.356934083379507,-0.555280159241706,1.690426250111953e+18,62.44995300292969,-0.1474189758300781,0.9514007568359376,-0.2174148559570312,1.690426250115709e+18,62.453708740234376,-0.0464181488869001,9.68746680502355,-1.5227070828406513,1.690426250115709e+18,62.453708740234376,0.0852316111326217,-1.6874027967453002,0.6229806065559387,1.6904262501119526e+18,62.44995278320313,0.0832203738391399,-1.661491966247559,0.5932031571865082,,,,,,,,,,,,,1.690426250115709e+18,62.453708740234376,-22.91529960632324,14.844255065917968,2.938978576660156,1.69042625011612e+18,62.454119921875,23.393731689453126,47.29386596679687,120.92898864746094,1.690426250115709e+18,62.453708740234376,-0.1259648822169816,-0.4988829980465968,0.417159828900486,-1.5401263557596372,0.5729358258834741,-0.4986731852516401,-1.4147350800205922
2.5,1.6904262501658066e+18,62.503806591796874,-1.073237952852845,-0.4930502929782867,-0.8592422094032168,1.690426250157041e+18,62.49504072265624,-0.140087890625,0.937591552734375,-0.2420013427734375,1.6904262501658066e+18,62.503806591796874,-0.3025001864882372,9.686875035062432,-1.4948563683627545,1.6904262501658066e+18,62.503806591796874,0.0808948218822478,-1.819676899909973,0.9557085156440734,1.6904262501620506e+18,62.500050488281246,0.0847082287073135,-1.8155293464660645,0.9400505304336548,,,,,,,,,,,,,1.6904262501658066e+18,62.503806591796874,-23.865660858154296,14.257025909423827,0.8831085205078125,1.690426250162925e+18,62.50092517089844,22.42264938354492,46.80040740966797,118.90615463256836,1.6904262501658066e+18,62.503806591796874,0.1350032425758807,-0.4692038638494346,0.4503017523884508,-1.371750345305813,0.5590531707300191,-0.5141228634675745,-1.4143532428547272
2.55,1.6904262502159045e+18,62.55390434570312,-0.1535332375718652,-0.2206351522380113,0.5134152986498177,1.6904262502071386e+18,62.54513852539062,-0.084796142578125,0.9619720458984377,-0.1029083251953125,1.6904262502159045e+18,62.55390434570312,-0.6462198118042946,9.66980138447344,-1.496534150768816,1.6904262502159045e+18,62.55390434570312,0.0958588525652885,-1.6836937189102172,0.9083839416503906,1.6904262502121485e+18,62.55014838867188,0.0942292958498,-1.6970726728439331,0.9332250595092774,,,,,,,,,,,,,1.6904262502159045e+18,62.55390434570312,-24.84535827636719,13.673729705810548,-1.5451614379882812,1.690426250209732e+18,62.547732226562495,21.552182006835935,46.28106689453125,116.73003845214843,1.6904262502159045e+18,62.55390434570312,0.4349354179464284,-0.4359862335134979,0.4843124124565975,-1.1643230811802177,0.5461629060069,-0.526191532698176,-1.4035847838231597
2.6,1.6904262502660022e+18,62.604002148437495,1.7166808180636166,0.771362791967988,0.8042251971280574,1.6904262502572365e+18,62.595236328125,0.0867401123046875,1.06131591796875,-0.0698028564453125,1.6904262502660022e+18,62.604002148437495,-0.8460891809371113,9.65448714477241,-1.498334039797634,1.6904262502660022e+18,62.604002148437495,0.1283915132284164,-1.2862802028656006,0.3392519503831863,1.690426250262246e+18,62.60024619140624,0.1287625581026077,-1.3229370355606078,0.3872795462608337,,,,,,,,,,,,,1.6904262502660022e+18,62.604002148437495,-25.492633056640624,13.184962463378906,-3.7795944213867183,1.6904262502617416e+18,62.59974155273437,20.978759765625,45.80342102050781,114.53112182617188,1.6904262502660022e+18,62.604002148437495,0.6208137774572757,-0.4099414213648257,0.5104484599752611,-1.056796331997231,0.5315359538778035,-0.5373718803014222,-1.394409121263002
2.65,1.6904262503161e+18,62.65409995117187,1.327146326848045,0.9774426477265358,0.385707348755896,1.690426250307334e+18,62.645334082031255,0.0545806884765625,1.0861083984375,-0.1091094970703125,1.6904262503161e+18,62.65409995117187,-0.8097592457969487,9.662957685284615,-1.4630082255856691,1.6904262503161e+18,62.65409995117187,0.2260060101747512,-0.8626614689826966,-0.1032949889078736,1.690426250312344e+18,62.6503439453125,0.2142052888870239,-0.8689402937889099,-0.0812774904072284,,,,,,,,,,,,,1.6904262503161e+18,62.65409995117187,-25.484281921386717,13.310208129882811,-5.188363647460937,1.6904262503137505e+18,62.65175053710938,21.01258850097656,45.97276916503906,113.20149230957033,1.6904262503161e+18,62.65409995117187,0.6649283892052597,-0.3975482497153192,0.5242571412295962,-1.0655024220481824,0.5161521864281273,-0.5483220663080159,-1.3994351129042024
2.7,1.6904262503661975e+18,62.70419750976563,0.0777631701556593,-0.1789422579860687,-0.169945852355808,1.6904262503574318e+18,62.69543193359375,-0.054510498046875,0.973199462890625,-0.1530426025390625,1.6904262503661975e+18,62.70419750976563,-0.6604817951995134,9.690417003905177,-1.3515392874744532,1.6904262503661975e+18,62.70419750976563,0.3211559057235718,-0.7228024125099182,-0.1796555439010262,1.6904262503624417e+18,62.700441552734375,0.3250716149806976,-0.7412177085876465,-0.1993086285889148,,,,,,,,,,,,,1.6904262503661975e+18,62.70419750976563,-25.26984519958496,13.458667755126951,-5.93209228515625,1.690426250365756e+18,62.70375590820313,21.200445556640624,46.17179565429687,112.38336486816408,1.6904262503661975e+18,62.70419750976563,0.6543467379837413,-0.3932167186615851,0.5334038142956163,-1.1167383053369595,0.4991269725790008,-0.5582997970268899,-1.416774552297222
2.75,1.6904262504162954e+18,62.75429545898437,-1.3333634039580822,-1.1848333522748946,-1.085110995284915,1.6904262504075295e+18,62.74552954101563,-0.2015716552734375,0.8693817138671875,-0.2354248046875,1.6904262504162954e+18,62.75429545898437,-0.6398478802326321,9.708250766759514,-1.2284659385786203,1.6904262504162954e+18,62.75429545898437,0.2718933284282684,-0.4611142218112946,0.2349579364061355,1.6904262504125394e+18,62.750539453125,0.2735386550426483,-0.4529184222221374,0.2120953202247619,,,,,,,,,,,,,1.6904262504162954e+18,62.75429545898437,-25.204536056518556,13.767919158935548,-6.561868286132812,1.690426250412561e+18,62.75056103515625,21.320232391357425,46.43642044067383,111.80399703979492,1.6904262504162954e+18,62.75429545898437,0.7090906233394063,-0.389467970814193,0.5428590162575335,-1.0902667383955125,0.48776313292317,-0.5618624080346877,-1.4290286981287064
2.8,1.690426250466393e+18,62.80439301757813,-0.4743882333801686,-0.1798080518090725,-1.0457680105469376,1.6904262504576274e+18,62.795627392578126,-0.1294189453125,0.9698974609375,-0.2195220947265625,1.690426250466393e+18,62.80439301757813,-0.7711653112475574,9.71363853882551,-1.103387138918415,1.690426250466393e+18,62.80439301757813,0.3270160138607025,-0.510699462890625,0.3698572814464569,1.690426250462637e+18,62.80063701171875,0.3224024891853332,-0.5136375427246094,0.3731547772884369,,,,,,,,,,,,,1.690426250466393e+18,62.80439301757813,-25.371127319335937,13.769469451904296,-7.159443664550781,1.6904262504593664e+18,62.79736640625,21.07535400390625,46.41122131347656,111.26605834960938,1.690426250466393e+18,62.80439301757813,0.8655099593675587,-0.3826731687470529,0.5559223763227383,-0.9605630868420192,0.479840735370846,-0.560569616636089,-1.4329611552694876
2.85,1.690426250516491e+18,62.854491015625,0.6340491454390437,0.0032522797942161,-0.6504165036156773,1.690426250507725e+18,62.845724999999995,-0.0278167724609375,0.9906585693359377,-0.1649993896484375,1.690426250516491e+18,62.854491015625,-0.8894506513753534,9.719929864828586,-0.9484612925574184,1.690426250516491e+18,62.854491015625,0.3603244602680206,-0.1512901335954665,0.1481558602303266,1.690426250512735e+18,62.85073505859375,0.3597357511520385,-0.1827790290117263,0.1733111187815665,,,,,,,,,,,,,1.690426250516491e+18,62.854491015625,-25.699882125854497,13.867449188232422,-7.777413940429687,1.690426250511374e+18,62.84937412109375,20.760714721679687,46.528018188476565,110.65017700195312,1.690426250516491e+18,62.854491015625,1.028974141661815,-0.3790649385399569,0.5675232991911902,-0.8168880854960812,0.472502867418789,-0.5576370078704234,-1.4377298540470376
2.9,1.6904262505665884e+18,62.90458852539062,0.6806623257626593,0.1711166789269447,-0.3845526111497729,1.690426250557823e+18,62.89582299804688,-0.019921875,1.01138916015625,-0.116412353515625,1.6904262505665884e+18,62.90458852539062,-0.8878505080892889,9.73638883219838,-0.7622999115858227,1.6904262505665884e+18,62.90458852539062,0.4091492354869842,0.1551977962255477,-0.127754758298397,1.6904262505628326e+18,62.90083256835938,0.4040820181369781,0.1604222178459167,-0.1142492897808551,,,,,,,,,,,,,1.6904262505665884e+18,62.90458852539062,-25.99003791809082,14.196723175048827,-7.935830688476562,1.6904262505633797e+18,62.90137954101563,20.461874389648436,46.87879333496094,110.5274658203125,1.6904262505665884e+18,62.90458852539062,1.136136311577125,-0.3850755776404144,0.571420079204494,-0.7082148576161027,0.4677016944526532,-0.5535705065234915,-1.4511326915667149
2.95,1.6904262506166863e+18,62.95468637695312,0.4814184535039961,-0.0630275925123691,-1.702128385741413,1.6904262506079206e+18,62.94592055664062,-0.033355712890625,0.98775634765625,-0.2257110595703125,1.6904262506166863e+18,62.95468637695312,-0.8026902864848822,9.758496502205729,-0.5408494389899821,1.6904262506166863e+18,62.95468637695312,0.4798183262348175,-0.2209074385464191,-0.2412918418645858,1.6904262506129303e+18,62.950930419921875,0.4783464968204498,-0.1623815586790442,-0.2245532155036926,,,,,,,,,,,,,1.6904262506166863e+18,62.95468637695312,-26.294557189941408,14.9036376953125,-7.90626220703125,1.690426250615384e+18,62.953384082031256,20.189517211914065,47.605645751953126,110.57107543945312,1.6904262506166863e+18,62.95468637695312,1.2531296979365216,-0.3937469524698523,0.5739564860236157,-0.5905727894702253,0.4598764398638346,-0.551392821609092,-1.4718716061805104
3.0,1.6904262506667845e+18,63.004784375,0.2562315051000937,0.7723687541401386,-2.992082563822865,1.6904262506580186e+18,62.99601840820312,-0.0354736328125,1.074688720703125,-0.3419342041015625,1.6904262506667845e+18,63.004784375,-0.601146210992448,9.781571088322996,-0.3497441353427991,1.6904262506667845e+18,63.004784375,0.3179158568382262,-0.7977403283119202,-0.5301529407501221,1.6904262506630282e+18,63.00102836914063,0.3428026229143142,-0.7853198647499084,-0.510925954580307,,,,,,,,,,,,,1.6904262506667845e+18,63.004784375,-26.123762130737305,15.660990142822266,-8.349162292480468,1.69042625066219e+18,63.00019012451172,20.39855194091797,48.503875732421875,109.9226531982422,1.6904262506667845e+18,63.004784375,1.34445409267536,-0.3958010618811337,0.5791201032995374,-0.528327507475439,0.4418499786339902,-0.5591746881481987,-1.499806455727111
3.05,1.6904262507168822e+18,63.05488203125,1.4717000953114032,0.4373791422563791,-0.2168133398873172,1.6904262507081162e+18,63.04611635742187,0.1186187744140625,1.046044921875,-0.0563751220703125,1.6904262507168822e+18,63.05488203125,-0.2538294708466156,9.798552150644658,-0.2801029772160947,1.6904262507168822e+18,63.05488203125,0.0620756223797798,-0.6043132901191711,-0.881921112537384,1.690426250713126e+18,63.05112592773437,0.0800130220130085,-0.6041556596755981,-0.8492982745170593,,,,,,,,,,,,,1.6904262507168822e+18,63.05488203125,-25.97008514404297,16.87190170288086,-9.511605834960935,1.690426250708995e+18,63.04699506835938,20.533322143554688,49.63172302246094,108.87313842773438,1.6904262507168822e+18,63.05488203125,1.0178926172654554,-0.3954478651562742,0.578244820455663,-0.8898459743934767,0.4225453404165251,-0.5750231066229476,-1.5310725193037338
3.1,1.6904262507619702e+18,63.0999701538086,1.5940098978757855,-0.5416347879879175,-1.4361633234961888,1.690426250758214e+18,63.09621401367187,0.1720001220703125,0.9438018798828124,-0.19632568359375,1.6904262507619702e+18,63.0999701538086,0.1993590701066772,9.79881623763442,-0.3149331698379013,1.6904262507619702e+18,63.0999701538086,-0.2750875540077686,-0.7453770041465759,-1.038316324353218,1.690426250763224e+18,63.101224023437496,-0.2884290337562561,-0.7623939752578736,-1.0192740440368653,,,,,,,,,,,,,1.6904262507619702e+18,63.0999701538086,-25.681329250335693,18.332575798034668,-10.761913299560549,1.6904262507609997e+18,63.09899970703125,20.92542724609375,51.246893310546874,107.40007019042967,1.6904262507619702e+18,63.0999701538086,-0.1479280436890824,-0.3956331103973671,0.5699124860826174,-2.083530415292504,0.4062191641328616,-0.5946481047573047,-1.531737162519513
3.15,1.690426250807058e+18,63.145057958984374,0.6006144641228766,-0.1007130046886205,-2.349815756654143,1.690426250808312e+18,63.14631196289063,0.1260009765625,1.0059478759765623,-0.2781494140625,1.690426250807058e+18,63.145057958984374,0.5940024401850252,9.77430513052106,-0.5137690220713614,1.690426250807058e+18,63.145057958984374,-0.66812664270401,-1.26410071849823,-0.6413165271282196,1.6904262508133217e+18,63.15132163085938,-0.7011974573135376,-1.3350292444229126,-0.5803043961524963,,,,,,,,,,,,,1.690426250807058e+18,63.145057958984374,-24.940434646606445,19.482118988037108,-12.520333862304687,1.6904262508130053e+18,63.15100541992187,21.849819946289063,52.42448425292969,105.21367797851562,1.690426250807058e+18,63.145057958984374,-0.4471687501059831,-0.3836020339719116,0.5627312905817601,-2.4280314002802244,0.3911845775658644,-0.6188976072971484,-1.4906154635098274
3.2,1.690426250857156e+18,63.19515595703125,0.2108059198193252,0.7283643096232414,-0.9748724611384422,1.6904262508584095e+18,63.19640952148437,0.1007110595703125,1.07308349609375,-0.1695526123046875,1.690426250857156e+18,63.19515595703125,0.8636818723510951,9.732859956645964,-0.8268242016228287,1.690426250857156e+18,63.19515595703125,-0.8195208430290222,-1.840948486328125,-0.302728945016861,1.6904262508634194e+18,63.20141938476562,-0.8246861219406127,-1.872286367416382,-0.2916953921318054,,,,,,,,,,,,,1.690426250857156e+18,63.19515595703125,-23.826589584350582,20.228921508789064,-15.64621124267578,1.69042625086501e+18,63.203009765625,22.976174926757817,52.972412109375,101.85219116210938,1.690426250857156e+18,63.19515595703125,-0.3194224469537224,-0.3536347099992903,0.5629625667006624,-2.379705421615822,0.3728280770366079,-0.6471508295463503,-1.448539888505457
3.25,1.6904262509072535e+18,63.24525361328125,-0.5612592044252157,0.3404510337078571,-0.039385567157641,1.6904262509085074e+18,63.24650747070312,0.0403289794921875,1.0013214111328126,-0.113433837890625,1.6904262509072535e+18,63.24525361328125,1.1054616217179596,9.675154085226058,-1.1508916566716134,1.6904262509072535e+18,63.24525361328125,-0.8865723133087158,-1.7195763111114502,-0.3403064787387848,1.690426250913517e+18,63.25151713867187,-0.89073646068573,-1.653038477897644,-0.3456092715263366,,,,,,,,,,,,,1.6904262509072535e+18,63.24525361328125,-22.69332084655762,20.538847351074217,-18.826658630371092,1.6904262509118134e+18,63.24981335449219,24.317611694335938,53.25421142578125,98.54373168945312,1.6904262509072535e+18,63.24525361328125,-0.1820074628658083,-0.3160398388860779,0.5656821190228511,-2.3366193611388564,0.351583972209652,-0.6755120062560075,-1.407325954894692
3.3,1.6904262509573514e+18,63.29535136718751,-1.6410556974630055,-0.0518848517292737,0.2727959567514061,1.690426250958605e+18,63.29660522460938,-0.0412353515625,0.9755340576171876,-0.13543701171875,1.6904262509573514e+18,63.29535136718751,1.3619215652790664,9.595292729908229,-1.4938088466842472,1.6904262509573514e+18,63.29535136718751,-0.9230068445205688,-1.4412380933761595,-0.2359228171408176,1.690426250963615e+18,63.30161499023437,-0.9260520100593568,-1.452375555038452,-0.1892164744902401,,,,,,,,,,,,,1.6904262509573514e+18,63.29535136718751,-21.254615783691406,20.54553680419922,-21.8612548828125,1.6904262509586145e+18,63.29661459960937,25.572085571289065,53.075375366210935,95.76835021972656,1.6904262509573514e+18,63.29535136718751,-0.0775908310020813,-0.2815862163439676,0.5638153639538366,-2.310573700021402,0.3356459007391992,-0.7000105552623908,-1.3631519541549229
3.35,1.690426251007449e+18,63.34544916992188,-1.751931112047434,0.1285264266699552,0.25454241950199,1.690426251008703e+18,63.34670297851562,-0.00970458984375,0.98319091796875,-0.161077880859375,1.690426251007449e+18,63.34544916992188,1.51729914476946,9.51660486073613,-1.8151727857019004,1.690426251007449e+18,63.34544916992188,-0.8733941555023194,-1.774246335029602,0.1327312849462032,1.6904262510137126e+18,63.35171274414063,-0.8609919786453247,-1.814435052871704,0.1699376367032527,1.6904262509995336e+18,63.33753344726563,76.31746304314584,4.668638421383077,180.0,49.28005378524129,95.4988919524476,344.6899832680167,25.919801244084567,1.170204693553949,-122.96815677328678,0.2236823853519892,1.690426251007449e+18,63.34544916992188,-19.997932815551756,19.86526870727539,-25.05041961669922,1.690426251010617e+18,63.34861728515625,26.924810791015624,52.21786804199219,92.48399963378908,1.690426251007449e+18,63.34544916992188,0.048039211804629,-0.243417569058683,0.5658697805970896,-2.267457741586835,0.3199983503018778,-0.719682191446362,-1.3271203477721454
3.4,1.6904262510575468e+18,63.39554697265625,-0.9320318727691472,0.2080076089507341,0.3061484250637888,1.6904262510588012e+18,63.396800976562496,0.0844268798828125,0.989288330078125,-0.1741302490234375,1.6904262510575468e+18,63.39554697265625,1.5784361596818268,9.456456739956735,-2.0616070098111035,1.6904262510575468e+18,63.39554697265625,-0.780119001865387,-1.9490739583969117,0.3436124205589294,1.6904262510638106e+18,63.401810644531245,-0.7595231413841248,-1.9470975875854493,0.3403076708316803,,,,,,,,,,,,,1.6904262510575468e+18,63.39554697265625,-18.161964416503903,18.712886810302734,-28.424710083007813,1.6904262510626202e+18,63.40062016601562,28.880865478515624,50.99112548828125,89.0822998046875,1.6904262510575468e+18,63.39554697265625,0.1907089785078559,-0.199223563140768,0.5746950640788377,-2.224468531479924,0.298659569494304,-0.7352622519289624,-1.3028120763656803
3.45,1.690426251107645e+18,63.44564497070312,-0.5015393920604885,0.323639950351715,1.3212747606270017,1.6904262511088983e+18,63.44689848632813,0.11875,0.9875,-0.0721832275390625,1.690426251107645e+18,63.44564497070312,1.6649416876414418,9.403672542847987,-2.2284676971809567,1.690426251107645e+18,63.44564497070312,-0.5746451199054718,-1.9351515293121335,0.1332008183002471,1.6904262511139085e+18,63.45190834960938,-0.540958309173584,-1.9150591611862184,0.0991807533428072,,,,,,,,,,,,,1.690426251107645e+18,63.44564497070312,-15.86160888671875,17.358148193359376,-31.596467590332033,1.6904262511146253e+18,63.452625244140634,31.315042114257817,49.71003723144531,86.11264343261719,1.690426251107645e+18,63.44564497070312,0.3051248772635965,-0.1561792042459781,0.5833071140392124,-2.212340076886566,0.2734981046754227,-0.74856733964824,-1.2831781885264386
3.5,1.6904262511577426e+18,63.49574262695312,-0.2515152390874922,0.1989471689474582,2.2742276655152436,1.6904262511589965e+18,63.49699638671875,0.1832855224609375,0.97303466796875,-0.0020294189453125,1.6904262511577426e+18,63.49574262695312,1.873167878552824,9.35759900774598,-2.2563010513587294,1.6904262511577426e+18,63.49574262695312,-0.2228438213467597,-1.864514708518982,-0.1061972689814865,1.690426251164006e+18,63.50200620117188,-0.1776290081441402,-1.865331029891968,-0.1411025285720824,,,,,,,,,,,,,1.6904262511577426e+18,63.49574262695312,-13.222245025634766,16.616108703613282,-34.14609069824219,1.690426251161431e+18,63.499431152343746,33.80535125732422,49.144004821777344,83.916259765625,1.6904262511577426e+18,63.49574262695312,0.3503946649711776,-0.1206503055620801,0.5872791192710982,-2.263424172194756,0.243951337506208,-0.7621397461690401,-1.2670244550047995
3.55,1.6904262512078405e+18,63.545840380859374,0.1844499154916405,0.0081363108956813,1.2419303564684092,1.690426251209094e+18,63.54709418945313,0.2546051025390625,0.9468994140625,-0.103521728515625,1.6904262512078405e+18,63.545840380859374,2.1979304031936824,9.320960591178537,-2.1081225311399994,1.6904262512078405e+18,63.545840380859374,-0.0304097229614853,-1.8790847301483151,-0.3857931911945343,1.690426251214104e+18,63.55210395507813,-0.0299816010519861,-1.8496787071228027,-0.4113743364810943,,,,,,,,,,,,,1.6904262512078405e+18,63.545840380859374,-10.545988464355467,16.434040069580078,-35.5828353881836,1.6904262512082355e+18,63.54623540039063,36.95888671875,49.09355163574219,82.46576843261718,1.6904262512078405e+18,63.545840380859374,0.3308749014089859,-0.0924765232262341,0.5868853970651816,-2.3765558987485904,0.208301999950351,-0.7768117626565358,-1.2547835110773569
3.6,1.6904262512579384e+18,63.59593837890625,0.0127395376813411,-0.2805055082154273,0.629995237712264,1.690426251259192e+18,63.597191992187504,0.2549560546875,0.9066436767578124,-0.1386383056640625,1.6904262512579384e+18,63.59593837890625,2.575870975792557,9.263909384275076,-1.9242706984458864,1.6904262512579384e+18,63.59593837890625,-0.0662709906697272,-1.5597121477127076,-0.4239610910415649,1.690426251264202e+18,63.60220195312501,-0.0729001998901366,-1.5196224451065063,-0.4045010864734649,,,,,,,,,,,,,1.6904262512579384e+18,63.59593837890625,-7.048039245605469,16.40459213256836,-36.96339721679688,1.6904262512602404e+18,63.59824018554688,40.333981323242185,49.11499938964844,81.13845825195312,1.6904262512579384e+18,63.59593837890625,0.2924525744161381,-0.06833236245323,0.5815871805894359,-2.4995121627094044,0.1742003315383975,-0.7915876492413801,-1.2365867158738109
3.65,1.6904262513080358e+18,63.6460359375,-0.5960303658160567,-0.7806238398838043,0.1291338033655285,1.69042625130929e+18,63.64728999023438,0.235443115234375,0.844659423828125,-0.1501922607421875,1.6904262513080358e+18,63.6460359375,2.858999730570614,9.211624719573258,-1.7711671136890352,1.6904262513080358e+18,63.6460359375,-0.1048654556274413,-1.3223257064819336,-0.2178039640188216,1.6904262513142996e+18,63.65229960937499,-0.0952603138983249,-1.2847400188446043,-0.1964244276285171,,,,,,,,,,,,,1.6904262513080358e+18,63.6460359375,-4.07061538696289,16.573168182373045,-38.07732391357422,1.6904262513122452e+18,63.65024516601562,43.104800415039065,49.1693115234375,80.10904235839844,1.6904262513080358e+18,63.6460359375,0.2764846187900786,-0.0468722645189797,0.5768667363319084,-2.586772045536231,0.146302927989698,-0.8022048290030817,-1.2206710705683412
3.7,1.6904262513581338e+18,63.696133984375,-0.2962818709224462,-1.2671022363519668,0.9682340021981298,1.6904262513593874e+18,63.697387500000005,0.2920257568359375,0.8132354736328125,-0.0680908203125,1.6904262513581338e+18,63.696133984375,3.02546268002063,9.185985485212802,-1.622210156443715,1.6904262513581338e+18,63.696133984375,-0.0336687367409467,-1.136447834968567,-0.0577070150524377,1.6904262513643976e+18,63.70239741210937,-0.0294003389775752,-1.1168431997299195,-0.0385862744413316,,,,,,,,,,,,,1.6904262513581338e+18,63.696133984375,-1.7311187744140626,16.36472854614258,-38.94508819580078,1.6904262513642511e+18,63.70225131835938,45.42093811035157,48.956243896484374,79.41963195800781,1.6904262513581338e+18,63.696133984375,0.2747566328113879,-0.0284453889937231,0.5750489464419977,-2.6493788525253086,0.1225657399187895,-0.8083454127663243,-1.213112487109988
3.75,1.690426251408232e+18,63.74623178710938,0.4422497293543815,-1.0675167695009706,0.7816756870242954,1.6904262514094853e+18,63.74748544921876,0.36988525390625,0.826031494140625,-0.06868896484375,1.690426251408232e+18,63.74623178710938,3.0979061602973936,9.186823455793856,-1.4745576182474196,1.690426251408232e+18,63.74623178710938,-0.0333604287356137,-0.8883929967880249,0.111940037831664,1.6904262514144955e+18,63.75249545898438,-0.0374636456370353,-0.8260909795761109,0.1437598332762718,,,,,,,,,,,,,1.690426251408232e+18,63.74623178710938,0.3888046264648437,16.398580932617186,-39.5670654296875,1.6904262514110572e+18,63.74905725097656,47.145111083984375,49.09517288208008,78.71744918823242,1.690426251408232e+18,63.74623178710938,0.2793372993495272,-0.0128085512054949,0.575902272824502,-2.6973708252885813,0.1017921108757978,-0.8110300985314309,-1.2133575513274788
3.8,1.69042625145833e+18,63.79632973632813,1.13694931907177,-1.2376878089147805,0.517705134024322,1.6904262514595835e+18,63.79758374023437,0.43223876953125,0.813934326171875,-0.0945037841796875,1.69042625145833e+18,63.79632973632813,3.03764066752255,9.218101339015364,-1.4029312703463437,1.69042625145833e+18,63.79632973632813,-0.1283096209168433,-0.5468637585639954,0.359740161895752,1.6904262514645934e+18,63.802593359374995,-0.141151475906372,-0.5274958908557892,0.3889304995536804,,,,,,,,,,,,,1.69042625145833e+18,63.79632973632813,1.4634170532226562,16.414315032958985,-40.12071685791015,1.69042625145786e+18,63.795859960937506,48.07291870117187,49.04041442871094,78.21384887695312,1.69042625145833e+18,63.79632973632813,0.3037691567328348,-0.0007807526981395,0.5806914095957716,-2.7088981099254363,0.0889401832340784,-0.8092368578733842,-1.2226059673129115
3.85,1.6904262515084278e+18,63.846427734375006,1.097129232954383,-0.924800489436984,1.027219012095332,1.6904262515096817e+18,63.84768149414062,0.3982391357421875,0.9052642822265624,0.00567626953125,1.6904262515084278e+18,63.846427734375006,2.858899485066533,9.272633256574272,-1.4179825628753004,1.6904262515084278e+18,63.846427734375006,-0.2035273522138595,-0.3331790149211883,0.5335909783840179,1.690426251514691e+18,63.852691357421875,-0.1744508423842489,-0.2818432360887527,0.5343045651912689,,,,,,,,,,,,,1.6904262515084278e+18,63.846427734375006,1.8296012878417969,16.411893463134767,-40.77978363037109,1.690426251509863e+18,63.84786279296875,48.30220336914063,49.00419921875,77.52597045898438,1.6904262515084278e+18,63.846427734375006,0.358249172064356,0.0107191390753392,0.5894801641246261,-2.6809468272084658,0.0820986732027379,-0.803514146364883,-1.239309270359891
3.9,1.6904262515585254e+18,63.8965255859375,2.874167781347036,6.03815916816175,3.3044888802376384,1.6904262515597793e+18,63.89777939453124,0.6174346923828125,1.6361724853515625,0.153057861328125,1.6904262515585254e+18,63.8965255859375,2.69313007083863,9.329025122786163,-1.3724278786286712,1.6904262515585254e+18,63.8965255859375,0.2457763373851776,-0.4030136108398437,0.0778629511594772,1.6904262515647892e+18,63.902789111328126,0.266955640912056,-0.4669448673725128,-0.0397064588963985,,,,,,,,,,,,,1.6904262515585254e+18,63.8965255859375,1.7627182006835938,16.508462524414064,-41.24814453125,1.6904262515618683e+18,63.89986840820312,48.37422180175781,49.331765747070314,77.25171813964843,1.6904262515585254e+18,63.8965255859375,0.3842520942536636,0.0154237937790637,0.5973949031540897,-2.670403721365736,0.0761244186761391,-0.798168608092208,-1.2574284848264847
3.95,1.6904262516086236e+18,63.94662338867188,0.6085658469057084,1.3595329165768624,-1.4201240903355925,1.6904262516098772e+18,63.94787719726562,0.197601318359375,0.9077880859375,-0.3020111083984375,1.6904262516086236e+18,63.94662338867188,2.840490903385878,9.30477938861072,-1.2329206529651582,1.6904262516086236e+18,63.94662338867188,-0.0006529927253722,-0.0656847298145294,-0.3151604250073433,1.690426251614887e+18,63.9528869140625,-0.0407085474580526,0.1051779687404632,-0.2336458846926689,,,,,,,,,,,,,1.6904262516086236e+18,63.94662338867188,2.6326614379882813,17.04641342163086,-40.91430511474609,1.6904262516138708e+18,63.951870996093746,49.20049133300781,49.74381103515625,77.55481872558593,1.6904262516086236e+18,63.94662338867188,0.342089126083006,0.0179386649445087,0.5923974247317173,-2.731971543226555,0.0650673122499588,-0.8028075745722687,-1.2495220656447288
4.0,1.6904262516587213e+18,63.996721386718754,-4.270696140461564,-2.480670217106342,-0.6458038368014991,1.6904262516599752e+18,63.99797495117188,-0.1317840576171875,0.7848785400390625,-0.2264434814453125,1.6904262516587213e+18,63.996721386718754,2.762678297291398,9.31488869469285,-1.3274073012587428,1.6904262516587213e+18,63.996721386718754,-0.1258444398641585,0.3988672733306885,0.565423259139061,1.6904262516649848e+18,64.002984765625,-0.1293266147375106,0.3606398344039917,0.6350836098194123,,,,,,,,,,,,,1.6904262516587213e+18,63.996721386718754,1.9019027709960936,16.972806549072267,-41.07528076171875,1.6904262516658752e+18,64.00387504882812,47.981048583984375,49.57069396972656,77.34300537109375,1.6904262516587213e+18,63.996721386718754,0.3647134752454223,0.0150236346965979,0.5947570214034654,-2.693238486953838,0.0734048983761885,-0.8003897427450827,-1.2528417624349475
4.05,1.690426251708819e+18,64.04681918945313,-3.097504652211368,0.6844429841190577,-1.909537502729297,1.6904262517100728e+18,64.04807275390625,-0.0658416748046875,1.030755615234375,-0.288665771484375,1.690426251708819e+18,64.04681918945313,2.4327847810506817,9.390836559054852,-1.4338752162122723,1.690426251708819e+18,64.04681918945313,-0.1941422998905181,0.0454985424876212,0.6312828183174133,1.6904262517150828e+18,64.0530828125,-0.1891025453805923,0.0061542995274067,0.6130662798881531,,,,,,,,,,,,,1.690426251708819e+18,64.04681918945313,0.7380348205566406,16.766893768310545,-41.222161865234376,1.69042625171268e+18,64.05068005371093,47.088279724121094,49.342960357666016,77.23695373535156,1.690426251708819e+18,64.04681918945313,0.4416213465079112,0.0161664161511796,0.6078902961754069,-2.6085202976405952,0.0801205668284978,-0.7897891782819778,-1.2786128752534085
4.1,1.6904262517589169e+18,64.09691674804688,-2.8467071767783163,0.3261766584485769,1.0147380961240828,1.6904262517601708e+18,64.09817080078125,-0.0743194580078125,0.9905029296875,-0.0508087158203125,1.6904262517589169e+18,64.09691674804688,2.1463132624898846,9.448121574714182,-1.512642258874327,1.6904262517589169e+18,64.09691674804688,-0.1325531125068664,0.2468086559325456,0.6207471489906311,1.6904262517651804e+18,64.10318041992187,-0.1379037514328956,0.3609213918447495,0.6299365043640137,,,,,,,,,,,,,1.6904262517589169e+18,64.09691674804688,0.4210685729980469,16.547103118896484,-41.14695739746094,1.6904262517594854e+18,64.09748544921874,46.73830871582031,49.155853271484375,77.32236938476562,1.6904262517589169e+18,64.09691674804688,0.5248698186376142,0.020096874246267,0.6194223949818548,-2.527080642756307,0.0828810991983655,-0.7803967120839148,-1.2996284782497451
4.15,1.6904262518090148e+18,64.14701474609375,-2.2921656486225124,0.2385964577686786,0.2079700534193217,1.6904262518102684e+18,64.14826835937501,-0.036676025390625,0.987298583984375,-0.1472320556640625,1.6904262518090148e+18,64.14701474609375,1.7867498535200952,9.497274955652951,-1.6624175175391138,1.6904262518090148e+18,64.14701474609375,-0.2515967488288879,0.7999935984611511,0.6963640928268433,1.6904262518152783e+18,64.15327832031251,-0.2431383490562438,0.805230724811554,0.7056946992874146,,,,,,,,,,,,,1.6904262518090148e+18,64.14701474609375,-0.961700439453125,16.29103317260742,-41.29339752197266,1.6904262518114898e+18,64.14948974609375,44.90113830566406,48.80528259277344,77.0931396484375,1.6904262518090148e+18,64.14701474609375,0.6341864342052198,0.0158791994497789,0.6319805700343739,-2.3913495598891883,0.0972493410732544,-0.7686547181646908,-1.3189861698536385
4.2,1.6904262518591124e+18,64.19711254882813,-1.0203628625902534,-0.0151522102332115,0.8284528403510153,1.6904262518603663e+18,64.19836640625,0.0463653564453125,0.972296142578125,-0.1061309814453125,1.6904262518591124e+18,64.19711254882813,1.3849993954928217,9.539137244348526,-1.8013066989825663,1.6904262518591124e+18,64.19711254882813,-0.0373386021703481,0.7064048051834106,0.674637746810913,1.6904262518653765e+18,64.20337617187501,-0.008687977027148,0.7060490131378174,0.6666594743728638,,,,,,,,,,,,,1.6904262518591124e+18,64.19711254882813,-3.086419677734375,15.960345458984374,-41.44449157714844,1.6904262518634926e+18,64.201492578125,42.8805908203125,48.62069396972656,77.04561157226563,1.6904262518591124e+18,64.19711254882813,0.7659911230112335,0.0087189783570456,0.6452294679962206,-2.225298916776149,0.1141735919595803,-0.755327595769527,-1.3367488644723575
4.25,1.6904262519092104e+18,64.2472103515625,-0.5378167202305792,-0.1182498304229974,0.0293854936036467,1.690426251910464e+18,64.24846416015626,0.043096923828125,0.96695556640625,-0.2001312255859375,1.6904262519092104e+18,64.2472103515625,1.005224607817158,9.581810732522609,-1.826802374766916,1.6904262519092104e+18,64.2472103515625,0.0742184594273566,0.7625077605247498,0.6407492280006408,1.6904262519154737e+18,64.25347373046876,0.0737513981759547,0.8003174424171448,0.6344273924827576,,,,,,,,,,,,,1.6904262519092104e+18,64.2472103515625,-5.0995735168457035,16.087039184570312,-41.345480346679686,1.6904262519154964e+18,64.25349638671875,40.766778564453126,48.74085083007813,77.18407897949218,1.6904262519092104e+18,64.2472103515625,0.8858469320915281,-0.0015892859944869,0.6577391500369665,-2.072738968689057,0.1268931522631268,-0.742445270416575,-1.3563134810423696
4.3,1.690426251959308e+18,64.29730815429687,-0.9165308198721708,0.0530385810351371,0.1784596182617545,1.6904262519605617e+18,64.29856171875,-0.0392791748046875,0.984259033203125,-0.12640380859375,1.690426251959308e+18,64.29730815429687,0.6196495436714218,9.612442952864765,-1.836803339716792,1.690426251959308e+18,64.29730815429687,0.0199349611531943,1.1501243472099305,0.618876039981842,1.6904262519655718e+18,64.30357182617188,0.013894137518946,1.2196647882461549,0.611125898361206,,,,,,,,,,,,,1.690426251959308e+18,64.29730815429687,-7.603995513916016,16.131968688964843,-41.137812805175784,1.690426251962301e+18,64.30030078125,38.34428405761719,48.79044342041016,77.35774230957031,1.690426251959308e+18,64.29730815429687,1.019358280711809,-0.0160554426829198,0.6692032265274832,-1.8952876719818108,0.1432779971740809,-0.7288994470630084,-1.3714739714269384
4.35,1.690426252009406e+18,64.34740600585937,-0.4157278760736528,0.239278244100809,2.4764843389499185,1.6904262520106598e+18,64.348659765625,-0.0094757080078125,1.022418212890625,0.0628448486328125,1.690426252009406e+18,64.34740600585937,0.2382575775498709,9.62743570552647,-1.848634851868599,1.690426252009406e+18,64.34740600585937,0.0818513017147779,1.6152819633483886,0.3630036532878876,1.6904262520156698e+18,64.35366962890626,0.0950623348355292,1.6671243906021118,0.31168694794178,1.6904262519995256e+18,64.33752563476563,76.23739886842668,4.720668952852001,180.0,49.28005396837227,95.41882777772844,344.6899796665069,30.35152073496384,1.166294805470362,-122.96816615701114,0.1884919910142414,1.690426252009406e+18,64.34740600585937,-10.42782211303711,16.051104736328124,-40.70556488037109,1.6904262520091044e+18,64.34710444335937,35.26914978027344,48.71767883300781,77.91110534667969,1.690426252009406e+18,64.34740600585937,1.1487091846049398,-0.0382248198865179,0.677856286600654,-1.698502876101968,0.1682213009942312,-0.7145713664407457,-1.3793337687266891
4.4,1.690426252059504e+18,64.3975037109375,0.2472236483206879,0.5769423943430185,0.5987393909659982,1.6904262520607575e+18,64.39875756835937,0.0286712646484375,1.035760498046875,-0.1648193359375,1.690426252059504e+18,64.3975037109375,0.0042572006155041,9.637499886518714,-1.8130784437711536,1.690426252059504e+18,64.3975037109375,0.0592277577146887,1.991046142578125,-0.0792247149627655,1.6904262520657674e+18,64.40376728515625,0.0450064633041619,2.032632517814636,-0.1271923586726188,,,,,,,,,,,,,1.690426252059504e+18,64.3975037109375,-13.867618942260744,16.398389434814455,-39.924441528320315,1.690426252061109e+18,64.39910913085939,31.627322387695312,49.18709106445313,78.85830383300781,1.690426252059504e+18,64.3975037109375,1.1845020356461735,-0.0699246286282467,0.678361261989961,-1.57304142678403,0.1987805956436346,-0.7037191430775082,-1.384796644178429
4.45,1.6904262521096015e+18,64.44760161132812,-0.2657824539536237,-0.0599365238553285,-1.011683092467636,1.6904262521108554e+18,64.44885541992187,-0.0655120849609375,0.959625244140625,-0.2973419189453125,1.6904262521096015e+18,64.44760161132812,-0.0896068631956586,9.637581135061383,-1.810721505381465,1.6904262521096015e+18,64.44760161132812,-0.0684959663078188,2.0537461280822753,-0.1991491541266441,1.690426252115865e+18,64.45386508789063,-0.0776104789227246,2.0351136684417725,-0.16860131919384,,,,,,,,,,,,,1.6904262521096015e+18,64.44760161132812,-17.66047782897949,16.70487289428711,-38.61251525878906,1.6904262521131151e+18,64.451115234375,27.72752685546875,49.35692138671875,80.28077392578125,1.6904262521096015e+18,64.44760161132812,1.1319316363638263,-0.1057454516553356,0.6703983282406445,-1.521414747545982,0.2345636335586942,-0.6958071994403066,-1.3848416315970271
4.5,1.6904262521596997e+18,64.49769936523437,-1.3341713301140068,-0.3564014670336246,-0.4078746399959921,1.690426252160953e+18,64.49895336914062,-0.17393798828125,0.9485870361328124,-0.207293701171875,1.6904262521596997e+18,64.49769936523437,-0.243278288135454,9.630671151090263,-1.832259909520447,1.6904262521596997e+18,64.49769936523437,-0.0446032676845788,1.7054207801818848,0.1509971341118216,1.690426252165963e+18,64.50396293945313,-0.0311491310596465,1.6843541383743286,0.2008771784603595,,,,,,,,,,,,,1.6904262521596997e+18,64.49769936523437,-21.400484466552733,16.777912902832032,-37.04955291748047,1.6904262521651218e+18,64.503121875,24.04559326171875,49.36971740722656,81.86331481933594,1.6904262521596997e+18,64.49769936523437,1.1193506531420727,-0.1362747498639966,0.6635070437395645,-1.4389551731493142,0.268492399522092,-0.684802876872773,-1.3810683079996071
4.55,1.6904262522097974e+18,64.54779731445312,-1.2206521376355737,-0.3251765414953231,0.3217874835789203,1.690426252211051e+18,64.54905087890624,-0.16041259765625,0.9518798828125,-0.1478057861328125,1.6904262522097974e+18,64.54779731445312,-0.5417496027000993,9.623477674002649,-1.8044265845687688,1.6904262522097974e+18,64.54779731445312,0.0200006394647061,1.7501569986343384,0.3712475776672362,1.690426252216061e+18,64.55406083984374,0.02777543857228,1.773790669441223,0.3623272240161895,,,,,,,,,,,,,1.6904262522097974e+18,64.54779731445312,-24.9460693359375,16.376526641845704,-35.342550659179686,1.6904262522119304e+18,64.54993029785156,20.976348876953125,48.94975280761719,83.49048614501953,1.6904262522097974e+18,64.54779731445312,1.1953589709245738,-0.1620749855634249,0.6621439176136141,-1.2794638206999092,0.2985158407983104,-0.6678493156247268,-1.3772195162644445
4.6,1.6904262522598948e+18,64.59789501953125,-0.0178408794083446,-0.0318931509625911,-0.1247042672593891,1.6904262522611487e+18,64.59914873046876,-0.08575439453125,0.981256103515625,-0.2008087158203125,1.6904262522598948e+18,64.59789501953125,-0.8411388358272612,9.616899815369248,-1.7241282114601133,1.6904262522598948e+18,64.59789501953125,0.0205052364151924,1.872942328453064,0.1744301244616508,1.6904262522661586e+18,64.60415859375,0.0100897051393985,1.899174189567566,0.144269985705614,,,,,,,,,,,,,1.6904262522598948e+18,64.59789501953125,-28.12939796447754,16.168651580810547,-33.24190673828125,1.6904262522587374e+18,64.59673725585938,17.954058837890624,48.804595947265625,85.51467895507812,1.6904262522598948e+18,64.59789501953125,1.2685677549193315,-0.1903415644265088,0.6592176630104876,-1.1170521280819254,0.3289973431795629,-0.6486797123218266,-1.3737604182008545
4.65,1.6904262523099927e+18,64.64799267578125,0.663072191631943,0.2887285621595382,-0.8142086848734319,1.6904262523112468e+18,64.64924672851564,-0.018841552734375,1.0125885009765625,-0.2717376708984375,1.6904262523099927e+18,64.64799267578125,-1.0303128864574431,9.61267161782801,-1.6442175224947928,1.6904262523099927e+18,64.64799267578125,-0.0455908082425593,1.8393741130828856,-0.0272770855575799,1.6904262523162565e+18,64.65425629882813,-0.0493397995829581,1.8111252784729004,-0.0358038035221397,,,,,,,,,,,,,1.6904262523099927e+18,64.64799267578125,-31.0069938659668,16.035143280029295,-31.07770233154297,1.6904262523107436e+18,64.648743359375,14.544198608398435,48.640472412109375,88.12633361816407,1.6904262523099927e+18,64.64799267578125,1.2798080489489505,-0.2206332764591866,0.6502693959059374,-1.0110583639887465,0.3600010610959073,-0.6314264358602196,-1.3715687577189914
4.7,1.690426252360091e+18,64.69809072265625,0.9708588708090036,-0.3652844461911916,-2.447093350840509,1.6904262523613445e+18,64.69934443359375,-0.03585205078125,0.921844482421875,-0.4286041259765625,1.690426252360091e+18,64.69809072265625,-1.1581751939693838,9.607231589505076,-1.5901291693718729,1.690426252360091e+18,64.69809072265625,-0.1288750901818275,1.5692460060119628,0.0269355550408363,1.6904262523663542e+18,64.70435424804688,-0.1366448268294334,1.526172399520874,0.0509093590080737,,,,,,,,,,,,,1.690426252360091e+18,64.69809072265625,-34.02145843505859,15.952745819091795,-28.527015686035156,1.6904262523627484e+18,64.70074829101563,11.757644653320312,48.513702392578125,90.58178100585936,1.690426252360091e+18,64.69809072265625,1.2636084025855912,-0.2471266324297524,0.6391714288467848,-0.9414489615449788,0.3878711680091214,-0.6162934026995719,-1.3687924089773296
4.75,1.6904262524101883e+18,64.74818862304687,1.2895146468465029,-0.3887445829468965,-2.0881126517425477,1.6904262524114424e+18,64.74944228515625,0.036346435546875,0.9497314453125,-0.349700927734375,1.6904262524101883e+18,64.74818862304687,-1.314414285659939,9.589093173841832,-1.5779786836248637,1.6904262524101883e+18,64.74818862304687,-0.1139470979571342,0.9760700106620788,0.1511645153164863,1.690426252416452e+18,64.75445209960938,-0.0978272818028926,0.896141767501831,0.1399151310324668,,,,,,,,,,,,,1.6904262524101883e+18,64.74818862304687,-36.24823532104492,15.470780181884766,-26.530520629882812,1.6904262524147566e+18,64.752756640625,9.683395385742188,47.95330810546875,92.3440948486328,1.6904262524101883e+18,64.74818862304687,1.2632582067706506,-0.2646069366336455,0.6310880993645382,-0.8764923452526435,0.4107517393410179,-0.6024481306921732,-1.3597825841054196
4.8,1.690426252460286e+18,64.79828598632812,2.412927754127383,-0.3759103527194261,-1.375255269461274,1.6904262524615398e+18,64.79953974609376,0.0716033935546875,0.930010986328125,-0.2896942138671875,1.690426252460286e+18,64.79828598632812,-1.4197529920008776,9.577754968938828,-1.5558160977859794,1.690426252460286e+18,64.79828598632812,0.0267142631113529,0.4037138164043427,0.1251526653766631,1.6904262524665495e+18,64.80454956054687,0.0511889903631526,0.355461111664772,0.1576365008950233,,,,,,,,,,,,,1.690426252460286e+18,64.79828598632812,-37.91279220581055,15.019121551513672,-25.536091613769532,1.6904262524615672e+18,64.79956726074218,8.338081359863281,47.60116195678711,93.02873992919922,1.690426252460286e+18,64.79828598632812,1.2755422233973468,-0.2732297094864203,0.6277706120006241,-0.8311420276108038,0.4222414150479774,-0.5940982705486249,-1.3543163664669085
4.85,1.690426252510384e+18,64.84838393554688,1.2577265929196777,-0.8585462191891668,-0.8057579012010991,1.6904262525116375e+18,64.84963759765625,-0.0379913330078125,0.8878265380859375,-0.224481201171875,1.690426252510384e+18,64.84838393554688,-1.567655939374715,9.56652735557735,-1.479866596762687,1.690426252510384e+18,64.84838393554688,0.219216164946556,0.0464973592665046,0.4259122371673584,1.6904262525166474e+18,64.85464736328125,0.2376738101243972,0.0373465187847613,0.4601800680160522,,,,,,,,,,,,,1.690426252510384e+18,64.84838393554688,-39.21827011108398,14.492105102539062,-25.499844360351563,1.690426252508375e+18,64.846375,7.180776977539063,47.089593505859376,92.96118774414062,1.690426252510384e+18,64.84838393554688,1.3411834268969982,-0.2753811858002324,0.631802073216559,-0.7568878617508271,0.4251455316853955,-0.5867120076203822,-1.349058709815232
4.9,1.6904262525604815e+18,64.89848154296875,0.8158683471009136,-0.2107947262251376,-0.4943741473801434,1.6904262525617352e+18,64.89973540039063,-0.121685791015625,0.9592071533203124,-0.183135986328125,1.6904262525604815e+18,64.89848154296875,-1.846871407779604,9.537437571597694,-1.3353045427015422,1.6904262525604815e+18,64.89848154296875,0.3814484894275665,0.0788186557590961,0.7435307741165161,1.690426252566745e+18,64.90474516601562,0.4058597803115845,0.0918563663959502,0.7791322112083435,,,,,,,,,,,,,1.6904262525604815e+18,64.89848154296875,-40.235862731933594,13.897039031982422,-25.596755981445312,1.6904262525603845e+18,64.89838466796876,5.831808471679688,46.27810974121094,92.84617309570312,1.6904262525604815e+18,64.89848154296875,1.472268377891895,-0.2742031861207458,0.6430290293771238,-0.6270417865118016,0.4250429640350383,-0.5750032515043934,-1.3360033147027466
4.95,1.6904262526105797e+18,64.94857939453125,0.7533894160602987,-0.0399014515644311,-0.5606318078549206,1.690426252611833e+18,64.9498333984375,-0.148919677734375,0.970947265625,-0.16143798828125,1.6904262526105797e+18,64.94857939453125,-2.24357051531449,9.479969483682511,-1.1180325540602207,1.6904262526105797e+18,64.94857939453125,0.4417899787425995,0.1371725156903266,0.8144789814949036,1.690426252616843e+18,64.95484301757813,0.4391659557819366,0.1568805873394012,0.790269935131073,,,,,,,,,,,,,1.6904262526105797e+18,64.94857939453125,-41.9290771484375,12.652997589111328,-25.44073944091797,1.6904262526123914e+18,64.9503916015625,4.052313232421875,44.91331787109375,93.1598114013672,1.6904262526105797e+18,64.94857939453125,1.6354732864495467,-0.2733242343321657,0.6585517888329413,-0.4635344107521648,0.4250662100070662,-0.5575642079682339,-1.3120667616856545
5.0,1.6904262526606774e+18,64.99867734375,1.30882739621222,0.3788295719408988,-0.599817059360966,1.690426252661931e+18,64.99993095703124,-0.1261199951171875,1.0096221923828126,-0.17713623046875,1.6904262526606774e+18,64.99867734375,-2.5764075376611943,9.419620170468686,-0.8907231116900594,1.6904262526606774e+18,64.99867734375,0.4547395706176758,0.0945372909307479,0.556099808216095,1.690426252666941e+18,65.00494101562501,0.4618820428848266,0.0497428931295871,0.5345882594585418,,,,,,,,,,,,,1.6904262526606774e+18,64.99867734375,-43.98513946533203,11.554711151123048,-25.051116943359375,1.6904262526643994e+18,65.00239936523437,1.9286102294921872,43.95716857910156,93.55610046386718,1.6904262526606774e+18,64.99867734375,1.7623951624082703,-0.2746653550733952,0.6716336690943872,-0.3334224974381651,0.4245671573586707,-0.5414645666728881,-1.2889621631223391
5.05,1.6904262527107753e+18,65.0487751953125,2.2128246346908806,0.7959516404926776,-2.9960866848976906,1.690426252712029e+18,65.05002900390625,-0.062457275390625,1.0405426025390625,-0.423834228515625,1.6904262527107753e+18,65.0487751953125,-2.780998440810144,9.377608945595622,-0.7031645480455457,1.6904262527107753e+18,65.0487751953125,0.3840964287519455,-0.4724015295505523,0.2793796703219413,1.690426252712029e+18,65.0500288696289,0.3858450353145599,-0.4772132933139801,0.2698158379644155,,,,,,,,,,,,,1.6904262527107753e+18,65.0487751953125,-45.535169219970705,10.796552276611328,-24.797073364257812,1.6904262527112049e+18,65.04920489501953,0.7425079345703125,43.37363815307617,93.61541748046876,1.6904262527107753e+18,65.0487751953125,1.8601187229675191,-0.2731931309235459,0.6834471030718705,-0.2477809461794043,0.4179376840411196,-0.5325132856874667,-1.273914079284006
5.1,1.690426252760873e+18,65.09887294921876,0.6892497414267063,1.3688058887392285,-4.989299285240174,1.6904262527621268e+18,65.10012680664063,-0.2215850830078125,1.11685791015625,-0.5889984130859375,1.690426252760873e+18,65.09887294921876,-2.784086469953358,9.373288744308947,-0.7456515298976749,1.690426252760873e+18,65.09887294921876,-0.0482503242790699,-1.3963632822036742,-0.1054433241486549,1.690426252757117e+18,65.0951169921875,-0.0082912169862538,-1.3225008726119996,-0.0778080866904929,,,,,,,,,,,,,1.690426252760873e+18,65.09887294921876,-46.138648986816406,10.660311889648437,-26.4424072265625,1.6904262527580083e+18,65.09600844726563,0.34798583984375,43.28955993652344,91.82375793457032,1.690426252760873e+18,65.09887294921876,1.8937632816922707,-0.2589323192851548,0.6925009051023012,-0.2617762240707165,0.40293742153001,-0.5393861737778521,-1.272403234778675
5.15,1.6904262528109706e+18,65.14897080078126,1.7841598954790832,2.9713294648426767,-2.370367049451917,1.6904262528122245e+18,65.15022436523438,-0.03048095703125,1.265655517578125,-0.2621826171875,1.6904262528109706e+18,65.14897080078126,-2.532976392213702,9.40783024704933,-1.1020634014209358,1.6904262528109706e+18,65.14897080078126,-0.3641205608844756,-1.9987149477005004,-0.752941507101059,1.6904262528072146e+18,65.14521474609374,-0.3669363915920257,-1.9707465171813965,-0.6685108482837677,,,,,,,,,,,,,1.6904262528109706e+18,65.14897080078126,-45.38429794311523,10.851397705078124,-30.085194396972657,1.6904262528100122e+18,65.14801201171875,1.2822479248046874,43.622955322265625,87.86917419433594,1.6904262528109706e+18,65.14897080078126,1.8283803047461455,-0.2284174373513111,0.6955342756824255,-0.4118664228524616,0.3812129777957661,-0.5643537267281331,-1.2847172009865089
5.2,1.6904262528610688e+18,65.19906865234375,3.120427817933112,0.5604229874098301,2.106883403186053,1.6904262528623222e+18,65.20032241210939,0.1794189453125,0.9966949462890624,0.0686004638671875,1.6904262528610688e+18,65.19906865234375,-1.696296756978482,9.549122865598797,-1.4056815919677912,1.6904262528610688e+18,65.19906865234375,0.1180246070027351,-2.3547505855560305,-2.2692583084106444,1.6904262528573125e+18,65.19531259765624,0.0824643574655056,-2.3198858737945556,-2.1497349977493285,,,,,,,,,,,,,1.6904262528610688e+18,65.19906865234375,-43.301516723632815,13.029602813720704,-33.62051544189453,1.6904262528620152e+18,65.200015234375,4.322409057617188,47.0678466796875,83.7078369140625,1.6904262528610688e+18,65.19906865234375,1.636319437732224,-0.2022973776088059,0.6837374379173637,-0.7054232456664355,0.3445999257361294,-0.6101502607559052,-1.3425284389766996
5.25,1.6904262529111665e+18,65.24916640625,-1.777412525497675,1.3927373839467765,-1.9167275603638587,1.6904262529124204e+18,65.25042016601563,-0.35665283203125,1.1618682861328125,-0.4306365966796875,1.6904262529111665e+18,65.24916640625,-0.2559830358045734,9.6861614507395,-1.4594258955064414,1.6904262529111665e+18,65.24916640625,-0.0565290696918964,-2.1341091871261595,-2.5133763790130614,1.6904262529074104e+18,65.24541044921875,-0.0057751707732677,-2.189784121513367,-2.5863572120666505,,,,,,,,,,,,,1.6904262529111665e+18,65.24916640625,-37.85112533569336,19.167337799072264,-37.86175537109375,1.690426252914021e+18,65.25202109375,10.470401000976562,53.50233459472656,79.47583312988282,1.6904262529111665e+18,65.24916640625,1.0447330495541416,-0.1856389357520054,0.6540302993489877,-1.4061375640833835,0.2915999033772466,-0.6724560927257304,-1.4140680185919032
5.3,1.6904262529612644e+18,65.29926435546875,-4.3802941116821765,1.6418777982747552,-1.8444783459371328,1.690426252962518e+18,65.30051801757813,-0.266534423828125,1.128729248046875,-0.2898681640625,1.6904262529612644e+18,65.29926435546875,0.8917026169401779,9.631220367857813,-1.591230963907838,1.6904262529612644e+18,65.29926435546875,-0.4769810497760772,-1.5066391229629517,-1.825743508338928,1.6904262529575084e+18,65.2955083984375,-0.4649686872959137,-1.5172404527664185,-1.8428991317749024,,,,,,,,,,,,,1.6904262529612644e+18,65.29926435546875,-31.565702056884767,23.71403274536133,-41.43015899658203,1.690426252966028e+18,65.30402797851562,16.604403686523437,57.11588134765625,76.203955078125,1.6904262529612644e+18,65.29926435546875,0.4619708543447062,-0.1659837334533035,0.6232990052716652,-2.0697153512450472,0.2567196549852798,-0.7195502639277681,-1.382231086762021
5.35,1.6904262530113623e+18,65.34936215820312,-1.8164582077895104,0.9549040681821108,0.2358695170228183,1.690426253012616e+18,65.35061596679688,0.04044189453125,1.0495635986328125,-0.130926513671875,1.6904262530113623e+18,65.34936215820312,1.8462659307801723,9.465618652960062,-1.7578933814527091,1.6904262530113623e+18,65.34936215820312,-0.6315578579902649,-1.3790855884552002,-1.683147668838501,1.6904262530076063e+18,65.34560625,-0.6204323768615723,-1.3834723234176636,-1.694184708595276,1.6904262529995174e+18,65.33751733398438,76.22609233856201,5.1586817767767315,180.0,49.280058305278,95.40752124786376,344.68998186088646,34.06454288854023,1.286108476720208,-122.96815859007144,0.2881135935541093,1.6904262530113623e+18,65.34936215820312,-25.360683059692384,25.82683563232422,-44.17766418457031,1.6904262530128343e+18,65.3508344116211,22.28968811035156,58.75594329833984,73.82596588134766,1.6904262530113623e+18,65.34936215820312,0.2230125283171264,-0.1442372833106033,0.5933925556478199,-2.375757983272572,0.2315931092179507,-0.7570916101761631,-1.3073129629848634
5.4,1.69042625306146e+18,65.39945991210938,-2.5728743658728894,0.1928854431426525,0.934829336080998,1.690426253062714e+18,65.40071372070312,-0.0154510498046875,0.940362548828125,-0.11375732421875,1.69042625306146e+18,65.39945991210938,2.6845037552428246,9.233057500606774,-1.9147761048090457,1.69042625306146e+18,65.39945991210938,-0.7104969263076782,-1.4292965888977052,-1.278914499282837,1.690426253057704e+18,65.39570395507812,-0.70529123544693,-1.4149985313415527,-1.3152249574661254,,,,,,,,,,,,,1.69042625306146e+18,65.39945991210938,-18.928429794311523,26.834269714355468,-46.49991607666016,1.690426253059642e+18,65.39764208984374,28.05446472167969,59.5149169921875,71.80559997558593,1.69042625306146e+18,65.39945991210938,0.1446570054397609,-0.1194316374726706,0.5649748403360351,-2.520472949134561,0.209391505381275,-0.7889775454939972,-1.2276695406533824
5.45,1.690426253111558e+18,65.44955805664063,-3.9408925821396705,-0.7405201437455415,0.1385369193266332,1.6904262531128115e+18,65.45081162109375,-0.0674530029296875,0.8167327880859375,-0.1938140869140625,1.690426253111558e+18,65.44955805664063,3.3177717310154433,9.003269670811296,-2.019511526107639,1.690426253111558e+18,65.44955805664063,-0.7973283529281616,-1.7595091819763184,-0.7473332345485687,1.690426253107802e+18,65.44580190429687,-0.7972420692443848,-1.7389985561370849,-0.7975597023963928,,,,,,,,,,,,,1.690426253111558e+18,65.44955805664063,-13.452922058105468,26.668017578125,-48.198828125,1.6904262531116495e+18,65.44964946289062,34.648077392578124,59.07507934570312,69.77260131835938,1.690426253111558e+18,65.44955805664063,0.1511090360378854,-0.0873736187775846,0.5444779262317614,-2.5942516559823803,0.1852187034963349,-0.8132514206921645,-1.1634663927553257
5.5,1.6904262531616556e+18,65.49965561523437,-3.7920537859943506,-1.7952848667967316,1.3562593601858617,1.6904262531629092e+18,65.500909375,-0.0021484375,0.720428466796875,-0.0337188720703125,1.6904262531616556e+18,65.49965561523437,3.654865680154264,8.86979082397878,-2.033878109695017,1.6904262531616556e+18,65.49965561523437,-0.4920302152633667,-1.4862974643707276,-0.007750416919589,1.6904262531578998e+18,65.495899609375,-0.5228710889816284,-1.5050287008285523,-0.0579720102250576,,,,,,,,,,,,,1.6904262531616556e+18,65.49965561523437,-7.742339324951172,25.73376922607422,-49.90901489257813,1.690426253163655e+18,65.50165483398438,39.99156188964844,58.1895263671875,68.23305053710938,1.6904262531616556e+18,65.49965561523437,0.1988235133702973,-0.0527160214827244,0.5367591829803835,-2.633724225960062,0.1596733750778066,-0.826735208124559,-1.130142289270569
5.55,1.6904262532117532e+18,65.54975336914063,-3.231524357148409,-1.49578298168838,2.8677943884706494,1.6904262532130074e+18,65.5510072265625,0.048626708984375,0.7593170166015625,0.116253662109375,1.6904262532117532e+18,65.54975336914063,3.653143211049735,8.890484769343733,-1.9444405322584508,1.6904262532117532e+18,65.54975336914063,-0.14460203461349,-0.7736394070088863,0.5382840216159821,1.6904262532079974e+18,65.54599736328126,-0.1700343672186136,-0.875676816701889,0.5027519583702087,,,,,,,,,,,,,1.6904262532117532e+18,65.54975336914063,-4.021841430664063,25.35631332397461,-50.901937866210936,1.6904262532156613e+18,65.55366123046875,43.01517639160157,58.021539306640626,67.35014953613282,1.6904262532117532e+18,65.54975336914063,0.246660901680618,-0.0285456808921096,0.5427235076793308,-2.6524591507195128,0.1384373429399101,-0.8279011981083604,-1.135138415943986
5.6,1.6904262532618514e+18,65.5998513671875,-2.318208086182475,-1.7659306451141834,3.093981095808148,1.6904262532631053e+18,65.60110517578126,0.116998291015625,0.740521240234375,0.0893035888671875,1.6904262532618514e+18,65.5998513671875,3.3033924340769643,9.022696489623783,-1.9553585536010565,1.6904262532618514e+18,65.5998513671875,0.1532957077026367,1.0975040316581726,0.9147239685058594,1.6904262532580954e+18,65.59609541015625,0.1422330945730208,0.9815862476825714,0.8942659974098206,,,,,,,,,,,,,1.6904262532618514e+18,65.5998513671875,-4.4381355285644535,25.974842834472657,-51.41646728515625,1.690426253262471e+18,65.60047082519532,41.45942687988281,58.848777770996094,67.00329971313477,1.6904262532618514e+18,65.5998513671875,0.2884176713660404,-0.0288180903882111,0.5580414020077511,-2.60634375755219,0.1417684022122445,-0.8170385144527594,-1.1684103184702617
5.65,1.6904262533119493e+18,65.64994921875,0.0132801035249232,-1.0861466511690616,2.2126416793394084,1.690426253313203e+18,65.65120297851563,0.33924560546875,0.85828857421875,0.000482177734375,1.6904262533119493e+18,65.64994921875,2.7123987764799593,9.190070708699825,-2.0799130955784024,1.6904262533119493e+18,65.64994921875,0.3307729125022888,1.5555343627929688,0.9008063197135924,1.6904262533081933e+18,65.64619316406251,0.3092049330472946,1.6113621473312378,0.922605013847351,,,,,,,,,,,,,1.6904262533119493e+18,65.64994921875,-9.702523040771483,27.22615737915039,-51.21385955810547,1.6904262533092795e+18,65.64727958984375,36.305361938476565,59.96260681152344,67.30796813964844,1.6904262533119493e+18,65.64994921875,0.3356901216733931,-0.0512912512376458,0.576749217743658,-2.4862314759736295,0.1702272643982902,-0.7972309345723894,-1.2145316778702118
5.7,1.690426253362047e+18,65.70004702148438,3.849762229310571,1.8120056999731065,-1.2366138083946705,1.6904262533633009e+18,65.70130083007813,0.6569183349609375,1.1771087646484375,-0.441876220703125,1.690426253362047e+18,65.70004702148438,2.2690989535507557,9.323905412458776,-2.018901840550601,1.690426253362047e+18,65.70004702148438,0.3674657374620437,0.5612287819385529,0.5628273367881775,1.690426253358291e+18,65.69629091796875,0.3984631180763244,0.6299001157283783,0.5902618825435638,,,,,,,,,,,,,1.690426253362047e+18,65.70004702148438,-13.819932556152343,28.71392822265625,-50.52322692871094,1.6904262533612864e+18,65.699286328125,32.236331176757815,61.626589965820315,68.05278625488282,1.690426253362047e+18,65.70004702148438,0.357006928186354,-0.0714210848089113,0.5914107533010635,-2.4141270605047467,0.1858143018596431,-0.7813871696985016,-1.255868723244942
5.75,1.6904262534121452e+18,65.75014506835937,6.216722480606734,2.145802302680015,-5.316890194400846,1.6904262534133988e+18,65.75139868164062,0.8281402587890625,1.1474700927734376,-0.76427001953125,1.6904262534121452e+18,65.75014506835937,2.1901278835231066,9.335471814707516,-2.052492384628654,1.6904262534121452e+18,65.75014506835937,-0.5094063505530357,-0.3009414054453373,-0.3923990249633789,1.6904262534083889e+18,65.74638896484376,-0.4360050528310239,-0.2117248818278312,-0.333207780122757,,,,,,,,,,,,,1.6904262534121452e+18,65.75014506835937,-15.20043601989746,29.822515869140624,-50.50084381103515,1.6904262534132954e+18,65.75129545898437,31.467929077148437,62.58095092773438,67.62630310058594,1.6904262534121452e+18,65.75014506835937,0.3738583494367901,-0.0731413604230361,0.5934350296312474,-2.388557396358915,0.1901548809612949,-0.7786491825683031,-1.2597119778128607
5.8,1.690426253462243e+18,65.80024306640625,1.3069559324780105,-1.159459490852356,-2.131592370959073,1.6904262534634967e+18,65.80149663085938,0.3217926025390625,0.7843109130859375,-0.3307769775390625,1.690426253462243e+18,65.80024306640625,2.3835566689883168,9.231630331960917,-2.2941491944290697,1.690426253462243e+18,65.80024306640625,-0.4527225537691265,-0.4483416318893433,0.1464776307344436,1.690426253458487e+18,65.79648701171875,-0.5256622835993767,-0.500337292253971,0.0661322049796581,,,,,,,,,,,,,1.690426253462243e+18,65.80024306640625,-13.644071197509763,29.61084442138672,-52.33082122802735,1.6904262534653064e+18,65.80330639648437,33.13377380371094,62.173193359375,65.59069519042968,1.690426253462243e+18,65.80024306640625,0.417383491448762,-0.053350857744878,0.5856310447869513,-2.3753823713331896,0.1884340341511765,-0.786547995761649,-1.2266747678172862
5.85,1.690426253512341e+18,65.8503408203125,1.0291204033502936,1.5101243431562184,2.812203726412952,1.6904262535135946e+18,65.85159462890626,0.373260498046875,1.225738525390625,0.0823883056640625,1.690426253512341e+18,65.8503408203125,2.1749797064909338,9.285779738395211,-2.2816185648711023,1.690426253512341e+18,65.8503408203125,0.3078741520643234,0.0338486472144723,0.5429773509502411,1.690426253508585e+18,65.8465849609375,0.2818610310554504,0.0371456112712621,0.5750288307666779,,,,,,,,,,,,,1.690426253512341e+18,65.8503408203125,-13.756848907470705,30.129529571533205,-53.65705261230469,1.6904262535121152e+18,65.85011511230468,32.51294708251953,62.99821853637695,64.7165298461914,1.690426253512341e+18,65.8503408203125,0.4702055386178562,-0.0490488403857839,0.5952212675335029,-2.3320440858263027,0.1865611134585686,-0.7800506648945863,-1.2435253840609028
5.9,1.690426253562439e+18,65.90043862304688,1.5601281742183863,4.644764664706587,1.3287861591704189,1.6904262535636923e+18,65.9016923828125,0.2900909423828125,1.2814788818359375,-0.1394287109375,1.690426253562439e+18,65.90043862304688,2.087079070911109,9.335936275801062,-2.1573294835099572,1.690426253562439e+18,65.90043862304688,0.2104167208075523,0.5800360653549432,-0.2514431953430175,1.6904262535586826e+18,65.89668261718751,0.22702127546072,0.4846172765828669,-0.2139696016907692,,,,,,,,,,,,,1.690426253562439e+18,65.90043862304688,-14.55730972290039,31.950025939941405,-53.78946075439453,1.6904262535589233e+18,65.89692329101563,31.86626281738281,64.7652374267578,64.67707824707031,1.690426253562439e+18,65.90043862304688,0.4527175549970655,-0.0570728449275759,0.5992581056616854,-2.3396276634666746,0.1856597588097206,-0.7766202357735111,-1.2597099391680735
5.95,1.6904262536125366e+18,65.95053657226563,-4.934984517563283,-4.482504544547796,2.189835885613113,1.6904262536137905e+18,65.9517904296875,-0.3851043701171875,0.5204864501953125,0.043145751953125,1.6904262536125366e+18,65.95053657226563,2.0169613740073142,9.358505951910018,-2.124085093294978,1.6904262536125366e+18,65.95053657226563,0.5199489295482635,1.416652226448059,0.2890603825449943,1.6904262536087803e+18,65.94678056640626,0.4961113750934601,1.4339725732803346,0.2143086105585098,,,,,,,,,,,,,1.6904262536125366e+18,65.95053657226563,-17.135221099853517,34.199553680419925,-53.36790161132812,1.6904262536109297e+18,65.94892958984374,29.0271240234375,67.02855224609375,65.17131652832032,1.6904262536125366e+18,65.95053657226563,0.4025395992015645,-0.0810388686355758,0.5966151284456431,-2.329947133120521,0.2029226402212625,-0.7721270777031531,-1.2674361234832403
6.0,1.6904262536626345e+18,66.00063447265624,-6.15940584231317,0.94357743681252,-0.201261875630617,1.690426253663888e+18,66.00188828125,-0.4540130615234375,1.08284912109375,-0.3042083740234375,1.6904262536626345e+18,66.00063447265624,1.5570622984547913,9.467458844773171,-2.0201082937309147,1.6904262536626345e+18,66.00063447265624,0.252580189332366,0.9969610929489136,1.1068137168884278,1.6904262536588785e+18,65.99687841796876,0.3003683963790536,1.0457279086112976,1.0411849737167358,,,,,,,,,,,,,1.6904262536626345e+18,66.00063447265624,-21.159455871582033,35.68104019165039,-52.65244750976562,1.6904262536629356e+18,66.0009353515625,23.893209838867183,68.4670166015625,66.0005096435547,1.6904262536626345e+18,66.00063447265624,0.4469807180204784,-0.1047283206833528,0.6095486848675666,-2.225098199789191,0.2213700688309161,-0.7538960293508433,-1.307293377889459
6.05,1.6904262537127322e+18,66.05073227539063,-1.0538845499897,-0.162611534718871,-0.9281731515143812,1.690426253713986e+18,66.05198598632812,0.11495361328125,0.9563934326171876,-0.24000244140625,1.6904262537127322e+18,66.05073227539063,0.7764863893659412,9.54988777094364,-2.076220729253441,1.6904262537127322e+18,66.05073227539063,-0.1390431553125381,1.1625291228294372,1.4240149140357972,1.690426253708976e+18,66.04697622070312,-0.1329170376062392,1.1162610292434691,1.4802420616149905,,,,,,,,,,,,,1.6904262537127322e+18,66.05073227539063,-26.459232330322266,35.01800308227539,-52.40859375,1.6904262537149404e+18,66.05294057617188,18.433203125,67.1725830078125,66.09943237304688,1.6904262537127322e+18,66.05073227539063,0.7051594273598354,-0.1113967358066573,0.6334073541737909,-1.926253777451556,0.2431049762670653,-0.7260180732209394,-1.3415282997629494
6.1,1.6904262537628303e+18,66.10083022460938,1.0551057331216334,0.0675576371574401,1.8020313599953055,1.6904262537640837e+18,66.1020837890625,0.0166107177734375,0.9676727294921876,-0.0379302978515625,1.6904262537628303e+18,66.10083022460938,0.1590836135811032,9.563448444975611,-2.1599644789625705,1.6904262537628303e+18,66.10083022460938,-0.0585236974060535,1.7483921289443969,0.6619939088821412,1.6904262537590743e+18,66.09707431640625,-0.0685616435017436,1.7149888515472411,0.6717565536499024,,,,,,,,,,,,,1.6904262537628303e+18,66.10083022460938,-32.172143173217776,33.640953826904294,-51.75599365234375,1.6904262537617418e+18,66.09974188232422,13.25759506225586,66.13225555419922,66.93191528320312,1.6904262537628303e+18,66.10083022460938,0.9192614189299332,-0.1267208770537732,0.6456399573648611,-1.6443747654641594,0.2737564112022294,-0.7014055563437458,-1.3476245860224183
6.15,1.690426253812928e+18,66.15092807617188,-0.5047993071718886,-0.5004898537814617,0.3952610083296894,1.690426253814182e+18,66.1521818359375,-0.072808837890625,0.92762451171875,-0.219683837890625,1.690426253812928e+18,66.15092807617188,-0.3380496588681358,9.565805120330452,-2.129470965664834,1.690426253812928e+18,66.15092807617188,0.1469329923391341,1.693386697769165,0.5702330827713012,1.690426253809172e+18,66.14717202148438,0.1355704009532928,1.74771888256073,0.5787951827049256,,,,,,,,,,,,,1.690426253812928e+18,66.15092807617188,-38.34966049194336,33.1252555847168,-49.742190551757815,1.6904262538085425e+18,66.1465423828125,7.658071899414063,65.75046081542969,68.91558532714843,1.690426253812928e+18,66.15092807617188,1.0615844080152668,-0.1529417523979108,0.6502975911389174,-1.4131114163588692,0.3070542737195151,-0.677700040283765,-1.3487148472486872
6.2,1.690426253863026e+18,66.20102578125,-0.2647490192526578,-0.891884775880575,-1.4445589027293029,1.6904262538642796e+18,66.20227968750001,-0.102349853515625,0.8882568359375,-0.3444854736328125,1.690426253863026e+18,66.20102578125,-0.7774767813362553,9.564161912394166,-2.0187435520228743,1.690426253863026e+18,66.20102578125,0.0984955847263335,1.2925297975540162,0.6697702288627625,1.69042625385927e+18,66.19726977539062,0.1125020444393157,1.3028945446014404,0.6672284841537476,,,,,,,,,,,,,1.690426253863026e+18,66.20102578125,-43.48453140258789,32.79851608276367,-47.898912048339845,1.690426253860546e+18,66.19854599609376,2.6182830810546873,65.39196472167968,70.6952392578125,1.690426253863026e+18,66.20102578125,1.2032120429100934,-0.1738283365582389,0.6558415911018456,-1.2037535195009974,0.3308600989015101,-0.6558053301349338,-1.3479647229927565
6.25,1.6904262539131236e+18,66.25112363281251,0.3263257553695887,-0.210029353262782,-0.2204956268629431,1.6904262539143777e+18,66.25237749023438,-0.103955078125,0.94708251953125,-0.1879150390625,1.6904262539131236e+18,66.25112363281251,-1.209097937281281,9.537329902665617,-1.9323105632297692,1.6904262539131236e+18,66.25112363281251,0.0812888532876967,1.0832477688789368,0.637597632408142,1.6904262539093676e+18,66.247367578125,0.0628061790019273,1.1301326990127565,0.6296675324440002,,,,,,,,,,,,,1.6904262539131236e+18,66.25112363281251,-47.519099426269534,31.921028900146485,-46.72879638671875,1.690426253912549e+18,66.25054921875,-1.5994049072265626,64.42974853515625,71.89663391113281,1.6904262539131236e+18,66.25112363281251,1.335725997849148,-0.1896229274726995,0.6610643477914697,-1.012491544596769,0.3529990333067399,-0.6343094647675522,-1.3359270573346014
6.3,1.6904262539632215e+18,66.3012216796875,0.3554340540800988,-0.5167553444057702,0.4394074332135916,1.6904262539644751e+18,66.30247524414062,-0.1285186767578125,0.9174041748046876,-0.1541656494140625,1.6904262539632215e+18,66.3012216796875,-1.6264856710319222,9.509915826039316,-1.7511603907097877,1.6904262539632215e+18,66.3012216796875,0.4254358947277069,0.7137170314788819,0.776191234588623,1.6904262539594655e+18,66.297465625,0.4069969952106476,0.7146406412124634,0.7665387630462647,,,,,,,,,,,,,1.6904262539632215e+18,66.3012216796875,-50.51740036010742,31.188719177246092,-46.03529052734375,1.69042625396455e+18,66.30254990234376,-4.891217041015625,63.68326416015625,72.60534057617187,1.6904262539632215e+18,66.3012216796875,1.4877150708235845,-0.2011502874841009,0.670424776117597,-0.8229641599113556,0.3652975616202646,-0.6136481272123393,-1.3241869821870167
6.35,1.6904262540133197e+18,66.35131948242187,0.3417242977401614,-0.4200750731384753,-0.240691968743205,1.690426254014573e+18,66.35257314453125,-0.177099609375,0.933551025390625,-0.1690032958984375,1.6904262540133197e+18,66.35131948242187,-2.130492359214872,9.465279864072798,-1.4134317677031458,1.6904262540133197e+18,66.35131948242187,0.7047560214996338,0.7763531684875489,1.0913198471069336,1.6904262540095636e+18,66.3475634765625,0.6849569797515869,0.8072475790977478,1.0769811034202577,1.6904262539995098e+18,66.337509765625,76.21167798154056,5.242363522038056,180.0,49.28006331188257,95.39310689084232,344.68998319391505,39.171634085830576,1.275045538053353,-122.96815300715735,0.2367181881977825,1.6904262540133197e+18,66.35131948242187,-53.95649642944336,30.552731323242188,-45.12927398681641,1.6904262540113544e+18,66.34935443115235,-8.245555877685547,63.003211975097656,73.58369827270508,1.6904262540133197e+18,66.35131948242187,1.6891292959996913,-0.2144884137719326,0.6852646196173452,-0.5878438762593297,0.3728358970988691,-0.5876056311223792,-1.306274585322643
6.4,1.690426254063417e+18,66.40141723632811,1.8713106479266288,0.2692677241730689,-2.0609998084720966,1.6904262540646712e+18,66.40267099609375,-0.0664520263671875,0.994158935546875,-0.3403839111328125,1.690426254063417e+18,66.40141723632811,-2.6391611647638675,9.390588020347357,-0.999657679791972,1.690426254063417e+18,66.40141723632811,0.624185174703598,0.4459074139595032,0.7725479066371918,1.6904262540596613e+18,66.39766123046874,0.6582996070384979,0.4526227593421936,0.822312331199646,,,,,,,,,,,,,1.690426254063417e+18,66.40141723632811,-57.059512329101565,29.851180267333984,-44.42175140380859,1.6904262540581568e+18,66.39615683593749,-10.731259155273438,62.46125793457031,74.04307250976562,1.690426254063417e+18,66.40141723632811,1.893196596563032,-0.2254954998702931,0.7034673314841718,-0.363201386370096,0.3737334599237684,-0.5608458443104807,-1.278544134380123
6.45,1.690426254113515e+18,66.45151523437501,1.973203393145204,1.315776776958704,-2.860150654171407,1.690426254114769e+18,66.45276889648437,-0.1035797119140625,1.0992950439453124,-0.365576171875,1.690426254113515e+18,66.45151523437501,-2.856304500137269,9.350900386890173,-0.7553331997653097,1.690426254113515e+18,66.45151523437501,0.0977076385170221,0.6795851230621338,0.1076344933360814,1.6904262541097592e+18,66.44775922851564,0.1375987648963928,0.6510579228401184,0.1416002187877893,,,,,,,,,,,,,1.690426254113515e+18,66.45151523437501,-58.325819396972655,30.06666259765625,-44.90223083496094,1.6904262541101594e+18,66.44815917968751,-11.9033935546875,62.75721130371094,73.5154022216797,1.690426254113515e+18,66.45151523437501,1.9750231296757748,-0.2360214420665183,0.709602349785081,-0.2585666588299314,0.3769480601849049,-0.5464839070090364,-1.2647320250954046
6.5,1.6904262541636132e+18,66.50161303710938,2.300931664949953,1.0077133997321128,-2.0002650322981177,1.6904262541648666e+18,66.50286665039063,-0.04964599609375,1.0713043212890625,-0.277752685546875,1.6904262541636132e+18,66.50161303710938,-2.8582418979406357,9.357473920061588,-0.6612192718546838,1.6904262541636132e+18,66.50161303710938,-0.0898982748389243,0.7975477576255798,-0.2310580365359783,1.6904262541598572e+18,66.49785698242188,-0.0937612727284431,0.8450092911720276,-0.2067567989230155,,,,,,,,,,,,,1.6904262541636132e+18,66.50161303710938,-58.43525772094726,30.913701629638673,-45.89132537841797,1.6904262541621637e+18,66.5001634765625,-11.924411010742189,63.64874267578125,72.48909301757813,1.6904262541636132e+18,66.50161303710938,1.9641295824173617,-0.2505873896707499,0.7032182204813866,-0.2272825577835708,0.3888402008777803,-0.5398655035671535,-1.266980763813138
6.55,1.6904262542137108e+18,66.55171083984375,2.377458907409012,2.9579723213326927,-4.385987939409613,1.6904262542149647e+18,66.5529646484375,-0.0069091796875,1.2705322265625,-0.5412872314453125,1.6904262542137108e+18,66.55171083984375,-2.6712271003970502,9.408917223955394,-0.701690427678898,1.6904262542137108e+18,66.55171083984375,-0.3819474011659622,-0.279719603061676,-0.7411366283893586,1.6904262542099548e+18,66.54795483398438,-0.3394256934523582,-0.1804364539682865,-0.6655529320240021,,,,,,,,,,,,,1.6904262542137108e+18,66.55171083984375,-56.47462387084961,32.3207649230957,-47.63309631347656,1.6904262542141686e+18,66.55216865234374,-8.477444458007813,65.56446228027343,69.76189270019532,1.6904262542137108e+18,66.55171083984375,1.9162178817085735,-0.2576532082775048,0.6938289219893625,-0.2578247535989337,0.3934260550567861,-0.5453370076726033,-1.285145559043795
6.6,1.6904262542638085e+18,66.60180869140625,3.658481649468243,2.3649313758170605,-2.216602545794397,1.6904262542650624e+18,66.60306240234374,0.216961669921875,1.191070556640625,-0.2341644287109375,1.6904262542638085e+18,66.60180869140625,-1.958658150442243,9.537512156590818,-1.112804298017919,1.6904262542638085e+18,66.60180869140625,-0.897343373298645,-1.2869372844696043,-2.214388942718506,1.6904262542600527e+18,66.59805268554688,-0.8740925550460815,-1.248851764202118,-2.081020379066467,,,,,,,,,,,,,1.6904262542638085e+18,66.60180869140625,-47.761775970458984,34.63681259155273,-52.590178680419925,1.6904262542661734e+18,66.60417343750001,2.502117919921875,67.99931335449219,64.27347412109376,1.6904262542638085e+18,66.60180869140625,1.680607622021942,-0.2475380747922895,0.6726201351317782,-0.5284191421230697,0.3838399216883682,-0.5818896403778128,-1.3368366621122068
6.65,1.6904262543139067e+18,66.651906640625,0.2013115453781933,1.649304733405113,2.9643660263447464,1.69042625431516e+18,66.65316020507812,-0.13232421875,1.2045318603515625,0.1463653564453125,1.6904262543139067e+18,66.651906640625,-0.5017238799552899,9.63953601006925,-1.6665290445111691,1.6904262543139067e+18,66.651906640625,-1.0256658792495728,-0.7953322291374206,-3.0958067417144775,1.690426254310151e+18,66.64815063476563,-1.0235080122947693,-0.8848153352737427,-3.116660785675049,,,,,,,,,,,,,1.6904262543139067e+18,66.651906640625,-32.769955444335935,37.19496841430664,-57.36560287475586,1.690426254312976e+18,66.65097619628907,16.54681396484375,70.22386169433594,60.52654647827149,1.6904262543139067e+18,66.651906640625,0.9776019289712452,-0.239850751109091,0.6264231710835599,-1.2767142359577184,0.3645737456418383,-0.6454252573494029,-1.3859971484841147
