seconds_elapsed_rounded,accelerometer_time,accelerometer_seconds_elapsed,accelerometer_z,accelerometer_y,accelerometer_x,accelerometeruncalibrated_time,accelerometeruncalibrated_seconds_elapsed,accelerometeruncalibrated_z,accelerometeruncalibrated_y,accelerometeruncalibrated_x,gravity_time,gravity_seconds_elapsed,gravity_z,gravity_y,gravity_x,gyroscope_time,gyroscope_seconds_elapsed,gyroscope_z,gyroscope_y,gyroscope_x,gyroscopeuncalibrated_time,gyroscopeuncalibrated_seconds_elapsed,gyroscopeuncalibrated_z,gyroscopeuncalibrated_y,gyroscopeuncalibrated_x,location_time,location_seconds_elapsed,location_bearingAccuracy,location_speedAccuracy,location_verticalAccuracy,location_horizontalAccuracy,location_speed,location_bearing,location_altitude,location_longitude,location_latitude,magnetometer_time,magnetometer_seconds_elapsed,magnetometer_z,magnetometer_y,magnetometer_x,magnetometeruncalibrated_time,magnetometeruncalibrated_seconds_elapsed,magnetometeruncalibrated_z,magnetometeruncalibrated_y,magnetometeruncalibrated_x,orientation_time,orientation_seconds_elapsed,orientation_qz,orientation_qy,orientation_qx,orientation_qw,orientation_roll,orientation_pitch,orientation_yaw
0.0,1.68875488833852e+18,89.99552010091145,1.0331908861796062,-6.998864491780599,0.7989139556884766,1.68875488833852e+18,89.99552010091145,-0.8927222688992819,-16.56730588277181,1.844467508296172,1.68875488833852e+18,89.99552010091145,-1.9317591587702432,-9.550937334696451,0.982866108417511,1.6887548883471752e+18,90.00417513020834,1.4233160416285198,0.6633487641811372,3.6613736152648926,1.6887548883428442e+18,89.99984411621094,1.4894421696662905,0.994641363620758,3.734830141067505,,,,,,,,,,,,1.6887548883380608e+18,89.99506083984375,-2.1545198976993563,45.208319091796874,-22.167399978637697,1.6887548883380608e+18,89.99506083984375,-256.6831115722656,138.52611694335937,-154.17139892578126,1.68875488833852e+18,89.99552010091145,-0.5779294967651367,0.6689062515894572,-0.3874344329039256,0.2599843392769495,-2.660675525665283,1.3486757278442385,-1.4388163089752195
0.05,1.6887548883904305e+18,90.04743033854167,-1.982485055923462,-2.919082005818685,3.337015946706136,1.6887548883904305e+18,90.04743033854167,-2.0636101563771567,-12.719447453816732,3.9445682366689048,1.6887548883904305e+18,90.04743033854167,-0.0869711115956306,-9.78286075592041,0.544864813486735,1.6887548883990766e+18,90.05607649739584,0.0756963913639386,-1.0047206282615662,3.592498461405436,1.688754888386106e+18,90.04310595703124,0.4666501581668854,-0.9379835625489552,3.603443145751953,,,,,,,,,,,,1.688754888388063e+18,90.04506298828126,-10.628640079498291,45.471839141845706,-19.641999435424804,1.688754888388063e+18,90.04506298828126,-265.1572326660156,138.78963928222657,-151.64600219726563,1.6887548883904305e+18,90.04743033854167,-0.6310365398724874,0.6179121136665344,-0.3489590386549632,0.3122842609882355,-1.6578282713890076,1.4985397656758626,-0.363210916519165
0.1,1.6887548884423345e+18,90.09933455403647,-3.416616996129354,-8.332663218180338,8.286053657531738,1.6887548884423345e+18,90.09933455403647,-1.6241283317406972,-17.9603271484375,8.979864597320557,1.6887548884423345e+18,90.09933455403647,1.7866427103678386,-9.610160191853842,0.6311233441034952,1.688754888442329e+18,90.09932922363282,0.0088575454428792,-0.3617085814476013,4.043698787689209,1.6887548884380047e+18,90.09500455729166,-0.0930551389853159,-0.4487314224243164,3.9219584465026855,,,,,,,,,,,,1.688754888438063e+18,90.09506313476564,-18.731879425048827,43.41735916137695,-20.186119079589844,1.688754888438063e+18,90.09506313476564,-273.2604736328125,136.73515625,-152.19011535644532,1.6887548884423345e+18,90.09933455403647,-0.6827300190925598,0.5469684998194376,-0.3298549354076385,0.3537253638108571,-0.3582988878091176,1.3747189442316692,2.4851579666137695
0.15,1.6887548884942364e+18,90.1512364095052,-1.6491069793701172,-3.588263511657715,0.5927654306093851,1.6887548884942364e+18,90.1512364095052,1.662014722824097,-12.790035883585611,1.5615161856015525,1.6887548884942364e+18,90.1512364095052,3.3052757581075034,-9.18426767985026,0.9060632785161336,1.688754888485587e+18,90.1425868326823,0.0303905486750105,-2.0497583150863647,3.007747729619344,1.6887548884899164e+18,90.14691642252605,0.1148426681756973,-1.9555832942326865,2.971757650375366,,,,,,,,,,,,1.6887548884880635e+18,90.14506328125,-24.412199401855467,40.08675994873047,-21.31095962524414,1.6887548884880635e+18,90.14506328125,-278.9407897949219,133.40455932617186,-153.31495971679686,1.6887548884942364e+18,90.1512364095052,-0.7128766576449076,0.4716086586316426,-0.3290251990159352,0.4006609817345937,-0.2666938702265422,1.2127187649408977,2.3039336999257407
0.2,1.688754888546145e+18,90.20314493815106,-10.174721399943031,4.968004067738851,-1.6351639827092488,1.688754888546145e+18,90.20314493815106,-5.578866004943848,-3.673182209332784,-0.7525427341461182,1.688754888546145e+18,90.20314493815106,4.590009371439616,-8.623681704203287,0.8199338515599569,1.6887548885374953e+18,90.1944951171875,0.5527312258879343,-0.6946046650409698,2.983262300491333,1.6887548885418168e+18,90.19881689453126,0.500400443871816,-0.9683232108751932,2.9540425141652427,1.688754888567772e+18,90.22477197265626,0.0,0.0,6.309629440307617,6.251999855041504,1.6906085014343262,100.40555572509766,333.1000061035156,-122.9158233,49.2792233,1.6887548885380664e+18,90.1950663574219,-30.038838958740236,36.58047943115234,-21.63303985595703,1.6887548885380664e+18,90.1950663574219,-284.56744384765625,129.89827575683594,-153.6370361328125,1.688754888546145e+18,90.20314493815106,-0.7324819167455038,0.4132193128267924,-0.30732129017512,0.4446924130121867,-0.1753989110390344,1.0740575393040974,2.155172904332479
0.25,1.6887548885980488e+18,90.25504890950522,-7.421251138051351,11.628774325052897,-1.4073484341303508,1.6887548885980488e+18,90.25504890950522,-1.8941184679667156,3.683152278264364,0.3056830962498982,1.6887548885980488e+18,90.25504890950522,5.521286805470784,-7.928117593129476,1.6503440936406453,1.6887548885893962e+18,90.2463962402344,-0.4950553712745507,-3.0471994876861572,2.5311201413472495,1.6887548885937254e+18,90.25072542317707,-0.5545638302961985,-2.990236282348633,2.447635293006897,,,,,,,,,,,,1.6887548885880614e+18,90.24506157226564,-32.176279067993164,32.859479141235354,-25.05391960144043,1.6887548885880614e+18,90.24506157226564,-286.7048767089844,126.17727661132812,-157.05792236328125,1.6887548885980488e+18,90.25504890950522,-0.737471322218577,0.328533391157786,-0.3309502104918162,0.4878403743108113,-0.2876213242610295,0.9407707452774048,2.1190339724222818
0.3,1.6887548886499533e+18,90.3069532877604,-4.260870615641276,6.716180801391602,-0.0646042029062907,1.6887548886499533e+18,90.3069532877604,1.3740784128506978,-1.0055837631225586,2.2693928877512612,1.6887548886499533e+18,90.3069532877604,5.629103024800618,-7.704260190327962,2.2713096936543784,1.6887548886413046e+18,90.29830444335936,0.169413278500239,-1.2917763392130537,-0.2060142854849497,1.688754888645631e+18,90.30263102213542,0.3051781008640925,-1.143437922000885,-0.4779002269109089,,,,,,,,,,,,1.68875488863806e+18,90.2950599609375,-31.466239166259765,30.47071952819824,-28.81639900207519,1.68875488863806e+18,90.2950599609375,-285.9948364257813,123.78851776123048,-160.82039794921874,1.6887548886499533e+18,90.3069532877604,-0.7306073506673177,0.29014786084493,-0.3582382996877034,0.5035602649052938,-0.3825784027576446,0.9024587472279868,2.121886412302653
0.35,1.688754888693209e+18,90.35020935058594,-2.5836195945739746,5.783528804779053,0.0279329419136047,1.688754888693209e+18,90.35020935058594,2.339881479740143,-2.4750759601593018,2.107478618621826,1.688754888693209e+18,90.35020935058594,4.917654991149902,-8.241100311279297,2.0168582797050476,1.688754888693209e+18,90.3502090657552,1.4991142352422078,-0.2913827151060104,-2.529185692469279,1.6887548886975355e+18,90.35453564453124,1.5167784293492634,-0.2919426895678043,-2.6274332205454507,,,,,,,,,,,,1.6887548886880635e+18,90.345063671875,-27.59883918762207,33.49875946044922,-28.643159484863283,1.6887548886880635e+18,90.345063671875,-282.1274353027344,126.81655731201172,-160.64715881347655,1.688754888693209e+18,90.35020935058594,-0.7017694413661957,0.322810024023056,-0.3801304697990417,0.5085585713386536,-0.387461170554161,0.9970279335975648,2.1000781059265137
0.4,1.6887548887364598e+18,90.39345987955728,8.686313470204672,-8.145784219106039,1.180115262667338,1.6887548887364598e+18,90.39345987955728,12.933405876159668,-16.82892115910848,3.008974472681681,1.6887548887364598e+18,90.39345987955728,4.241246700286865,-8.665632247924805,1.7661718130111694,1.6887548887451164e+18,90.40211645507812,-0.3020728528499603,-1.7111353278160095,0.5162829955418904,1.688754888749437e+18,90.40643644205733,-0.4809545675913493,-2.163837492465973,0.8602000077565511,,,,,,,,,,,,1.6887548887380608e+18,90.3950609375,-23.10191955566406,37.67360000610351,-27.313359451293945,1.6887548887380608e+18,90.3950609375,-277.630517578125,130.99140014648438,-159.31735534667968,1.6887548887364598e+18,90.39345987955728,-0.6752309799194336,0.3520045379797618,-0.3991328577200572,0.5106253623962402,-0.3927216331164042,1.0823912620544434,2.0846547285715737
0.45,1.6887548887883653e+18,90.4453653971354,7.987710793813069,-4.874131202697754,6.647645155588786,1.6887548887883653e+18,90.4453653971354,12.522637685139976,-13.182658354441324,9.347761154174805,1.6887548887883653e+18,90.4453653971354,4.529080867767334,-8.291021982828775,2.637428124745687,1.6887548887970194e+18,90.4540196126302,0.4905757158994674,-2.6341017882029214,1.176933725674947,1.6887548887926963e+18,90.44969641113282,0.7157813534140587,-3.0070605278015137,1.4391221404075625,,,,,,,,,,,,1.6887548887880653e+18,90.44506528320312,-20.759519577026367,35.82407913208008,-31.02703971862793,1.6887548887880653e+18,90.44506528320312,-275.2881164550781,129.14187622070312,-163.03103637695312,1.6887548887883653e+18,90.4453653971354,-0.6584574580192566,0.2801047960917155,-0.4356987178325653,0.545484185218811,-0.5254493753115336,1.006117860476176,2.0517561435699463
0.5,1.6887548888402732e+18,90.49727319335938,-6.9880906740824384,-4.134345690409343,6.044297536214192,1.6887548888402732e+18,90.49727319335938,-2.332005202770233,-12.334004084269203,8.875178402289746,1.6887548888402732e+18,90.49727319335938,4.65023930867513,-8.182154019673666,2.768193085988363,1.6887548888489224e+18,90.50592236328124,-0.2857322196165721,0.8904379059871038,-0.0814995964368184,1.6887548888359493e+18,90.49294921874998,-0.3536909768978755,0.4914919783671697,-0.0621555397907892,,,,,,,,,,,,1.6887548888380646e+18,90.495064453125,-20.334959030151367,35.73867950439453,-31.473559188842778,1.6887548888380646e+18,90.495064453125,-274.8635498046875,129.05647888183594,-163.47755737304686,1.6887548888402732e+18,90.49727319335938,-0.6547959049542745,0.2639229595661163,-0.4390483299891154,0.5556655526161194,-0.5351454218228658,0.985589067141215,2.0265513261159263
0.55,1.6887548888921818e+18,90.5491817220052,-4.7266223430633545,1.266109307607015,-5.966066797574361,1.6887548888921818e+18,90.5491817220052,-0.301894466082255,-7.182456175486247,-3.557130217552185,1.6887548888921818e+18,90.5491817220052,4.418881893157959,-8.431060791015625,2.3462490240732827,1.688754888892179e+18,90.54917883300784,0.3125339411199093,2.3141865730285645,-2.1922426223754883,1.6887548888878543e+18,90.5448545735677,0.4318817382057507,2.1041762034098306,-1.5859589235236249,,,,,,,,,,,,1.6887548888880658e+18,90.54506586914064,-21.38415946960449,35.44099884033203,-30.004679107666018,1.6887548888880658e+18,90.54506586914064,-275.9127563476562,128.75879669189453,-162.00867614746093,1.6887548888921818e+18,90.5491817220052,-0.6610519091288248,0.3030145665009816,-0.4264737168947856,0.5372863610585531,-0.4852612614631653,1.0342645049095154,2.0561956564585366
0.6,1.688754888944084e+18,90.601083984375,-6.042243003845215,0.704766591389974,0.6495112975438436,1.688754888944084e+18,90.601083984375,-2.7463621695836387,-8.439684867858887,2.0450658003489175,1.688754888944084e+18,90.601083984375,3.2900346914927163,-9.126946767171225,1.3328671058019002,1.6887548889354294e+18,90.5924295247396,0.6520477334658304,4.120286146799724,-3.474194288253784,1.6887548889397563e+18,90.59675602213542,0.5899431010087332,4.1404445966084795,-3.665191570917765,,,,,,,,,,,,1.6887548889380654e+18,90.59506533203124,-21.894119262695312,38.82039947509766,-25.885959243774415,1.6887548889380654e+18,90.59506533203124,-276.42271728515624,132.13819885253906,-157.88995971679688,1.688754888944084e+18,90.601083984375,-0.6612247029940287,0.4123825232187907,-0.4005181988080342,0.4801368415355682,-0.3800285458564758,1.1989562511444092,2.147317806879679
0.65,1.6887548889959895e+18,90.65298942057292,-2.579821308453878,-0.6490198771158855,-1.279226779937744,1.6887548889959895e+18,90.65298942057292,-1.225125273068746,-10.331809361775717,-0.3270190892120202,1.6887548889959895e+18,90.65298942057292,1.348849991957347,-9.665284792582192,0.8895202875137329,1.6887548889873377e+18,90.64433740234377,-0.2628756860891978,3.901850779851278,-4.2128320535024,1.6887548889916613e+18,90.64866113281248,-0.3802127093076706,4.0500874519348145,-4.06719168027242,,,,,,,,,,,,1.6887548889880653e+18,90.64506528320312,-17.445999908447266,42.83175964355469,-21.955119705200197,1.6887548889880653e+18,90.64506528320312,-271.97459716796874,136.1495574951172,-153.95911560058593,1.6887548889959895e+18,90.65298942057292,-0.6464333732922872,0.5298246641953787,-0.3861741026242574,0.3879180749257405,-0.610566665728887,1.4026849667231245,2.5879557927449546
0.7,1.68875488904789e+18,90.70489005533854,-2.6570926507314048,-1.479042689005534,-1.6537405252456665,1.68875488904789e+18,90.70489005533854,-2.4939194520314536,-11.234302202860514,-0.4406781842311223,1.68875488904789e+18,90.70489005533854,0.1573271403710047,-9.737754821777344,1.150374968846639,1.6887548890392484e+18,90.69624837239584,-0.8228864173094431,1.652594029903412,-2.076840043067932,1.68875488904357e+18,90.70056990559895,-0.7307984630266825,1.1159489750862124,-1.965560754140218,,,,,,,,,,,,1.68875488903806e+18,90.69505981445312,-14.169079780578612,44.41531982421875,-20.888839721679688,1.68875488903806e+18,90.69505981445312,-268.6976745605469,137.73312072753907,-152.89284057617186,1.68875488904789e+18,90.70489005533854,-0.6433966159820557,0.5929554303487142,-0.3738387723763783,0.307419737180074,-1.4201603333155317,1.450027068456014,-2.7286903063456216
0.75,1.6887548890997993e+18,90.75679939778644,3.3510493437449136,2.783947308858236,-1.8759560982386272,1.6887548890997993e+18,90.75679939778644,2.678366184234619,-6.95314375559489,-0.688933531443278,1.6887548890997993e+18,90.75679939778644,-0.6785292526086172,-9.719586372375488,1.1243351697921753,1.6887548890911498e+18,90.74814957682293,0.2411390542984008,0.3513493239879608,-1.7188220818837483,1.6887548890954714e+18,90.75247143554688,0.2728022436300913,0.663450558980306,-1.701005180676778,1.6887548890868252e+18,90.7438251953125,0.0,0.0,6.309629440307617,6.291999816894531,1.6891871690750122,100.5763168334961,333.1000061035156,-122.9158178,49.2792204,1.688754889088067e+18,90.74506733398438,-10.850679779052737,45.18635864257813,-21.288999557495114,1.688754889088067e+18,90.74506733398438,-265.3792724609375,138.50415954589843,-153.29299926757812,1.6887548890997993e+18,90.75679939778644,-0.6171858112017313,0.6209017833073934,-0.3852112094561259,0.2914369801680247,-2.102319320042928,1.436335285504659,-2.0396149158477783
0.8,1.6887548891430538e+18,90.8000537109375,1.3941601514816284,2.4825809001922607,-1.7152466177940369,1.6887548891430538e+18,90.8000537109375,0.1968096494674682,-7.215556859970093,-0.6215356886386871,1.6887548891430538e+18,90.8000537109375,-1.2031965255737305,-9.680633068084717,1.0310235023498535,1.6887548891430546e+18,90.8000546875,0.34921129544576,2.379829168319702,-1.5369878609975178,1.688754889147376e+18,90.80437581380208,0.3124066690603891,2.318844517072042,-1.5526667435963948,,,,,,,,,,,,1.6887548891380634e+18,90.79506323242188,-8.2471999168396,46.20383911132812,-19.81279945373535,1.6887548891380634e+18,90.79506323242188,-262.7757995605469,139.52163696289062,-151.816796875,1.6887548891430538e+18,90.8000537109375,-0.6116147935390472,0.6571407616138458,-0.3590475916862488,0.254979059100151,-2.431192636489868,1.4097120761871338,-1.6118600964546204
0.85,1.688754889186307e+18,90.84330696614582,0.8714596827824911,1.3402113914489746,-1.140768011411031,1.688754889186307e+18,90.84330696614582,-0.953938643137614,-8.249056339263916,0.0223330128937959,1.688754889186307e+18,90.84330696614582,-1.8312443494796753,-9.571763038635254,1.1004136006037395,1.6887548891949545e+18,90.85195426432291,-0.2136501123507817,0.6094398697217306,-1.738166133562724,1.68875488919928e+18,90.85628019205728,-0.2352849245071411,0.4749986417591572,-1.7357227007548015,,,,,,,,,,,,1.6887548891880673e+18,90.84506743164064,-5.619319820404053,46.85287857055664,-19.04663963317871,1.6887548891880673e+18,90.84506743164064,-260.1479125976563,140.1706787109375,-151.0506378173828,1.688754889186307e+18,90.84330696614582,-0.5985066294670105,0.687532385190328,-0.3465877175331116,0.2208874821662902,-2.5983848571777344,1.352327783902486,-1.374315619468689
0.9,1.688754889238214e+18,90.89521419270834,4.625458399454753,-0.5284830729166666,-1.0739191770553589,1.688754889238214e+18,90.89521419270834,2.0229321817557016,-9.917851130167644,0.2394816676775614,1.688754889238214e+18,90.89521419270834,-2.6083722909291587,-9.37186336517334,1.2507134278615315,1.6887548892468652e+18,90.90386507161458,-0.5225952168305715,0.0395535280307134,-1.1820242603619893,1.688754889242543e+18,90.89954296875,-0.4705189615488052,-0.1677588643506169,-1.4031574726104736,,,,,,,,,,,,1.6887548892380652e+18,90.89506518554688,-1.7275199472904206,46.64303817749023,-19.72007942199707,1.6887548892380652e+18,90.89506518554688,-256.25611572265626,139.9608367919922,-151.7240753173828,1.688754889238214e+18,90.89521419270834,-0.5722082058588663,0.7098350326220194,-0.3586568931738536,0.1999542713165283,-2.6955556869506836,1.272583524386088,-1.2678699493408203
0.95,1.6887548892901192e+18,90.9471192220052,1.4619354804356892,-5.797640482584636,-6.5808461507161455,1.6887548892901192e+18,90.9471192220052,-1.2662019928296406,-15.112868309020996,-4.998606443405151,1.6887548892901192e+18,90.9471192220052,-2.7339835166931152,-9.297723452250162,1.5195523103078206,1.6887548892987692e+18,90.95576904296875,0.0007126703858375,0.0125227471192677,0.1973094741503398,1.6887548892857915e+18,90.94279158528646,-0.4023565923174222,0.3589851458867391,0.1648827095826467,,,,,,,,,,,,1.6887548892880617e+18,90.94506166992188,-0.902800005674362,46.05987930297851,-20.613119888305665,1.6887548892880617e+18,90.94506166992188,-255.431396484375,139.37767639160157,-152.61711730957032,1.6887548892901192e+18,90.9471192220052,-0.5718599955240885,0.7116135358810425,-0.3640945752461751,0.1843977371851602,-2.6355141003926597,1.2474079926808674,-1.3137980302174883
1.0,1.6887548893420224e+18,90.99902246093752,4.807113170623779,-5.049563407897949,-2.5025541385014853,1.6887548893420224e+18,90.99902246093752,2.2729821602503457,-14.470993677775065,-1.305085261662801,1.6887548893420224e+18,90.99902246093752,-2.5399771531422934,-9.403925895690918,1.1347814798355105,1.6887548893506744e+18,91.00767423502604,1.239903728167216,0.5698354740937551,1.4828754166762037,1.6887548893376975e+18,90.99469767252604,1.2012156248092651,0.3490585883458455,0.6561710834503174,,,,,,,,,,,,1.6887548893380672e+18,90.99506713867189,-1.3175999760627746,46.47468032836914,-19.334559631347656,1.6887548893380672e+18,90.99506713867189,-255.84619750976563,139.7924774169922,-151.33855590820312,1.6887548893420224e+18,90.99902246093752,-0.5755265355110168,0.7133104602495829,-0.3465764423211415,0.1990744819243748,-2.725047826766968,1.28419562180837,-1.2175407409667969
1.05,1.6887548893939297e+18,91.05092936197916,-2.5447290738423667,-3.111000061035156,1.9547925392786665,1.6887548893939297e+18,91.05092936197916,-3.696512142817179,-12.834502220153809,2.6805595556894937,1.6887548893939297e+18,91.05092936197916,-1.1576290726661682,-9.705997467041016,0.6630796392758688,1.68875488939392e+18,91.05091979980467,0.7409031689167023,-0.9576839804649352,3.643429398536682,1.688754889389603e+18,91.04660302734376,0.7720827658971151,-0.6951137632131577,3.485037167867025,,,,,,,,,,,,1.6887548893880653e+18,91.04506518554686,-7.337079906463623,47.05051956176758,-17.14831962585449,1.6887548893880653e+18,91.04506518554686,-261.865673828125,140.36831359863282,-149.15231628417968,1.6887548893939297e+18,91.05092936197916,-0.6199894547462463,0.6782269875208536,-0.3135905961195628,0.2378093649943669,-2.5760815938313804,1.4342771371205647,-1.3687796195348103
1.1,1.6887548894458276e+18,91.10282763671876,-2.1015988190968833,-7.366100629170735,4.742707331975301,1.6887548894458276e+18,91.10282763671876,-1.4526427388191223,-17.142380714416504,5.362315654754639,1.6887548894458276e+18,91.10282763671876,0.6431101347940663,-9.75877602895101,0.5569209059079488,1.688754889437183e+18,91.09418294270834,-0.0077885314822197,-0.4603887399037679,3.6686530113220215,1.6887548894415086e+18,91.09850862630208,-0.0395535243054231,-0.2461786866188049,3.7089701493581138,,,,,,,,,,,,1.6887548894380698e+18,91.09506967773436,-14.876679801940918,45.542598724365234,-16.65543975830078,1.6887548894380698e+18,91.09506967773436,-269.4052734375,138.860400390625,-148.65943908691406,1.6887548894458276e+18,91.10282763671876,-0.6732797423998514,0.6141295234362284,-0.2987805008888244,0.2820293903350829,-0.8891744613647461,1.475698471069336,1.088760217030843
1.15,1.688754889497738e+18,91.15473779296876,-3.0842743714650473,-7.156360626220703,5.573578596115112,1.688754889497738e+18,91.15473779296876,-0.6179464856783549,-16.648462295532227,6.141578197479248,1.688754889497738e+18,91.15473779296876,2.4604819615681968,-9.474597613016764,0.5053122043609619,1.6887548894890875e+18,91.14608764648438,0.1921171223123867,0.3640247980753581,3.450115998586019,1.6887548894934152e+18,91.15041503906248,0.2569197341799735,0.0878118872642517,3.3132821718851724,,,,,,,,,,,,1.6887548894880632e+18,91.14506323242188,-24.35119972229004,42.19491882324219,-16.2723596572876,1.6887548894880632e+18,91.14506323242188,-278.8797973632812,135.5127166748047,-148.27635803222657,1.688754889497738e+18,91.15473779296876,-0.7316041191418966,0.5527624487876892,-0.2615033090114593,0.300579418738683,-0.2036992907524108,1.3109201590220134,2.5202174186706543
1.2,1.6887548895496448e+18,91.20664485677082,-4.14683214823405,0.6247302691141764,-0.3869803051153819,1.6887548895496448e+18,91.20664485677082,-0.4650052388509116,-8.474978923797607,-0.022333006064097,1.6887548895496448e+18,91.20664485677082,3.675980726877848,-9.082204500834148,0.301959882179896,1.688754889540989e+18,91.19798876953124,0.967050592104594,-0.9686286449432372,2.5885415077209473,1.6887548895453192e+18,91.20231909179688,0.9671523968378702,-0.8482881883780161,2.637512524922689,,,,,,,,,,,,1.6887548895380618e+18,91.19506166992188,-28.4552791595459,39.23031921386719,-16.147919845581054,1.6887548895380618e+18,91.19506166992188,-282.98386840820314,132.5481170654297,-148.15191650390625,1.6887548895496448e+18,91.20664485677082,-0.7530592679977417,0.4995017846425374,-0.249975358446439,0.3471301396687825,-0.082741793245077,1.1840022404988606,2.3346208731333413
1.25,1.6887548895928888e+18,91.2498887939453,-9.762925624847412,7.562194347381592,-0.2653689384460449,1.6887548895928888e+18,91.2498887939453,-5.092524766921997,-1.0764710835937876,0.1187438201159238,1.6887548895928888e+18,91.2498887939453,4.664555072784424,-8.621160984039307,0.3214253336191177,1.6887548895928955e+18,91.2498955078125,0.20906862616539,-2.028632561365763,2.7373889287312827,1.6887548895972247e+18,91.254224609375,0.1202895442644754,-2.1956533590952554,2.7298041184743247,1.6887548896058604e+18,91.2628603515625,0.0,0.0,6.319176197052002,6.488999843597412,1.6868236064910889,101.02200317382812,333.1000061035156,-122.915808,49.2792163,1.6887548895880632e+18,91.24506323242188,-32.80579872131348,36.058319854736325,-15.76483974456787,1.6887548895880632e+18,91.24506323242188,-287.3343933105469,129.3761184692383,-147.76883544921876,1.6887548895928888e+18,91.2498887939453,-0.7686924636363983,0.449055477976799,-0.2449069991707801,0.3837371617555618,-0.0665752477943897,1.072797179222107,2.2550066709518433
1.3,1.688754889636154e+18,91.29315388997396,-7.323744773864746,10.907675425211588,-0.7588837941487631,1.688754889636154e+18,91.29315388997396,-1.8313069740931192,2.832304318745931,0.3232304255167643,1.688754889636154e+18,91.29315388997396,5.486591815948486,-8.057866414388021,1.0194268027941389,1.6887548896447995e+18,91.30179956054688,-0.4775439103444417,-2.3553945620854697,1.9126190344492595,1.6887548896491295e+18,91.30612963867186,-0.4556036690870921,-2.1961624224980674,1.667509416739146,,,,,,,,,,,,1.6887548896380626e+18,91.29506264648438,-35.621558380126956,32.05915870666504,-19.67615966796875,1.6887548896380626e+18,91.29506264648438,-290.15015869140626,125.37695770263672,-151.68016052246094,1.688754889636154e+18,91.29315388997396,-0.7791101535161337,0.3824548323949178,-0.2702785233656565,0.4159806370735168,-0.180451676249504,0.9636717637379963,2.2545926570892334
1.35,1.6887548896880538e+18,91.34505395507811,-3.676397164662679,6.9642594655354815,0.7141869068145752,1.6887548896880538e+18,91.34505395507811,1.93519526720047,-0.9405786991119384,2.3768704732259116,1.6887548896880538e+18,91.34505395507811,5.605746428171794,-7.887333710988362,1.5999961694081624,1.6887548896967084e+18,91.35370817057292,0.3718133047223091,-0.6109670748313268,-1.4444926381111145,1.6887548896923827e+18,91.34938256835936,0.2606867440044879,-0.6985244005918503,-1.3257302939891815,,,,,,,,,,,,1.688754889688066e+18,91.345066015625,-34.9651985168457,30.072999572753908,-23.270278930664062,1.688754889688066e+18,91.345066015625,-289.49379272460936,123.3907974243164,-155.27427978515624,1.6887548896880538e+18,91.34505395507811,-0.7761713067690531,0.3523842891057332,-0.2992640038331349,0.4286074638366699,-0.276836077372233,0.9333855112393696,2.272810379664103
1.4,1.688754889739962e+18,91.3969619140625,1.7034761905670166,2.468099594116211,1.5290292898813884,1.688754889739962e+18,91.3969619140625,6.411967198053996,-6.047859191894531,2.9116663932800293,1.688754889739962e+18,91.3969619140625,4.702644983927409,-8.498454093933105,1.319949706395467,1.688754889748614e+18,91.40561360677084,1.1099421779314678,0.2376265774170557,-2.5398758252461753,1.6887548897356357e+18,91.39263557942708,1.1350894371668498,0.1606066599488258,-2.4789929389953613,,,,,,,,,,,,1.688754889738063e+18,91.3950630859375,-30.83427963256836,34.08435897827148,-22.455319595336913,1.688754889738063e+18,91.3950630859375,-285.3628784179688,127.40215606689452,-154.45931701660157,1.688754889739962e+18,91.3969619140625,-0.7462769548098246,0.3980735341707865,-0.3179342846075694,0.4279274841149648,-0.2705666323502858,1.0482978423436482,2.2569008668263755
1.45,1.688754889791869e+18,91.44886873372396,7.755103429158528,-13.81462319691976,2.5572566986083984,1.688754889791869e+18,91.44886873372396,11.831510861714682,-22.665812810262043,3.876173416773478,1.688754889791869e+18,91.44886873372396,4.070561567942302,-8.833685557047525,1.256229281425476,1.6887548898005148e+18,91.45751497395833,-0.3302744701504707,-2.4929919242858887,0.7845545808474222,1.6887548897875397e+18,91.44453971354166,-0.1557706395785013,-1.6100371430317562,-0.2037235250075658,,,,,,,,,,,,1.6887548897880645e+18,91.44506420898438,-26.839999771118165,37.178279876708984,-21.962439346313477,1.6887548897880645e+18,91.44506420898438,-281.36859130859375,130.49607849121094,-153.9664337158203,1.688754889791869e+18,91.44886873372396,-0.7223014831542969,0.4203772147496541,-0.3391195833683014,0.4314672549565633,-0.2957469622294108,1.120318055152893,2.250649372736613
1.5,1.6887548898437765e+18,91.50077604166668,5.883642514546712,6.746853192647298,1.785752813021342,1.6887548898437765e+18,91.50077604166668,10.30588706334432,-1.858625094095866,3.571886032819748,1.6887548898437765e+18,91.50077604166668,4.416398525238037,-8.587973594665527,1.7234457731246948,1.6887548898437724e+18,91.50077246093753,0.7327328622341156,-1.339474767446518,0.8736136704683304,1.688754889839446e+18,91.49644596354167,0.5708026736974716,-1.6584481994311016,0.935591014722983,,,,,,,,,,,,1.6887548898380646e+18,91.49506459960938,-25.18568000793457,36.00219879150391,-24.775759506225587,1.6887548898380646e+18,91.49506459960938,-279.7142700195312,129.31999816894532,-156.77975463867188,1.6887548898437765e+18,91.50077604166668,-0.7111036777496338,0.3723191817601521,-0.3684646487236023,0.468868354956309,-0.3700949549674988,1.0656432310740154,2.195729414621989
1.55,1.688754889895671e+18,91.55267106119793,-8.676521062850952,-6.310532251993815,6.370803991953532,1.688754889895671e+18,91.55267106119793,-4.624927361806233,-15.138790766398111,7.915257871150971,1.688754889895671e+18,91.55267106119793,4.045747756958008,-8.810754458109537,1.4817661046981812,1.688754889887024e+18,91.5440236002604,0.2261728656788666,1.2103785673777263,-1.5191200971603394,1.6887548898913518e+18,91.54835196940104,0.1709404600163301,1.3337733348210652,-1.4599679112434387,,,,,,,,,,,,1.688754889888063e+18,91.54506318359375,-24.695239639282228,37.178279113769534,-24.436599731445312,1.688754889888063e+18,91.54506318359375,-279.2238342285156,130.49607849121094,-156.4405944824219,1.688754889895671e+18,91.55267106119793,-0.7030970056851705,0.397787739833196,-0.3672985831896464,0.4607248306274414,-0.3481884300708771,1.1152931849161785,2.1999829610188804
1.6,1.6887548899475832e+18,91.60458317057292,-2.214221239089966,-0.5505561828613281,-4.032669504483541,1.6887548899475832e+18,91.60458317057292,1.3551352098584175,-9.65384292602539,-3.0685956279436746,1.6887548899475832e+18,91.60458317057292,3.5635104974110923,-9.085782051086428,0.9013863603274028,1.6887548899389327e+18,91.59593269856772,0.5572109272082647,1.976199984550476,-1.4326317111651103,1.688754889943261e+18,91.60026090494792,0.6249660352865855,2.137112100919088,-1.7405586565534277,,,,,,,,,,,,1.6887548899380613e+18,91.595061328125,-24.23652000427246,38.27627944946289,-21.46223983764649,1.6887548899380613e+18,91.595061328125,-278.76511840820314,131.59407653808594,-153.4662353515625,1.6887548899475832e+18,91.60458317057292,-0.7016104459762573,0.4474577009677887,-0.3422904809315999,0.4355592429637909,-0.2413504421710967,1.1853898366292317,2.1926627159118652
1.65,1.6887548899994885e+18,91.6564883626302,-5.350682735443115,0.5645087560017904,0.9545889695485432,1.6887548899994885e+18,91.6564883626302,-3.254637519518534,-9.023733139038086,1.053041358788808,1.6887548899994885e+18,91.6564883626302,2.0901991526285806,-9.57073720296224,0.0357649833119163,1.6887548899908365e+18,91.64783642578124,0.4641048610210418,4.781344095865886,-3.269045432408651,1.6887548899951608e+18,91.6521610514323,0.3571525383740663,4.882391293843587,-3.299843152364095,,,,,,,,,,,,1.6887548899880635e+18,91.6450638671875,-21.901439666748047,41.794759368896486,-16.406559181213378,1.6887548899880635e+18,91.6450638671875,-276.43003540039064,135.11255493164063,-148.41055603027343,1.6887548899994885e+18,91.6564883626302,-0.6868390043576559,0.5519260962804159,-0.295448621114095,0.3667767147223155,0.005007754623269,1.3543092807133992,2.154534180959066
1.7,1.6887548900427423e+18,91.69974243164064,-3.801767110824585,1.5061931610107422,0.4366019964218139,1.6887548900427423e+18,91.69974243164064,-3.122035264968872,-8.29352331161499,0.4420739859342575,1.6887548900427423e+18,91.69974243164064,0.6738857924938202,-9.782211780548096,-0.0572154494002461,1.6887548900427415e+18,91.69974121093747,-0.9958630899588268,4.241441011428833,-3.1148018836975098,1.6887548900470692e+18,91.70406909179688,-1.093397895495097,4.0912699699401855,-3.036152998606364,,,,,,,,,,,,1.688754890038063e+18,91.69506303710938,-17.973039627075195,44.82523956298828,-11.968199920654296,1.688754890038063e+18,91.69506303710938,-272.5016357421875,138.14303588867188,-143.97219543457032,1.6887548900427423e+18,91.69974243164064,-0.675321489572525,0.6319729089736938,-0.2563368529081344,0.2798130363225937,0.0568912979215383,1.500647246837616,2.306281805038452
1.75,1.6887548900859968e+18,91.7429969889323,-4.615779558817546,0.2749821345011393,-0.9852149486541748,1.6887548900859968e+18,91.7429969889323,-5.003591616948445,-9.531410535176596,-0.4921238621075948,1.6887548900859968e+18,91.7429969889323,-0.3936579649647077,-9.788887977600098,0.430403729279836,1.6887548900946463e+18,91.75164615885416,-0.914974311987559,0.6622288425763447,-1.6738726298014324,1.6887548900989706e+18,91.75597062174478,-0.8322020967801412,0.3037018130222956,-1.5960381428400676,,,,,,,,,,,,1.6887548900880635e+18,91.74506381835938,-13.690839576721192,46.18187942504883,-12.400079917907714,1.6887548900880635e+18,91.74506381835938,-268.2194396972656,139.4996765136719,-144.4040740966797,1.6887548900859968e+18,91.7429969889323,-0.6599292953809103,0.6765611370404562,-0.2487813532352447,0.2111907998720804,-2.2191415230433145,1.5116102298100789,-1.5853811502456665
1.8,1.6887548901378998e+18,91.79489982096356,3.347062905629476,-0.2469221750895182,-1.1046300729115803,1.6887548901378998e+18,91.79489982096356,2.161117672920227,-9.97787094116211,-0.3956133474906285,1.6887548901378998e+18,91.79489982096356,-1.191791256268819,-9.713444073994957,0.6463293234507242,1.6887548901465528e+18,91.803552734375,0.1303688238064448,0.1367319946487744,-1.6580919027328491,1.6887548901422285e+18,91.79922863769532,0.0819322951138019,-0.1704313904047012,-1.6241379976272583,1.688754890124928e+18,91.78192797851564,0.0,0.0,6.319176197052002,6.561999797821045,1.6793224811553955,101.37403106689452,333.1000061035156,-122.9157979,49.2792154,1.6887548901380652e+18,91.79506503906252,-9.80391960144043,46.81627883911133,-13.729879760742188,1.6887548901380652e+18,91.79506503906252,-264.33251953125,140.1340759277344,-145.73387451171874,1.6887548901378998e+18,91.79489982096356,-0.6325604915618896,0.6980262994766235,-0.2703309257825215,0.1985422521829605,-2.637107769648234,1.4327575365702312,-1.182073990503947
1.85,1.6887548901898074e+18,91.84680737304689,2.9792865912119546,3.0921518007914224,-0.7012662291526794,1.6887548901898074e+18,91.84680737304689,0.9992028499643008,-6.509673913319905,-0.0193419816593328,1.6887548901898074e+18,91.84680737304689,-1.9859297275543213,-9.584321022033691,0.6192368268966675,1.688754890198452e+18,91.85545182291666,0.2300925776362418,2.4792984326680503,-1.8391625086466472,1.6887548901854794e+18,91.84247932942708,0.3359758754571278,2.268753449122111,-1.8130480448404949,,,,,,,,,,,,1.68875489018806e+18,91.84505981445312,-6.0902399063110355,47.51655883789063,-13.110119819641112,1.68875489018806e+18,91.84505981445312,-260.61883544921875,140.83435668945313,-145.11411743164064,1.6887548901898074e+18,91.84680737304689,-0.6093972524007162,0.7336813807487488,-0.2498483459154764,0.1655920942624409,-2.84214186668396,1.3579052686691284,-0.8993741472562155
1.9,1.688754890241711e+18,91.8987110188802,3.0718732277552285,-0.3990777333577474,-1.1572271585464478,1.688754890241711e+18,91.8987110188802,0.3074776927630107,-9.788838068644203,-0.2697907487551371,1.688754890241711e+18,91.8987110188802,-2.7702414989471436,-9.372255643208822,0.8247490127881368,1.6887548902503575e+18,91.90735725911458,-0.3789909780025482,0.1795434604088465,-1.360345979531606,1.688754890237382e+18,91.8943818359375,-0.2450587830195824,0.8418232401212057,-1.6471472183863325,,,,,,,,,,,,1.688754890238061e+18,91.8950609375,-2.906039905548096,47.855718994140624,-12.346399688720703,1.688754890238061e+18,91.8950609375,-257.43463439941405,141.17351684570312,-144.35039672851562,1.688754890241711e+18,91.8987110188802,-0.586565633614858,0.7668980956077576,-0.2298946579297383,0.1218163594603538,-2.8556551138559976,1.2723482052485149,-0.7944072286287943
1.95,1.6887548902936128e+18,91.95061295572914,2.9740610122680664,-3.807718276977539,-5.715178966522217,1.6887548902936128e+18,91.95061295572914,-0.0590229779481889,-13.087343533833822,-4.557330131530762,1.6887548902936128e+18,91.95061295572914,-3.0389300187428794,-9.262120882670084,1.0951614379882812,1.6887548902936177e+18,91.9506174316406,-0.7289149761199951,0.8019133508205414,0.0355829074978828,1.6887548902892923e+18,91.9462927246094,-0.6387614409128824,0.5252423137426376,-0.1121446837981541,,,,,,,,,,,,1.688754890288065e+18,91.94506508789064,-1.1589999675750733,47.63855819702148,-13.764039993286133,1.688754890288065e+18,91.94506508789064,-255.68758850097657,140.95635986328125,-145.7680419921875,1.6887548902936128e+18,91.95061295572914,-0.5777207612991333,0.7732129096984863,-0.2385639001925786,0.1068130657076835,-2.7988413174947104,1.2356698513031006,-0.8433455427487692
2.0,1.68875489034552e+18,92.00251993815104,3.501442790031433,-5.914688428243001,-3.6214566230773926,1.68875489034552e+18,92.00251993815104,0.5710870176553726,-15.237294832865397,-2.555933396021525,1.68875489034552e+18,92.00251993815104,-2.936201890309652,-9.305102030436196,1.002835750579834,1.688754890336867e+18,91.99386702473956,0.8166759336988131,0.5908594131469727,-0.0590503017107645,1.6887548903411986e+18,91.99819824218748,0.9628763496875764,0.592742919921875,-0.0436259632309278,,,,,,,,,,,,1.6887548903380654e+18,91.99506547851564,-1.1541199684143066,47.694679260253906,-13.449279594421387,1.6887548903380654e+18,91.99506547851564,-255.6827178955078,141.01247863769532,-145.45327453613282,1.68875489034552e+18,92.00251993815104,-0.5834503968556722,0.7754113872845968,-0.2195590138435363,0.1000375524163246,-2.8165273666381836,1.2491703828175862,-0.7870620886484782
2.05,1.6887548903974208e+18,92.05442097981772,-0.7254976034164429,-4.799473126729329,2.495839754740397,1.6887548903974208e+18,92.05442097981772,-2.7060830195744834,-14.398411432902018,3.023530801137289,1.6887548903974208e+18,92.05442097981772,-1.9864314397176104,-9.581433614095053,0.46500363945961,1.6887548903887767e+18,92.04577669270832,1.2129238446553547,0.3639738718047737,2.800613562266032,1.6887548903930995e+18,92.0500997721354,1.1703159809112549,0.2631811102231343,3.058602293332418,,,,,,,,,,,,1.6887548903880614e+18,92.04506147460935,-4.660399913787842,47.906959533691406,-10.496879959106446,1.6887548903880614e+18,92.04506147460935,-259.1889892578125,141.224755859375,-142.5008758544922,1.6887548903974208e+18,92.05442097981772,-0.6198267141977946,0.7534901897112528,-0.1821343153715133,0.1191277454296747,-2.9211227893829346,1.3613392114639282,-0.6523670752843221
2.1,1.688754890449333e+18,92.10633300781252,-2.400416851043701,-3.3718913396199546,3.8200475374857583,1.688754890449333e+18,92.10633300781252,-2.62731925646464,-13.184452692667644,4.053242127100627,1.688754890449333e+18,92.10633300781252,-0.2327484190464019,-9.795056660970053,0.1705072472492853,1.6887548904406858e+18,92.09768587239584,0.2604831059773763,-1.5262977282206218,3.4536284605662027,1.6887548904450092e+18,92.10200927734375,0.1184060474236806,-1.5576554536819458,3.4361170132954917,,,,,,,,,,,,1.6887548904380677e+18,92.09506762695312,-12.714839744567872,46.872399139404294,-9.096319580078124,1.6887548904380677e+18,92.09506762695312,-267.2434326171875,140.19019775390626,-141.1003204345703,1.688754890449333e+18,92.10633300781252,-0.6791731715202332,0.6926510334014893,-0.1778961966435114,0.1631444245576858,-2.0648847222328186,1.5211783250172932,-1.5640308459599812
2.15,1.6887548904925873e+18,92.14958728027344,-2.2405008673667908,-7.506989002227783,9.409311294555664,1.6887548904925873e+18,92.14958728027344,-0.8694919273257256,-17.224434852600098,9.854241847991943,1.6887548904925873e+18,92.14958728027344,1.3651629090309143,-9.699942111968994,0.382242739200592,1.688754890492584e+18,92.14958374023438,-0.5520694553852081,-0.1545998205741246,4.1581088701883955,1.68875489049691e+18,92.15390991210938,-0.5800165434678396,-0.0868446777264276,4.213188489278157,,,,,,,,,,,,1.688754890488061e+18,92.1450609375,-20.747319793701173,44.000519561767575,-10.589599800109864,1.688754890488061e+18,92.1450609375,-275.2759216308594,137.3183166503906,-142.59359741210938,1.6887548904925873e+18,92.14958728027344,-0.7324525415897369,0.6300095021724701,-0.1821738183498382,0.1818151846528053,-0.2754749730229378,1.4256448149681091,2.8949508666992188
2.2,1.688754890535841e+18,92.19284114583331,-2.4236603577931723,-3.8837639490763345,4.960205713907878,1.688754890535841e+18,92.19284114583331,0.5110669930775961,-13.218550364176432,5.822335680325826,1.688754890535841e+18,92.19284114583331,2.9288813273111978,-9.31728172302246,0.7994423906008402,1.6887548905444895e+18,92.20148942057293,-0.631481945514679,-1.257466067870458,3.109660387039185,1.6887548905488187e+18,92.20581868489582,-0.5364924172560374,-1.1122329235076904,2.9841276009877524,,,,,,,,,,,,1.6887548905380634e+18,92.19506318359376,-28.630959701538085,39.04975967407226,-12.77339973449707,1.6887548905380634e+18,92.19506318359376,-283.15955810546876,132.3675567626953,-144.77739868164062,1.688754890535841e+18,92.19284114583331,-0.7825897733370463,0.560823937257131,-0.188476949930191,0.1918607900540033,-0.258632351954778,1.2557228008906047,2.8483455975850425
2.25,1.688754890587747e+18,92.2447469075521,-7.075546185175578,1.9156103134155271,-2.2661465406417847,1.688754890587747e+18,92.2447469075521,-2.901895523071289,-6.9330042997996015,-1.3341980576515198,1.688754890587747e+18,92.2447469075521,4.167804638544719,-8.831110000610352,0.8692611455917358,1.6887548905963973e+18,92.25339737955728,0.3294090827306111,0.2203187048435211,2.59821351369222,1.6887548905920732e+18,92.24907299804688,0.3925572782754897,0.7071528621017933,2.5563946962356567,,,,,,,,,,,,1.6887548905880645e+18,92.24506455078124,-33.29135932922363,34.88955917358398,-13.26139965057373,1.6887548905880645e+18,92.24506455078124,-287.8199523925781,128.2073547363281,-145.26539916992186,1.688754890587747e+18,92.2447469075521,-0.8185217976570129,0.5045037865638733,-0.1806068321069081,0.2062789400418599,-0.2051929682493209,1.1211525201797483,2.7778228918711343
2.3,1.6887548906396516e+18,92.29665169270832,-9.57269811630249,9.283038139343262,-2.51720130443573,1.6887548906396516e+18,92.29665169270832,-4.352943082650502,1.0522437194983163,-1.264606773853302,1.6887548906396516e+18,92.29665169270832,5.213909308115642,-8.213290055592855,1.1899071137110393,1.6887548906483026e+18,92.30530265299478,-0.5975789328416189,-2.3346760272979736,2.5619179407755532,1.6887548906353206e+18,92.29232071940103,-0.3964006503423055,-2.2248730659484863,2.734080155690511,1.688754890643979e+18,92.30097900390624,0.0,0.0,6.329565048217773,6.554999828338623,1.674855351448059,102.05653381347656,333.1000061035156,-122.9157915,49.2792143,1.688754890638061e+18,92.29506113281248,-36.96111907958984,30.84647979736328,-14.605839920043945,1.688754890638061e+18,92.29506113281248,-291.4897155761719,124.16427764892578,-146.6098388671875,1.6887548906396516e+18,92.29665169270832,-0.8434862891832987,0.4426264564196269,-0.1935074826081593,0.233436773220698,-0.2201738407214482,0.9928811391194662,2.7205304304758706
2.35,1.6887548906915533e+18,92.34855338541668,-3.3023534615834556,7.46579122543335,0.5093667507171631,1.6887548906915533e+18,92.34855338541668,2.4285155534744263,-0.2805584619442622,2.4989043871561685,1.6887548906915533e+18,92.34855338541668,5.725022951761882,-7.728845278422038,1.926850239435832,1.6887548907002007e+18,92.35720052083332,0.3071125149726868,-1.1041389505068462,-0.3129157225290934,1.6887548906872328e+18,92.34423258463544,-0.0290161060790221,-1.4774284760157268,0.5874996582667033,,,,,,,,,,,,1.688754890688064e+18,92.34506396484372,-38.283599090576175,27.054719543457033,-19.13935966491699,1.688754890688064e+18,92.34506396484372,-292.81220092773435,120.37251739501951,-151.143359375,1.6887548906915533e+18,92.34855338541668,-0.853132446606954,0.3928730984528859,-0.2312379131714502,0.2534800618886947,-0.3227143983046214,0.9069937467575072,2.7223006089528403
2.4,1.688754890743462e+18,92.40046199544273,0.8265825112660726,3.956338882446289,0.6028439203898112,1.688754890743462e+18,92.40046199544273,5.917450666427612,-4.251248200734456,2.440280278523763,1.688754890743462e+18,92.40046199544273,5.08502213160197,-8.190082708994547,1.774748961130778,1.68875489074346e+18,92.40046008300784,1.1244502067565918,0.3468951005488634,-2.532265543937683,1.6887548907391398e+18,92.39613981119793,1.0252354939778645,0.187688335776329,-2.3089688221613565,,,,,,,,,,,,1.6887548907380664e+18,92.39506635742188,-35.60691909790039,29.157999420166018,-20.044599533081055,1.6887548907380664e+18,92.39506635742188,-290.13551025390626,122.47579650878906,-152.04859619140626,1.688754890743462e+18,92.40046199544273,-0.830818255742391,0.4256995817025502,-0.2429174731175104,0.2628936171531677,-0.3328873813152313,0.988868772983551,2.709040800730387
2.45,1.6887548907953623e+18,92.4523621419271,7.329740206400554,-9.566522280375162,4.765045007069905,1.6887548907953623e+18,92.4523621419271,11.781461079915363,-18.209779421488445,6.259823322296143,1.6887548907953623e+18,92.4523621419271,4.44587500890096,-8.625753084818522,1.4320907195409138,1.688754890786716e+18,92.44371598307292,0.4091270019610722,-0.2482149600982666,-0.9400707185268402,1.6887548907910395e+18,92.44803946940104,0.2842559615770975,-0.5971716543038686,-0.6345871885617573,,,,,,,,,,,,1.688754890788066e+18,92.44506606445312,-32.95219955444336,33.01563949584961,-17.599719619750978,1.688754890788066e+18,92.44506606445312,-287.4807922363281,126.33343811035157,-149.6037170410156,1.6887548907953623e+18,92.4523621419271,-0.8100480635960897,0.4634130895137787,-0.2414429833491642,0.2657552758852641,-0.3089231153329213,1.0742444197336831,2.692455212275187
2.5,1.6887548908472722e+18,92.5042722981771,6.494421641031901,0.6387527783711752,3.6966832478841143,1.6887548908472722e+18,92.5042722981771,11.102896531422934,-7.818946917851766,5.709673563639323,1.6887548908472722e+18,92.5042722981771,4.602628866831462,-8.440195083618164,1.9503028392791748,1.6887548908386214e+18,92.49562150065104,0.0565050343672434,-2.1192442377408347,0.9309586485226948,1.6887548908429517e+18,92.49995157877603,0.071114894002676,-1.8117753863334656,0.8465065260728201,,,,,,,,,,,,1.688754890838063e+18,92.4950630859375,-31.75659942626953,32.96195907592774,-20.4691593170166,1.688754890838063e+18,92.4950630859375,-286.2851928710937,126.27975769042968,-152.47315673828126,1.6887548908472722e+18,92.5042722981771,-0.8048117756843567,0.4314224819342295,-0.2809867262840271,0.2951251566410064,-0.398281713326772,1.036008596420288,2.6676553090413413
2.55,1.6887548908991672e+18,92.55616715494791,-6.982657591501872,-6.9093983968098955,3.3146302700042725,1.6887548908991672e+18,92.55616715494791,-2.428914358218511,-15.397016207377115,5.328417142232259,1.6887548908991672e+18,92.55616715494791,4.5478973388671875,-8.470113754272461,1.9510994752248128,1.6887548908905165e+18,92.5475165201823,-0.3990477224191029,1.2161308725674946,-0.4606433001657327,1.6887548908948452e+18,92.55184529622396,-0.4186972280343373,1.3041463891665142,-0.4550946181019147,,,,,,,,,,,,1.688754890888059e+18,92.545058984375,-31.44671936035156,32.80335998535156,-21.735519409179688,1.688754890888059e+18,92.545058984375,-285.9753112792969,126.12115936279297,-153.73951416015626,1.6887548908991672e+18,92.55616715494791,-0.8077603975931803,0.4382313688596089,-0.2753685216108958,0.2819908360640208,-0.4027327895164489,1.0419749021530151,2.7030650774637857
2.6,1.6887548909424348e+18,92.5994346923828,-7.192109823226929,4.007782220840454,-2.3340713381767273,1.6887548909424348e+18,92.5994346923828,-2.901297450065613,-4.689035177230835,-0.6945167779922485,1.6887548909424348e+18,92.5994346923828,4.284966468811035,-8.679312705993652,1.5768671035766602,1.688754890942429e+18,92.59942879231772,0.7973318348328272,1.9437732299168904,-1.6783013542493184,1.6887548909467584e+18,92.60375830078124,0.9157379070917764,2.161139408747355,-1.9207639296849568,,,,,,,,,,,,1.6887548909380654e+18,92.59506528320313,-31.363759994506836,33.65003967285156,-18.96611976623535,1.6887548909380654e+18,92.59506528320313,-285.89235229492186,126.96783905029297,-150.9701141357422,1.6887548909424348e+18,92.5994346923828,-0.8048334419727325,0.4658193439245224,-0.2532420083880424,0.2663094103336334,-0.3490391820669174,1.0862020254135132,2.7142995595932007
2.65,1.6887548909856817e+18,92.6426817220052,-1.9121923446655271,2.4100279808044434,1.4977174202601116,1.6887548909856817e+18,92.6426817220052,1.3533406257629397,-6.821738084157308,2.1894327799479165,1.6887548909856817e+18,92.6426817220052,3.2596870263417563,-9.214261372884115,0.6290279825528462,1.688754890994337e+18,92.65133683268228,0.5211189637581507,5.173519531885783,-3.675474325815837,1.6887548909986642e+18,92.6556641438802,0.4220569704969724,5.369963645935059,-3.78537925084432,,,,,,,,,,,,1.688754890988064e+18,92.64506386718752,-28.755399322509767,38.3348388671875,-12.60503978729248,1.688754890988064e+18,92.64506386718752,-283.28400268554685,131.6526336669922,-144.60903930664062,1.6887548909856817e+18,92.6426817220052,-0.7832754651705424,0.5415391127268473,-0.1973120023806889,0.2287683884302774,-0.1773689662416775,1.224037488301595,2.6963042418162027
2.7,1.6887548910375908e+18,92.6945909016927,-5.493151028951009,2.342198212941488,1.259291648864746,1.6887548910375908e+18,92.6945909016927,-4.156931241353353,-7.378268718719482,1.3481561640898387,1.6887548910375908e+18,92.6945909016927,1.330373803774516,-9.702962239583334,0.0261771089086929,1.6887548910462413e+18,92.70324112955728,-0.9764171640078226,4.575329860051473,-3.866318861643473,1.6887548910505649e+18,92.70756494140626,-1.1150835851828258,4.400316874186198,-3.796272993087769,,,,,,,,,,,,1.688754891038063e+18,92.6950630859375,-23.136079788208008,43.09771881103516,-5.956039810180664,1.688754891038063e+18,92.6950630859375,-277.6646728515625,136.41551818847657,-137.9600372314453,1.6887548910375908e+18,92.6945909016927,-0.742004930973053,0.6471254825592041,-0.1111701726913451,0.1278481557965278,-0.0315662290280063,1.4339990615844729,2.8322349389394126
2.75,1.688754891089496e+18,92.74649617513022,-4.297772129376729,-1.6330588658650715,-2.2910277048746743,1.688754891089496e+18,92.74649617513022,-4.535794734954834,-11.435299237569174,-1.637687663237254,1.688754891089496e+18,92.74649617513022,-0.2438686614235242,-9.784735679626465,0.5906526148319244,1.6887548910981435e+18,92.75514339192706,-1.3403401573499043,2.3411919474601746,-1.7544559240341189,1.6887548910938163e+18,92.75081616210936,-1.4743996262550354,2.8531224727630615,-1.799150824546814,,,,,,,,,,,,1.688754891088065e+18,92.74506479492187,-17.072679328918458,46.089159393310545,-4.889759922027588,1.688754891088065e+18,92.74506479492187,-271.6012756347656,139.4069610595703,-136.89375915527344,1.688754891089496e+18,92.74649617513022,-0.6973448793093363,0.7119932969411215,-0.072630114853382,0.03006136448433,-1.8457343180974324,1.504431168238322,-1.4413225253423054
2.8,1.6887548911413916e+18,92.79839152018228,1.8456697463989256,-0.4209038416544596,-3.823330163955689,1.6887548911413916e+18,92.79839152018228,0.8223333756128947,-10.140981992085775,-2.772882620493571,1.6887548911413916e+18,92.79839152018228,-1.0291823347409566,-9.702573458353678,0.9877602458000184,1.688754891150041e+18,92.8070409342448,-0.0006108656525611,0.1784744635224342,-1.8028160333633425,1.6887548911370678e+18,92.79406770833332,-0.3505857437849045,0.078292558590571,-1.6420057614644368,1.6887548911523054e+18,92.80930541992188,0.0,0.0,6.329565048217773,6.678999900817871,1.6390043497085571,103.74861145019533,333.1000061035156,-122.9157861,49.279211,1.6887548911380582e+18,92.79505810546875,-13.307759666442871,46.74063873291016,-5.968239879608154,1.6887548911380582e+18,92.79505810546875,-267.8363525390625,140.05843811035157,-137.97223815917968,1.6887548911413916e+18,92.79839152018228,0.6689789692560831,-0.7397737701733907,0.070922831694285,0.0030622979781279,-2.366975784301758,1.4248127937316897,-0.8708842992782593
2.85,1.688754891193297e+18,92.8502969563802,2.838191509246826,1.7736651102701824,-1.433924009402593,1.688754891193297e+18,92.8502969563802,1.0229316751162212,-7.845267613728841,-0.538185695807139,1.688754891193297e+18,92.8502969563802,-1.8211058378219604,-9.601428031921388,0.8330509066581726,1.688754891193297e+18,92.850296875,0.6907358765602112,1.6284140348434448,-1.597718060016632,1.6887548911889715e+18,92.8459715983073,0.6331109205881754,1.4471397598584492,-1.637271563212077,,,,,,,,,,,,1.688754891188057e+18,92.84505708007812,-9.191479587554932,47.81667938232422,-5.411919975280762,1.688754891188057e+18,92.84505708007812,-263.720068359375,141.1344757080078,-137.41592102050782,1.688754891193297e+18,92.8502969563802,0.637826402982076,-0.7684582273165385,0.0459418085714181,0.0161442620058854,-2.7134514649709067,1.3653045892715454,-0.4704926113287608
2.9,1.6887548912452014e+18,92.90220141601564,3.1075007915496826,0.6439361572265625,0.2670526107152303,1.6887548912452014e+18,92.90220141601564,0.6115655799706777,-8.828119913736979,1.075972596804301,1.6887548912452014e+18,92.90220141601564,-2.501781225204468,-9.454551378885904,0.7462325890858968,1.6887548912365527e+18,92.89355257161458,0.3257947986324628,1.0215703050295513,-1.5162184238433838,1.688754891240878e+18,92.89787809244793,0.2793690326313177,0.9358455538749696,-1.4832826455434165,,,,,,,,,,,,1.6887548912380567e+18,92.89505678710935,-5.9121198654174805,48.6072395324707,-3.2622799396514894,1.6887548912380567e+18,92.89505678710935,-260.4407165527344,141.92503967285157,-135.26627502441406,1.6887548912452014e+18,92.90220141601564,0.6091676155726115,-0.7920272946357727,0.0153595317776003,0.0353768238176901,-2.855116367340088,1.3015260299046834,-0.2578928420941035
2.95,1.6887548912971087e+18,92.95410856119793,2.3484702110290527,-1.297580401102702,-2.711559444665909,1.6887548912971087e+18,92.95410856119793,-0.5361916323502859,-10.64367389678955,-1.7286149660746255,1.6887548912971087e+18,92.95410856119793,-2.8905078570048013,-9.328588803609213,0.9202569723129272,1.6887548912884562e+18,92.94545613606772,-0.5089016581575075,0.2378301968177159,-0.6281730830669403,1.6887548912927828e+18,92.94978287760416,-0.5739588091770808,0.2201660176118214,-0.5245805184046427,,,,,,,,,,,,1.688754891288057e+18,92.94505747070312,-2.8303999423980715,48.70971908569336,-3.472119903564453,1.688754891288057e+18,92.94505747070312,-257.35899658203124,142.02751770019532,-135.4761169433594,1.6887548912971087e+18,92.95410856119793,0.5918334722518921,-0.8045265078544617,0.0137872705236076,0.0474335129062334,-2.8377931912740073,1.2563685178756714,-0.2556172410647074
3.0,1.6887548913490145e+18,93.00601416015624,1.915873606999715,-7.310256322224935,-5.113059838612874,1.6887548913490145e+18,93.00601416015624,-0.985842930773894,-16.634703318277996,-3.974279085795085,1.6887548913490145e+18,93.00601416015624,-2.907562573750814,-9.3069429397583,1.0760933558146155,1.688754891340361e+18,92.99736116536458,-0.0364482899506886,0.3115412717064221,-0.1202386394143105,1.688754891344688e+18,93.00168806966144,0.1274672237535317,0.3958406845728555,-0.1844303930799166,,,,,,,,,,,,1.6887548913380585e+18,92.99505844726562,-2.5815199851989745,48.86587829589844,-4.9897997856140135,1.6887548913380585e+18,92.99505844726562,-257.1101135253906,142.18367614746094,-136.9937957763672,1.6887548913490145e+18,93.00601416015624,0.5903206467628479,-0.8050431211789449,0.0154596492648124,0.0560866408050059,-2.790683110555013,1.249220609664917,-0.2926930040121078
3.05,1.6887548913922662e+18,93.04926635742189,3.8565715551376343,-6.4578447341918945,1.8760793209075928,1.6887548913922662e+18,93.04926635742189,0.9000003933906555,-15.800705432891846,2.6344977617263794,1.6887548913922662e+18,93.04926635742189,-2.9624171257019043,-9.325356483459473,0.695730984210968,1.688754891392268e+18,93.04926798502603,1.2626075545946758,0.6831509719292322,0.5277366439501444,1.6887548913965934e+18,93.05359334309895,1.199383000532786,0.6130541761716206,0.844877560933431,,,,,,,,,,,,1.688754891388058e+18,93.04505830078124,-1.7104399442672729,48.77071914672852,-3.0548799991607667,1.688754891388058e+18,93.04505830078124,-256.2390380859375,142.08851928710936,-135.0588806152344,1.6887548913922662e+18,93.04926635742189,0.5880008041858673,-0.8067951202392578,-0.0160945639945566,0.0550365317612886,-2.9153088331222534,1.2550593614578247,-0.1243810355663299
3.1,1.688754891435522e+18,93.09252189127604,-0.2080665032068888,-2.045605023701986,1.409268140792847,1.688754891435522e+18,93.09252189127604,-2.099901298681895,-11.665409088134766,1.9114665190378823,1.688754891435522e+18,93.09252189127604,-1.8976807991663616,-9.602299372355144,0.4395109514395396,1.6887548914441748e+18,93.10117464192707,0.5401066939036051,-0.2366084704796473,3.4355570475260415,1.6887548914484997e+18,93.10549951171876,0.5353724757830302,-0.311083123087883,3.474754254023234,,,,,,,,,,,,1.688754891438058e+18,93.09505781250002,-6.458679914474487,48.4583984375,-0.9930799722671508,1.688754891438058e+18,93.09505781250002,-260.9872741699219,141.7761993408203,-132.99707641601563,1.688754891435522e+18,93.09252189127604,0.6325361728668213,-0.7719983458518982,-0.0271688991536696,0.0505768954753875,-2.915416399637858,1.3703774213790894,-0.1155778417984644
3.15,1.6887548914874304e+18,93.14443033854168,-2.021209716796875,-2.865109125773112,4.9543624718983965,1.6887548914874304e+18,93.14443033854168,-2.176671028137207,-12.675180435180664,5.296712398529053,1.6887548914874304e+18,93.14443033854168,-0.1613073448340098,-9.792566617329916,0.279662400484085,1.6887548914960876e+18,93.15308748372397,-0.1997020294268926,-0.3359758916000525,3.714315255482992,1.688754891500413e+18,93.15741300455728,-0.2761619985103608,-0.3609704648454984,3.8064032395680742,,,,,,,,,,,,1.6887548914880678e+18,93.1450677246094,-15.237799263000488,46.65767822265625,-0.3269599929451942,1.6887548914880678e+18,93.1450677246094,-269.7664001464844,139.97547912597656,-132.33096008300782,1.6887548914874304e+18,93.14443033854168,0.6997143228848776,-0.7124908169110616,-0.0218910252054532,0.0406885308523972,-1.896505296230316,1.5151524146397908,-1.1565226018428802
3.2,1.6887548915393372e+18,93.19633740234376,-2.0537929932276406,-3.729012489318848,8.088966369628906,1.6887548915393372e+18,93.19633740234376,-0.1770688729981581,-13.337992350260416,8.770492553710938,1.6887548915393372e+18,93.19633740234376,1.8708781003952024,-9.591475168863932,0.6188385486602783,1.6887548915479918e+18,93.20499161783852,-0.7201083103815714,-1.6109534899393718,4.159585078557332,1.688754891543666e+18,93.20066589355469,-0.6624070107936859,-1.5167020559310913,4.316526651382446,,,,,,,,,,,,1.6887548915380687e+18,93.19506860351562,-25.466279983520508,42.43647918701172,-2.354599928855896,1.6887548915380687e+18,93.19506860351562,-279.994873046875,135.75427856445313,-134.3585968017578,1.6887548915393372e+18,93.19633740234376,0.7703100641568502,-0.6356247067451477,0.0080998527506987,0.0384072698652744,-0.3214722077051797,1.368741790453593,-2.7770841916402182
3.25,1.688754891591245e+18,93.24824519856772,-0.2555973529815674,-1.470438003540039,-0.5098833044370016,1.688754891591245e+18,93.24824519856772,3.27078906695048,-10.557731628417969,0.7429714798927307,1.688754891591245e+18,93.24824519856772,3.520540396372477,-9.069788932800291,1.1901674667994182,1.6887548915998948e+18,93.25689477539062,-0.4205298324426014,0.3111340204874674,2.8069257736206055,1.6887548915869192e+18,93.24391902669272,-0.772337277730306,-0.546011765797933,3.043534278869629,,,,,,,,,,,,1.6887548915880653e+18,93.24506533203126,-32.842399215698244,37.178279113769534,-5.538799858093261,1.6887548915880653e+18,93.24506533203126,-287.37099609375,130.49607849121094,-137.5427978515625,1.688754891591245e+18,93.24824519856772,0.8234584927558899,-0.5637800494829813,0.0497586938242117,0.0339597947895526,-0.3245356380939483,1.1823729674021404,-2.839822212855021
3.3,1.688754891643152e+18,93.30015193684896,-10.366805712381998,3.854914824167887,-4.281517744064331,1.688754891643152e+18,93.30015193684896,-5.601597944895427,-4.67078971862793,-3.1862427393595376,1.688754891643152e+18,93.30015193684896,4.7593620618184405,-8.5082000096639,1.032587508360545,1.6887548916431514e+18,93.30015112304687,0.5898667573928833,-0.7172321435064077,2.846173882484436,1.6887548916388262e+18,93.2958262532552,0.5099706749121348,-0.3274746735890706,2.8247427145640054,,,,,,,,,,,,1.6887548916380618e+18,93.29506186523436,-37.827318572998045,32.51299934387207,-4.7823999404907225,1.6887548916380618e+18,93.29506186523436,-292.3559143066406,125.83079833984377,-136.7864013671875,1.688754891643152e+18,93.30015193684896,0.8611268798510233,-0.5052632888158163,0.0428542184333006,0.0295922098060448,-0.2120935817559559,1.05116073290507,-2.949007749557495
3.35,1.6887548916950536e+18,93.3520536295573,-6.612012545267741,7.2850063641866045,-0.8988240162531534,1.6887548916950536e+18,93.3520536295573,-0.9471589922904968,-0.5625127336631218,0.8350951274236044,1.6887548916950536e+18,93.3520536295573,5.659007549285889,-7.830014705657959,1.671231706937154,1.6887548916864054e+18,93.34340543619793,-0.1165225409592191,-2.922022978464762,2.469982703526815,1.6887548916907318e+18,93.34773193359376,-0.1091921652356783,-2.958318551381429,2.3287201722462973,1.688754891682082e+18,93.33908203125,0.0,0.0,6.3391642570495605,6.71999979019165,1.5906387567520142,105.8566665649414,333.1000061035156,-122.9157859,49.2792074,1.6887548916880614e+18,93.34506157226564,-40.977359008789065,27.51099967956543,-7.983679866790771,1.6887548916880614e+18,93.34506157226564,-295.5059509277344,120.82879791259764,-139.98768005371093,1.6887548916950536e+18,93.3520536295573,-0.2994444171587626,0.1393409570058186,-0.0486847137411435,0.0099877569203575,-0.2838975687821706,0.9247507651646932,-3.0131452083587646
3.4,1.68875489174696e+18,93.40395996093748,-1.2500653266906738,7.641282558441162,0.2359371980031331,1.68875489174696e+18,93.40395996093748,4.407180627187093,-0.1110668629407882,2.403191566467285,1.68875489174696e+18,93.40395996093748,5.651399930318196,-7.73484484354655,2.104566971460978,1.6887548917383035e+18,93.39530354817708,0.7521278262138367,-1.3586152295271556,-0.3838778932889302,1.6887548917426363e+18,93.39963639322916,0.8321002920468649,-1.0910562152663867,-0.6671157677968343,,,,,,,,,,,,1.6887548917380654e+18,93.39506518554688,-41.428759765625,25.729799270629883,-12.585519981384277,1.6887548917380654e+18,93.39506518554688,-295.9573547363281,119.04759826660155,-144.58951721191406,1.68875489174696e+18,93.40395996093748,-0.8869399627049764,0.4384777049223582,-0.1394564559062321,0.0386414701739946,-0.3545098304748534,0.9086734453837076,-3.054195086161295
3.45,1.688754891798868e+18,93.45586816406252,4.502392927805583,4.427975654602051,0.9111795822779336,1.688754891798868e+18,93.45586816406252,9.232107798258465,-4.033900181452434,2.530210494995117,1.688754891798868e+18,93.45586816406252,4.7238688468933105,-8.444371223449707,1.5563435157140095,1.688754891790212e+18,93.44721199544271,1.1000665227572124,0.8441139459609985,-2.908583958943685,1.6887548917945428e+18,93.45154296875,1.045495887597402,0.85785839955012,-2.9608638286590576,,,,,,,,,,,,1.6887548917880658e+18,93.44506577148438,-38.67399978637695,29.860719299316408,-11.733959770202636,1.6887548917880658e+18,93.44506577148438,-293.202587890625,123.1785171508789,-143.7379577636719,1.688754891798868e+18,93.45586816406252,-0.8593066533406576,0.4944421748320262,-0.1193780129154522,0.0483398685852686,-0.3152229785919189,1.0387195547421773,-3.072974522908529
3.5,1.6887548918421228e+18,93.49912280273438,4.3674540519714355,-14.704037189483644,6.583242177963257,1.6887548918421228e+18,93.49912280273438,8.369794607162476,-23.544477462768555,8.193024635314941,1.6887548918421228e+18,93.49912280273438,3.9964945316314697,-8.82293701171875,1.547094702720642,1.6887548918421176e+18,93.49911735026042,-0.2978986153999964,-2.175240322947502,-0.5143485267957052,1.6887548918464468e+18,93.50344661458332,-0.3603086867369711,-2.5815165638923645,-0.1278235533585151,,,,,,,,,,,,1.6887548918380652e+18,93.49506494140624,-35.14575881958008,34.335679626464845,-10.343159675598145,1.6887548918380652e+18,93.49506494140624,-289.6743530273437,127.65347900390626,-142.34715881347657,1.6887548918421228e+18,93.49912280273438,-0.8372941017150879,0.529323935508728,-0.1261329390108585,0.0515794195234775,-0.3667020797729492,1.11870139837265,-3.033522248268127
3.55,1.68875489188537e+18,93.5423701171875,7.761228561401367,-5.840241114298503,5.250591278076172,1.68875489188537e+18,93.5423701171875,11.894123395284018,-14.452648798624674,7.61475928624471,1.68875489188537e+18,93.5423701171875,4.127048810323079,-8.594903310139975,2.301480531692505,1.6887548918940262e+18,93.55102604166667,-0.0217875267068545,-1.98602473984162,0.838056206703186,1.6887548918983496e+18,93.55534944661456,0.0212275659044583,-1.5101097424825032,0.6658940315246582,,,,,,,,,,,,1.688754891888067e+18,93.54506704101564,-33.730559539794925,33.24743881225586,-16.267479515075685,1.688754891888067e+18,93.54506704101564,-288.2591491699219,126.5652359008789,-148.27147521972657,1.68875489188537e+18,93.5423701171875,-0.8380374709765116,0.5019829173882803,-0.1929711302121479,0.0897693609197934,-0.5058517853418986,1.0683523813883464,-3.051711082458496
3.6,1.6887548919372828e+18,93.59428255208331,-7.448666254679362,-1.4580542246500652,-2.0717922846476235,1.6887548919372828e+18,93.59428255208331,-3.2909287810325623,-10.071988662083944,0.2448654969533284,1.6887548919372828e+18,93.59428255208331,4.151891390482585,-8.596430142720541,2.2539705435434976,1.688754891945928e+18,93.60292797851564,0.3697770982980728,1.5471689701080322,-0.7499389015138149,1.6887548919502538e+18,93.60725358072916,0.4317799111207326,1.652950445810954,-0.8861109589536985,,,,,,,,,,,,1.688754891938066e+18,93.595066015625,-33.85743865966797,32.8472785949707,-16.894559478759767,1.688754891938066e+18,93.595066015625,-288.3860290527344,126.16507873535156,-148.8985565185547,1.6887548919372828e+18,93.59428255208331,-0.8382939100265503,0.5008024970690409,-0.193170964717865,0.0950646102428435,-0.4947262207667033,1.0684473514556885,-3.070911486943563
3.65,1.6887548919891855e+18,93.6461854654948,-6.090740283330281,4.620650450388591,3.1011024713516235,1.6887548919891855e+18,93.6461854654948,-2.488336102416118,-4.4033918380737305,4.581059018770854,1.6887548919891855e+18,93.6461854654948,3.596558173497518,-9.006537755330404,1.417269229888916,1.688754891997834e+18,93.6548338216146,0.7319692696134249,3.986557404200236,-2.5267422993977866,1.6887548919935122e+18,93.65051208496097,0.953255206346512,4.499633431434631,-2.2508857250213623,,,,,,,,,,,,1.6887548919880645e+18,93.64506450195312,-33.01807861328125,35.22871856689453,-12.19755973815918,1.6887548919880645e+18,93.64506450195312,-287.5466735839844,128.54652099609376,-144.20155334472656,1.6887548919891855e+18,93.6461854654948,-0.8239035407702128,0.5462411840756735,-0.1307001585761705,0.0666426879664261,-0.3674888908863067,1.1648042996724446,-3.060424327850342
3.7,1.6887548920410831e+18,93.6980830891927,-3.4774037996927896,0.2223564783732096,-0.4793667395909627,1.6887548920410831e+18,93.6980830891927,-1.499901016553243,-9.35254669189453,0.3397808273633321,1.6887548920410831e+18,93.6980830891927,1.9716567198435464,-9.557398478190104,0.756460169951121,1.688754892049737e+18,93.70673697916668,0.1541925681134064,2.7716992696126304,-4.451935052871704,1.6887548920367675e+18,93.6937676595052,0.1681915637260923,2.667750358581543,-4.432387351989746,,,,,,,,,,,,1.6887548920380603e+18,93.6950603027344,-28.12587966918945,40.535718536376955,-6.160999870300293,1.6887548920380603e+18,93.6950603027344,-282.65447387695315,133.8535186767578,-138.1649963378906,1.6887548920410831e+18,93.6980830891927,-0.7744672894477844,0.6282125115394592,-0.0612811855971812,0.0161163487355224,-0.380529264609019,1.3530696233113606,-2.871447801589966
3.75,1.6887548920929928e+18,93.74999291992188,-3.9498037894566855,1.4023009936014812,-4.025721947352092,1.6887548920929928e+18,93.74999291992188,-3.711467425028483,-8.387242158253988,-3.217748244603475,1.6887548920929928e+18,93.74999291992188,0.2324904650449752,-9.772038459777832,0.7452863256136576,1.6887548920929958e+18,93.74999572753909,-1.112691044807434,3.3574681282043457,-2.7137688398361206,1.6887548920886712e+18,93.74567130533856,-0.9168577988942463,3.4079153537750244,-2.816852331161499,,,,,,,,,,,,1.6887548920880632e+18,93.74506328125,-20.73511962890625,44.786199951171874,-2.637639951705933,1.6887548920880632e+18,93.74506328125,-275.2637145996094,138.10399475097657,-134.64163818359376,1.6887548920929928e+18,93.74999291992188,0.7134165565172831,-0.6983841856320699,0.0048636281862855,0.0479602279762426,-1.2425543069839478,1.4845232566197712,-1.838001608848572
3.8,1.6887548921449009e+18,93.80190096028645,0.3030606508255005,-2.607135772705078,-1.817739526430766,1.6887548921449009e+18,93.80190096028645,-0.254237413406372,-12.32542928059896,-0.4307080705960591,1.6887548921449009e+18,93.80190096028645,-0.5631440977255503,-9.700788815816244,1.324344038963318,1.68875489213625e+18,93.7932499186198,-0.969646786650022,1.1458813548088074,-1.5220725933710737,1.688754892140575e+18,93.79757503255207,-0.8015570094188055,0.7586945990721384,-1.523141582806905,,,,,,,,,,,,1.6887548921380634e+18,93.7950634277344,-15.535479927062989,46.62351837158203,-3.230559968948364,1.6887548921380634e+18,93.7950634277344,-270.06407470703124,139.94131774902343,-135.23455810546875,1.6887548921449009e+18,93.80190096028645,0.6782971024513245,-0.7268829743067423,-0.0146315402040878,0.1057208652297655,-1.962859074274699,1.4231306711832683,-1.0078548391660054
3.85,1.6887548921968015e+18,93.85380159505208,2.5849273204803467,2.016698201497396,-2.072663108507792,1.6887548921968015e+18,93.85380159505208,1.31226380666097,-7.649455070495605,-0.7924230893452963,1.6887548921968015e+18,93.85380159505208,-1.278509537378947,-9.648648579915363,1.2175525824228923,1.6887548921881536e+18,93.8451534830729,0.3841833348075549,0.1642718464136123,-1.2986485560735066,1.6887548921924823e+18,93.8494823404948,0.4533129185438156,0.4100432991981506,-1.2444343169530232,1.6887548922011336e+18,93.85813354492188,0.0,0.0,6.3391642570495605,6.754000186920166,1.5210763216018677,108.30821228027344,333.1000061035156,-122.915784,49.2792025,1.6887548921880676e+18,93.84506762695312,-12.048719787597657,47.63367919921875,-3.3061999320983886,1.6887548921880676e+18,93.84506762695312,-266.5773132324219,140.95147705078125,-135.31019592285156,1.6887548921968015e+18,93.85380159505208,0.6518434882164001,-0.7514206369717916,-0.0205873654534418,0.0995935027798016,-2.3831592400868735,1.3900760014851887,-0.5875597695509592
3.9,1.6887548922487122e+18,93.90571215820312,1.7141087849934895,2.5835930506388345,-0.2642815113067627,1.6887548922487122e+18,93.90571215820312,-0.1020937760670979,-7.016553560892741,0.8191429351766905,1.6887548922487122e+18,93.90571215820312,-1.822048584620158,-9.58264191945394,1.0207370519638062,1.6887548922400566e+18,93.897056640625,0.7103344599405924,2.438014109929403,-1.53581702709198,1.6887548922443866e+18,93.9013865559896,0.6697119275728861,2.4424428939819336,-1.6297884782155354,,,,,,,,,,,,1.688754892238061e+18,93.89506108398436,-8.420439910888671,48.42667922973633,-1.3590800046920777,1.688754892238061e+18,93.89506108398436,-262.94902954101565,141.74447631835938,-133.36307678222656,1.6887548922487122e+18,93.90571215820312,0.6253499984741211,-0.7664699554443359,-0.0720687856276829,0.1256465688347816,-2.63119904200236,1.356295148531596,-0.2281359136104583
3.95,1.6887548923006129e+18,93.95761295572918,1.468727429707845,-1.0958531697591145,0.5221267342567444,1.6887548923006129e+18,93.95761295572918,-1.2679966489473975,-10.468997955322266,1.6456637581189473,1.6887548923006129e+18,93.95761295572918,-2.742570082346598,-9.355640093485514,1.060849626859029,1.6887548922919657e+18,93.94896541341149,-0.1271617809931436,0.11570805311203,-1.985312024752299,1.6887548922962885e+18,93.9532880859375,-0.2057088737686475,-0.2153300171097119,-1.9006054004033408,,,,,,,,,,,,1.688754892288065e+18,93.94506494140626,-3.8185999631881713,48.978118896484375,0.0585599984973669,1.688754892288065e+18,93.94506494140626,-258.3471923828125,142.29591674804686,-131.9454376220703,1.6887548923006129e+18,93.95761295572918,0.5839295784632365,-0.7941311597824097,-0.0957487995425859,0.1378820588191349,-2.774253765741984,1.2663554747899373,-0.0314835763225952
4.0,1.6887548923438769e+18,94.00087683105468,7.910739660263061,-3.4499993324279785,-4.404855728149414,1.6887548923438769e+18,94.00087683105468,4.862215518951416,-12.713963985443115,-3.1585259437561035,1.6887548923438769e+18,94.00087683105468,-3.054370284080506,-9.2464599609375,1.1836424469947815,1.6887548923438705e+18,94.00087044270832,-1.0174978772799177,-1.0020226041475933,0.1235983967781066,1.688754892348198e+18,94.00519799804688,-0.9912306865056356,-0.7527896364529928,0.2606358230113983,,,,,,,,,,,,1.6887548923380667e+18,93.99506669921875,-0.7515199817717075,49.13183822631836,-1.237079966068268,1.6887548923380667e+18,93.99506669921875,-255.28011474609377,142.44963989257812,-133.24107971191407,1.6887548923438769e+18,94.00087683105468,0.5739732980728149,-0.8070456683635712,-0.0666294209659099,0.1214507408440112,-2.774979829788208,1.2303797006607056,-0.0958978459239005
4.05,1.688754892387125e+18,94.0441249186198,1.0301148891448977,-9.56559944152832,-5.610058784484863,1.688754892387125e+18,94.0441249186198,-1.7481563488642375,-18.896917978922527,-4.235296010971069,1.688754892387125e+18,94.0441249186198,-2.7841173013051352,-9.313814798990885,1.31207537651062,1.6887548923957722e+18,94.05277229817708,0.8125016742075483,0.3853032688299815,0.6883433063824972,1.6887548924000996e+18,94.057099609375,0.9616545935471852,0.2759583791097004,0.8224791487058004,,,,,,,,,,,,1.6887548923880653e+18,94.04506538085936,-2.0544799327850343,49.05863876342774,-2.1154799461364746,1.6887548923880653e+18,94.04506538085936,-256.58307495117185,142.37643737792968,-134.11947631835938,1.688754892387125e+18,94.0441249186198,0.5836748878161112,-0.7985382477442423,-0.0659145464499791,0.1313097178936003,-2.705162525177002,1.2517471710840862,-0.1529784078399339
4.1,1.68875489243903e+18,94.09603002929688,1.838316480318705,-2.7841971715291343,0.5140527486801145,1.68875489243903e+18,94.09603002929688,-0.0482552647590637,-12.386645952860514,1.3158530394236247,1.68875489243903e+18,94.09603002929688,-1.8924177885055544,-9.584944089253744,0.7391128341356913,1.6887548924476772e+18,94.10467708333331,0.8334238330523172,-0.277231012781461,3.3397021293640137,1.6887548924433564e+18,94.1003563232422,0.9705121219158171,-0.2192242667078972,3.3248631954193115,,,,,,,,,,,,1.6887548924380603e+18,94.09506015625,-6.23907995223999,48.75851898193359,0.5075199846178293,1.6887548924380603e+18,94.09506015625,-260.76767578125,142.0763153076172,-131.49647521972656,1.68875489243903e+18,94.09603002929688,0.624213437239329,-0.767838716506958,-0.0825723732511202,0.1155085812012354,-2.7682882944742837,1.3618684609731038,-0.0906050242483615
4.15,1.6887548924909356e+18,94.1479354654948,-2.7737910747528076,-4.625673929850261,5.400250991185506,1.6887548924909356e+18,94.1479354654948,-2.8570303122202554,-14.422738393147789,6.056632916132609,1.6887548924909356e+18,94.1479354654948,-0.0890851691365242,-9.779560089111328,0.5936943491299947,1.6887548924995827e+18,94.15658260091146,0.0545706326762835,0.6262895961602529,3.6264524459838863,1.688754892486611e+18,94.14361092122395,0.0280998013913631,0.4893539647261302,3.586135228474935,,,,,,,,,,,,1.6887548924880635e+18,94.14506376953123,-13.820159339904786,46.97243957519531,1.2785599946975708,1.6887548924880635e+18,94.14506376953123,-268.3487548828125,140.2902374267578,-130.72543640136718,1.6887548924909356e+18,94.1479354654948,0.6930365165074667,-0.7056647539138794,-0.080221431950728,0.121124525864919,-1.6899685263633728,1.4936045010884602,-1.165685663620631
4.2,1.6887548925428375e+18,94.19983740234376,-5.329825242360433,-4.994556744893392,6.955997943878174,1.6887548925428375e+18,94.19983740234376,-3.527419328689575,-14.616756439208984,7.71246608098348,1.6887548925428375e+18,94.19983740234376,1.7965599298477173,-9.604695002237955,0.6937804420789083,1.6887548925428406e+18,94.19984057617188,-0.3204751815646887,-1.3035864531993866,3.934277653694153,1.6887548925385162e+18,94.19551595052084,-0.1907426714897155,-1.0784317255020142,3.935601234436035,,,,,,,,,,,,1.688754892538061e+18,94.19506098632812,-22.999439239501953,43.566199493408206,1.7250799417495728,1.688754892538061e+18,94.19506098632812,-277.5280395507813,136.88399963378907,-130.27891845703124,1.6887548925428375e+18,94.19983740234376,0.7581130663553873,-0.6356918414433798,-0.0619107745587825,0.1281081959605216,-0.3742870489756266,1.3733189503351848,-2.496386607487997
4.25,1.6887548925947446e+18,94.25174462890624,1.1389466524124146,-2.9199511210123696,-1.031246264775594,1.6887548925947446e+18,94.25174462890624,4.539782722791036,-12.02532990773519,0.3938187062740325,1.6887548925947446e+18,94.25174462890624,3.3949901262919107,-9.087874094645182,1.3623775243759155,1.6887548925860946e+18,94.24309464518228,-0.6450227896372477,-2.4717643509308496,3.573408921559652,1.6887548925904177e+18,94.24741739908852,-0.5524257943034172,-2.0716986457506814,3.5639406045277915,,,,,,,,,,,,1.6887548925880663e+18,94.24506635742188,-30.956278991699214,39.13271942138672,-3.228119897842407,1.6887548925880663e+18,94.24506635742188,-285.4848693847656,132.4505187988281,-135.23211669921875,1.6887548925947446e+18,94.25174462890624,0.8138268192609152,-0.5711760520935059,0.0125695136375725,0.1024191702405611,-0.3824140032132466,1.1883374055226643,-2.629685084025065
4.3,1.6887548926466516e+18,94.30365144856768,-10.259135564168297,4.439913272857666,-2.196281830469767,1.6887548926466516e+18,94.30365144856768,-5.47677222887675,-4.053640941778819,-0.914058287938436,1.6887548926466516e+18,94.30365144856768,4.776517550150554,-8.476049741109213,1.2195361852645874,1.688754892638e+18,94.2949998372396,0.5653048654397329,-0.1384118795394897,2.812118132909139,1.6887548926423265e+18,94.2993260904948,0.5562946200370789,-0.5020294189453124,2.7335709730784097,,,,,,,,,,,,1.6887548926380626e+18,94.29506264648435,-36.39260025024414,33.998959350585935,-3.4623598575592043,1.6887548926380626e+18,94.29506264648435,-290.92119750976565,127.31675567626954,-135.4663543701172,1.6887548926466516e+18,94.30365144856768,0.8572842876116434,-0.5059041082859039,0.0174819758782783,0.0918014869093894,-0.2481513420740763,1.0441716114679973,-2.784609079360962
4.35,1.6887548926985556e+18,94.35555566406248,-8.0680251121521,11.458014170328775,-1.8769696553548176,1.6887548926985556e+18,94.35555566406248,-2.3651058077812195,3.717249870300293,0.1718844175338745,1.6887548926985556e+18,94.35555566406248,5.697073141733806,-7.723259766896565,1.9861665964126587,1.6887548926899034e+18,94.34690323893228,-0.3778710619856913,-3.0172670682271323,2.839148918787638,1.6887548926942313e+18,94.35123120117188,-0.4225151240825653,-3.0084095001220703,2.744668483734131,,,,,,,,,,,,1.6887548926880658e+18,94.345065625,-41.06275939941406,28.718799591064453,-6.526999807357788,1.6887548926880658e+18,94.345065625,-295.5913513183594,122.0365982055664,-138.53099670410157,1.6887548926985556e+18,94.35555566406248,0.8871574004491171,-0.4491951962312062,0.0836816653609275,0.0583458070953686,-0.3318773508071899,0.9073827068010966,-2.847898165384928
4.4,1.6887548927504568e+18,94.40745678710935,-3.166371504465739,6.099976539611816,-0.5524041255315144,1.6887548927504568e+18,94.40745678710935,2.5762723286946616,-1.4227324724197388,2.148156523704529,1.6887548927504568e+18,94.40745678710935,5.73679780960083,-7.505204359690349,2.6378732522328696,1.6887548927418102e+18,94.39881005859375,0.2721913655598958,-1.560709794362386,-0.3038545648256938,1.6887548927461366e+18,94.40313655598958,0.3902410678565502,-1.3611605167388916,-0.5802201827367147,1.688754892720183e+18,94.37718310546876,0.0,0.0,6.349578857421875,6.800000190734863,1.449831247329712,111.0799789428711,333.1000061035156,-122.9157878,49.2791983,1.6887548927380657e+18,94.39506547851563,-42.294959259033206,25.185679626464843,-12.30247974395752,1.6887548927380657e+18,94.39506547851563,-296.8235595703125,118.50347747802736,-144.30648193359374,1.6887548927504568e+18,94.40745678710935,0.8894967039426168,-0.4355489611625671,0.1327837854623794,0.0364582613110541,-0.4295368194580077,0.8714445233345032,-2.857150395711263
4.45,1.6887548927937162e+18,94.45071618652344,1.450321912765503,4.458250045776367,0.3008849620819092,1.6887548927937162e+18,94.45071618652344,6.4920268058776855,-3.6457643508911137,2.6886353492736816,1.6887548927937162e+18,94.45071618652344,5.035858869552612,-8.086509704589844,2.325062990188598,1.688754892793712e+18,94.45071191406252,1.569821874300639,-0.0419969906409581,-2.6740625699361167,1.68875489279804e+18,94.45503995768227,1.5865188439687092,-0.0259617728491624,-2.763605276743571,,,,,,,,,,,,1.688754892788064e+18,94.44506401367188,-39.42307891845703,28.94571914672851,-12.70995979309082,1.688754892788064e+18,94.44506401367188,-293.95167236328126,122.26351776123047,-144.71395568847657,1.6887548927937162e+18,94.45071618652344,0.8697604835033417,-0.476527988910675,0.1262287162244319,0.0172926187515258,-0.4304410815238952,0.9697228074073792,-2.87263023853302
4.5,1.6887548928369695e+18,94.49396948242186,7.941143035888672,-7.727085431416829,4.024251023928325,1.6887548928369695e+18,94.49396948242186,12.11007563273112,-16.385650634765625,6.132206201553345,1.6887548928369695e+18,94.49396948242186,4.163086573282878,-8.641060829162598,2.0452677408854165,1.6887548928456233e+18,94.5026231282552,-0.091884305079778,-1.8257235089937849,-0.7969755530357361,1.6887548928499476e+18,94.50694750976562,-0.19695312778155,-2.122044036785762,-0.4262821177641551,,,,,,,,,,,,1.6887548928380654e+18,94.49506528320312,-35.73379898071289,33.747640228271486,-11.697359657287596,1.6887548928380654e+18,94.49506528320312,-290.26239624023435,127.06543579101564,-143.70135498046875,1.6887548928369695e+18,94.49396948242186,0.2851951122283935,-0.1699627041816711,0.0316932002703348,0.0029998215613886,-0.4552322328090668,1.0781009197235107,-2.866061528523763
4.55,1.6887548928888732e+18,94.54587320963542,5.776591618855794,-1.966246445973714,2.8486212889353433,1.6887548928888732e+18,94.54587320963542,9.895318349202476,-10.473983014623323,5.596812168757121,1.6887548928888732e+18,94.54587320963542,4.112880706787109,-8.490232149759928,2.6855035622914634,1.6887548928975255e+18,94.5545254720052,0.454127403597037,-2.3177754878997803,1.02431919798255,1.688754892893202e+18,94.55020178222657,0.4012620970606804,-2.599078893661499,1.4095715284347534,,,,,,,,,,,,1.6887548928880676e+18,94.54506752929689,-34.70655975341797,32.671599578857425,-16.613959312438965,1.6887548928880676e+18,94.54506752929689,-289.23515625,125.98939666748046,-148.61795959472656,1.6887548928888732e+18,94.54587320963542,-0.8415850599606832,0.5059862534205118,-0.1841169049342473,0.0369302922238905,-0.576250433921814,1.0465176900227864,-2.8905951976776123
4.6,1.6887548929407782e+18,94.59777823893228,-5.586831887563069,-5.314925988515218,3.491032441457113,1.6887548929407782e+18,94.59777823893228,-1.6392828623453777,-13.936197757720947,6.127620240052541,1.6887548929407782e+18,94.59777823893228,3.9417030811309814,-8.603767395019531,2.573900063832601,1.688754892949427e+18,94.60642700195312,0.4589634390237431,1.6102917393048604,-0.910596457620462,1.6887548929364552e+18,94.5934551595052,0.6553565859794617,0.7653123339017233,-0.999375561873118,,,,,,,,,,,,1.688754892938071e+18,94.59507094726564,-33.55731964111328,33.24743919372558,-17.436240005493165,1.688754892938071e+18,94.59507094726564,-288.08591918945314,126.56523895263672,-149.440234375,1.6887548929407782e+18,94.59777823893228,-0.8354267477989197,0.5121993919213613,-0.190666859348615,0.055896592636903,-0.5759149789810181,1.0702987511952715,-2.9276570479075112
4.65,1.6887548929926868e+18,94.64968684895832,-4.451655785242717,1.5033321380615234,-1.9118289947509768,1.6887548929926868e+18,94.64968684895832,-0.6831509272257487,-7.352147102355957,0.1236291329065958,1.6887548929926868e+18,94.64968684895832,3.762658675511678,-8.837974548339844,1.972770730654399,1.688754892992685e+18,94.64968505859376,0.281532515771687,2.7895160913467407,-1.36016783118248,1.6887548929883607e+18,94.64536051432292,0.2642501220107078,2.7673213481903076,-1.0323113575577736,,,,,,,,,,,,1.6887548929880617e+18,94.64506171875,-33.46703948974609,34.93103942871094,-13.554199600219729,1.6887548929880617e+18,94.64506171875,-287.9956359863281,128.24883575439452,-145.55820007324218,1.6887548929926868e+18,94.64968684895832,-0.8313173055648804,0.5371933380762736,-0.1377701585491497,0.027279323277374,-0.4789447089036305,1.122667630513509,-2.9028213024139404
4.7,1.6887548930445957e+18,94.70159521484376,-7.067111651102702,3.2324043909708657,0.6287901600201925,1.6887548930445957e+18,94.70159521484376,-4.554937402407329,-6.18644364674886,1.7633109092712402,1.6887548930445957e+18,94.70159521484376,2.506328066190084,-9.40134334564209,1.071833352247874,1.688754893035939e+18,94.69293904622396,0.3677917718887329,4.41640289624532,-3.9237911701202393,1.688754893040266e+18,94.6972657877604,0.2275473028421402,4.341979106267293,-4.180303494135539,,,,,,,,,,,,1.688754893038066e+18,94.69506591796876,-30.6585994720459,38.62763900756836,-6.397679853439331,1.688754893038066e+18,94.69506591796876,-285.18719482421875,131.9454376220703,-138.40167846679688,1.6887548930445957e+18,94.70159521484376,0.7913656234741211,-0.6073078513145447,0.0448822230100631,0.0289834464589754,-0.4122446179389953,1.2882980505625408,-2.7523600260416665
4.75,1.6887548930964974e+18,94.75349747721354,-6.573144594828288,-2.1595385869344077,-0.8089911937713623,1.6887548930964974e+18,94.75349747721354,-5.989633878072103,-11.868998209635416,0.6025925079981486,1.6887548930964974e+18,94.75349747721354,0.5776646832625071,-9.69195524851481,1.3488962650299072,1.6887548930878444e+18,94.74484431966148,-1.5152002771695454,2.8369599978129068,-3.535739024480184,1.6887548930921677e+18,94.74916772460938,-1.6129388014475503,2.76335072517395,-3.194265286127726,,,,,,,,,,,,1.6887548930880653e+18,94.74506528320312,-22.28695945739746,44.09811935424805,-3.284239959716797,1.6887548930880653e+18,94.74506528320312,-276.8155578613281,137.41591796875,-135.28823547363282,1.6887548930964974e+18,94.75349747721354,0.7198871970176697,-0.6857330600420634,-0.0039849958072106,0.103153459727764,-1.1482012073198955,1.4168057441711426,-1.8412296772003176
4.8,1.6887548931484004e+18,94.8054004720052,4.460992018381755,-1.993345578511556,-4.40128755569458,1.6887548931484004e+18,94.8054004720052,4.130610068639119,-11.641481081644692,-2.5367907683054605,1.6887548931484004e+18,94.8054004720052,-0.3362279683351517,-9.630630811055502,1.8018094698588056,1.688754893139746e+18,94.7967459309896,-0.517911915977796,-0.0663298169771829,-1.9560922781626384,1.688754893144072e+18,94.80107177734376,-0.333379715681076,-0.2306016286214193,-2.0819814602533975,,,,,,,,,,,,1.688754893138064e+18,94.7950642578125,-17.2141996383667,46.25019989013672,-4.587199926376343,1.688754893138064e+18,94.7950642578125,-271.7428039550781,139.56799926757813,-136.59119567871093,1.6887548931484004e+18,94.8054004720052,0.6814536054929098,-0.7188752094904581,-0.0091281609299282,0.1357239286104837,-1.7507824500401814,1.380427082379659,-1.1846617062886555
4.85,1.6887548932003054e+18,94.8573055013021,1.3193821907043457,2.818135897318522,-1.8783379793167112,1.6887548932003054e+18,94.8573055013021,0.0550348758697509,-6.808577537536621,-0.3172484040260315,1.6887548932003054e+18,94.8573055013021,-1.270193338394165,-9.609208742777508,1.498402118682861,1.688754893191655e+18,94.84865462239584,0.9461793700853984,1.7582228779792786,-1.8241963386535645,1.688754893195981e+18,94.85298095703124,1.0039570331573486,1.9229528903961184,-1.7298685709635415,,,,,,,,,,,,1.6887548931880632e+18,94.84506318359377,-11.909639739990237,47.68735961914062,-4.3895598411560055,1.6887548931880632e+18,94.84506318359377,-266.43824462890626,141.00515747070312,-136.39356079101563,1.6887548932003054e+18,94.8573055013021,0.644379715124766,-0.7497672835985819,-0.0470059812068939,0.1413207203149795,-2.2764081160227456,1.3690003156661987,-0.596640408039093
4.9,1.6887548932435548e+18,94.9005546875,2.5037710666656494,2.978020429611206,0.6248284578323364,1.6887548932435548e+18,94.9005546875,0.6777670085430145,-6.598507642745972,1.9049859046936035,1.6887548932435548e+18,94.9005546875,-1.8318500518798828,-9.55902338027954,1.2174700498580933,1.6887548932435602e+18,94.9005603841146,0.6368270069360733,1.3326534628868103,-1.7917695840199788,1.688754893247882e+18,94.90488167317709,0.5297219813025247,1.2370530366897583,-1.8097391923268635,1.6887548932392358e+18,94.89623583984375,0.0,0.0,6.349578857421875,6.835000038146973,1.3331280946731567,116.51541137695312,333.1000061035156,-122.9157902,49.2791925,1.6887548932380618e+18,94.89506181640624,-7.966600036621093,48.93663864135742,-1.0638399749994278,1.6887548932380618e+18,94.89506181640624,-262.4951965332031,142.2544372558594,-133.06783752441407,1.6887548932435548e+18,94.9005546875,0.6184582114219666,-0.7647106945514679,-0.0924648270010948,0.1551703959703445,-2.556720495223999,1.344940185546875,-0.2305496260523795
4.95,1.6887548932868076e+18,94.94380761718747,2.275283098220825,0.3543845812479655,-0.2253194451332092,1.6887548932868076e+18,94.94380761718747,-0.162512540196379,-9.072387218475342,1.1417751908302307,1.6887548932868076e+18,94.94380761718747,-2.443641662597656,-9.40926710764567,1.304407238960266,1.6887548932954614e+18,94.95246142578124,-0.471587985754013,-0.0529925550023714,-1.2254465818405151,1.6887548932997916e+18,94.95679158528648,-0.5047783156236013,-0.1742493112881978,-1.1844168106714883,,,,,,,,,,,,1.6887548932880655e+18,94.94506533203123,-3.896679925918579,49.05863876342774,-0.1659199938178062,1.6887548932880655e+18,94.94506533203123,-258.42527465820314,142.37643737792968,-132.1699188232422,1.6887548932868076e+18,94.94380761718747,0.5903963645299276,-0.7832490801811218,-0.1053535491228103,0.1636296908060709,-2.6544272104899087,1.284893314043681,-0.1004229610164959
5.0,1.688754893338719e+18,94.99571907552082,4.988641579945882,-2.423439343770345,-4.091930627822876,1.688754893338719e+18,94.99571907552082,2.0831514994303384,-11.679566383361816,-2.4823540647824607,1.688754893338719e+18,94.99571907552082,-2.9113360246022544,-9.238622347513834,1.546889066696167,1.688754893347367e+18,95.00436669921876,-0.6226243873437246,0.4871141115824381,-0.4217006365458171,1.6887548933430405e+18,95.00004028320312,-0.69111767411232,0.4389830455183983,-0.6275113523006439,,,,,,,,,,,,1.6887548933380634e+18,94.99506323242188,-1.0247999668121337,49.23187942504883,-1.9617599725723267,1.6887548933380634e+18,94.99506323242188,-255.5533935546875,142.54967346191407,-133.96575317382812,1.688754893338719e+18,94.99571907552082,0.5691320101420084,-0.7995803554852804,-0.0956126923362413,0.1660415828227996,-2.6565212408701577,1.2282900015513103,-0.1072889988621075
5.05,1.6887548933906245e+18,95.04762443033854,0.8417784770329794,-7.594147682189941,-6.05771271387736,1.6887548933906245e+18,95.04762443033854,-1.974876284599304,-16.859429677327473,-4.340979178746541,1.6887548933906245e+18,95.04762443033854,-2.822500785191854,-9.247778256734213,1.6540460189183552,1.6887548933992753e+18,95.05627506510416,0.8109236235419909,0.0301360210093359,0.2391028404235839,1.6887548933862966e+18,95.04329646809896,0.3246239622433979,0.3370449086651206,0.2043344229459762,,,,,,,,,,,,1.6887548933880645e+18,95.04506435546875,-0.7881199851632118,49.390478515625,-2.1618399620056152,1.6887548933880645e+18,95.04506435546875,-255.31671752929688,142.7082733154297,-134.16583862304688,1.6887548933906245e+18,95.04762443033854,0.5695090293884277,-0.7960402170817057,-0.1014510492483774,0.1779114107290903,-2.6148104667663574,1.2309170166651409,-0.1231948484977086
5.1,1.6887548934425224e+18,95.0995223795573,2.6624856988588967,-4.804922739664714,0.2982603311538696,1.6887548934425224e+18,95.0995223795573,0.4753741224606831,-14.3102757136027,1.4558332214752834,1.6887548934425224e+18,95.0995223795573,-2.192957599957784,-9.487848281860352,1.094885488351186,1.6887548934425193e+18,95.09951928710936,0.977613478899002,-0.1840995196253061,2.7784441709518433,1.688754893438202e+18,95.09520166015623,1.090190847714742,-0.139531801144282,2.297871390978495,,,,,,,,,,,,1.6887548934380598e+18,95.09505981445314,-2.9621599435806276,49.14647903442383,0.2318000197410583,1.6887548934380598e+18,95.09505981445314,-257.4907501220703,142.4642761230469,-131.77219848632814,1.6887548934425224e+18,95.0995223795573,0.6011780897776285,-0.7733821272850037,-0.1166171977917352,0.162232349316279,-2.6756458282470703,1.3179430564244587,-0.0656443337599435
5.15,1.6887548934944356e+18,95.15143538411458,-2.427624543507894,-2.9241113662719727,2.570254643758138,1.6887548934944356e+18,95.15143538411458,-2.846262534459432,-12.70249843597412,3.384049415588379,1.6887548934944356e+18,95.15143538411458,-0.4244840095440547,-9.760882377624512,0.7511073350906372,1.6887548934857833e+18,95.14278336588542,0.6351471344629923,-0.1790853242079416,3.615049600601196,1.6887548934901071e+18,95.14710717773436,0.5981388886769613,-0.2061670248707135,3.5627187887827554,,,,,,,,,,,,1.688754893488065e+18,95.14506489257812,-11.848639678955076,47.814240264892575,2.0593600034713746,1.688754893488065e+18,95.14506489257812,-266.3772277832031,141.1320373535156,-129.94463500976562,1.6887548934944356e+18,95.15143538411458,0.6725978255271912,-0.7132195234298706,-0.1132579594850539,0.1597555379072825,-1.9689622322718303,1.4750154813130696,-0.7835997442404429
5.2,1.6887548935463345e+18,95.20333447265624,-4.1832254727681475,-5.982338587443034,7.148027102152507,1.6887548935463345e+18,95.20333447265624,-2.8299116293589273,-15.676178614298502,7.916254997253418,1.6887548935463345e+18,95.20333447265624,1.3474679191907246,-9.676335970560707,0.7055399815241495,1.6887548935376888e+18,95.19468896484376,-0.0305432630702852,-0.0117591520150502,3.704643170038859,1.688754893542012e+18,95.1990118001302,-0.1181006133556366,-0.1137736439704895,3.7775397300720215,,,,,,,,,,,,1.688754893538064e+18,95.19506401367188,-20.425239944458006,45.108279418945315,2.5619999885559084,1.688754893538064e+18,95.19506401367188,-274.95383911132814,138.42608032226562,-129.4419952392578,1.6887548935463345e+18,95.20333447265624,0.7351699670155843,-0.648975670337677,-0.098970778286457,0.166671797633171,-0.5250979165236155,1.4140279690424602,-2.237285614013672
5.25,1.688754893598244e+18,95.2552439778646,-0.9645970662434896,-3.4113664627075195,2.1618229945500693,1.688754893598244e+18,95.2552439778646,2.007777531941732,-12.685150464375814,3.480559900403023,1.688754893598244e+18,95.2552439778646,2.966528574625651,-9.256279309590658,1.2560495138168335,1.6887548935895882e+18,95.24658837890624,-0.469653566678365,-3.1244229475657144,3.379815657933553,1.6887548935939172e+18,95.2509169921875,-0.4368704656759898,-3.0999375184377036,3.334306081136068,,,,,,,,,,,,1.6887548935880648e+18,95.24506469726562,-28.508959579467778,41.18963775634766,0.0878399908542633,1.6887548935880648e+18,95.24506469726562,-283.0375549316406,134.50744018554687,-131.9161590576172,1.688754893598244e+18,95.2552439778646,0.7932381629943848,-0.5892106294631958,-0.0298069423685471,0.1471584488948186,-0.3967904150485992,1.236251751581828,-2.4903443654378257
5.3,1.688754893650147e+18,95.30714689127603,-7.524647792180379,1.6065915425618489,-2.339324951171875,1.688754893650147e+18,95.30714689127603,-3.191227674484253,-7.130212704340617,-1.107079287370046,1.688754893650147e+18,95.30714689127603,4.327573935190837,-8.71929963429769,1.1695582071940105,1.6887548936414994e+18,95.29849934895832,0.7453065030276775,0.3158682299156983,2.8823676904042563,1.688754893645824e+18,95.30282405598956,0.8502226074536642,0.232026994228363,2.7682376702626548,,,,,,,,,,,,1.6887548936380634e+18,95.29506323242188,-34.85539855957031,36.57071990966797,-2.518079924583435,1.6887548936380634e+18,95.29506323242188,-289.3839904785156,129.88851928710938,-134.52207641601564,1.688754893650147e+18,95.30714689127603,0.8389219840367635,-0.5282726883888245,-0.0109108847876389,0.1291146054863929,-0.2643586198488871,1.0956299702326455,-2.6731298764546714
5.35,1.6887548936933975e+18,95.35039733886715,-11.093791484832764,10.93130588531494,-2.710258960723877,1.6887548936933975e+18,95.35039733886715,-6.0625152587890625,2.5905295610427856,-1.3600206077098846,1.6887548936933975e+18,95.35039733886715,5.02543044090271,-8.323272228240967,1.287550926208496,1.688754893693404e+18,95.35040397135415,0.3498221635818481,-2.9141326745351157,2.3924028078715005,1.6887548936977262e+18,95.35472607421872,0.2254092693328857,-2.969314177831014,2.4163284301757812,,,,,,,,,,,,1.6887548936880655e+18,95.34506557617188,-38.83503875732422,32.17627944946289,-2.542479968070984,1.6887548936880655e+18,95.34506557617188,-293.36362915039064,125.49407806396484,-134.54647521972657,1.6887548936933975e+18,95.35039733886715,0.8646863400936127,-0.4929507076740265,0.0226270426064729,0.0921720266342163,-0.2483477070927619,1.01336732506752,-2.7909711599349976
5.4,1.6887548937366602e+18,95.3936602376302,-4.871033668518066,10.462004979451498,-0.6959246397018433,1.6887548937366602e+18,95.3936602376302,0.6574280261993408,2.580060968796412,1.3252249360084534,1.6887548937366602e+18,95.3936602376302,5.522615750630696,-7.864439169565837,1.958462158838908,1.6887548937453115e+18,95.4023114420573,-0.025249097496271,-2.009543021519979,0.4911865592002868,1.6887548937496348e+18,95.4066346028646,0.0664824980000654,-1.8585575421651204,0.2024000224967798,1.6887548937582894e+18,95.41528930664064,0.0,0.0,6.359141826629639,6.882999897003174,1.2858664989471436,119.35516357421876,333.1000061035156,-122.9157938,49.2791899,1.6887548937380613e+18,95.39506127929688,-41.27503890991211,28.491879272460935,-7.839719867706299,1.6887548937380613e+18,95.39506127929688,-295.8036376953125,121.80967864990234,-139.84371948242188,1.6887548937366602e+18,95.3936602376302,0.8815578619639078,-0.4604946176211039,0.0777143066128094,0.0668488380809624,-0.3385516901810964,0.9302192330360411,-2.8192999362945557
5.45,1.6887548937885637e+18,95.44556396484374,-0.6909940242767334,5.536808172861735,0.3856160243352254,1.6887548937885637e+18,95.44556396484374,4.404189507166545,-2.5888346831003823,2.5670998891194663,1.6887548937885637e+18,95.44556396484374,5.089337507883708,-8.10813824335734,2.118796467781067,1.688754893797213e+18,95.4542129720052,1.200502912203471,0.0003054291009902,-2.2724696000417075,1.688754893792892e+18,95.44989184570312,1.167287141084671,-0.0019089579582214,-2.0787744522094727,,,,,,,,,,,,1.6887548937880622e+18,95.44506206054687,-40.3039192199707,29.367839050292968,-10.299239921569823,1.6887548937880622e+18,95.44506206054687,-294.8325134277344,122.68563690185547,-142.30323791503906,1.6887548937885637e+18,95.44556396484374,0.8703067501386007,-0.4801244636376698,0.0985424742102622,0.0454366741081078,-0.3924856980641683,0.9737067222595216,-2.8277122179667153
5.5,1.6887548938404652e+18,95.49746541341146,5.924249331156413,-2.875720342000325,2.481016834576925,1.6887548938404652e+18,95.49746541341146,9.900702476501465,-11.69851016998291,4.225724856058757,1.6887548938404652e+18,95.49746541341146,3.9706072012583418,-8.805285453796387,1.6820205847422285,1.68875489384912e+18,95.50612011718748,0.0289652049541473,-1.214349240064621,-1.6967291484276454,1.6887548938361446e+18,95.49314469401044,0.6288348436355591,-0.2701042493184407,-2.6235644419988,,,,,,,,,,,,1.6887548938380672e+18,95.49506704101564,-35.90459976196289,34.36251983642578,-8.603439712524414,1.6887548938380672e+18,95.49506704101564,-290.4331970214844,127.68031616210938,-140.60744018554686,1.6887548938404652e+18,95.49746541341146,0.8375813762346903,-0.5389176805814108,0.0828015555938084,0.0296559234460194,-0.400241216023763,1.1153261264165242,-2.8185137112935386
5.55,1.6887548938923738e+18,95.54937402343752,6.924398899078369,-9.653343995412191,2.751697301864624,1.6887548938923738e+18,95.54937402343752,10.745368639628092,-18.393229325612385,5.167898813883464,1.6887548938923738e+18,95.54937402343752,3.8151235580444336,-8.722381273905436,2.3535141150156655,1.688754893892374e+18,95.5493739013672,-0.1458440721035004,-3.665573120117187,1.989740788936615,1.68875489388805e+18,95.5450496419271,-0.2888883451620738,-3.515783945719401,1.581733763217926,,,,,,,,,,,,1.688754893888068e+18,95.54506791992188,-33.50851898193359,35.26043930053711,-12.6757999420166,1.688754893888068e+18,95.54506791992188,-288.037109375,128.57823486328124,-144.67979736328124,1.6887548938923738e+18,95.54937402343752,-0.2811851302782694,0.1676047841707865,-0.066028095781803,0.0138366599567234,-0.5498937567075094,1.096133867899577,-2.8103354771931968
5.6,1.6887548939442788e+18,95.60127880859376,-6.279694557189941,-2.832452932993571,5.4043465455373125,1.6887548939442788e+18,95.60127880859376,-2.399602254231771,-11.514063040415444,7.94556713104248,1.6887548939442788e+18,95.60127880859376,3.8742461999257407,-8.664105415344238,2.4785327116648355,1.6887548939356244e+18,95.59262443033856,0.3975205620129903,0.0319686429575085,-0.2154318193594614,1.6887548939399488e+18,95.59694897460936,0.3545563618342081,0.4304563800493876,-0.3007493341962496,,,,,,,,,,,,1.688754893938064e+18,95.5950642578125,-33.79643859863281,34.440599822998045,-15.8160795211792,1.688754893938064e+18,95.5950642578125,-288.3250366210938,127.75839691162108,-147.82007751464843,1.6887548939442788e+18,95.60127880859376,-0.8347751100858053,0.5233320395151774,-0.1683590561151503,0.0279778080681959,-0.5670281052589417,1.0828256607055664,-2.8617329597473145
5.65,1.6887548939961802e+18,95.65318001302084,-2.7853828271230063,1.4294969240824382,-3.5353314876556396,1.6887548939961802e+18,95.65318001302084,0.8283154716094335,-7.493722438812256,-1.5306088477373123,1.6887548939961802e+18,95.65318001302084,3.607852300008138,-8.905714670817057,1.9420351187388103,1.6887548939875338e+18,95.64453393554686,0.4756094925105572,1.9438241322835288,-1.3004811803499858,1.6887548939918605e+18,95.64886051432292,0.5731952140728632,2.0791307290395102,-1.5929838369290037,,,,,,,,,,,,1.68875489398806e+18,95.64505991210936,-34.164878845214844,35.15551986694336,-12.619679641723632,1.68875489398806e+18,95.64505991210936,-288.6934753417969,128.4733139038086,-144.62367553710936,1.6887548939961802e+18,95.65318001302084,-0.2822120984395345,0.1694069306055704,-0.0567799930771191,0.0078514276344018,-0.4896167020003001,1.1395154396692913,-2.843033393224081
5.7,1.688754894048089e+18,95.7050896809896,-7.379312515258789,1.5762885411580403,0.5248924096425375,1.688754894048089e+18,95.7050896809896,-5.398806015650432,-7.978268941243489,1.5669000546137493,1.688754894048089e+18,95.7050896809896,1.9746604363123577,-9.537052790323893,0.979320247968038,1.6887548940394353e+18,95.69643513997396,0.5835799525181452,5.005175272623698,-4.557105461756389,1.688754894043765e+18,95.70076497395831,0.4159483214219411,5.109836896260579,-4.652094999949138,,,,,,,,,,,,1.6887548940380618e+18,95.69506176757812,-29.35319938659668,40.19167861938477,-5.948719930648804,1.6887548940380618e+18,95.69506176757812,-283.8817993164063,133.5094787597656,-137.9527160644531,1.688754894048089e+18,95.7050896809896,0.7729615966478983,-0.630113422870636,0.0233452627435326,0.0478096126268307,-0.4761676987012227,1.3431971073150637,-2.630844513575236
5.75,1.6887548940999913e+18,95.75699104817708,-6.7843568325042725,-1.434330940246582,-2.2128146489461265,1.6887548940999913e+18,95.75699104817708,-6.417351007461548,-11.173285166422524,-0.9208379288514456,1.6887548940999913e+18,95.75699104817708,0.3611597269773483,-9.721449534098308,1.2292893131573994,1.6887548940913408e+18,95.74834065755208,-1.4854206641515095,3.3660202026367188,-2.643163005510966,1.6887548940956664e+18,95.75266666666666,-1.5543466011683147,3.0683252414067588,-2.295580744743347,,,,,,,,,,,,1.6887548940880655e+18,95.7450654785156,-20.77171936035156,44.94723892211914,-1.5445199489593506,1.6887548940880655e+18,95.7450654785156,-275.30031127929686,138.2650390625,-133.54851989746095,1.6887548940999913e+18,95.75699104817708,0.707180917263031,-0.6924640536308289,-0.0434219129383563,0.1338444252808888,-1.258857250213623,1.438180923461914,-1.6307586828867595
5.8,1.6887548941432474e+18,95.80024743652342,3.520592212677002,-1.5565519332885742,-3.134968400001526,1.6887548941432474e+18,95.80024743652342,3.3053853511810303,-11.235199451446531,-1.3959128856658936,1.6887548941432474e+18,95.80024743652342,-0.2210529781877994,-9.661142826080322,1.6763681769371033,1.6887548941432463e+18,95.80024625651042,-0.547233447432518,-1.0405580426255865,-1.655953844388326,1.688754894147575e+18,95.80457503255208,-0.3858632196982701,-1.1530590653419497,-1.775225321451823,,,,,,,,,,,,1.6887548941380634e+18,95.79506323242188,-16.799399375915527,46.41123886108399,-3.1768800258636474,1.6887548941380634e+18,95.79506323242188,-271.32799072265624,139.72903442382812,-135.18087768554688,1.6887548941432474e+18,95.80024743652342,0.682066410779953,-0.7139852941036224,-0.0360490959137677,0.1535210385918616,-1.6984280347824097,1.3974247574806211,-1.1732386350631714
5.85,1.6887548941865044e+18,95.84350455729168,4.619189262390137,1.0179924964904783,-2.179750442504883,1.6887548941865044e+18,95.84350455729168,3.62851615746816,-8.635098616282145,-0.5798606872558594,1.6887548941865044e+18,95.84350455729168,-0.9965190688769022,-9.635586420694986,1.53720227877299,1.688754894195145e+18,95.85214493815104,0.7474954525629679,1.5734361410140991,-1.4581862290700276,1.6887548941994803e+18,95.8564803873698,0.7835364739100138,1.8057685891787212,-1.3694071769714355,,,,,,,,,,,,1.6887548941880635e+18,95.84506372070312,-12.666039657592773,47.66295852661133,-3.4916399002075194,1.6887548941880635e+18,95.84506372070312,-267.19463500976565,140.9807586669922,-135.49563598632812,1.6887548941865044e+18,95.84350455729168,0.6546386480331421,-0.7406697869300842,-0.0438626700391372,0.1437563151121139,-2.147325118382772,1.3828410307566326,-0.726942797501882
5.9,1.6887548942384036e+18,95.89540356445312,0.8309218684832255,3.0693869590759277,-0.5477157036463419,1.6887548942384036e+18,95.89540356445312,-0.5924230019251505,-6.565307140350342,0.8141579180955887,1.6887548942384036e+18,95.89540356445312,-1.4291909138361614,-9.617189407348633,1.2991862297058103,1.6887548942470597e+18,95.90405932617188,0.4254167377948761,1.9744692246119184,-1.2595023314158122,1.6887548942427323e+18,95.8997322998047,0.5296965092420578,2.1527655124664307,-1.158505916595459,,,,,,,,,,,,1.6887548942380634e+18,95.8950635253906,-9.491599845886231,48.47304000854492,-0.8344799935817718,1.6887548942380634e+18,95.8950635253906,-264.02020263671875,141.79083862304688,-132.8384796142578,1.6887548942384036e+18,95.89540356445312,0.6310275395711263,-0.7503640651702881,-0.0979707986116408,0.1698550730943679,-2.4054788748423257,1.3729993104934692,-0.3530923028786977
5.95,1.68875489429031e+18,95.94730997721354,0.9749207894007365,0.7798042297363281,-0.0314381122589111,1.68875489429031e+18,95.94730997721354,-1.1371889313062031,-8.715656916300455,1.3934203783671062,1.68875489429031e+18,95.94730997721354,-2.117955724398295,-9.477956453959148,1.3621710936228435,1.6887548942989642e+18,95.95596427408854,-0.248011291027069,-0.148796593149503,-1.8446094195048015,1.688754894285991e+18,95.94299047851564,-0.1673770751804113,0.467413733402888,-1.761022686958313,1.688754894277325e+18,95.93432495117187,0.0,0.0,6.359141826629639,6.86299991607666,1.2298003435134888,122.78723907470705,333.1000061035156,-122.9157934,49.279183,1.688754894288061e+18,95.94506108398438,-6.395239782333374,48.95371932983399,0.1268799912184476,1.688754894288061e+18,95.94506108398438,-260.9238342285156,142.27151794433593,-131.8771179199219,1.68875489429031e+18,95.94730997721354,0.5974273284276327,-0.7695166071256002,-0.1255369012554486,0.1870690335830052,-2.5696140925089517,1.311364769935608,-0.1223291506369907
6.0,1.6887548943422144e+18,95.99921443684896,7.140300273895264,-1.5570665995279949,-3.2919920881589255,1.6887548943422144e+18,95.99921443684896,4.27198604742686,-10.83310572306315,-1.734198232491811,1.6887548943422144e+18,95.99921443684896,-2.8741602102915444,-9.25853443145752,1.4951064984003704,1.6887548943422177e+18,95.9992177734375,-0.6779840588569641,-0.225943773984909,-1.0467939525842669,1.6887548943378913e+18,95.99489127604166,-0.586837887763977,-0.2890410820643107,-1.1563679178555806,,,,,,,,,,,,1.6887548943380623e+18,95.99506230468752,-1.7250799417495728,49.16843872070312,-0.6661199897527694,1.6887548943380623e+18,95.99506230468752,-256.25368041992186,142.48623657226562,-132.6701171875,1.6887548943422144e+18,95.99921443684896,0.5668631196022034,-0.795407215754191,-0.1176848808924356,0.1791240672270456,-2.664797147115072,1.2344684998194375,-0.0477454078694184
6.05,1.688754894394118e+18,96.05111791992188,1.298326333363851,-7.175308545430501,-6.662777264912923,1.688754894394118e+18,96.05111791992188,-1.3659029006958008,-16.471592903137207,-4.868197758992513,1.688754894394118e+18,96.05111791992188,-2.670075257619222,-9.278780301411947,1.7318920691808064,1.6887548943854633e+18,96.04246346028646,-0.1575523118178049,0.563879519701004,0.58724511663119,1.6887548943897935e+18,96.04679321289063,-0.0006617605686187,0.426485742131869,0.5442809363206228,,,,,,,,,,,,1.6887548943880622e+18,96.04506215820312,-1.6591999530792236,48.980559539794925,-2.161839985847473,1.6887548943880622e+18,96.04506215820312,-256.18779296875,142.29835815429686,-134.16583557128905,1.688754894394118e+18,96.05111791992188,0.5701040426890055,-0.7887729207674662,-0.1183564340074856,0.1969267775615056,-2.568799098332723,1.2406492630640666,-0.1168253694971401
6.1,1.6887548944460288e+18,96.10302872721354,3.8123425245285034,-2.4847141901652017,0.5968762238820394,1.6887548944460288e+18,96.10302872721354,1.728415568669637,-11.990035692850748,1.945364773273468,1.6887548944460288e+18,96.10302872721354,-2.0897730588912964,-9.48781681060791,1.2858011325200398,1.6887548944373788e+18,96.09437858072916,1.0597494045893352,0.3325143102556467,1.6578883131345112,1.6887548944417047e+18,96.09870458984376,1.0083857774734497,0.4325944061080615,1.9986492941776912,,,,,,,,,,,,1.6887548944380613e+18,96.09506118164065,-2.747439908981323,48.96347885131836,-0.5514399882405996,1.6887548944380613e+18,96.09506118164065,-257.2760375976562,142.2812744140625,-132.55543823242186,1.6887548944460288e+18,96.10302872721354,0.5974869926770529,-0.7669813434282938,-0.134693145751953,0.18996857603391,-2.5829343795776367,1.3175110816955566,-0.0914844771226246
6.15,1.6887548944979382e+18,96.15493815104166,-4.902949174245198,-6.830867767333984,0.8905808130900065,1.6887548944979382e+18,96.15493815104166,-5.2616175810496015,-16.599210103352863,1.8354943990707395,1.6887548944979382e+18,96.15493815104166,-0.3645143657922744,-9.75083827972412,0.8822261691093445,1.688754894489283e+18,96.14628328450522,0.9174686868985494,-0.3404046793778737,3.584557294845581,1.6887548944936095e+18,96.15060970052085,0.9441431164741516,-0.5115996499856313,3.581655661265055,,,,,,,,,,,,1.688754894488062e+18,96.1450619140625,-9.9673996925354,48.12655868530273,1.549399971961975,1.688754894488062e+18,96.1450619140625,-264.49599609375,141.44435424804686,-130.45459899902343,1.6887548944979382e+18,96.15493815104166,0.6671158075332642,-0.707378089427948,-0.1342118829488753,0.1892967224121093,-1.8486530383427937,1.465552846590678,-0.8306108315785726
6.2,1.6887548945498378e+18,96.2068378092448,-2.067674398422241,-7.077468554178874,6.118270794550578,1.6887548945498378e+18,96.2068378092448,-0.7044868568579356,-16.768702189127605,6.94177786509196,1.6887548945498378e+18,96.2068378092448,1.357341508070628,-9.67372989654541,0.7608195543289185,1.6887548945411878e+18,96.19818774414064,-0.0884227355321248,-0.8684467772642771,3.4902803897857666,1.6887548945455148e+18,96.20251472981772,-0.2200642029444376,-0.9099855820337932,3.510387976964315,,,,,,,,,,,,1.6887548945380705e+18,96.19507026367188,-19.14179935455322,45.3669189453125,2.9523998737335204,1.6887548945380705e+18,96.19507026367188,-273.67039184570314,138.684716796875,-129.05159912109374,1.6887548945498378e+18,96.2068378092448,0.732728640238444,-0.6474912762641907,-0.1058890645702679,0.1788237243890762,-0.535273919502894,1.4111438989639282,-2.1994940439860025
6.25,1.6887548945930936e+18,96.25009350585938,-2.766552567481994,-3.369739055633545,5.523792505264282,1.6887548945930936e+18,96.25009350585938,0.0,-12.73220920562744,6.688537597656249,1.6887548945930936e+18,96.25009350585938,2.7607065439224243,-9.34496545791626,1.1020575165748596,1.6887548945930888e+18,96.25008862304686,0.0316631843646367,-2.3113613526026406,3.527084986368815,1.6887548945974162e+18,96.2544160970052,0.1261945764223734,-2.1964678366978965,3.465845743815104,,,,,,,,,,,,1.6887548945880612e+18,96.24506108398438,-27.803799438476563,41.143280029296875,0.2708400137722492,1.6887548945880612e+18,96.24506108398438,-282.3323974609375,134.4610809326172,-131.73316040039063,1.6887548945930936e+18,96.25009350585938,0.7833032011985779,-0.5967655181884766,-0.0542695615440607,0.1643654406070709,-0.3785606920719147,1.2631089687347412,-2.4488481283187866
6.3,1.6887548946363372e+18,96.29333715820312,-2.996915578842163,0.216035525004069,-2.330728014310201,1.6887548946363372e+18,96.29333715820312,0.9092727104822794,-8.740183512369791,-1.283549964427948,1.6887548946363372e+18,96.29333715820312,3.900342067082723,-8.938714345296225,0.9844905932744344,1.688754894644989e+18,96.3019884440104,0.8268570105234782,-0.2103412548700968,2.766455968221029,1.688754894649313e+18,96.30631290690104,0.8439103364944458,-0.3962988207737605,2.7664051055908203,,,,,,,,,,,,1.688754894638058e+18,96.29505786132812,-33.60367965698242,36.648799896240234,-0.4465199798345566,1.688754894638058e+18,96.29505786132812,-288.132275390625,129.9665985107422,-132.4505187988281,1.6887548946363372e+18,96.29333715820312,0.8229611118634542,-0.5473089416821798,-0.036907202253739,0.1463514417409896,-0.2491930772860844,1.147555669148763,-2.626501083374023
6.35,1.688754894688243e+18,96.34524316406248,-13.185472011566162,9.376943270365397,-2.855499029159546,1.688754894688243e+18,96.34524316406248,-8.145965933799744,1.0462617874145508,-1.557328740755717,1.688754894688243e+18,96.34524316406248,5.033660093943278,-8.313177108764648,1.23548291126887,1.6887548946968945e+18,96.35389453125,-0.2243402600288391,-4.2542182604471845,3.153897205988566,1.6887548946925711e+18,96.34957104492187,-0.1023199260234833,-4.575915336608887,3.36876916885376,,,,,,,,,,,,1.6887548946880584e+18,96.3450583984375,-39.0985595703125,31.829798889160156,-2.9597198717296123,1.6887548946880584e+18,96.3450583984375,-293.6271484375,125.14759674072266,-134.96371459960938,1.688754894688243e+18,96.34524316406248,0.8629912734031677,-0.4919375578562419,0.0105223730206489,0.1074610153834024,-0.2354342341423034,1.012731671333313,-2.7637511094411216
6.4,1.688754894740149e+18,96.39714876302082,-5.32401974995931,9.430685997009276,0.6419028441111246,1.688754894740149e+18,96.39714876302082,0.3276172988116742,1.796212201317151,3.2077781359354653,1.688754894740149e+18,96.39714876302082,5.645791053771973,-7.616969267527263,2.503187894821167,1.688754894748799e+18,96.40579899088544,-0.0848084564010302,-2.493653734525045,0.6043493350346884,1.6887548947358246e+18,96.39282454427082,-0.388764813542366,-3.101515611012777,1.4131858348846436,,,,,,,,,,,,1.6887548947380577e+18,96.39505737304688,-41.52391891479492,27.03275909423828,-10.872639656066896,1.6887548947380577e+18,96.39505737304688,-296.0525146484375,120.35055847167968,-142.8766357421875,1.688754894740149e+18,96.39714876302082,0.8848689993222555,-0.4471364617347717,0.1083032314976056,0.0700077687700588,-0.4152509570121765,0.889096200466156,-2.783921241760254
6.45,1.6887548947920525e+18,96.44905232747396,-0.7634039719899497,4.605616728464763,1.0402769247690835,1.6887548947920525e+18,96.44905232747396,4.456233421961467,-3.238884766896566,3.876372814178467,1.6887548947920525e+18,96.44905232747396,5.213791370391846,-7.826996962229411,2.7734084924062095,1.6887548947920538e+18,96.44905383300782,1.1653781831264496,-0.5250386744737625,-1.701030671596527,1.6887548947877286e+18,96.444728515625,1.009862075249354,-0.7015278289715449,-1.4783448179562886,1.688754894796382e+18,96.4533818359375,0.0,0.0,6.369539737701416,6.818999767303467,1.185726761817932,126.24915313720705,333.1000061035156,-122.9157975,49.2791781,1.6887548947880584e+18,96.445058203125,-39.93791885375977,27.79159965515137,-13.947039604187012,1.6887548947880584e+18,96.445058203125,-294.4665161132813,121.1093963623047,-145.95103759765624,1.6887548947920525e+18,96.44905232747396,0.8739396731058756,-0.4637490411599477,0.1371430357297261,0.0457178888221581,-0.4874751965204875,0.9243885278701782,-2.7905604044596353
6.5,1.688754894843959e+18,96.500958984375,6.049049139022827,0.7745534578959147,0.9533832470575968,1.688754894843959e+18,96.500958984375,10.239885171254477,-7.84805949529012,3.1457642316818237,1.688754894843959e+18,96.500958984375,4.184990008672078,-8.605108261108398,2.129693587621053,1.6887548948353055e+18,96.49230541992188,1.4535029530525208,0.3124066591262817,-2.73133118947347,1.6887548948396352e+18,96.49663541666668,1.313309371471405,0.2268855373064676,-2.680171251296997,,,,,,,,,,,,1.6887548948380588e+18,96.4950587890625,-36.12907943725586,32.64231872558594,-12.243919944763183,1.6887548948380588e+18,96.4950587890625,-290.6576721191406,125.96011810302734,-144.24791564941407,1.688754894843959e+18,96.500958984375,0.8443103432655334,-0.522747278213501,0.1139603604873021,0.0229064008841911,-0.4692607025305429,1.0712708234786987,-2.805360794067383
6.55,1.688754894895864e+18,96.55286417643232,5.248721281687419,-13.132732391357422,5.569432417551677,1.688754894895864e+18,96.55286417643232,9.017751057942707,-21.856440862019856,8.124629974365234,1.688754894895864e+18,96.55286417643232,3.7631837526957193,-8.706204414367676,2.4925097624460855,1.6887548948872148e+18,96.54421484375,-0.2525927781437834,-2.864754438400269,0.6810638507207235,1.6887548948915397e+18,96.54853995768228,-0.2506074632207553,-3.113172928492228,1.0333803693453472,,,,,,,,,,,,1.688754894888057e+18,96.54505727539065,-33.12055969238281,35.41903915405273,-13.022279739379885,1.688754894888057e+18,96.54505727539065,-287.64915771484374,128.7368377685547,-145.02627563476562,1.688754894895864e+18,96.55286417643232,-0.2796939611434936,0.1687861680984497,-0.0685208936532338,0.0126171003406245,-0.5822238326072693,1.0924275716145833,-2.7940375010172525
6.6,1.6887548949477765e+18,96.60477652994793,-4.83665657043457,-0.4141159057617187,5.595682144165039,1.6887548949477765e+18,96.60477652994793,-0.806780338287353,-8.906484921773275,8.524829705556234,1.6887548949477765e+18,96.60477652994793,4.024030447006226,-8.47486432393392,2.866459846496582,1.6887548949391194e+18,96.5961192220052,0.0706567515929539,-0.7397578159968058,0.7074328487118086,1.6887548949434488e+18,96.60044873046876,0.0128281693905591,-0.2851722339789074,0.5497278161346912,,,,,,,,,,,,1.6887548949380562e+18,96.59505600585938,-33.40359954833984,33.11567916870117,-18.03159942626953,1.6887548949380562e+18,96.59505600585938,-287.93219604492185,126.43347778320312,-150.0355987548828,1.6887548949477765e+18,96.60477652994793,-0.8390388091405233,0.506312628587087,-0.1956583609183629,0.0362965073436498,-0.6174152294794718,1.0429537693659463,-2.865640719731649
