seconds_elapsed_rounded,accelerometer_time,accelerometer_seconds_elapsed,accelerometer_z,accelerometer_y,accelerometer_x,accelerometeruncalibrated_time,accelerometeruncalibrated_seconds_elapsed,accelerometeruncalibrated_z,accelerometeruncalibrated_y,accelerometeruncalibrated_x,gravity_time,gravity_seconds_elapsed,gravity_z,gravity_y,gravity_x,gyroscope_time,gyroscope_seconds_elapsed,gyroscope_z,gyroscope_y,gyroscope_x,gyroscopeuncalibrated_time,gyroscopeuncalibrated_seconds_elapsed,gyroscopeuncalibrated_z,gyroscopeuncalibrated_y,gyroscopeuncalibrated_x,location_time,location_seconds_elapsed,location_bearingAccuracy,location_speedAccuracy,location_verticalAccuracy,location_horizontalAccuracy,location_speed,location_bearing,location_altitude,location_longitude,location_latitude,magnetometer_time,magnetometer_seconds_elapsed,magnetometer_z,magnetometer_y,magnetometer_x,magnetometeruncalibrated_time,magnetometeruncalibrated_seconds_elapsed,magnetometeruncalibrated_z,magnetometeruncalibrated_y,magnetometeruncalibrated_x,orientation_time,orientation_seconds_elapsed,orientation_qz,orientation_qy,orientation_qx,orientation_qw,orientation_roll,orientation_pitch,orientation_yaw
0.0,1.6887020173524762e+18,75.00047607421875,0.17829829454422,-1.915116786956787,2.4795868396759033,1.6887020173524762e+18,75.00047607421875,-2.1409780383110046,-10.60050344467163,6.500999927520752,1.6887020173524762e+18,75.00047607421875,-2.325122356414795,-8.667881965637207,3.958725690841675,1.6887020173524818e+18,75.00048168945312,-1.2042190035184224,2.550464153289795,-0.558178094526132,1.6887020173524818e+18,75.00048168945312,-1.2054407596588137,2.554943879445394,-0.5558873626093069,,,,,,,,,,,,1.688702017347187e+18,74.99518686523439,0.7881199881434441,49.72231903076172,3.8137198448181153,1.688702017347187e+18,74.99518686523439,-253.75267333984377,145.18731689453125,-129.3980743408203,1.6887020173524762e+18,75.00047607421875,0.4167448729276657,-0.7231261730194092,-0.3087411224842071,0.4559958428144454,-2.10296630859375,1.0852354764938354,0.1432547196745872
0.05,1.688702017395741e+18,75.04374112955729,0.210018237431844,1.0007646878560383,-0.9186007976531982,1.688702017395741e+18,75.04374112955729,-1.7172491153081255,-7.52582597732544,3.622534036636353,1.688702017395741e+18,75.04374112955729,-1.9331133762995405,-8.509085973103842,4.478447437286377,1.6887020174043853e+18,75.05238533528646,-0.9371181925137838,1.3664037386576335,0.2632320175568263,1.6887020174043853e+18,75.05238533528646,-0.9383399486541748,1.3709343473116558,0.2654209434986114,,,,,,,,,,,,1.6887020173971889e+18,75.04518876953125,1.2102399826049806,49.995599365234376,1.173639953136444,1.6887020173971889e+18,75.04518876953125,-253.3305541992187,145.46059875488282,-132.0381591796875,1.688702017395741e+18,75.04374112955729,0.3949183921019236,-0.7078296740849813,-0.3119094471136728,0.4955662687619527,-1.9792577425638835,1.0516884326934814,0.1017614950736363
0.1,1.6887020174476424e+18,75.0956426595052,-0.183555006980896,2.092369079589844,-2.900737921396891,1.6887020174476424e+18,75.0956426595052,-1.9495522181193037,-6.128018697102864,2.2370897928873696,1.6887020174476424e+18,75.0956426595052,-1.7718432346979778,-8.202883084615072,5.075140317281087,1.688702017456298e+18,75.1042977701823,-1.475494106610616,0.149305651585261,-0.8547531813383102,1.688702017456298e+18,75.1042977701823,-1.4767158428827922,0.1538362304369608,-0.8525133381287257,,,,,,,,,,,,1.6887020174471923e+18,75.09519243164063,1.1443599581718444,49.812599182128906,-1.805599969625473,1.6887020174471923e+18,75.09519243164063,-253.3964324951172,145.27759399414063,-135.01739807128905,1.6887020174476424e+18,75.0956426595052,0.3707716862360636,-0.7073549826939901,-0.2995909551779429,0.5218052864074707,-1.9068334897359211,0.99233345190684,0.0673696026206016
0.15,1.6887020174995476e+18,75.1475477701823,-0.359625498453776,-1.9087196985880537,-3.8688319524129233,1.6887020174995476e+18,75.1475477701823,-2.8650062878926597,-9.621739069620768,1.7234304745992024,1.6887020174995476e+18,75.1475477701823,-2.5112268129984536,-7.695514678955078,5.529575030008952,1.6887020175081997e+18,75.15619970703125,-1.232573390007019,-1.8224145968755088,-1.7823011477788289,1.6887020175081997e+18,75.15619970703125,-1.2337950468063354,-1.817884087562561,-1.7800613244374592,,,,,,,,,,,,1.6887020174971868e+18,75.14518696289062,4.255359935760498,49.30019912719727,-5.233800029754638,1.6887020174971868e+18,75.14518696289062,-250.28543701171876,144.76519470214845,-138.44559631347656,1.6887020174995476e+18,75.1475477701823,0.3325295448303222,-0.737918476263682,-0.2883443633715311,0.5112633407115936,-1.9960530598958333,0.9037646452585856,0.1375159894426663
0.2,1.688702017551452e+18,75.19945174153646,2.1511236826578775,-4.823335329691569,-3.323499043782552,1.688702017551452e+18,75.19945174153646,-1.8283159335454304,-11.82891877492269,2.330010970433553,1.688702017551452e+18,75.19945174153646,-3.9852856000264487,-6.988078753153483,5.590822537740071,1.688702017551449e+18,75.19944897460937,-1.7692184448242188,-3.2363641262054443,-1.948583781719208,1.688702017551449e+18,75.19944897460937,-1.7704402208328247,-3.2317826747894287,-1.9462930560112,1.688702017560101e+18,75.20810107421875,0.0,0.0,1.211781620979309,6.73199987411499,1.625911831855774,261.4757995605469,42.10000228881836,-122.7557361,49.1906008,1.6887020175471857e+18,75.1951857421875,10.404159927368164,48.25343856811523,-7.485919857025147,1.6887020175471857e+18,75.1951857421875,-244.13663024902343,143.71843566894532,-140.69771728515624,1.688702017551452e+18,75.19945174153646,0.2971135079860687,-0.7956697344779968,-0.2634701728820801,0.4564257661501567,-2.1885454654693604,0.7949293653170267,0.2116647660732269
0.25,1.6887020176033595e+18,75.251359375,22.630177815755207,-10.220492362976074,-0.4175532658894856,1.6887020176033595e+18,75.251359375,16.532809495925903,-15.7369966506958,4.9100721677144366,1.6887020176033595e+18,75.251359375,-6.103214104970296,-5.4990003903706866,5.264938036600749,1.6887020175947052e+18,75.24270524088541,-1.2133820056915283,-3.2500575284163156,-5.481751998265584,1.6887020175947052e+18,75.24270524088541,-1.2146037419637044,-3.2455270861585936,-5.479563037554423,,,,,,,,,,,,1.6887020175971853e+18,75.24518525390626,20.99863967895508,44.349440002441405,-9.652639770507813,1.6887020175971853e+18,75.24518525390626,-233.5421569824219,139.81443786621094,-142.86443481445312,1.6887020176033595e+18,75.251359375,0.2195039838552475,-0.8658623496691386,-0.2464349269866943,0.3715616961320241,-2.427180608113607,0.5990889370441437,0.3213937183221181
0.3,1.6887020176552625e+18,75.30326261393229,-5.518596649169922,-8.071537971496582,-4.891640981038411,1.6887020176552625e+18,75.30326261393229,-10.525827407836914,-12.618549982706703,2.242274284362793,1.6887020176552625e+18,75.30326261393229,-5.0130767822265625,-4.5295077959696455,7.0712277094523115,1.6887020176466086e+18,75.29460864257813,1.7639752129713695,8.979922612508139,-1.9465730388959248,1.6887020176466086e+18,75.29460864257813,1.762753536303838,8.984453201293945,-1.944282313187917,,,,,,,,,,,,1.6887020176471864e+18,75.29518642578125,28.179559326171876,38.417798614501955,-16.6212797164917,1.6887020176471864e+18,75.29518642578125,-226.3612365722656,133.88279724121094,-149.83307800292968,1.6887020176552625e+18,75.30326261393229,0.0920771757761637,-0.8064568042755127,-0.3227968017260233,0.4843373000621795,-2.187081813812256,0.4813254872957865,0.5083052814006805
0.35,1.688702017707171e+18,75.35517130533854,6.676516056060791,-9.43776798248291,-8.312276045481363,1.688702017707171e+18,75.35517130533854,2.616352121035258,-14.789438565572103,-1.1040882070859273,1.688702017707171e+18,75.35517130533854,-4.066010157267253,-5.334166367848714,7.145500659942627,1.6887020176985172e+18,75.34651741536459,0.5340489372611046,-0.2318742573261261,2.3383921881516776,1.6887020176985172e+18,75.34651741536459,0.5327763110399246,-0.2273436983426412,2.340631981690725,,,,,,,,,,,,1.6887020176971858e+18,75.34518583984375,23.71436004638672,40.57720031738281,-17.750999450683594,1.6887020176971858e+18,75.34518583984375,-230.82643432617184,136.04219665527344,-150.96279907226562,1.688702017707171e+18,75.35517130533854,0.1294187108675638,-0.7741580406824747,-0.3284776906172434,0.5247379541397095,-2.0880704720815024,0.5764021476109823,0.4600878655910492
0.4,1.6887020177590725e+18,75.40707250976563,3.119932015736898,-6.283730665842692,-3.114032506942749,1.6887020177590725e+18,75.40707250976563,-0.2043869296709696,-13.17208989461263,3.0691938400268555,1.6887020177590725e+18,75.40707250976563,-3.330164909362793,-6.870854536692302,6.12053902943929,1.688702017750425e+18,75.39842537434896,3.2555553913116455,-1.4067717790603638,3.20251194636027,1.688702017750425e+18,75.39842537434896,3.254333734512329,-1.4022411505381267,3.20475172996521,,,,,,,,,,,,1.6887020177471877e+18,75.39518779296876,17.026319694519042,44.85451812744141,-13.354119682312012,1.6887020177471877e+18,75.39518779296876,-237.51447143554688,140.31951293945312,-146.56591796875,1.6887020177590725e+18,75.40707250976563,0.2379719018936157,-0.7482395966847738,-0.3312780161698659,0.5218458771705627,-2.06937829653422,0.779404083887736,0.3545232117176056
0.45,1.688702017802332e+18,75.45033190917968,2.686543583869934,-8.277163982391357,1.6229608058929443,1.688702017802332e+18,75.45033190917968,0.2841476947069168,-16.41925048828125,6.617351055145264,1.688702017802332e+18,75.45033190917968,-2.4082419872283936,-8.124582290649414,4.9317028522491455,1.688702017802331e+18,75.45033081054687,2.7341310183207193,-1.1193596522013347,3.2973997592926025,1.688702017802331e+18,75.45033081054687,2.732858339945475,-1.1148290832837422,3.299639622370402,,,,,,,,,,,,1.6887020177971835e+18,75.44518369140624,8.586359977722168,48.83171920776367,-4.789719867706299,1.6887020177971835e+18,75.44518369140624,-245.95443725585935,144.29671630859374,-138.00151977539062,1.688702017802332e+18,75.45033190917968,0.3427810072898865,-0.7158544361591339,-0.3319206535816192,0.5094497203826904,-2.0248950719833374,0.9776711463928224,0.2264613807201385
0.5,1.6887020178455857e+18,75.49358553059896,2.722703138987223,-8.081077893575033,7.1577707926432295,1.6887020178455857e+18,75.49358553059896,0.9928219666083654,-16.822739601135254,11.346166928609213,1.6887020178455857e+18,75.49358553059896,-1.7357271512349446,-8.724157651265463,4.125708103179932,1.688702017854238e+18,75.50223811848959,1.984701156616211,1.1307624677817028,0.8290459712346395,1.688702017854238e+18,75.50223811848959,1.9834285577138264,1.1352421641349792,0.8312858045101166,,,,,,,,,,,,1.688702017847187e+18,75.49518696289063,3.1988399028778076,49.81015853881836,1.156559992581606,1.688702017847187e+18,75.49518696289063,-251.34195251464843,145.27515563964843,-132.05523376464845,1.6887020178455857e+18,75.49358553059896,0.395614186922709,-0.6853227615356445,-0.3441961208979289,0.5050317049026489,-1.9682527780532837,1.0977023839950562,0.1584496895472208
0.55,1.6887020178974956e+18,75.54549552408854,1.4825831651687622,3.884929180145264,4.216569185256958,1.6887020178974956e+18,75.54549552408854,0.3497509161631266,-5.283152898152669,7.613961855570476,1.6887020178974956e+18,75.54549552408854,-1.138678232828776,-9.150577545166016,3.334705034891764,1.6887020179061445e+18,75.55414412434895,1.7946711381276448,0.8077674905459086,1.043357829252879,1.6887020179061445e+18,75.55414412434895,1.7934494813283284,0.812298059463501,1.0456485549608867,,,,,,,,,,,,1.6887020178971848e+18,75.5451845703125,1.6274799585342408,49.55151901245117,6.329359912872315,1.6887020178971848e+18,75.5451845703125,-252.9133148193359,145.01651611328126,-126.88243560791015,1.6887020178974956e+18,75.54549552408854,0.4228118558724721,-0.643228272596995,-0.3795338074366252,0.5130308270454407,-1.8982179562250776,1.2041809956232707,0.1507145017385482
0.6,1.688702017949403e+18,75.59740275065104,-3.569072167078654,7.849227905273437,1.14685853322347,1.688702017949403e+18,75.59740275065104,-4.1076788902282715,-1.5726826588312786,3.941178321838379,1.688702017949403e+18,75.59740275065104,-0.5444527963797251,-9.404406229654947,2.731632391611735,1.6887020179580567e+18,75.60605639648436,1.0533353090286257,0.0663806895414988,1.103171706199646,1.6887020179580567e+18,75.60605639648436,1.0521135727564497,0.0709112783273061,1.1054115295410156,,,,,,,,,,,,1.6887020179471903e+18,75.5951904296875,-1.1004399478435516,49.05619812011719,10.069879913330078,1.6887020179471903e+18,75.5951904296875,-255.6412353515625,144.5211944580078,-123.1419174194336,1.688702017949403e+18,75.59740275065104,0.4509041706720988,-0.6100719372431437,-0.3942344586054484,0.5186365246772766,-1.7656717697779338,1.2839171489079793,0.0450854381391157
0.65,1.6887020180013115e+18,75.6493115234375,-2.977592666943868,9.526206334431969,0.197663148244222,1.6887020180013115e+18,75.6493115234375,-3.132803122202555,-0.0059820512930551,2.642074982325236,1.6887020180013115e+18,75.6493115234375,-0.1610564912358919,-9.514684041341145,2.3817244370778403,1.6887020180013138e+18,75.64931372070312,0.5623778104782104,-1.5954272747039795,1.178969919681549,1.6887020180013138e+18,75.64931372070312,0.5611560791730881,-1.590845823287964,1.1811842918395996,,,,,,,,,,,,1.688702017997191e+18,75.64519091796875,-4.265119886398315,48.431558990478514,12.44155979156494,1.688702017997191e+18,75.64519091796875,-258.8059143066406,143.89655456542968,-120.7702377319336,1.6887020180013115e+18,75.6493115234375,0.4846700429916382,-0.6023635069529215,-0.3809921244780223,0.5068626403808594,-1.6367398103078206,1.3262632687886555,-0.135079210003217
0.7,1.6887020180532183e+18,75.70121842447917,-0.4291990200678507,9.90937074025472,-0.5507825215657552,1.6887020180532183e+18,75.70121842447917,-0.5545366406440735,0.3645066420237223,1.8452650705973308,1.6887020180532183e+18,75.70121842447917,-0.1311836515863736,-9.52735964457194,2.333360195159912,1.6887020180445642e+18,75.69256429036459,0.1730784885585307,-1.368592699368795,0.2302961895863215,1.6887020180445642e+18,75.69256429036459,0.1718058499197164,-1.3640111684799194,0.2325360476970672,,,,,,,,,,,,1.6887020180471923e+18,75.69519233398438,-7.022319889068603,47.889878845214845,13.107679557800292,1.6887020180471923e+18,75.69519233398438,-261.5631042480469,143.3548797607422,-120.10411682128908,1.6887020180532183e+18,75.70121842447917,0.5067096948623657,-0.6152687072753906,-0.3575431903203328,0.4865904251734416,-1.6250234842300415,1.3317087888717651,-0.2265493919452031
0.75,1.6887020181051246e+18,75.75312459309896,12.195714036623636,1.497257073720296,-1.880448579788208,1.6887020181051246e+18,75.75312459309896,11.430314819018044,-7.961718400319417,0.7146563480297724,1.6887020181051246e+18,75.75312459309896,-0.7712454597155253,-9.441471099853516,2.5324175357818604,1.68870201809647e+18,75.74447013346354,-0.8929322610298792,-4.742452303568522,-0.7944811582565308,1.68870201809647e+18,75.74447013346354,-0.8941540022691091,-4.737921754519145,-0.7922922372817993,1.688702018079164e+18,75.72716381835937,0.0,0.0,1.221363186836243,6.736999988555908,1.625085473060608,261.4044189453125,42.10000228881836,-122.7557424,49.1906016,1.68870201809719e+18,75.74519013671875,-7.48835973739624,48.1655990600586,11.934039688110351,1.68870201809719e+18,75.74519013671875,-262.02915649414064,143.63059997558594,-121.2777572631836,1.6887020181051246e+18,75.75312459309896,0.5178511738777161,-0.6630669037501017,-0.312124898036321,0.4378506739934285,-1.8596742550532024,1.2979354461034138,-0.1504276568690935
0.8,1.6887020181570296e+18,75.80502978515625,19.42774264017741,-12.949277877807615,2.408844073613485,1.6887020181570296e+18,75.80502978515625,18.897515614827473,-22.23929278055827,5.614957571029663,1.6887020181570296e+18,75.80502978515625,-0.5360729595025381,-9.27251116434733,3.143425941467285,1.6887020181483804e+18,75.79638028971354,-2.0598885218302407,-5.249877532323201,2.6013697187105813,1.6887020181483804e+18,75.79638028971354,-2.0612120230992637,-5.2453469435373945,2.603660444418589,,,,,,,,,,,,1.6887020181471908e+18,75.79519086914063,-14.188599967956543,47.7581184387207,5.048359966278076,1.6887020181471908e+18,75.79519086914063,-268.72939453125,143.22311706542968,-128.16343688964844,1.6887020181570296e+18,75.80502978515625,0.5834318796793619,-0.7058368722597758,-0.1671670228242874,0.3644517461458842,-1.7364476521809895,1.2407015562057495,-0.6230355103810629
0.85,1.688702018208933e+18,75.85693318684896,7.344240347544352,-7.730125109354655,9.66609541575114,1.688702018208933e+18,75.85693318684896,6.134599049886067,-16.896318753560383,13.04885959625244,1.688702018208933e+18,75.85693318684896,-1.215487281481425,-9.14868958791097,3.3200763861338296,1.688702018200281e+18,75.84828125,0.8331183393796285,2.571589946746826,-2.620459238688151,1.688702018200281e+18,75.84828125,0.8318966627120972,2.576120545466741,-2.618168512980143,,,,,,,,,,,,1.6887020181971894e+18,75.845189453125,-13.51759967803955,48.19975891113281,0.851559978723526,1.6887020181971894e+18,75.845189453125,-268.0583984375,143.66475830078124,-132.36023864746093,1.688702018208933e+18,75.85693318684896,0.5435868700345358,-0.723278820514679,-0.1929596910874048,0.3776822487513224,-1.921204090118408,1.2030283610026042,-0.3740131308635075
0.9,1.688702018252192e+18,75.90019201660157,-5.912872552871704,3.3936989307403564,3.79535174369812,1.688702018252192e+18,75.90019201660157,-7.097710371017456,-5.825027585029602,7.043572425842285,1.688702018252192e+18,75.90019201660157,-1.1906837821006775,-9.201221942901611,3.185533046722412,1.6887020182521928e+18,75.90019270833334,0.672104482849439,5.6155314445495605,-1.06107297539711,1.6887020182521928e+18,75.90019270833334,0.6708827714125315,5.620113054911296,-1.0588331023852031,,,,,,,,,,,,1.6887020182471905e+18,75.89519028320312,-6.885679912567139,49.21479873657226,5.680319881439209,1.6887020182471905e+18,75.89519028320312,-261.4264770507813,144.67979736328124,-127.53147735595704,1.688702018252192e+18,75.90019201660157,0.4941605180501938,-0.6900524795055389,-0.2896652668714523,0.4418079107999801,-1.927918553352356,1.2181972861289978,-0.1070279255509376
0.95,1.6887020182954473e+18,75.94344718424479,-3.001966953277588,7.49133841196696,-0.697461207707723,1.6887020182954473e+18,75.94344718424479,-3.80099884668986,-1.7234305143356323,2.6803602377573648,1.6887020182954473e+18,75.94344718424479,-0.8048778374989828,-9.197264353434244,3.315134048461914,1.688702018304098e+18,75.95209806315104,-0.1114829021195571,2.574898838996887,-0.303701842824618,1.688702018304098e+18,75.95209806315104,-0.1127555506924788,2.5794294277826944,-0.301461989680926,,,,,,,,,,,,1.6887020182971868e+18,75.94518671875001,-4.001599884033203,49.36363906860352,7.96171989440918,1.6887020182971868e+18,75.94518671875001,-258.5423950195312,144.8286376953125,-125.25007629394533,1.6887020182954473e+18,75.94344718424479,0.4629966417948405,-0.654214064280192,-0.3355332712332408,0.4946436782677968,-1.8085472583770752,1.2171510060628254,-0.0549247699479261
1.0,1.6887020183473528e+18,75.99535278320313,-3.538839260737101,0.5717279116312662,3.470334768295288,1.6887020183473528e+18,75.99535278320313,-4.422334988911946,-8.416155338287354,7.389235496520996,1.6887020183473528e+18,75.99535278320313,-0.8893418510754904,-8.970378557840982,3.856212933858236,1.6887020183560015e+18,76.00400130208334,-1.950441797574361,0.3150537510712941,-0.8493572274843851,1.6887020183560015e+18,76.00400130208334,-1.9517145156860352,0.3195843398571014,-0.8470664620399475,,,,,,,,,,,,1.6887020183471923e+18,75.9951923828125,-1.9324799537658692,49.80283966064453,5.9121198654174805,1.6887020183471923e+18,75.9951923828125,-256.4732727050781,145.26784057617186,-127.29967956542968,1.6887020183473528e+18,75.99535278320313,0.4237933158874511,-0.6524476607640585,-0.345431238412857,0.5244916081428528,-1.7964307467142742,1.1570407946904502,0.0144233236399789
1.05,1.6887020183992563e+18,76.04725634765624,-1.329573392868042,1.529186725616455,-0.158494234085083,1.6887020183992563e+18,76.04725634765624,-2.5864418347676597,-7.079165617624919,4.466602245966594,1.6887020183992563e+18,76.04725634765624,-1.2627144654591878,-8.590847651163736,4.562409083048503,1.6887020184079112e+18,76.05591113281251,-1.0109819571177163,-0.9247990846633912,-0.4089742849270503,1.6887020184079112e+18,76.05591113281251,-1.0122037331263225,-0.9203702807426452,-0.4066835443178813,,,,,,,,,,,,1.6887020183971889e+18,76.0451890625,-0.0731999970972538,49.84675903320313,1.815359902381897,1.6887020183971889e+18,76.0451890625,-254.61399536132816,145.31175537109374,-131.396435546875,1.6887020183992563e+18,76.04725634765624,0.3944432139396667,-0.6782161593437195,-0.3225480715433756,0.529436985651652,-1.8401820262273152,1.0688669681549072,0.0410436106224854
1.1,1.6887020184511652e+18,76.09916520182291,0.2085911432902018,2.736106554667155,-2.7043901284535727,1.6887020184511652e+18,76.09916520182291,-1.5994025071461997,-5.499504089355469,2.3916262785593667,1.6887020184511652e+18,76.09916520182291,-1.8138396739959717,-8.218105951944986,5.033329010009766,1.6887020184511654e+18,76.09916540527342,-1.4552337527275083,-0.3131447881460189,-1.302670121192932,1.6887020184511654e+18,76.09916540527342,-1.4564554691314695,-0.3086396604776382,-1.3003793954849243,,,,,,,,,,,,1.6887020184471962e+18,76.09519614257813,1.5835599541664125,50.01511917114258,-1.0833599805831908,1.6887020184471962e+18,76.09519614257813,-252.95723571777344,145.48011779785156,-134.29515686035157,1.6887020184511652e+18,76.09916520182291,0.3683202664057414,-0.7062868475914001,-0.3053917487462361,0.5215747157732645,-1.9157709280649824,0.9953584869702656,0.0859697932998339
1.15,1.6887020185030715e+18,76.15107161458333,0.0481025377909342,-1.876314163208008,-2.744056145350138,1.6887020185030715e+18,76.15107161458333,-2.393221457799276,-9.603194872538248,2.863411029179891,1.6887020185030715e+18,76.15107161458333,-2.4471700191497803,-7.7093760172526045,5.5447797775268555,1.6887020184944187e+18,76.14241845703124,-1.5339844226837158,-1.0780244767665863,-0.8149960438410441,1.6887020184944187e+18,76.14241845703124,-1.5352061986923218,-1.0734429359436035,-0.8127562204996744,,,,,,,,,,,,1.6887020184971922e+18,76.14519223632813,4.665279960632324,49.75647888183594,-4.8092399597167965,1.6887020184971922e+18,76.14519223632813,-249.8755126953125,145.22147521972656,-138.0210388183594,1.6887020185030715e+18,76.15107161458333,0.3363399306933085,-0.7372854550679525,-0.2840358118216196,0.5122061967849731,-1.9857622385025024,0.9061360557874044,0.1203390384713808
1.2,1.6887020185549773e+18,76.20297713216145,2.2009082635243735,-4.776508808135986,-2.7091840902964273,1.6887020185549773e+18,76.20297713216145,-1.355733374754588,-11.93200937906901,3.042673349380493,1.6887020185549773e+18,76.20297713216145,-3.5624876817067466,-7.137995878855388,5.689170042673747,1.6887020185463227e+18,76.19432283528646,-1.5532266696294148,-3.171917756398519,-1.031853199005127,1.6887020185463227e+18,76.19432283528646,-1.554448405901591,-3.1673363049825034,-1.0295624534289043,,,,,,,,,,,,1.6887020185471903e+18,76.195190234375,7.010119819641114,48.78535842895508,-8.051999759674072,1.6887020185471903e+18,76.195190234375,-247.53067321777343,144.25035705566407,-141.2637969970703,1.6887020185549773e+18,76.20297713216145,0.3180449505647023,-0.7883245150248209,-0.2435638507207234,0.465996652841568,-2.128549416859945,0.8168891668319702,0.1272035588820775
1.25,1.6887020186068838e+18,76.25488370768228,29.271709442138672,-9.35386085510254,2.670208295186361,1.6887020186068838e+18,76.25488370768228,23.033509890238445,-14.72662671407064,7.962316672007243,1.6887020186068838e+18,76.25488370768228,-6.244046052296956,-5.355260848999023,5.229420820871989,1.6887020185982328e+18,76.24623282877604,-0.7952956308921179,-2.636086940765381,-7.17588488260905,1.6887020185982328e+18,76.24623282877604,-0.7965173721313477,-2.6315054893493652,-7.173695882161458,1.6887020185982326e+18,76.24623266601563,0.0,0.0,1.221363186836243,6.765999794006348,1.6160321235656738,261.64508056640625,42.10000228881836,-122.7557546,49.1906027,1.688702018597187e+18,76.24518740234376,18.08039951324463,45.667039489746095,-9.1890398979187,1.688702018597187e+18,76.24518740234376,-236.46039428710935,141.1320343017578,-142.4008361816406,1.6887020186068838e+18,76.25488370768228,0.2142830193042755,-0.8718551397323608,-0.2392196655273437,0.3631562193234761,-2.4436539014180503,0.5820180972417196,0.3166011770566304
1.3,1.6887020186587894e+18,76.30678946940104,-7.851615746815999,-6.859566688537598,-4.569501082102458,1.6887020186587894e+18,76.30678946940104,-12.226924578348797,-11.491929372151692,2.931806047757467,1.6887020186587894e+18,76.30678946940104,-4.381154775619507,-4.614858309427897,7.438619772593181,1.6887020186501332e+18,76.29813330078126,1.8360064029693604,9.213375012079874,-1.6959146459897358,1.6887020186501332e+18,76.29813330078126,1.8347846666971843,9.217854738235474,-1.6936748226483662,,,,,,,,,,,,1.688702018647192e+18,76.29519199218751,27.76475944519043,38.9302001953125,-16.521239471435546,1.688702018647192e+18,76.29519199218751,-226.77603149414065,134.39519958496095,-149.7330352783203,1.6887020186587894e+18,76.30678946940104,0.0844624588886896,-0.7850795189539591,-0.3258672257264455,0.5182204147179922,-2.1029887994130454,0.4912636478741963,0.5018561979134878
1.35,1.688702018702045e+18,76.35004504394531,-0.0610922574996948,-4.924282073974609,-7.774031162261963,1.688702018702045e+18,76.35004504394531,-4.337589383125305,-9.841380596160889,-0.3708875030279159,1.688702018702045e+18,76.35004504394531,-4.282343149185181,-4.899593830108643,7.340456247329712,1.6887020187020385e+18,76.35003833007812,-0.8049167618155479,-2.5663466453552246,2.216524531443914,1.6887020187020385e+18,76.35003833007812,-0.8061385229229927,-2.5619179407755532,2.2187644441922507,,,,,,,,,,,,1.6887020186971914e+18,76.34519150390625,24.053519821166994,39.718318939208984,-19.393119430541994,1.6887020186971914e+18,76.34519150390625,-230.48727111816407,135.18331909179688,-152.60491943359375,1.688702018702045e+18,76.35004504394531,0.1053701750934123,-0.7837936282157898,-0.3222080320119858,0.5200044512748718,-2.099525451660156,0.5242372453212738,0.4745750874280929
1.4,1.688702018745292e+18,76.39329215494791,10.32098356882731,-11.928938547770182,-6.926816622416179,1.688702018745292e+18,76.39329215494791,6.433900952339172,-17.35374704996745,0.3230310479799906,1.688702018745292e+18,76.39329215494791,-3.8929289976755777,-5.407304445902507,7.187160174051921,1.6887020187539546e+18,76.40195426432292,1.8235345830519991,0.963232676188151,2.2289963563283286,1.6887020187539546e+18,76.40195426432292,1.8222619593143463,0.9678141673405966,2.231287161509196,,,,,,,,,,,,1.6887020187471892e+18,76.39518935546874,20.090959548950195,41.97043914794922,-18.324399566650392,1.6887020187471892e+18,76.39518935546874,-234.44983520507813,137.43543701171876,-151.53619689941405,1.688702018745292e+18,76.39329215494791,0.1606038858493168,-0.7850906451543173,-0.2861417233943939,0.5248505473136902,-2.0668622652689614,0.5854922533035278,0.3429124156634013
1.45,1.6887020187972037e+18,76.44520353190104,0.8766074975331625,-7.903729915618896,-2.427620013554891,1.6887020187972037e+18,76.44520353190104,-2.025923192501068,-14.945171356201172,3.7950166861216226,1.6887020187972037e+18,76.44520353190104,-2.908376693725586,-7.023937066396077,6.15994930267334,1.6887020188058565e+18,76.4538564453125,4.097531318664551,-0.6109670562048753,2.6537004311879477,1.6887020188058565e+18,76.4538564453125,4.096258719762166,-0.6064364773531755,2.655889352162679,,,,,,,,,,,,1.688702018797191e+18,76.44519096679687,13.1052396774292,46.35267944335938,-11.72908000946045,1.688702018797191e+18,76.44519096679687,-241.43555297851563,141.81767578125,-144.94087829589844,1.6887020187972037e+18,76.44520353190104,0.253864308198293,-0.7384360233942667,-0.3202765583992004,0.5351212819417318,-2.011868476867676,0.8018473784128824,0.293323944012324
1.5,1.68870201884911e+18,76.49711018880208,3.4957602818806968,-10.456907908121744,5.133342107137044,1.68870201884911e+18,76.49711018880208,1.2283156514167786,-18.80658912658691,9.831510066986084,1.68870201884911e+18,76.49711018880208,-2.2732907136281333,-8.33217748006185,4.635480244954427,1.688702018857763e+18,76.50576318359374,2.4767022132873535,0.1421788806716601,1.0859147906303406,1.688702018857763e+18,76.50576318359374,2.4754296143849692,0.1467094620068867,1.088154633839925,,,,,,,,,,,,1.6887020188471918e+18,76.49519189453125,7.505439758300781,49.27579803466797,-1.856839981675148,1.6887020188471918e+18,76.49519189453125,-247.0353576660156,144.7407958984375,-135.06864013671876,1.68870201884911e+18,76.49711018880208,0.3483453392982482,-0.7004901965459188,-0.3533964157104492,0.5125146508216858,-2.0271694660186768,1.0171520511309309,0.2658954362074534
1.55,1.6887020189010145e+18,76.54901440429687,3.2078439394632974,-1.6231166521708171,8.830814043680826,1.6887020189010145e+18,76.54901440429687,1.5326028217871983,-10.518249988555908,12.701700846354166,1.6887020189010145e+18,76.54901440429687,-1.681087056795756,-8.877628962198893,3.808199087778727,1.6887020189096722e+18,76.55767211914063,2.0303633213043213,0.9736173748970032,0.9338093400001526,1.6887020189096722e+18,76.55767211914063,2.029090722401937,0.9781479835510254,0.9360491832097372,,,,,,,,,,,,1.6887020188971942e+18,76.545194140625,5.35091986656189,49.6247200012207,3.2939998865127564,1.6887020188971942e+18,76.545194140625,-249.18987426757812,145.0897186279297,-129.9177978515625,1.6887020189010145e+18,76.54901440429687,0.3823415835698445,-0.6598731676737467,-0.3871765931447347,0.5178658366203308,-1.9857557614644368,1.1334175268809,0.2742550075054168
1.6,1.6887020189529265e+18,76.60092635091145,-1.2529275019963582,7.402411778767903,1.6071715354919434,1.6887020189529265e+18,76.60092635091145,-2.3361924886703496,-1.8741783301035564,4.713461796442668,1.6887020189529265e+18,76.60092635091145,-1.0891109903653462,-9.259085655212402,3.0436028639475503,1.688702018952919e+18,76.6009189453125,1.652161419391632,0.7689266502857208,0.8975137770175934,1.688702018952919e+18,76.6009189453125,1.650939643383026,0.7734317481517792,0.8998045027256012,,,,,,,,,,,,1.688702018947192e+18,76.59519213867188,3.0792799472808836,49.14647903442383,8.264279556274413,1.688702018947192e+18,76.59519213867188,-251.46151428222657,144.61147766113282,-124.94751739501952,1.6887020189529265e+18,76.60092635091145,0.414307435353597,-0.6216920415560404,-0.4108069837093353,0.5224188566207886,-1.9135548273722331,1.2361108859380086,0.2384538898865381
1.65,1.688702019004827e+18,76.65282690429687,-5.00031312306722,9.761375109354654,0.2605462074279785,1.688702019004827e+18,76.65282690429687,-5.606184005737305,0.2550350079933802,2.726222594579061,1.688702019004827e+18,76.65282690429687,-0.6117168068885803,-9.488835652669271,2.4029889901479087,1.6887020189961797e+18,76.64417944335938,1.312647581100464,-1.0801624953746796,1.4513648947079976,1.6887020189961797e+18,76.64417944335938,1.3114258845647175,-1.075631856918335,1.4536047379175825,,,,,,,,,,,,1.68870201899719e+18,76.64519033203125,-0.0805200144648551,48.4827995300293,12.185359764099122,1.68870201899719e+18,76.64519033203125,-254.6213165283203,143.947802734375,-121.0264404296875,1.688702019004827e+18,76.65282690429687,0.4533001879851023,-0.6011081337928772,-0.4118464191754659,0.5129965543746948,-1.8169270753860471,1.31639297803243,0.1154339953015247
1.7,1.6887020190567365e+18,76.70473657226563,-0.4302228568121791,10.141801516215006,-0.5971505641937256,1.6887020190567365e+18,76.70473657226563,-0.5413761079932252,0.5232305626074473,1.4727823336919148,1.6887020190567365e+18,76.70473657226563,-0.1169992825016379,-9.601066589355469,2.007245500882467,1.6887020190480822e+18,76.69608186848959,0.757574717203776,-1.9144007364908855,1.4259631037712095,1.6887020190480822e+18,76.69608186848959,0.7563529809316,-1.909921129544576,1.4281520247459412,,,,,,,,,,,,1.6887020190471852e+18,76.69518515625,-5.468039894104004,47.73127975463867,14.2227596282959,1.6887020190471852e+18,76.69518515625,-260.0088256835937,143.19627685546874,-118.9890380859375,1.6887020190567365e+18,76.70473657226563,0.5064400335152944,-0.6017592151959738,-0.3788312872250874,0.4875202178955078,-1.625191370646159,1.365653395652771,-0.1893459409475326
1.75,1.6887020191086395e+18,76.75663932291667,-0.4890688061714172,9.12159283955892,-0.4005872408548991,1.6887020191086395e+18,76.75663932291667,-0.6448657264312109,-0.5020939335227013,1.6368900934855144,1.6887020191086395e+18,76.75663932291667,-0.1616429737769067,-9.606182416280111,1.9747899373372395,1.688702019099991e+18,76.74799088541666,0.0212784732381502,-1.2654582659403484,-0.212479293346405,1.688702019099991e+18,76.74799088541666,0.0200058395663897,-1.260876754919688,-0.2103412598371505,1.6887020191172936e+18,76.76529345703125,0.0,0.0,1.2317590713500977,6.791999816894531,1.6129671335220337,262.0449523925781,42.10000228881836,-122.7557601,49.1906033,1.688702019097191e+18,76.74519101562501,-8.439959907531739,47.345759582519534,15.14751968383789,1.688702019097191e+18,76.74519101562501,-262.9807556152344,142.81075744628907,-118.06427764892578,1.6887020191086395e+18,76.75663932291667,0.5238494277000427,-0.616165041923523,-0.3579136431217193,0.4665332039197286,-1.6461003224054973,1.3684056599934895,-0.2432607660690943
1.8,1.6887020191518966e+18,76.79989660644532,17.41769015789032,-4.18587327003479,-0.5406306982040405,1.6887020191518966e+18,76.79989660644532,16.374983072280884,-13.653146982192991,1.9351953268051147,1.6887020191518966e+18,76.79989660644532,-1.0485543310642242,-9.449769496917725,2.4131386280059814,1.6887020191518945e+18,76.79989428710938,-2.2998567819595337,-7.281157334645589,0.6237443039814631,1.6887020191518945e+18,76.79989428710938,-2.30107843875885,-7.276626745859782,0.6260350346565248,,,,,,,,,,,,1.6887020191471882e+18,76.79518828125,-8.42287998199463,48.08751907348633,11.912079811096191,1.6887020191471882e+18,76.79518828125,-262.96367797851565,143.55251770019532,-121.29971771240234,1.6887020191518966e+18,76.79989660644532,0.5321619212627411,-0.6838639378547668,-0.289473682641983,0.4039512574672699,-1.9790192842483525,1.3009345531463623,-0.1261558569967746
1.85,1.6887020191951537e+18,76.84315388997396,17.310625394185383,-15.213549613952637,2.6557923952738443,1.6887020191951537e+18,76.84315388997396,16.34437433878581,-24.424737294514973,5.98584524790446,1.6887020191951537e+18,76.84315388997396,-0.9720972975095112,-9.193683624267578,3.2673654556274414,1.6887020192037993e+18,76.85179931640626,-1.3978124260902405,-1.40213938554128,-0.8170831600824991,1.6887020192037993e+18,76.85179931640626,-1.3990341424942017,-1.39755783478419,-0.8147923946380615,,,,,,,,,,,,1.6887020191971924e+18,76.84519243164063,-14.26911964416504,48.24123916625977,2.2545599758625032,1.6887020191971924e+18,76.84519243164063,-268.80991821289064,143.70623474121095,-130.95724029541014,1.6887020191951537e+18,76.84315388997396,0.5632185141245524,-0.7202186385790507,-0.1728032131989796,0.3658063014348348,-1.855854074160258,1.2169418732325237,-0.4911225537459056
1.9,1.6887020192470548e+18,76.89505493164063,7.463130156199138,-6.941191991170247,6.212249914805095,1.6887020192470548e+18,76.89505493164063,5.794219970703125,-16.03849220275879,9.586445013682049,1.6887020192470548e+18,76.89505493164063,-1.6747560898462932,-9.079795837402344,3.311507622400919,1.6887020192557064e+18,76.9037061360677,1.0507391293843586,3.9208385149637857,-2.3512203693389893,1.6887020192557064e+18,76.9037061360677,1.0495173931121826,3.9253182411193848,-2.349031448364258,,,,,,,,,,,,1.6887020192471918e+18,76.89519189453125,-9.340320110321043,49.248959350585935,1.6152799814939498,1.6887020192471918e+18,76.89519189453125,-263.88111572265626,144.71395568847657,-131.59652099609374,1.6887020192470548e+18,76.89505493164063,0.5235247015953064,-0.7359105547269186,-0.2065242081880569,0.3751231630643208,-2.037533680597941,1.1840057770411174,-0.2387438913186391
1.95,1.6887020192989642e+18,76.94696419270834,-4.154656887054443,4.508958498636882,2.239959955215454,1.6887020192989642e+18,76.94696419270834,-5.8097734451293945,-4.579463760058085,5.646861871083577,1.6887020192989642e+18,76.94696419270834,-1.660962700843811,-9.07091776529948,3.34421443939209,1.688702019307616e+18,76.95561604817708,0.6314310431480408,3.900069077809652,-0.5192354768514632,1.688702019307616e+18,76.95561604817708,0.6302093267440796,3.9045488039652505,-0.5169446965058644,,,,,,,,,,,,1.6887020192971924e+18,76.94519233398438,-3.289119911193848,49.83943862915039,5.3362799167633055,1.6887020192971924e+18,76.94519233398438,-257.8299072265625,145.30443420410157,-127.87551879882812,1.6887020192989642e+18,76.94696419270834,0.4700846870740254,-0.7034031748771667,-0.2983820041020711,0.4408372640609741,-2.031319538752238,1.1817411184310913,0.0139872835328181
2.0,1.688702019350871e+18,76.99887109375,-1.5042349497477214,7.081132411956787,-0.8937707742055258,1.688702019350871e+18,76.99887109375,-2.862414042154948,-2.0297118425369263,2.5868406295776367,1.688702019350871e+18,76.99887109375,-1.3640251159667969,-9.093339602152506,3.4179240067799888,1.6887020193595185e+18,77.00751847330729,-0.3171917597452799,1.6308575073877971,-0.2773328224817911,1.6887020193595185e+18,77.00751847330729,-0.3184135109186172,1.6353880564371746,-0.2751438890894253,,,,,,,,,,,,1.6887020193471882e+18,76.99518813476563,-1.6567599534988404,49.47099914550781,7.317559814453125,1.6887020193471882e+18,76.99518813476563,-256.1975524902344,144.93599548339844,-125.89423828125,1.688702019350871e+18,76.99887109375,0.444251537322998,-0.6728668014208475,-0.3411627213160197,0.4830621679623921,-1.9504424333572388,1.187934120496114,0.0801702638467152
2.05,1.6887020194027745e+18,77.05077465820312,-2.6197168827056885,-2.387683550516764,4.110935211181641,1.6887020194027745e+18,77.05077465820312,-3.9369908968607583,-11.20798110961914,8.285347779591879,1.6887020194027745e+18,77.05077465820312,-1.32312007745107,-8.80279286702474,4.111724853515625,1.688702019402777e+18,77.05077722167968,-2.1802544593811035,0.4505894780158996,-0.0587194263935089,1.688702019402777e+18,77.05077722167968,-2.18147611618042,0.4551709815859794,-0.0564286783337593,,,,,,,,,,,,1.688702019397192e+18,77.04519194335937,-0.3733199939131736,49.61739883422852,4.79215989112854,1.688702019397192e+18,77.04519194335937,-254.9141082763672,145.0823944091797,-128.41963806152344,1.6887020194027745e+18,77.05077465820312,0.4124077260494232,-0.6754348079363505,-0.3328783710797627,0.5125070214271545,-1.8831657965977984,1.1162936290105183,0.0628464010854562
2.1,1.6887020194546793e+18,77.10267936197916,-0.3292023340861003,2.608768939971924,-0.6802818775177002,1.6887020194546793e+18,77.10267936197916,-1.7615162829558055,-5.935595989227295,4.012165466944377,1.6887020194546793e+18,77.10267936197916,-1.438159982363383,-8.526860237121582,4.629759947458903,1.6887020194460306e+18,77.09403076171874,-0.8641706903775533,-1.0196358958880107,0.0377209236224492,1.6887020194460306e+18,77.09403076171874,-0.8653924465179443,-1.0151053369045258,0.0400116741657257,,,,,,,,,,,,1.6887020194471905e+18,77.095190234375,-0.8954799771308899,49.96143798828125,0.8857199609279632,1.6887020194471905e+18,77.095190234375,-255.43627319335937,145.4264343261719,-132.32607727050782,1.6887020194546793e+18,77.10267936197916,0.401738832394282,-0.6932932734489441,-0.3036386569341023,0.5153810580571493,-1.8710246086120603,1.055482347806295,0.0137642271195848
2.15,1.6887020195065894e+18,77.15458935546876,1.132419506708781,2.2180978457132974,-2.4771293799082437,1.6887020195065894e+18,77.15458935546876,-0.9996016720930736,-5.984050591786702,2.5455644130706787,1.6887020195065894e+18,77.15458935546876,-2.137867212295532,-8.184643745422363,4.960006395975749,1.6887020194979372e+18,77.14593717447917,-1.0910562475522358,-1.0180069208145142,-1.2546663284301758,1.6887020194979372e+18,77.14593717447917,-1.092277963956197,-1.0134254296620688,-1.252375602722168,,,,,,,,,,,,1.6887020194971914e+18,77.1451916015625,1.2077999711036682,49.932160186767575,-1.254159963130951,1.6887020194971914e+18,77.1451916015625,-253.3329956054687,145.39715576171875,-134.46595458984376,1.6887020195065894e+18,77.15458935546876,0.3795230984687805,-0.725690503915151,-0.2861574987570445,0.4972386459509532,-1.976461370786031,0.9890134930610656,0.0680748497446377
2.2,1.688702019558488e+18,77.2064881998698,1.204456130663554,-2.6186469395955405,-2.226870854695638,1.688702019558488e+18,77.2064881998698,-1.8478572765986123,-10.32124106089274,3.100499947865804,1.688702019558488e+18,77.2064881998698,-3.058159430821737,-7.6850894292195635,5.2646834055582685,1.6887020195498455e+18,77.197845703125,-1.3890057404836018,-1.902132550875346,-1.1513282855351763,1.6887020195498455e+18,77.197845703125,-1.3902275164922078,-1.8975510994593303,-1.149088462193807,,,,,,,,,,,,1.68870201954719e+18,77.19519008789062,4.518879985809326,49.56371917724609,-4.545719861984253,1.68870201954719e+18,77.19519008789062,-250.02191772460935,145.02871704101562,-137.75751342773438,1.688702019558488e+18,77.2064881998698,0.3514092663923899,-0.7659841378529867,-0.2617797553539276,0.4699338575204213,-2.0958305994669595,0.9021631081899008,0.1136470834414163
2.25,1.6887020196017505e+18,77.24975048828125,2.906729936599731,-4.2235729694366455,-2.295496702194214,1.6887020196017505e+18,77.24975048828125,-1.1575279235839844,-11.453843593597412,3.0188448429107666,1.6887020196017505e+18,77.24975048828125,-4.070103883743286,-7.21276593208313,5.251654148101807,1.6887020196017482e+18,77.24974829101562,-1.3929764032363892,-3.360471487045288,-1.3121894200642903,1.6887020196017482e+18,77.24974829101562,-1.3941980997721355,-3.355940898259481,-1.3099495967229209,,,,,,,,,,,,1.6887020195971927e+18,77.24519267578125,8.391159820556641,48.67311935424805,-7.183359813690186,1.6887020195971927e+18,77.24519267578125,-246.14963989257816,144.13811950683595,-140.39515380859376,1.6887020196017505e+18,77.24975048828125,0.3346461802721023,-0.8089820742607117,-0.2290740460157393,0.4252099394798279,-2.229554533958435,0.8278022408485413,0.1271966397762298
2.3,1.6887020196450056e+18,77.29300545247396,26.883207321166992,-7.919483820597331,1.094343662261963,1.6887020196450056e+18,77.29300545247396,20.70648996035258,-13.88913917541504,5.756134192148845,1.6887020196450056e+18,77.29300545247396,-6.1825636227925616,-5.9521505037943525,4.599102973937988,1.6887020196536556e+18,77.30165568033854,-0.39237912495931,0.4536183675130214,-6.861340204874675,1.6887020196536556e+18,77.30165568033854,-0.3936517387628555,0.458199818929037,-6.859049479166667,1.6887020196363525e+18,77.2843525390625,0.0,0.0,1.2317590713500977,6.830999851226807,1.601120948791504,262.7647399902344,42.10000228881836,-122.7557737,49.1906037,1.688702019647191e+18,77.29519111328125,19.873799514770507,44.954559326171875,-7.317559719085693,1.688702019647191e+18,77.29519111328125,-234.6669952392578,140.41956176757813,-140.52935791015625,1.6887020196450056e+18,77.29300545247396,0.2682916571696599,-0.8774364590644836,-0.2102083563804626,0.3315672775109609,-2.4956092039744058,0.6569547057151794,0.2370942582686741
2.35,1.6887020196969106e+18,77.34491056315103,-5.630266030629476,-7.531514962514241,-1.4267665545145671,1.6887020196969106e+18,77.34491056315103,-10.746565183003744,-12.338589986165363,5.43011212348938,1.6887020196969106e+18,77.34491056315103,-5.122145175933838,-4.789570649464925,6.794191042582194,1.6887020197055644e+18,77.35356453450521,1.743511160214742,7.09133106470108,-0.9649125536282858,1.6887020197055644e+18,77.35356453450521,1.7422385811805725,7.0958616733551025,-0.9626727104187012,,,,,,,,,,,,1.688702019697191e+18,77.34519082031251,26.10311965942383,40.08675918579102,-15.508639335632324,1.688702019697191e+18,77.34519082031251,-228.43767700195312,135.5517578125,-148.7204376220703,1.6887020196969106e+18,77.34491056315103,0.1292072335879007,-0.8209558526674906,-0.2923327982425689,0.4687529404958089,-2.216348727544149,0.5115849773089091,0.4246828953425089
2.4,1.6887020197488187e+18,77.39681868489583,2.4530086517333984,-7.548455238342285,-8.135051091512045,1.6887020197488187e+18,77.39681868489583,-1.8474585215250652,-12.858829498291016,-1.0287143625319004,1.6887020197488187e+18,77.39681868489583,-4.306313196818034,-5.292869408925374,7.043649355570476,1.6887020197574715e+18,77.40547143554687,0.2041308103750149,-1.3158546686172483,2.677167852719625,1.6887020197574715e+18,77.40547143554687,0.2028581667691469,-1.311273157596588,2.679458578427633,,,,,,,,,,,,1.6887020197471926e+18,77.39519262695312,23.02627944946289,41.21403884887695,-17.040959548950195,1.6887020197471926e+18,77.39519262695312,-231.51451416015624,136.67903747558594,-150.25275573730468,1.6887020197488187e+18,77.39681868489583,0.1399655466278393,-0.7881090442339579,-0.3134340941905975,0.5103562871615092,-2.1200361251831055,0.5714248021443685,0.4306038816769917
2.45,1.6887020198007276e+18,77.44872770182292,6.003638903299968,-9.74285650253296,-4.496630748112996,1.6887020198007276e+18,77.44872770182292,2.271785775820414,-16.13320763905843,1.9932213028271992,1.6887020198007276e+18,77.44872770182292,-3.737699111302694,-6.372846921284993,6.427164713541667,1.6887020198093714e+18,77.45737133789062,3.1792481740315757,-0.0047342007358869,2.7941485246022544,1.6887020198093714e+18,77.45737133789062,3.1779754956563315,-0.0002036194006601,2.7963883876800537,,,,,,,,,,,,1.6887020197971889e+18,77.4451888671875,17.72171974182129,44.52511825561523,-14.232519721984865,1.6887020197971889e+18,77.4451888671875,-236.8190765380859,139.99011840820313,-147.44432067871094,1.6887020198007276e+18,77.44872770182292,0.2213923434416453,-0.7736736536026001,-0.3026899596055348,0.5097958842913309,-2.097418467203776,0.7098908623059591,0.3253179887930552
2.5,1.68870201985263e+18,77.50063012695313,0.629325270652771,-9.083006064097086,1.167685349782308,1.68870201985263e+18,77.50063012695313,-1.9304097096125288,-17.042879104614258,6.355735460917155,1.68870201985263e+18,77.50063012695313,-2.5655810038248696,-7.942368984222412,5.125362555185954,1.6887020198526246e+18,77.50062463378907,3.028746247291565,-0.7672467529773713,3.242701768875122,1.6887020198526246e+18,77.50062463378907,3.0275245904922485,-0.7626652866601944,3.24499249458313,,,,,,,,,,,,1.688702019847187e+18,77.4951869140625,10.25775966644287,48.55111923217773,-6.507479858398438,1.688702019847187e+18,77.4951869140625,-244.2830383300781,144.0161163330078,-139.71927795410156,1.68870201985263e+18,77.50063012695313,0.3325038254261017,-0.7251163919766744,-0.3235505918661753,0.5079881350199381,-2.0339651902516684,0.9468502203623452,0.2251277714967726
2.55,1.6887020199045325e+18,77.55253230794271,5.118183851242065,-6.102019309997559,7.728301525115967,1.6887020199045325e+18,77.55253230794271,3.0590244183937707,-14.75713539123535,11.950952847798666,1.6887020199045325e+18,77.55253230794271,-2.0650054216384888,-8.637611707051596,4.159963448842366,1.6887020198958843e+18,77.54388435872396,1.7921768029530842,-0.3317507108052571,0.8453865945339203,1.6887020198958843e+18,77.54388435872396,1.790955106417338,-0.3271692395210266,0.8475755353768667,,,,,,,,,,,,1.688702019897192e+18,77.54519199218751,4.550599813461304,49.81991882324219,-0.497760009765625,1.688702019897192e+18,77.54519199218751,-249.99019470214844,145.284912109375,-133.70955810546874,1.6887020199045325e+18,77.55253230794271,0.3929954667886097,-0.7011902332305908,-0.3365273873011271,0.4903668562571208,-2.0316434701283774,1.078667442003886,0.1843247016270955
2.6,1.6887020199564388e+18,77.60443872070313,0.4803440968195597,4.925332546234131,3.1959396998087564,1.6887020199564388e+18,77.60443872070313,-0.8428717454274496,-4.150949080785115,6.767101764678955,1.6887020199564388e+18,77.60443872070313,-1.3290618260701497,-9.05877717336019,3.508474508921305,1.6887020199477914e+18,77.59579142252603,1.825876235961914,1.640274961789449,1.1717413465181987,1.6887020199477914e+18,77.59579142252603,1.824654499689738,1.6448055903116865,1.1739811897277832,,,,,,,,,,,,1.6887020199471936e+18,77.5951935546875,3.21592001914978,49.722319793701175,4.535959959030151,1.6887020199471936e+18,77.5951935546875,-251.3248748779297,145.18731994628905,-128.67583923339845,1.6887020199564388e+18,77.60443872070313,0.418646494547526,-0.6565647125244141,-0.3691469132900238,0.5070412755012512,-1.9303245941797893,1.1791706879933674,0.1562071740627288
2.65,1.6887020200083476e+18,77.65634781901042,-4.482953707377116,8.07679526011149,1.2862780094146729,1.6887020200083476e+18,77.65634781901042,-5.11047085126241,-1.291326602300008,4.236891269683838,1.6887020200083476e+18,77.65634781901042,-0.6333632171154022,-9.35061740875244,2.887925863265991,1.6887020199996874e+18,77.64768733723959,1.4503977298736572,0.9400198062260946,1.149699330329895,1.6887020199996874e+18,77.64768733723959,1.4491759936014812,0.9446012775103252,1.1519900560379028,,,,,,,,,,,,1.6887020199971924e+18,77.6451923828125,0.4416400194168091,49.1806396484375,8.630279731750488,1.6887020199971924e+18,77.6451923828125,-254.09915771484376,144.64563903808593,-124.5815185546875,1.6887020200083476e+18,77.65634781901042,0.4462994635105133,-0.6173002521197001,-0.3884906272093455,0.5183271567026774,-1.783316135406494,1.265696406364441,0.0537057088222354
2.7,1.6887020200516032e+18,77.69960314941406,-4.4545204639434814,9.180099487304688,0.121949553489685,1.6887020200516032e+18,77.69960314941406,-4.567898392677307,-0.3475574851036072,2.585744023323059,1.6887020200516032e+18,77.69960314941406,-0.1192238517105579,-9.510152339935305,2.4011070728302,1.6887020200516065e+18,77.6996064453125,1.063210944334666,-1.5928311347961426,1.6944892803827922,1.6887020200516065e+18,77.6996064453125,1.0619892279307048,-1.5883005857467651,1.6967291434605916,,,,,,,,,,,,1.688702020047193e+18,77.69519321289063,-4.377359914779663,48.27539978027344,12.600159645080566,1.688702020047193e+18,77.69519321289063,-258.91815795898435,143.74039611816406,-120.61163787841797,1.6887020200516032e+18,77.69960314941406,0.4853145331144333,-0.6014530956745148,-0.3795384168624878,0.5084607899188995,-1.6174877285957336,1.3245245814323423,-0.1539317853748797
2.75,1.68870202009485e+18,77.74285017903647,-0.7681707739830017,9.063760121663412,-0.4456206560134887,1.68870202009485e+18,77.74285017903647,-0.6376872261365255,-0.5066801905632019,1.8444674412409463,1.68870202009485e+18,77.74285017903647,0.1246375019351641,-9.5529359181722,2.2274007002512612,1.6887020201035087e+18,77.75150846354167,0.1651881436506907,-1.0504336754480998,0.3067561735709508,1.6887020201035087e+18,77.75150846354167,0.163966417312622,-1.0459540287653606,0.3090469042460124,,,,,,,,,,,,1.688702020097188e+18,77.74518813476563,-8.239879894256593,47.80935897827148,13.502959632873536,1.688702020097188e+18,77.74518813476563,-262.7806762695312,143.27435607910155,-119.708837890625,1.68870202009485e+18,77.74285017903647,0.5143425663312277,-0.603955070177714,-0.3585014343261719,0.4920395811398824,-1.5115278959274292,1.3428372144699097,-0.329603354136149
2.8,1.688702020146765e+18,77.79476529947917,-1.3797968824704487,7.145075003306071,0.0729315280914306,1.688702020146765e+18,77.79476529947917,-1.698106457789739,-2.3521446188290915,2.6109683513641357,1.688702020146765e+18,77.79476529947917,-0.3241556131591399,-9.4797150293986,2.4753494262695312,1.6887020201554112e+18,77.80341105143229,-1.3882421851158142,-4.543208360671997,-1.5650367935498557,1.6887020201554112e+18,77.80341105143229,-1.389463941256205,-4.5386777718861895,-1.5627460479736328,1.688702020155415e+18,77.8034150390625,0.0,0.0,1.241344332695007,6.8429999351501465,1.5973663330078125,263.0426330566406,42.10000228881836,-122.7557788,49.1906039,1.6887020201471877e+18,77.7951875,-8.388719844818116,48.08019943237305,12.37079963684082,1.6887020201471877e+18,77.7951875,-262.9295166015625,143.54519958496093,-120.84099578857422,1.688702020146765e+18,77.79476529947917,0.5143624345461527,-0.6356167395909628,-0.3339240252971648,0.4680885771910349,-1.6887071530024211,1.313032150268555,-0.2349747419357299
2.85,1.688702020198667e+18,77.84666691080729,26.353644053141277,-13.9138453801473,-0.9728418191274008,1.688702020198667e+18,77.84666691080729,25.172095616658527,-23.16491635640462,2.1754745294650397,1.688702020198667e+18,77.84666691080729,-1.1873953342437744,-9.233567237854004,3.0856289068857827,1.6887020202073178e+18,77.85531778971354,-1.9662225246429443,-4.853375355402629,1.2432125806808472,1.6887020202073178e+18,77.85531778971354,-1.9674441814422607,-4.848793824513753,1.2454524139563243,,,,,,,,,,,,1.68870202019719e+18,77.84518999023437,-10.094279766082764,48.919558715820315,5.297239828109741,1.68870202019719e+18,77.84518999023437,-264.6350830078125,144.38455505371093,-127.91455841064452,1.688702020198667e+18,77.84666691080729,0.5373867750167847,-0.7129477858543396,-0.2243794500827789,0.3885048429171244,-1.9375098546346028,1.2282495896021526,-0.2926747202873229
2.9,1.6887020202505766e+18,77.89857649739584,6.471068064371745,-7.990757942199707,2.9009995460510254,1.6887020202505766e+18,77.89857649739584,4.825725128253301,-17.05225118001302,6.383851369222005,1.6887020202505766e+18,77.89857649739584,-1.6511890490849812,-9.043988863627115,3.4201643466949463,1.6887020202592238e+18,77.90722379557292,0.2445497264464696,0.7653631965319315,-1.1280644536018372,1.6887020202592238e+18,77.90722379557292,0.2432261804739634,0.7698938051859537,-1.1257737278938291,,,,,,,,,,,,1.6887020202471892e+18,77.8951892578125,-10.56763973236084,48.92199859619141,0.2610799886286258,1.6887020202471892e+18,77.8951892578125,-265.1084289550781,144.38699951171876,-132.95071411132812,1.6887020202505766e+18,77.89857649739584,0.5394524335861206,-0.7453895012537638,-0.1670152296622593,0.3541113038857778,-2.01846710840861,1.1744378407796223,-0.3524821897347767
2.95,1.6887020203024824e+18,77.9504825032552,-1.1660044193267822,-2.941861947377523,6.6309200922648115,1.6887020203024824e+18,77.9504825032552,-2.651845713456472,-12.00419306755066,10.182457447052002,1.6887020203024824e+18,77.9504825032552,-1.4916873375574748,-9.0448268254598,3.4888495604197183,1.6887020203024758e+18,77.95047595214844,0.6824128329753876,5.533675670623779,-0.7243334650993347,1.6887020203024758e+18,77.95047595214844,0.6811911165714264,5.538257122039795,-0.7221190929412842,,,,,,,,,,,,1.6887020202971889e+18,77.9451890625,-7.844599819183349,49.268479919433595,2.0105599761009216,1.6887020202971889e+18,77.9451890625,-262.38539428710936,144.7334777832031,-131.20123596191405,1.6887020203024824e+18,77.9504825032552,0.5081896583239237,-0.7225392063458761,-0.2294369786977767,0.4068170289198557,-1.973137060801188,1.1747371355692546,-0.2142234494288762
3.0,1.688702020354381e+18,78.00238118489584,-0.6032042105992635,7.662117958068848,-1.0302427609761555,1.688702020354381e+18,78.00238118489584,-2.3004995584487915,-1.4281163215637207,2.3461625576019287,1.688702020354381e+18,78.00238118489584,-1.703141411145528,-9.07272974650065,3.31371792157491,1.6887020203457382e+18,77.99373836263021,0.8656469782193502,1.03302405277888,-1.4508558909098308,1.6887020203457382e+18,77.99373836263021,0.8643743197123209,1.0376055265466373,-1.4486669699350994,,,,,,,,,,,,1.6887020203471887e+18,77.99518862304687,-3.794199991226196,49.39535903930664,5.7901198387146,1.6887020203471887e+18,77.99518862304687,-258.3349975585937,144.86035766601563,-127.42167816162107,1.688702020354381e+18,78.00238118489584,0.4765596886475881,-0.7089057962099711,-0.2893625497817992,0.4318335950374603,-2.0447916984558105,1.1822869777679443,-0.0037047185469418
3.05,1.6887020204062945e+18,78.05429475911458,0.6241387128829956,1.0396138827006025,2.370623747507731,1.6887020204062945e+18,78.05429475911458,-1.4775679508845012,-7.83111047744751,6.081757624944051,1.6887020204062945e+18,78.05429475911458,-2.107552687327067,-8.853219668070475,3.648446321487427,1.6887020203976435e+18,78.0456434733073,-1.1682797906299431,0.9815586358308792,-0.938696265220642,1.6887020203976435e+18,78.0456434733073,-1.1695015120009582,0.9860383123159407,-0.9364055395126344,,,,,,,,,,,,1.6887020203971948e+18,78.04519462890626,-0.2073999807238578,49.41731948852539,6.741719913482666,1.6887020203971948e+18,78.04519462890626,-254.7481964111328,144.88231811523437,-126.47007751464844,1.6887020204062945e+18,78.05429475911458,0.4442895253499349,-0.7196056445439657,-0.2985820670922597,0.4418919384479522,-2.0965171655019126,1.128066460291545,0.0882267430424689
3.1,1.6887020204582008e+18,78.10620068359374,-0.1452314853668213,-0.1995660463968912,0.6607140700022379,1.6887020204582008e+18,78.10620068359374,-1.8755741516749065,-8.770692030588785,5.198407252629598,1.6887020204582008e+18,78.10620068359374,-1.7361886898676555,-8.553621292114258,4.4750057856241865,1.688702020449549e+18,78.09754899088541,-1.0332785646120708,1.7644333839416504,0.2796235655744871,1.688702020449549e+18,78.09754899088541,-1.0345512131849923,1.7689130306243896,0.2818634063005448,,,,,,,,,,,,1.68870202044719e+18,78.09519008789063,1.2712399780750274,49.48319854736328,2.5229599237442017,1.68870202044719e+18,78.09519008789063,-253.2695526123047,144.9481964111328,-130.68883666992187,1.6887020204582008e+18,78.10620068359374,0.4130616982777913,-0.7090255618095398,-0.2922085920969645,0.4910727043946584,-1.9407575527826944,1.0608349641164143,0.0180163884845872
3.15,1.6887020205014502e+18,78.14945043945312,0.1241957247257233,5.868430137634277,-2.5303577184677124,1.6887020205014502e+18,78.14945043945312,-1.258026510477066,-2.6063820123672485,2.304587244987488,1.6887020205014502e+18,78.14945043945312,-1.3880682587623596,-8.457307815551758,4.772257566452026,1.688702020501456e+18,78.14945629882813,-0.8000807762145996,0.9198612570762634,0.0250454743703206,1.688702020501456e+18,78.14945629882813,-0.8013024727503458,0.9243409236272176,0.0272853026787439,,,,,,,,,,,,1.6887020204971904e+18,78.14519052734374,-0.370879989862442,49.85895919799805,1.1077599763870238,1.6887020204971904e+18,78.14519052734374,-254.91167602539065,145.32395629882814,-132.10403747558593,1.6887020205014502e+18,78.14945043945312,0.4045310914516449,-0.697550505399704,-0.2895310372114181,0.5156741738319397,-1.8534197807312012,1.0411589741706848,-0.0261986991390585
3.2,1.6887020205447066e+18,78.19270646158854,0.3279745976130168,2.120741049448649,-2.9236107667287192,1.6887020205447066e+18,78.19270646158854,-1.216750333706538,-6.0366926193237305,2.3842483361562095,1.6887020205447066e+18,78.19270646158854,-1.5505709648132324,-8.139928976694742,5.245171705881755,1.6887020205533576e+18,78.20135766601562,-1.3762284914652507,0.2003128925959269,-1.4567099809646606,1.6887020205533576e+18,78.20135766601562,-1.3775011698404949,0.2048434813817342,-1.454419215520223,,,,,,,,,,,,1.6887020205471882e+18,78.1951880859375,0.8515599876642227,49.763798522949216,-1.2443999767303466,1.6887020205471882e+18,78.1951880859375,-253.68923645019532,145.22879638671876,-134.45619506835936,1.6887020205447066e+18,78.19270646158854,0.3738380372524261,-0.7047110597292582,-0.2864940166473388,0.5304231842358907,-1.8572736183802288,0.9807726740837096,0.0121855949983
3.25,1.688702020596615e+18,78.24461466471354,0.154753049214681,-2.64595635732015,-2.9901980559031167,1.688702020596615e+18,78.24461466471354,-2.3501506646474204,-10.24088223775228,2.757927497227987,1.688702020596615e+18,78.24461466471354,-2.5107497374216714,-7.577421188354492,5.68543815612793,1.6887020206052626e+18,78.25326236979167,-1.523396094640096,-2.446617046991984,-1.9688186645507812,1.6887020206052626e+18,78.25326236979167,-1.524617870648702,-2.4420865376790366,-1.9665788412094116,,,,,,,,,,,,1.688702020597191e+18,78.24519062499999,5.121559810638428,49.24895858764648,-5.611999797821045,1.688702020597191e+18,78.24519062499999,-249.4192321777344,144.71396179199218,-138.82379455566405,1.688702020596615e+18,78.24461466471354,0.3293718000253041,-0.7418912450472513,-0.2775161763032277,0.5133725106716156,-1.984681566556295,0.884791096051534,0.1148660307129224
3.3,1.6887020206485243e+18,78.29652449544271,2.620040694872538,-8.40559196472168,-1.297409613927205,1.6887020206485243e+18,78.29652449544271,-1.7627126773198445,-15.115461031595864,4.386642058690389,1.6887020206485243e+18,78.29652449544271,-4.388599395751953,-6.692364533742269,5.621364275614421,1.6887020206571745e+18,78.30517415364584,-1.91928772131602,-6.314870357513428,-3.491807540257772,1.6887020206571745e+18,78.30517415364584,-1.920509417851766,-6.31033976872762,-3.489567836125692,1.6887020206744758e+18,78.32247583007812,0.0,0.0,1.241344332695007,6.803999900817871,1.583269715309143,263.50848388671875,42.10000228881836,-122.7557919,49.1906057,1.688702020647184e+18,78.29518388671875,12.64651985168457,47.24815979003906,-9.1402400970459,1.688702020647184e+18,78.29518388671875,-241.89427490234377,142.7131561279297,-142.35203552246094,1.6887020206485243e+18,78.29652449544271,0.2902714510758717,-0.8155336380004883,-0.2396282653013865,0.4372664988040924,-2.2301181157430015,0.7532791694005331,0.1863950192928314
3.35,1.6887020207004283e+18,78.34842854817708,22.081750710805256,-13.016559600830078,1.4527839024861653,1.6887020207004283e+18,78.34842854817708,15.876378695170084,-18.030118306477863,7.140780925750732,1.6887020207004283e+18,78.34842854817708,-6.2112189928690595,-4.996054967244466,5.625309467315674,1.688702020709076e+18,78.35707609049479,0.7290677030881246,7.875274658203125,-2.851162532965342,1.688702020709076e+18,78.35707609049479,0.7277950247128803,7.879805246988933,-2.8488718072573342,,,,,,,,,,,,1.6887020206971932e+18,78.345193359375,25.741999435424805,41.90943908691406,-10.816519737243652,1.6887020206971932e+18,78.345193359375,-228.79879455566407,137.3744354248047,-144.0283172607422,1.6887020207004283e+18,78.34842854817708,0.1857372472683588,-0.8702728350957235,-0.2409048875172932,0.3808611830075581,-2.407973130544027,0.5362376968065897,0.3319830894470215
3.4,1.6887020207523318e+18,78.40033186848959,-4.082767327626546,-6.529400984446208,-7.407565116882324,1.6887020207523318e+18,78.40033186848959,-8.0420773824056,-11.846865018208822,-0.1110668182373046,1.6887020207523318e+18,78.40033186848959,-3.965156078338623,-5.299959182739258,7.233811060587565,1.6887020207523348e+18,78.4003349609375,0.7964155888184905,3.215594530105591,0.7392996847629547,1.6887020207523348e+18,78.4003349609375,0.7951174774207174,3.2200997173786163,0.7415904104709625,,,,,,,,,,,,1.688702020747191e+18,78.395191015625,21.393919372558592,41.85820007324219,-17.394759368896484,1.688702020747191e+18,78.395191015625,-233.146875,137.3231964111328,-150.60655822753907,1.6887020207523318e+18,78.40033186848959,0.1461416880289713,-0.7833954493204752,-0.2970766127109527,0.5257066885630289,-2.0723938941955566,0.5721574028333029,0.3797988692919413
3.45,1.6887020208042422e+18,78.4522422688802,10.059365272521973,-9.024672349294027,-5.850793441136678,1.6887020208042422e+18,78.4522422688802,6.348756750424703,-14.899708112080893,1.137388348579407,1.6887020208042422e+18,78.4522422688802,-3.716454346974691,-5.857531229654948,6.925494352976481,1.68870202079559e+18,78.44358992513021,0.7294749170541763,-1.0575095017751055,1.8722001711527507,1.68870202079559e+18,78.44358992513021,0.728253165880839,-1.05292805035909,1.8744399944941204,,,,,,,,,,,,1.6887020207971889e+18,78.4451890625,18.12431945800781,43.636959075927734,-16.755479621887208,1.6887020207971889e+18,78.4451890625,-236.41647644042968,139.10195617675782,-149.96727600097657,1.6887020208042422e+18,78.4522422688802,0.1923105865716934,-0.779590904712677,-0.2854460179805755,0.5228147506713867,-2.0631704330444336,0.6416523456573486,0.3090249399344126
3.5,1.688702020856143e+18,78.50414314778646,0.0401913324991862,-6.525246779123942,-1.9128088156382244,1.688702020856143e+18,78.50414314778646,-2.528216461340586,-13.985849062601725,3.957529147466024,1.688702020856143e+18,78.50414314778646,-2.574253797531128,-7.443097591400147,5.807650566101074,1.6887020208474924e+18,78.4954922688802,4.114991903305054,0.4416555712620417,2.8244881629943848,1.6887020208474924e+18,78.4954922688802,4.113770246505737,0.4461861848831177,2.8267279465993247,,,,,,,,,,,,1.6887020208471864e+18,78.49518623046875,12.331759834289551,47.19203872680664,-10.587159729003906,1.6887020208471864e+18,78.49518623046875,-242.20903930664065,142.65703735351562,-143.79895629882813,1.688702020856143e+18,78.50414314778646,0.2866128335396449,-0.7260379592577616,-0.3220343788464864,0.5345099369684855,-1.987558364868164,0.8654786348342896,0.2502935876448949
3.55,1.6887020209080512e+18,78.55605102539063,2.4247472286224365,-7.42241096496582,4.553793589274089,1.6887020209080512e+18,78.55605102539063,0.5182454964766899,-15.900904655456545,9.18983475367228,1.6887020209080512e+18,78.55605102539063,-1.9123477935791016,-8.460989316304525,4.573353449503581,1.6887020208994025e+18,78.54740258789063,2.101427356402079,-0.8776097297668457,1.704721252123515,1.6887020208994025e+18,78.54740258789063,2.100205659866333,-0.8730282584826151,1.706910212834676,,,,,,,,,,,,1.6887020208971942e+18,78.54519428710937,6.1878398895263675,49.44659957885742,-1.7592399656772613,1.6887020208971942e+18,78.54519428710937,-248.35295715332032,144.9115997314453,-134.97103576660157,1.6887020209080512e+18,78.55605102539063,0.3715269168217976,-0.6956032911936442,-0.336759865283966,0.51425834496816,-1.9665868679682417,1.04200279712677,0.1714461197455723
3.6,1.6887020209513083e+18,78.59930822753907,1.9835476875305176,-1.3467955589294434,6.536988973617554,1.6887020209513083e+18,78.59930822753907,0.6146562993526459,-10.22423219680786,10.575378894805908,1.6887020209513083e+18,78.59930822753907,-1.3747374415397644,-8.859931945800781,3.975701928138733,1.688702020951311e+18,78.59931095377604,1.6830864747365315,0.1038979937632878,1.594154675801595,1.688702020951311e+18,78.59931095377604,1.6818647384643557,0.108428585032622,1.5964454015096028,,,,,,,,,,,,1.6887020209471913e+18,78.59519116210937,2.23015998005867,49.80039978027344,2.078879934549332,1.6887020209471913e+18,78.59519116210937,-252.31063537597657,145.26539611816406,-131.13291931152344,1.6887020209513083e+18,78.59930822753907,0.413458839058876,-0.6737009286880493,-0.3405286967754363,0.5090279877185822,-1.902768552303314,1.1286330819129944,0.0878256857395172
3.65,1.6887020209945592e+18,78.64255916341146,-0.9503790537516276,5.673523902893066,2.4131879806518555,1.6887020209945592e+18,78.64255916341146,-1.7461623350779216,-3.529812137285868,5.813761234283447,1.6887020209945592e+18,78.64255916341146,-0.8016293247540792,-9.185831387837728,3.337885856628418,1.688702021003208e+18,78.65120817057293,1.807499368985494,0.4291328291098277,0.9029097159703572,1.688702021003208e+18,78.65120817057293,1.806277632713318,0.4336634178956349,0.9051495591799418,,,,,,,,,,,,1.6887020209971863e+18,78.64518627929688,-1.532319974899292,49.63935852050781,6.678279972076416,1.6887020209971863e+18,78.64518627929688,-256.07311096191404,145.10435485839844,-126.5335189819336,1.6887020209945592e+18,78.64255916341146,0.4476105868816376,-0.6445107658704122,-0.3537629842758178,0.508833646774292,-1.8044448693593345,1.2143526077270508,-0.0001328065991401
3.7,1.6887020210464612e+18,78.6944610188802,-4.2742288907368975,8.900217056274414,0.9318876266479492,1.6887020210464612e+18,78.6944610188802,-4.681756893793742,-0.5651049340764681,3.594019571940104,1.6887020210464612e+18,78.6944610188802,-0.413373996814092,-9.44781748453776,2.599444548288981,1.688702021055111e+18,78.70311092122397,1.3469069798787434,-0.3151046435038249,1.088052789370219,1.688702021055111e+18,78.70311092122397,1.3456852436065674,-0.3105231722195943,1.0902926524480183,,,,,,,,,,,,1.6887020210471854e+18,78.69518540039061,-3.3110798835754394,48.768279266357425,11.292319679260254,1.6887020210471854e+18,78.69518540039061,-257.85187377929685,144.2332794189453,-121.9194793701172,1.6887020210464612e+18,78.6944610188802,0.4774365127086639,-0.6180422902107239,-0.3725739518801371,0.5011334319909414,-1.7250924507776897,1.3003597656885784,-0.0699950667719045
3.75,1.6887020210983662e+18,78.74636637369791,-1.4589261710643768,9.78286107381185,0.3609855969746907,1.6887020210983662e+18,78.74636637369791,-1.5754742821057637,0.2087737793723741,2.635295311609904,1.6887020210983662e+18,78.74636637369791,-0.122394119699796,-9.55658276875814,2.2116223176320395,1.68870202110702e+18,78.75502010091145,0.3524692480762799,-0.8682940602302551,0.1847867369651794,1.68870202110702e+18,78.75502010091145,0.351247526705265,-0.8638143340746561,0.1870774775743484,,,,,,,,,,,,1.688702021097182e+18,78.74518212890625,-6.653879928588867,48.00211944580078,13.844560050964356,1.688702021097182e+18,78.74518212890625,-261.1946716308594,143.4671203613281,-119.367236328125,1.6887020210983662e+18,78.74636637369791,0.5080853700637817,-0.6111943523089091,-0.3637853562831878,0.4856891234715779,-1.623508373896281,1.3445016543070476,-0.2196759531895319
3.8,1.6887020211502743e+18,78.79827425130209,-1.090653379758199,8.853802363077799,-0.2635600566864013,1.6887020211502743e+18,78.79827425130209,-1.595813274383545,-0.6955137749512991,2.050050735473633,1.6887020211502743e+18,78.79827425130209,-0.5110059380531311,-9.531811714172363,2.2509233951568604,1.6887020211589233e+18,78.80692317708333,-0.4554509582618872,-2.1794653137524924,-1.3921109437942505,1.6887020211589233e+18,78.80692317708333,-0.4567235720654328,-2.174985746542613,-1.389922062555949,,,,,,,,,,,,1.6887020211471877e+18,78.7951875,-6.631919956207275,47.73127899169922,14.139799880981446,1.6887020211471877e+18,78.7951875,-261.17271728515624,143.19627685546874,-119.0719985961914,1.6887020211502743e+18,78.79827425130209,0.5059118469556173,-0.6308589975039164,-0.3571190436681111,0.4672527809937795,-1.7884772618611653,1.3339155912399292,-0.0982653855656583
3.85,1.6887020212021804e+18,78.85018033854166,24.62576405207316,-10.832533518473308,0.849384069442749,1.6887020212021804e+18,78.85018033854166,23.26740837097168,-20.23949114481608,3.397010584672292,1.6887020212021804e+18,78.85018033854166,-1.364201903343201,-9.389453570048014,2.4849390983581543,1.68870202120218e+18,78.85018017578125,-2.3235023021698,-11.495949745178224,3.0175978541374207,1.68870202120218e+18,78.85018017578125,-2.324724018573761,-11.491368293762209,3.0198123455047607,1.688702021193527e+18,78.84152709960938,0.0,0.0,1.251728057861328,6.760000228881836,1.579060196876526,263.65667724609375,42.10000228881836,-122.7557961,49.1906067,1.6887020211971855e+18,78.84518569335937,-6.6465599060058596,48.2705192565918,11.39724006652832,1.6887020211971855e+18,78.84518569335937,-261.187353515625,143.7355194091797,-121.81455841064454,1.6887020212021804e+18,78.85018033854166,0.5440902312596639,-0.7102553447087606,-0.246130550901095,0.364561915397644,-2.071876645088196,1.2785988251368203,-0.1635362257560094
3.9,1.6887020212540897e+18,78.90208927408854,4.270230730374654,-7.618573188781738,3.906152089436849,1.6887020212540897e+18,78.90208927408854,2.8751757939656577,-16.78943920135498,7.205586592356364,1.6887020212540897e+18,78.90208927408854,-1.400900920232137,-9.153361638387045,3.2367469469706216,1.688702021245434e+18,78.89343367513021,-1.4831808110078175,-0.1787289778391521,-0.6617197891076406,1.688702021245434e+18,78.89343367513021,-1.4844025274117787,-0.1742493212223053,-0.6594290633996328,,,,,,,,,,,,1.6887020212471864e+18,78.89518637695312,-13.351679611206055,48.568199920654294,1.5445199728012085,1.6887020212471864e+18,78.89518637695312,-267.89248046875,144.0332000732422,-131.66727600097656,1.6887020212540897e+18,78.90208927408854,0.5574333667755127,-0.7380484938621521,-0.1605610450108846,0.3443065583705902,-1.9754183292388916,1.2042278051376345,-0.422940840323766
3.95,1.6887020213059932e+18,78.95399316406251,-1.439494252204895,-4.049963633219401,7.396887461344401,1.6887020213059932e+18,78.95399316406251,-2.7270202239354453,-13.209178606669107,10.772288004557293,1.6887020213059932e+18,78.95399316406251,-1.2933719555536909,-9.14171028137207,3.3127129077911377,1.6887020212973394e+18,78.94533951822916,0.4941390827298164,4.563774188359578,-0.958193063735962,1.6887020212973394e+18,78.94533951822916,0.4929173414905866,4.568304777145386,-0.9559023181597393,,,,,,,,,,,,1.6887020212971845e+18,78.94518422851563,-10.326079940795898,48.93663940429688,3.2305599212646485,1.6887020212971845e+18,78.94518422851563,-264.8668701171875,144.40163879394532,-129.98124084472656,1.6887020213059932e+18,78.95399316406251,0.5227464238802592,-0.716169536113739,-0.2272754162549972,0.4009376068909963,-1.940554102261861,1.2010655800501506,-0.2624299724896748
4.0,1.6887020213579003e+18,79.005900390625,-0.2794065078099569,5.851383368174235,0.0869073867797851,1.6887020213579003e+18,79.005900390625,-1.8350955645243328,-3.166502038637797,3.723032553990682,1.6887020213579003e+18,79.005900390625,-1.561535080273946,-9.000380833943685,3.573437770207723,1.688702021349249e+18,78.9972491048177,0.0200058345993359,2.348471403121948,-1.9440277814865112,1.688702021349249e+18,78.9972491048177,0.0187332009275753,2.3530020316441855,-1.941787878672282,,,,,,,,,,,,1.6887020213471857e+18,78.9951857421875,-5.436319971084595,49.64667892456055,5.182559871673584,1.6887020213471857e+18,78.9951857421875,-259.97711181640625,145.11167602539064,-128.02923736572265,1.6887020213579003e+18,79.005900390625,0.4680114289124806,-0.7040233413378397,-0.2883063455422719,0.4492741028467814,-1.9802884260813396,1.1635581652323406,-0.0378795079886913
4.05,1.6887020214011566e+18,79.04915673828125,0.7110803127288818,5.239200830459595,-0.4436966180801391,1.6887020214011566e+18,79.04915673828125,-1.2454642057418823,-3.621237993240357,3.383750319480896,1.6887020214011566e+18,79.04915673828125,-1.9623905420303345,-8.842934131622314,3.7647595405578618,1.688702021401158e+18,79.04915804036459,-0.5402593910694122,1.4729997316996255,-1.4651602904001872,1.688702021401158e+18,79.04915804036459,-0.541481132308642,1.4775811831156414,-1.4629204273223877,,,,,,,,,,,,1.6887020213971878e+18,79.045187890625,-0.4635999798774719,49.92483901977539,5.394839954376221,1.6887020213971878e+18,79.045187890625,-255.00439453125,145.38983764648438,-127.81695709228516,1.6887020214011566e+18,79.04915673828125,0.4301653057336807,-0.706069678068161,-0.3175567239522933,0.4642122834920883,-2.050040364265442,1.1251919269561768,0.1137666441500186
4.1,1.68870202144441e+18,79.0924102376302,-0.6542860269546509,-1.2005771001180012,1.591115156809489,1.68870202144441e+18,79.0924102376302,-2.664607365926107,-9.760323842366535,6.029314994812012,1.68870202144441e+18,79.0924102376302,-2.0161673625310264,-8.542242050170898,4.375512440999349,1.688702021453064e+18,79.10106388346354,-1.2422453959782918,1.3750576376914978,-0.1309796869754791,1.688702021453064e+18,79.10106388346354,-1.243518054485321,1.37958828608195,-0.1286889438827832,,,,,,,,,,,,1.688702021447193e+18,79.09519321289062,2.3106799125671387,49.86139907836914,2.3326399326324463,1.688702021447193e+18,79.09519321289062,-252.23011779785156,145.3263946533203,-130.87915649414063,1.68870202144441e+18,79.0924102376302,0.3923307756582896,-0.7061515053113302,-0.3217772046724955,0.4936233063538869,-2.002731998761495,1.0591146151224773,0.1382981787125269
4.15,1.6887020214963195e+18,79.14431974283853,0.3691050410270691,3.1301960945129395,-2.1283303101857505,1.6887020214963195e+18,79.14431974283853,-1.3228321274121602,-5.214359442392985,2.832503875096639,1.6887020214963195e+18,79.14431974283853,-1.6977831919987996,-8.327050844828287,4.898146788279216,1.688702021504969e+18,79.15296915690105,-0.9522879918416342,0.3071125050385793,0.4248567794760068,1.688702021504969e+18,79.15296915690105,-0.9535097479820251,0.3116430838902791,0.4270966077844302,,,,,,,,,,,,1.6887020214971927e+18,79.14519267578126,1.5079199612140657,49.89555892944336,-0.0853999972343444,1.6887020214971927e+18,79.14519267578126,-253.03287353515623,145.36055603027344,-133.2971984863281,1.6887020214963195e+18,79.14431974283853,0.3785737057526906,-0.7014816006024679,-0.3063947161038716,0.5202582677205404,-1.9037067492802937,1.015826145807902,0.0686589765052
4.2,1.6887020215482278e+18,79.19622778320313,-0.0213705301284789,0.9841044743855796,-3.069596529006958,1.6887020215482278e+18,79.19622778320313,-1.717847267786662,-7.043871561686198,2.3894328276316323,1.6887020215482278e+18,79.19622778320313,-1.7023227612177532,-8.01047134399414,5.396341959635417,1.6887020215568783e+18,79.20487841796874,-1.4006630976994832,-0.3562362442413966,-0.9151270389556884,1.6887020215568783e+18,79.20487841796874,-1.4019357363382976,-0.3516547630230586,-0.9128362933794656,,,,,,,,,,,,1.6887020215471862e+18,79.19518618164062,1.5518399715423583,50.06147842407226,-3.1524799823760987,1.6887020215471862e+18,79.19518618164062,-252.98895568847655,145.52647399902344,-136.36427612304686,1.6887020215482278e+18,79.19622778320313,0.3583894670009613,-0.7085244655609131,-0.2901493410269419,0.5340701937675476,-1.8749805291493733,0.9576878746350608,0.0489147131641705
4.25,1.688702021600132e+18,79.24813208007812,0.4734928607940674,-4.387152671813965,-3.1390738487243652,1.688702021600132e+18,79.24813208007812,-2.194018999735514,-11.870394388834637,2.680360158284506,1.688702021600132e+18,79.24813208007812,-2.673357884089152,-7.465737024943034,5.756746610005696,1.6887020216087785e+18,79.2567783203125,-1.5818864107131958,-3.268536329269409,-1.6532558997472129,1.6887020216087785e+18,79.2567783203125,-1.58315908908844,-3.26405660311381,-1.651016036669413,,,,,,,,,,,,1.6887020215971853e+18,79.24518530273437,4.960519886016845,49.46855850219727,-6.666079807281494,1.6887020215971853e+18,79.24518530273437,-249.5802764892578,144.93356018066407,-139.87787780761718,1.688702021600132e+18,79.24813208007812,0.3271933495998382,-0.7510016759236654,-0.2670967280864715,0.5068323910236359,-2.002871036529541,0.8671982685724894,0.1062184795737266
4.3,1.6887020216520376e+18,79.30003759765624,7.075782140096028,-7.791531721750896,-1.8484071095784504,1.6887020216520376e+18,79.30003759765624,2.1878375510374704,-14.27657699584961,3.624926884969076,1.6887020216520376e+18,79.30003759765624,-4.893790404001872,-6.467540423075358,5.4106465975443525,1.6887020216520397e+18,79.30003967285157,-1.7993798851966858,-6.271142482757568,-3.79179322719574,1.6887020216520397e+18,79.30003967285157,-1.800678014755249,-6.266561031341553,-3.789502501487732,,,,,,,,,,,,1.68870202164719e+18,79.29518999023438,11.885239791870116,47.58731918334961,-9.223199844360352,1.68870202164719e+18,79.29518999023438,-242.65555419921876,143.0523193359375,-142.43499755859375,1.6887020216520376e+18,79.30003759765624,0.2854290803273518,-0.8348818023999532,-0.2254517128070195,0.4088987708091736,-2.299131155014038,0.7232127785682678,0.1868329346179962
4.35,1.6887020217039457e+18,79.35194580078125,15.471816062927246,-10.259360631306969,1.300477186838786,1.6887020217039457e+18,79.35194580078125,9.577073097229004,-14.92263921101888,7.557531038920085,1.6887020217039457e+18,79.35194580078125,-5.900589942932129,-4.645774046579997,6.194366296132405,1.6887020216952965e+18,79.34329622395833,0.0934623976548512,5.630395889282227,-5.084536949793498,1.6887020216952965e+18,79.34329622395833,0.0922406713167826,5.634977340698242,-5.082297086715698,1.6887020217125996e+18,79.360599609375,0.0,0.0,1.251728057861328,6.567999839782715,1.564438819885254,263.934814453125,42.10000228881836,-122.7558096,49.1906081,1.6887020216971884e+18,79.34518842773437,26.02503967285156,41.40679931640625,-11.223999786376954,1.6887020216971884e+18,79.34518842773437,-228.51575317382813,136.87179870605468,-144.43579711914063,1.6887020217039457e+18,79.35194580078125,0.1485277215639749,-0.8551715612411499,-0.2599245309829711,0.4154201944669087,-2.3329098224639893,0.4950248996416728,0.3765094578266144
4.4,1.68870202175585e+18,79.40384993489583,-3.285654385884603,-4.523033459981282,-8.884942213694254,1.68870202175585e+18,79.40384993489583,-7.288338343302409,-9.595019340515137,-1.433101365963618,1.68870202175585e+18,79.40384993489583,-4.008529901504517,-5.054481188456218,7.389153639475505,1.6887020217472008e+18,79.39520076497395,1.1757629190882046,2.7574965953826904,0.410603255033493,1.6887020217472008e+18,79.39520076497395,1.1745411182443302,2.7620271841684976,0.412843108177185,,,,,,,,,,,,1.6887020217471928e+18,79.39519287109376,23.353239440917967,40.6015983581543,-18.770919799804688,1.6887020217471928e+18,79.39519287109376,-231.18755493164065,136.06659240722655,-151.98271789550782,1.68870202175585e+18,79.40384993489583,0.1191213702162106,-0.7791039943695068,-0.3116489251454671,0.5306211312611898,-2.0679681301116943,0.5427035888036092,0.4329517583052317
4.45,1.6887020218077545e+18,79.45575455729166,8.601991017659506,-10.845243453979492,-6.584834734598796,1.6887020218077545e+18,79.45575455729166,4.863810817400615,-16.684753100077312,0.415154755115509,1.6887020218077545e+18,79.45575455729166,-3.7440263430277505,-5.822005430857341,6.937302112579346,1.6887020217991058e+18,79.44710603841146,1.1024590507149696,-0.8358672559261322,2.597704450289408,1.6887020217991058e+18,79.44710603841146,1.1012373492121696,-0.8313366870085398,2.599995175997416,,,,,,,,,,,,1.6887020217971876e+18,79.44518774414063,19.81279945373535,42.62923889160156,-17.28251953125,1.6887020217971876e+18,79.44518774414063,-234.72799682617188,138.09423828125,-150.49431762695312,1.6887020218077545e+18,79.45575455729166,0.1837984919548034,-0.7769834399223328,-0.2946388721466064,0.5245412389437357,-2.065300941467285,0.6372764110565186,0.3358503083388011
4.5,1.6887020218596646e+18,79.50766438802084,0.7124405304590861,-7.378708203633626,-1.2759921550750732,1.6887020218596646e+18,79.50766438802084,-2.1212372382481894,-14.862818082173666,4.43868613243103,1.6887020218596646e+18,79.50766438802084,-2.8395237922668457,-7.46660566329956,5.65199089050293,1.6887020218510067e+18,79.49900675455729,3.798767328262329,-0.5188282082478205,3.272252400716146,1.6887020218510067e+18,79.49900675455729,3.7975456714630127,-0.51424673696359,3.2744922637939453,,,,,,,,,,,,1.6887020218471944e+18,79.49519438476563,13.222359657287598,47.018798828125,-9.972279930114746,1.6887020218471944e+18,79.49519438476563,-241.3184356689453,142.48379516601562,-143.18407592773437,1.6887020218596646e+18,79.50766438802084,0.2922864953676858,-0.7358504335085551,-0.3205739855766296,0.518599251906077,-2.03471573193868,0.8688856760660807,0.2624697238206863
4.55,1.688702021902916e+18,79.550916015625,2.0388909578323364,-10.689128875732422,5.909884214401245,1.688702021902916e+18,79.550916015625,-0.1890330016613006,-19.138094902038578,10.457233428955078,1.688702021902916e+18,79.550916015625,-2.23377001285553,-8.431462287902832,4.484661340713501,1.688702021902919e+18,79.55091902669271,2.4156665802001953,-1.146084984143575,1.6277522444725037,1.688702021902919e+18,79.55091902669271,2.414393941561381,-1.1415544251600902,1.629941205183665,,,,,,,,,,,,1.6887020218971896e+18,79.54518955078125,6.038999843597412,49.48319931030274,-1.420079952478409,1.6887020218971896e+18,79.54518955078125,-248.50179748535157,144.9481994628906,-134.6318786621094,1.688702021902916e+18,79.550916015625,0.3751102983951568,-0.7103796005249023,-0.3299425095319748,0.4956345111131668,-2.0323963165283203,1.0355139374732971,0.1912802532315254
4.6,1.688702021946169e+18,79.59416927083333,4.707352677981059,-2.50834051767985,8.81595261891683,1.688702021946169e+18,79.59416927083333,2.928615619738897,-11.391231536865234,12.666606267293297,1.688702021946169e+18,79.59416927083333,-1.7845830917358398,-8.865386644999186,3.7879658540089927,1.6887020219548173e+18,79.6028173014323,1.9296214977900188,1.3356568415959675,1.1417580445607505,1.6887020219548173e+18,79.6028173014323,1.9283488591512044,1.340238332748413,1.1439469655354817,,,,,,,,,,,,1.6887020219471903e+18,79.59519038085938,2.891399955749512,49.63203887939453,3.989399909973145,1.6887020219471903e+18,79.59519038085938,-251.6493957519531,145.09703674316407,-129.22239837646484,1.688702021946169e+18,79.59416927083333,0.4082167545954386,-0.6830950776735941,-0.3517264127731323,0.4925998051961263,-2.0081693728764853,1.130286693572998,0.1834696878989537
4.65,1.688702021998081e+18,79.6460810546875,-0.8350551923116049,6.9215701421101885,2.1583688259124756,1.688702021998081e+18,79.6460810546875,-1.8448662757873535,-2.3391836086908975,5.336393356323242,1.688702021998081e+18,79.6460810546875,-1.015657087167104,-9.2432492574056,3.1153371334075928,1.6887020220067315e+18,79.65473144531249,1.430799126625061,0.6145813266436259,1.186962087949117,1.6887020220067315e+18,79.65473144531249,1.429526448249817,0.6191119253635406,1.1892528136571248,,,,,,,,,,,,1.6887020219971878e+18,79.64518803710936,0.0122000098228454,49.11231918334961,8.520479774475097,1.6887020219971878e+18,79.64518803710936,-254.52859497070312,144.5773193359375,-124.69131774902344,1.688702021998081e+18,79.6460810546875,0.440726747115453,-0.6412400205930074,-0.3743215501308441,0.5042702754338583,-1.8824756542841592,1.2310655117034912,0.1049400493502616
4.7,1.6887020220499904e+18,79.6979903157552,-5.407669385274251,9.3681271870931,0.7083376248677572,1.6887020220499904e+18,79.6979903157552,-5.798606872558594,-0.0997009426355361,3.363112290700277,1.6887020220499904e+18,79.6979903157552,-0.3967834810415903,-9.450323422749838,2.5920872688293457,1.6887020220586394e+18,79.70663924153645,0.9402234156926472,-0.6282748902837435,1.7744617462158203,1.6887020220586394e+18,79.70663924153645,0.938950796922048,-0.6237443114320437,1.7766506274541218,,,,,,,,,,,,1.688702022047193e+18,79.69519296875,-3.506279850006103,48.32419967651367,12.016999626159668,1.688702022047193e+18,79.69519296875,-258.04706420898435,143.78919982910156,-121.1947998046875,1.6887020220499904e+18,79.6979903157552,0.4727010826269786,-0.6132587989171346,-0.3790416320164998,0.5065659085909525,-1.7166448434193928,1.300921638806661,-0.056685791661342
4.75,1.688702022101889e+18,79.74988899739583,-2.0958192348480225,9.687594095865885,-0.3179251352945964,1.688702022101889e+18,79.74988899739583,-1.8005990187327068,0.1443669652411092,2.066601117451986,1.688702022101889e+18,79.74988899739583,0.2893742298086484,-9.52572250366211,2.321838855743408,1.688702022101887e+18,79.74988708496093,0.4506658464670181,-0.4725042730569839,1.4617242217063904,1.688702022101887e+18,79.74988708496093,0.4494441002607345,-0.4679227694869041,1.463938593864441,,,,,,,,,,,,1.688702022097192e+18,79.74519189453125,-8.213039875030518,47.723959350585936,13.58347988128662,1.688702022097192e+18,79.74519189453125,-262.75383911132815,143.18895874023437,-119.6283172607422,1.688702022101889e+18,79.74988899739583,0.5126251379648844,-0.5979394316673279,-0.3565960029760996,0.5024345715840658,-1.4412461916605632,1.3307276169459026,-0.3835915029048919
4.8,1.6887020221537956e+18,79.80179541015626,-1.9734972318013508,9.7783842086792,-1.583714723587036,1.6887020221537956e+18,79.80179541015626,-1.5688940684000652,0.2227319081624348,0.7349953601757685,1.6887020221537956e+18,79.80179541015626,0.3987571199735005,-9.538147926330566,2.256022691726685,1.6887020221451456e+18,79.79314567057291,0.2472477083404858,-0.2491312076648076,0.0555887433389822,1.6887020221451456e+18,79.79314567057291,0.2460259770353635,-0.2446006288131077,0.0578285704056421,,,,,,,,,,,,1.6887020221471895e+18,79.79518969726561,-10.262639617919922,46.97243881225586,14.691239929199218,1.6887020221471895e+18,79.79518969726561,-264.8034301757813,142.43743896484375,-118.5205581665039,1.6887020221537956e+18,79.80179541015626,0.5225897630055746,-0.5970063805580139,-0.3501524726549784,0.4978292882442474,-1.3895349105199175,1.3361926476160686,-0.4556174079577128
4.85,1.6887020222057042e+18,79.85370426432291,31.724671363830566,-9.284056345621744,-0.8551854292551678,1.6887020222057042e+18,79.85370426432291,30.663823127746586,-18.71406654516856,1.721237023671468,1.6887020222057042e+18,79.85370426432291,-1.0666960974534352,-9.412506103515623,2.513735055923462,1.6887020221970532e+18,79.84505322265625,-1.5723670919736226,-9.182424783706663,-1.0915653705596924,1.6887020221970532e+18,79.84505322265625,-1.5736398100852966,-9.177945057551064,-1.089325586954753,,,,,,,,,,,,1.6887020221971932e+18,79.84519301757811,-9.01335973739624,48.02895889282227,11.658319854736328,1.6887020221971932e+18,79.84519301757811,-263.554150390625,143.49395446777345,-121.55347747802736,1.6887020222057042e+18,79.85370426432291,0.5396517912546793,-0.6928200523058573,-0.2634393374125163,0.3902333378791809,-1.9578519662221272,1.2875268459320068,-0.2085897326469421
4.9,1.688702022257607e+18,79.9056064453125,4.929916222890218,-13.477438926696776,6.285351753234863,1.688702022257607e+18,79.9056064453125,3.4861431121826167,-22.65943209330241,9.52642504374186,1.688702022257607e+18,79.9056064453125,-1.449619174003601,-9.164489110310871,3.1783852577209473,1.6887020222489551e+18,79.89695524088542,-1.7143933176994324,-0.5849543462196986,-0.5324708223342896,1.6887020222489551e+18,79.89695524088542,-1.7156659066677094,-0.5804238269726435,-0.53023099899292,1.6887020222316452e+18,79.87964526367188,0.0,0.0,1.2621268033981323,6.433000087738037,1.56093430519104,264.0726318359375,42.10000228881836,-122.7558148,49.1906085,1.688702022247193e+18,79.89519301757812,-13.241879653930663,48.355919647216794,2.784039902687073,1.688702022247193e+18,79.89519301757812,-267.7826782226563,143.8209197998047,-130.4277572631836,1.688702022257607e+18,79.9056064453125,0.5527561704317728,-0.7371115485827128,-0.1720274190107981,0.3482638895511627,-1.9941301345825195,1.2079782088597617,-0.3806166052818298
4.95,1.6887020223095186e+18,79.95751863606772,-0.1614043712615966,-1.0160369873046875,6.793705463409424,1.6887020223095186e+18,79.95751863606772,-1.8009978135426838,-10.161918958028158,10.04706335067749,1.6887020223095186e+18,79.95751863606772,-1.6454395055770874,-9.128377278645834,3.1906704107920327,1.6887020223008653e+18,79.94886507161458,0.8205956419308981,2.3847670555114746,-1.2476922671000164,1.6887020223008653e+18,79.94886507161458,0.8193739453951517,2.3892976144949594,-1.2454524437586467,,,,,,,,,,,,1.688702022297192e+18,79.94519204101562,-10.235799789428713,48.9463996887207,2.5619999408721923,1.688702022297192e+18,79.94519204101562,-264.77659301757814,144.41139526367186,-130.64979553222656,1.6887020223095186e+18,79.95751863606772,0.5214542547861735,-0.7303404013315836,-0.2223256180683771,0.3806908031304677,-2.0436154206593833,1.1974732875823977,-0.2001385067900021
5.0,1.6887020223527724e+18,80.0007723388672,-0.3123599886894226,5.145181179046631,0.4997878074645996,1.6887020223527724e+18,80.0007723388672,-2.2689940333366394,-3.9535412788391113,3.711267948150635,1.6887020223527724e+18,80.0007723388672,-1.962480068206787,-9.081217765808104,3.1487927436828613,1.688702022352771e+18,80.00077124023437,-0.0080939677621548,0.8832602386052409,-0.5545129477977753,1.688702022352771e+18,80.00077124023437,-0.0093156987956414,0.8878417223071059,-0.5522221674521764,,,,,,,,,,,,1.6887020223471928e+18,79.99519267578125,-6.883239841461181,49.48563919067383,4.4237199306488035,1.6887020223471928e+18,79.99519267578125,-261.4240295410156,144.9506378173828,-128.78807678222657,1.6887020223527724e+18,80.0007723388672,0.5027656853199005,-0.7346441149711609,-0.243901289999485,0.3847189545631408,-2.1258058547973633,1.1847429275512695,-0.0757092908024787
5.05,1.688702022396025e+18,80.04402522786458,-2.2223220268885293,2.125424067179362,1.2809786796569824,1.688702022396025e+18,80.04402522786458,-4.0592241287231445,-6.864011128743489,4.853441953659058,1.688702022396025e+18,80.04402522786458,-1.8427481651306152,-8.971930503845215,3.509775876998902,1.6887020224046702e+18,80.05267024739584,-0.8037968476613363,1.6458745797475178,-0.3456479112307231,1.6887020224046702e+18,80.05267024739584,-0.8050185839335123,1.6504560708999634,-0.3433571755886078,,,,,,,,,,,,1.688702022397192e+18,80.04519204101562,-6.021919918060303,49.58811950683594,4.721399784088135,1.688702022397192e+18,80.04519204101562,-260.5627075195313,145.05311584472656,-128.4903991699219,1.688702022396025e+18,80.04402522786458,0.4839044710000356,-0.7266190052032471,-0.2551929752031961,0.4153937498728433,-2.0526976585388184,1.1565192540486653,-0.0770992015798886
5.1,1.6887020224479332e+18,80.09593294270833,-1.8622087240219116,0.7727762858072916,0.5687236785888672,1.6887020224479332e+18,80.09593294270833,-3.671587069829305,-8.0063845316569,4.651048978169759,1.6887020224479332e+18,80.09593294270833,-1.815224289894104,-8.761656125386557,4.019637902577718,1.6887020224565832e+18,80.10458325195313,-0.7400123278299967,0.7074837783972422,-0.6903286278247833,1.6887020224565832e+18,80.10458325195313,-0.741284986337026,0.7120652596155802,-0.6880378723144531,,,,,,,,,,,,1.6887020224471898e+18,80.09518979492188,-4.004040002822876,49.79307861328125,2.452199912071228,1.6887020224471898e+18,80.09518979492188,-258.5448425292969,145.2580780029297,-130.7595977783203,1.6887020224479332e+18,80.09593294270833,0.4575061897436778,-0.724179228146871,-0.2594077189763387,0.4459714591503143,-1.9929412603378296,1.1063590447107952,-0.0723225151499112
5.15,1.688702022499838e+18,80.14783805338541,0.346956213315328,4.18996524810791,-1.9125016530354817,1.688702022499838e+18,80.14783805338541,-1.9986051321029663,-4.261218229929606,2.5645076433817544,1.688702022499838e+18,80.14783805338541,-2.3514073689778647,-8.4336789449056,4.4143218994140625,1.688702022508487e+18,80.15648689778645,-0.7078910072644552,0.8251262505849203,-2.460259755452474,1.688702022508487e+18,80.15648689778645,-0.7091127435366312,0.8296058972676595,-2.4580708344777427,,,,,,,,,,,,1.68870202249719e+18,80.14518984374999,-0.2098400115966797,49.915079498291014,0.98087996840477,1.68870202249719e+18,80.14518984374999,-254.75064086914065,145.38007507324218,-132.2309143066406,1.688702022499838e+18,80.14783805338541,0.4158999224503835,-0.7388902306556702,-0.2702881594498952,0.4556703964869181,-2.057236989339193,1.037291447321574,0.0381491749236981
5.2,1.6887020225517445e+18,80.19974462890626,1.7399794658025105,1.9448822339375815,-2.4314701557159424,1.6887020225517445e+18,80.19974462890626,-1.4259229103724165,-5.9886368115743,2.472982168197632,1.6887020225517445e+18,80.19974462890626,-3.171748399734497,-7.916014353434245,4.8417649269104,1.6887020225517445e+18,80.19974438476562,-0.7577019929885864,0.8694139420986176,-2.225687623023987,1.6887020225517445e+18,80.19974438476562,-0.7589237093925476,0.8739190995693207,-2.2234731912612915,,,,,,,,,,,,1.6887020225471903e+18,80.19519057617188,6.263479804992675,49.507599639892575,-1.2736799716949463,1.6887020225471903e+18,80.19519057617188,-248.27731323242188,144.97259826660155,-134.4854766845703,1.6887020225517445e+18,80.19974462890626,0.3535587290922801,-0.7577114899953207,-0.2947058280309041,0.4623067080974579,-2.1495105425516763,0.9414840737978616,0.204004888733228
5.25,1.6887020226036524e+18,80.25165226236979,1.260866681734721,-3.029698371887207,-2.4729259808858237,1.6887020226036524e+18,80.25165226236979,-2.4825535217920938,-10.339386622111002,2.967299461364746,1.6887020226036524e+18,80.25165226236979,-3.7492662270863857,-7.292183558146159,5.3775380452473955,1.688702022594996e+18,80.24299593098958,-1.3614659309387207,0.3675881698727608,-1.69566011428833,1.688702022594996e+18,80.24299593098958,-1.3626876672108967,0.3721187487244606,-1.6934202909469604,,,,,,,,,,,,1.688702022597189e+18,80.24518911132813,10.99219970703125,48.42667922973633,-4.152879905700684,1.688702022597189e+18,80.24518911132813,-243.54859619140623,143.8916748046875,-137.36467590332032,1.6887020226036524e+18,80.25165226236979,0.2998616397380829,-0.7754064003626505,-0.2987465461095173,0.4683487514654795,-2.1790640354156494,0.8405704895655314,0.2768082618713378
5.3,1.6887020226555564e+18,80.30355647786457,1.8322731653849285,-9.74454911549886,-0.6436767578125001,1.6887020226555564e+18,80.30355647786457,-3.1908289392789206,-16.091732025146484,4.889533678690593,1.6887020226555564e+18,80.30355647786457,-5.028948148091634,-6.329678535461426,5.470523039499919,1.688702022646902e+18,80.29490185546875,-2.1559470891952515,-3.828088939189911,-2.2699753046035767,1.688702022646902e+18,80.29490185546875,-2.157168745994568,-3.823609252770742,-2.267684578895569,,,,,,,,,,,,1.6887020226471908e+18,80.29519072265626,15.047479629516602,47.084679412841794,-7.778719902038574,1.6887020226471908e+18,80.29519072265626,-239.49331665039065,142.54967651367187,-140.99051818847656,1.6887020226555564e+18,80.30355647786457,0.2559347450733184,-0.8272934158643087,-0.2651959707339604,0.4203463196754455,-2.308963139851888,0.704599936803182,0.2946878274281819
5.35,1.688702022707458e+18,80.35545825195312,22.40813096364339,-12.05341943105062,-0.5769708951314291,1.688702022707458e+18,80.35545825195312,16.447863578796387,-17.073587735493977,5.348756154378255,1.688702022707458e+18,80.35545825195312,-5.9661149978637695,-5.002664089202881,5.863039652506511,1.6887020226988076e+18,80.3468076985677,-0.1902845203876494,3.6473236083984375,-2.8357890844345093,1.6887020226988076e+18,80.3468076985677,-0.1915571788946787,3.6518541971842455,-2.8334983587265015,,,,,,,,,,,,1.68870202269719e+18,80.345190234375,26.147039031982423,42.187599182128906,-8.815719985961914,1.68870202269719e+18,80.345190234375,-228.3937561035156,137.65259704589843,-142.02752075195312,1.688702022707458e+18,80.35545825195312,0.1698837081591288,-0.8543157776196798,-0.2697000652551651,0.4046623309453328,-2.3644021352132163,0.5370007753372192,0.3870883584022522
5.4,1.6887020227593654e+18,80.40736507161459,-2.5996522903442383,-5.616974671681722,-6.994104703267415,1.6887020227593654e+18,80.40736507161459,-6.726224581400554,-11.087143580118816,0.0961117117355267,1.6887020227593654e+18,80.40736507161459,-4.132418314615886,-5.452664216359456,7.027529080708821,1.6887020227507162e+18,80.39871638997396,0.6862052877744039,2.8603256940841675,0.8773552179336548,1.6887020227507162e+18,80.39871638997396,0.6849835515022278,2.8649071554342904,0.87964595357577,1.6887020227507177e+18,80.3987177734375,0.0,0.0,1.2621268033981323,6.15500020980835,1.547463059425354,264.31427001953125,42.10000228881836,-122.7558296,49.1906083,1.6887020227471903e+18,80.39519038085938,22.101519775390624,42.40963897705078,-15.210959815979004,1.6887020227471903e+18,80.39519038085938,-232.43927612304688,137.87463989257813,-148.42276000976562,1.6887020227593654e+18,80.40736507161459,0.1559776266415913,-0.7865148584047953,-0.302873283624649,0.5149738589922587,-2.1021616458892822,0.5911190311113993,0.389987846215566
5.45,1.6887020228026235e+18,80.45062353515625,6.4747962951660165,-7.867307424545288,-7.454858541488648,1.6887020228026235e+18,80.45062353515625,2.4804598093032837,-13.801502227783203,-0.6693921387195587,1.6887020228026235e+18,80.45062353515625,-4.000182747840881,-5.916690349578857,6.722779035568237,1.6887020228026268e+18,80.4506268717448,0.5052873839934667,-1.8564703861872356,1.7842355767885845,1.6887020228026268e+18,80.4506268717448,0.5040656377871832,-1.85188893477122,1.7865263223648071,,,,,,,,,,,,1.6887020227971886e+18,80.44518872070311,17.977919387817384,44.24695892333985,-14.708319664001465,1.6887020227971886e+18,80.44518872070311,-236.56287231445313,139.71195373535156,-147.9201171875,1.6887020228026235e+18,80.45062353515625,0.2017957940697669,-0.7898164391517639,-0.2823215126991272,0.5055146664381027,-2.107432246208191,0.6490140855312347,0.3086817413568496
5.5,1.6887020228458744e+18,80.49387451171874,5.87261430422465,-8.98724619547526,-2.753143628438314,1.6887020228458744e+18,80.49387451171874,2.4632113774617506,-15.797016461690268,3.4689945379892984,1.6887020228458744e+18,80.49387451171874,-3.4152491092681885,-6.79226557413737,6.159450848897298,1.688702022854522e+18,80.50252229817708,3.7907243569691977,2.2455406188964844,2.368833581606547,1.688702022854522e+18,80.50252229817708,3.7894516785939536,2.250071167945862,2.3710734446843467,,,,,,,,,,,,1.688702022847192e+18,80.49519208984375,14.659519577026368,46.2794792175293,-10.772599792480468,1.688702022847192e+18,80.49519208984375,-239.8812744140625,141.74447631835938,-143.9843963623047,1.6887020228458744e+18,80.49387451171874,0.2509997238715489,-0.7619679967562357,-0.3038936654726664,0.5124746263027191,-2.073937177658081,0.768257737159729,0.2885359426339467
5.55,1.6887020228977846e+18,80.54578458658854,2.200614333152771,-8.151341438293457,2.7404305140177407,1.6887020228977846e+18,80.54578458658854,-0.0652044018109639,-16.4031982421875,7.606783231099446,1.6887020228977846e+18,80.54578458658854,-2.2716646989186606,-8.234352906545004,4.8036651611328125,1.6887020229064356e+18,80.5544356282552,2.728073239326477,-0.1837177152434984,0.9055059353510538,1.6887020229064356e+18,80.5544356282552,2.7267497380574546,-0.1791871438423792,0.9076948761940002,,,,,,,,,,,,1.68870202289719e+18,80.54518989257812,8.664439868927001,48.97567901611328,-2.6522799372673034,1.68870202289719e+18,80.54518989257812,-245.87635498046876,144.4406768798828,-135.86407775878905,1.6887020228977846e+18,80.54578458658854,0.3344866832097371,-0.6979069511095682,-0.3579780062039693,0.5219070911407471,-2.012972950935364,0.9990327755610148,0.283030887444814
5.6,1.6887020229496906e+18,80.59769051106771,3.6327157020568848,-3.616204420725504,7.761236826578776,1.6887020229496906e+18,80.59769051106771,1.8362919489542644,-12.383854071299234,11.866605758666992,1.6887020229496906e+18,80.59769051106771,-1.8022698163986208,-8.750145276387533,4.042681058247884,1.688702022958338e+18,80.606337890625,1.6419039964675903,1.0126618544260662,1.0643308758735657,1.688702022958338e+18,80.606337890625,1.6406822204589844,1.0172433654467266,1.0665707389513652,,,,,,,,,,,,1.688702022947191e+18,80.59519106445313,6.700239944458008,49.40755844116211,3.4233199834823607,1.688702022947191e+18,80.59519106445313,-247.8405548095703,144.8725555419922,-129.7884780883789,1.6887020229496906e+18,80.59769051106771,0.3702361782391866,-0.6668781836827596,-0.3828600148359934,0.5209279457728068,-1.9880553086598711,1.1036924123764038,0.2800388435522715
5.65,1.688702023001598e+18,80.6495977376302,-0.8939471046129862,6.036128997802734,1.4027663866678874,1.688702023001598e+18,80.6495977376302,-2.0380866726239524,-3.142374277114868,4.76969313621521,1.688702023001598e+18,80.6495977376302,-1.149985611438751,-9.160998662312826,3.304239352544149,1.688702023001597e+18,80.64959655761719,1.8396207094192505,0.5409211814403534,0.9988410174846648,1.688702023001597e+18,80.64959655761719,1.8383989334106443,0.5453499555587769,1.0010554492473602,,,,,,,,,,,,1.688702022997192e+18,80.64519194335938,3.733199882507324,48.961038970947264,7.376119899749756,1.688702022997192e+18,80.64519194335938,-250.8075927734375,144.42603759765626,-125.83567657470704,1.688702023001598e+18,80.6495977376302,0.4039919078350067,-0.6279381910959879,-0.40473406513532,0.5277125835418701,-1.903462012608846,1.2074031035105388,0.2314485609531402
5.7,1.6887020230535017e+18,80.701501953125,-5.087592045466105,9.258373578389486,0.3467531998952229,1.6887020230535017e+18,80.701501953125,-5.620142141977946,-0.1828515275071065,3.068396250406901,1.6887020230535017e+18,80.701501953125,-0.5383962492148081,-9.423720359802246,2.6589556535085044,1.688702023044848e+18,80.69284806315103,1.315956433614095,-0.317039077480634,1.6478599309921265,1.688702023044848e+18,80.69284806315103,1.3147347370783489,-0.3125084986289342,1.650048812230428,,,,,,,,,,,,1.6887020230471882e+18,80.69518837890625,0.1585999965667724,48.57795867919922,12.212199783325197,1.6887020230471882e+18,80.69518837890625,-254.38219299316407,144.04295654296874,-120.99959716796874,1.6887020230535017e+18,80.701501953125,0.4422122935454051,-0.5995995799700419,-0.409194936354955,0.5264917810757955,-1.7640332380930583,1.291482130686442,0.0860317138334115
5.75,1.6887020231054093e+18,80.75340942382813,-1.4127562840779622,9.733421961466473,-0.3567400773366292,1.6887020231054093e+18,80.75340942382813,-1.221336563428243,0.1924228246013322,2.0480568408966064,1.6887020231054093e+18,80.75340942382813,0.1855736739623049,-9.523494720458984,2.342109521230062,1.688702023096757e+18,80.7447568359375,0.5937101145585378,-0.94724835952123,1.7168368101119995,1.688702023096757e+18,80.7447568359375,0.5924883882204691,-0.9427177906036376,1.7190766334533691,,,,,,,,,,,,1.688702023097192e+18,80.7451919921875,-5.719359922409057,47.81667938232422,14.395999717712405,1.688702023097192e+18,80.7451919921875,-260.26015014648436,143.28167419433595,-118.8157974243164,1.6887020231054093e+18,80.75340942382813,0.4890625476837158,-0.5867263476053873,-0.3817616601785024,0.5203230381011963,-1.4863920609156291,1.3299773931503296,-0.2596007337172826
5.8,1.6887020231573156e+18,80.80531567382813,-1.2749513387680054,9.501805305480955,-1.357743779818217,1.6887020231573156e+18,80.80531567382813,-1.058425212899844,-0.0392821778853734,1.0446664988994598,1.6887020231573156e+18,80.80531567382813,0.2106800687809784,-9.52358309427897,2.3397228717803955,1.6887020231486646e+18,80.79666446940105,0.1036434670289357,-0.9204212228457131,-0.0510072559118271,1.6887020231486646e+18,80.79666446940105,0.1023199334740638,-0.915890614191691,-0.0487674151857694,,,,,,,,,,,,1.688702023147187e+18,80.79518696289063,-7.817759799957275,47.35307922363281,15.39883975982666,1.688702023147187e+18,80.79518696289063,-262.3585571289062,142.81807556152344,-117.81295623779296,1.6887020231573156e+18,80.80531567382813,0.5018141468365988,-0.5946125785509745,-0.3674509425957997,0.5093939900398254,-1.474824587504069,1.3301019668579102,-0.3176192343235016
5.85,1.6887020232092173e+18,80.85721736653646,26.260947704315186,-8.923139731089273,-0.4944801330566406,1.6887020232092173e+18,80.85721736653646,25.04049078623454,-18.30230212211609,2.1912272398670516,1.6887020232092173e+18,80.85721736653646,-1.2263050079345703,-9.361658414204916,2.6230199337005615,1.6887020232005663e+18,80.84856616210938,-1.6756033897399902,-8.802364508310953,-0.8473719755808512,1.6887020232005663e+18,80.84856616210938,-1.6768250664075215,-8.797783056894938,-0.845132072766622,,,,,,,,,,,,1.6887020231971917e+18,80.84519194335937,-7.398079776763916,48.28272018432617,12.402519798278808,1.6887020231971917e+18,80.84519194335937,-261.9388732910156,143.74772033691406,-120.80927734375,1.6887020232092173e+18,80.85721736653646,0.5217561721801758,-0.6922322710355123,-0.279782955845197,0.4042248825232188,-1.993390440940857,1.2700628836949666,-0.1222457662224769
5.9,1.6887020232524756e+18,80.9004757080078,10.477959632873535,-19.41502285003662,8.842065334320068,1.6887020232524756e+18,80.9004757080078,8.853742837905884,-28.53650379180908,12.17019510269165,1.6887020232524756e+18,80.9004757080078,-1.6300628781318665,-9.10397720336914,3.265441656112671,1.6887020232524787e+18,80.900478515625,-1.7860682271420956,-1.4254031976064043,-0.364635686079661,1.6887020232524787e+18,80.900478515625,-1.7872899087766807,-1.4208726088205974,-0.3624467055002848,1.688702023269778e+18,80.91777783203125,0.0,0.0,1.271722674369812,5.882999897003174,1.5360015630722046,264.40191650390625,42.10000228881836,-122.7558382,49.1906079,1.688702023247189e+18,80.89518906250001,-11.428959846496582,48.74143905639649,3.806399941444397,1.688702023247189e+18,80.89518906250001,-265.9697570800781,144.20643615722656,-129.4053955078125,1.6887020232524756e+18,80.9004757080078,0.5439573526382446,-0.7433877289295197,-0.1717056334018707,0.3491602689027786,-2.0296483039855957,1.1909675598144531,-0.3430116027593612
5.95,1.6887020232957263e+18,80.94372615559895,-0.4554147322972615,-6.449405670166016,9.280325253804524,1.6887020232957263e+18,80.94372615559895,-2.0971097350120544,-15.535799980163576,12.697513262430826,1.6887020232957263e+18,80.94372615559895,-1.6475410064061482,-9.06888993581136,3.354500691095988,1.6887020233043732e+18,80.95237320963541,1.194648802280426,5.318650881449382,-1.0671306649843852,1.6887020233043732e+18,80.95237320963541,1.1933761437733967,5.3231306076049805,-1.0648908217748003,,,,,,,,,,,,1.68870202329719e+18,80.94518979492187,-9.128039932250976,49.266038513183595,3.896679925918579,1.68870202329719e+18,80.94518979492187,-263.6688293457031,144.73103942871094,-129.31511688232422,1.6887020232957263e+18,80.94372615559895,0.5135061144828796,-0.7296651403109232,-0.2226825803518295,0.3904671768347422,-2.0236190954844155,1.1813306013743083,-0.2016422152519226
6.0,1.6887020233476344e+18,80.99563452148438,-1.1625980138778689,7.883459409077962,-0.7661900520324707,1.6887020233476344e+18,80.99563452148438,-2.687738060951233,-1.2576277355353038,2.5591238339742026,1.6887020233476344e+18,80.99563452148438,-1.5309860706329346,-9.12358283996582,3.2626264890034995,1.6887020233562796e+18,81.0042793782552,0.8195775349934896,2.134363174438477,-1.1590149799982707,1.6887020233562796e+18,81.0042793782552,0.8183049162228903,2.138944705327352,-1.156775136788686,,,,,,,,,,,,1.6887020233471928e+18,80.99519291992188,-4.7946000576019285,49.20503921508789,8.183759784698486,1.6887020233471928e+18,80.99519291992188,-259.335400390625,144.67003784179687,-125.02803649902344,1.6887020233476344e+18,80.99563452148438,0.4736226300398509,-0.6958481669425964,-0.3047108948230743,0.4453103741010029,-2.007389545440674,1.1964083909988403,0.006309806369245
6.05,1.68870202339954e+18,81.04754020182291,0.1795785427093505,6.770689805348714,-0.0852667093276976,1.68870202339954e+18,81.04754020182291,-1.5288142760594683,-2.320240410665671,3.286143104235331,1.68870202339954e+18,81.04754020182291,-1.7142388423283894,-9.07342561086019,3.308722416559855,1.6887020234081938e+18,81.05619384765625,-0.775900661945343,2.4014639059702554,-0.9159415364265442,1.6887020234081938e+18,81.05619384765625,-0.7771223982175192,2.4059945742289224,-0.9136507709821066,,,,,,,,,,,,1.68870202339719e+18,81.04518989257812,-0.9808799758553504,49.16599807739258,10.11623992919922,1.68870202339719e+18,81.04518989257812,-255.5216735839844,144.63099670410156,-123.0955581665039,1.68870202339954e+18,81.04754020182291,0.4391800661881764,-0.6826590696970621,-0.3472415109475453,0.4692413508892059,-2.0477797190348306,1.1832138697306316,0.1645265271266301
6.1,1.6887020234514463e+18,81.09944677734376,-0.966812252998352,-1.3857316970825195,3.3289288679758706,1.6887020234514463e+18,81.09944677734376,-2.4634108940760293,-10.061021486918133,7.737590789794922,1.6887020234514463e+18,81.09944677734376,-1.5024446646372478,-8.657785097757975,4.345974365870158,1.6887020234514488e+18,81.09944885253907,-2.2072088718414307,2.924211859703064,-0.3360522463917731,1.6887020234514488e+18,81.09944885253907,-2.208430588245392,2.928717017173767,-0.3337615132331847,,,,,,,,,,,,1.6887020234471928e+18,81.0951927734375,1.5689199566841123,49.55639877319336,6.792959880828858,1.6887020234471928e+18,81.0951927734375,-252.971875,145.02139892578126,-126.41883544921876,1.6887020234514463e+18,81.09944677734376,0.3787195881207784,-0.6710252364476522,-0.3545366624991099,0.5291430552800497,-1.905215541521708,1.084190845489502,0.1631897290547688
6.15,1.688702023503356e+18,81.15135587565105,-1.5780946016311646,3.961144765218099,-1.3800090154012044,1.688702023503356e+18,81.15135587565105,-2.8935207525889077,-4.373282114664714,3.7096726099650064,1.688702023503356e+18,81.15135587565105,-1.3212722142537434,-8.316922187805176,5.026994228363037,1.6887020234946967e+18,81.14269669596355,-0.9909252127011616,1.2454015811284382,-0.7303911969065666,1.6887020234946967e+18,81.14269669596355,-0.9921469489733378,1.2498811880747478,-0.7281513685981432,,,,,,,,,,,,1.688702023497191e+18,81.14519052734374,3.315959930419922,49.763798522949216,2.823079967498779,1.688702023497191e+18,81.14519052734374,-251.2248382568359,145.22879943847656,-130.388720703125,1.688702023503356e+18,81.15135587565105,0.3356506327788035,-0.6628666917483012,-0.3569522400697072,0.5659952958424886,-1.8262624740600584,1.0143828590710957,0.1768868714570999
6.2,1.6887020235552648e+18,81.20326497395833,-0.3884201049804687,0.9404959678649902,-3.2255229155222573,1.6887020235552648e+18,81.20326497395833,-2.404188553492228,-6.848058859507243,2.463211456934611,1.6887020235552648e+18,81.20326497395833,-2.0216144720713296,-7.771050135294597,5.626046975453694,1.6887020235466063e+18,81.19460620117188,-1.6155858437220256,-0.4078543533881505,-1.6479108333587646,1.6887020235466063e+18,81.19460620117188,-1.6168075799942017,-0.40327288210392,-1.645670970280965,,,,,,,,,,,,1.688702023547189e+18,81.19518901367186,6.849079895019531,49.507598876953125,-0.480679976940155,1.688702023547189e+18,81.19518901367186,-247.69171447753905,144.97259826660155,-133.69247436523438,1.6887020235552648e+18,81.20326497395833,0.2866167724132538,-0.6905314326286316,-0.3543738027413686,0.5613854130109152,-1.9139902989069624,0.9170855085055032,0.2783138950665791
6.25,1.688702023607167e+18,81.25516691080729,-0.0835873285929361,-4.177713553110759,-3.357851505279541,1.688702023607167e+18,81.25516691080729,-3.1012975374857583,-11.281161626180014,2.764707088470459,1.688702023607167e+18,81.25516691080729,-3.0235562324523926,-7.085943380991618,6.059871196746826,1.688702023598515e+18,81.24651497395833,-2.028530716896057,-2.3839016358057656,-0.8716537952423096,1.688702023598515e+18,81.24651497395833,-2.029803435007731,-2.379371007283529,-0.8693630695343018,,,,,,,,,,,,1.688702023597192e+18,81.24519204101563,10.352919769287109,48.36567840576172,-4.492039966583252,1.688702023597192e+18,81.24519204101563,-244.18787536621093,143.83067932128907,-137.7038360595703,1.688702023607167e+18,81.25516691080729,0.2579786678155263,-0.7408904631932577,-0.3227117955684661,0.528835117816925,-2.0317607720692954,0.8098394473393759,0.3017821113268534
6.3,1.6887020236590694e+18,81.30706949869791,8.7866579691569,-10.466529528299969,-1.3489050070444744,1.6887020236590694e+18,81.30706949869791,3.807778596878052,-16.477774302164715,4.555535554885864,1.6887020236590694e+18,81.30706949869791,-4.9847252368927,-5.993740558624268,5.841753164927165,1.6887020236504177e+18,81.29841756184896,-2.537890593210856,-6.125655015309651,-2.1148664355278015,1.6887020236504177e+18,81.29841756184896,-2.539112329483032,-6.121175289154053,-2.112626592318217,,,,,,,,,,,,1.6887020236471905e+18,81.29519033203125,14.26911964416504,47.03587875366211,-8.173999977111816,1.6887020236471905e+18,81.29519033203125,-240.2716735839844,142.5008758544922,-141.38580017089845,1.6887020236590694e+18,81.30706949869791,0.2337751785914103,-0.8275838096936544,-0.2592155784368515,0.4348714152971903,-2.27075990041097,0.6608790159225464,0.2859344283739726
6.35,1.6887020237023227e+18,81.35032263183594,20.07386779785157,-13.56680679321289,1.721165895462036,1.6887020237023227e+18,81.35032263183594,13.695321083068848,-17.61117458343506,7.99681305885315,1.6887020237023227e+18,81.35032263183594,-6.384393215179443,-4.026864290237427,6.21295952796936,1.6887020237023286e+18,81.35032885742187,0.1813760995864868,5.575163284937541,-5.300223271052043,1.6887020237023286e+18,81.35032885742187,0.1801034758488337,5.579694191614787,-5.297983447710673,,,,,,,,,,,,1.6887020236971942e+18,81.3451943359375,28.264959716796874,39.95255966186524,-11.297199821472168,1.6887020236971942e+18,81.3451943359375,-226.2758361816406,135.4175598144531,-144.50899963378907,1.6887020237023227e+18,81.35032263183594,0.1086952835321426,-0.8647386133670807,-0.2770581692457199,0.4010550379753113,-2.37065052986145,0.4251623302698135,0.4468196481466293
6.4,1.6887020237455828e+18,81.39358268229167,-4.2051098346710205,-5.891872882843018,-8.289179166158041,1.6887020237455828e+18,81.39358268229167,-8.182456493377686,-10.399606068929035,-0.4995017250378926,1.6887020237455828e+18,81.39358268229167,-3.983192602793375,-4.490228652954102,7.7269900639851885,1.6887020237542318e+18,81.40223177083332,1.1114184459050496,3.561140775680542,1.3319407701492307,1.6887020237542318e+18,81.40223177083332,1.1101966500282288,3.565620501836141,1.3341805934906006,,,,,,,,,,,,1.6887020237472005e+18,81.3952001953125,24.4097599029541,39.46699905395508,-18.446399688720703,1.6887020237472005e+18,81.3952001953125,-230.13103637695312,134.93199462890624,-151.65819702148437,1.6887020237455828e+18,81.39358268229167,0.0699989870190619,-0.7723085482915243,-0.3252416650454203,0.5398003657658895,-2.0456623236338296,0.477670818567276,0.5008511245250702
6.45,1.6887020237974838e+18,81.44548380533854,7.172436714172363,-12.022306760152182,-7.098461469014485,1.6887020237974838e+18,81.44548380533854,3.4029928048451743,-17.061423619588215,0.4887339870134989,1.6887020237974838e+18,81.44548380533854,-3.77528969446818,-5.021612644195557,7.524508158365886,1.6887020238061402e+18,81.45414005533854,1.323643187681834,-1.9922860860824585,2.0359120766321817,1.6887020238061402e+18,81.45414005533854,1.3224214216073351,-1.987755576769511,2.038100997606913,1.6887020237888353e+18,81.43683544921875,0.0,0.0,1.271722674369812,5.659999847412109,1.5316081047058103,264.5227966308594,42.10000228881836,-122.75585,49.1906071,1.68870202379719e+18,81.44518989257813,21.596439361572266,41.89967880249024,-17.223959922790527,1.68870202379719e+18,81.44518989257813,-232.9443542480469,137.36467895507812,-150.43575744628907,1.6887020237974838e+18,81.44548380533854,0.1171353707710901,-0.7734569112459818,-0.3061703940232594,0.5416674812634786,-2.03614072004954,0.5394747455914816,0.4166102011998494
6.5,1.6887020238493908e+18,81.4973907063802,1.2041038672129314,-8.012727419535318,-2.495098034540812,1.6887020238493908e+18,81.4973907063802,-1.7391832669576008,-14.66680653889974,4.1098722616831465,1.6887020238493908e+18,81.4973907063802,-2.9491331577301025,-6.6365742683410645,6.542282899220784,1.688702023858046e+18,81.5060458984375,4.846910317738851,1.37561763326327,2.4776185353597007,1.688702023858046e+18,81.5060458984375,4.845637798309326,1.380148192246755,2.479756514231364,,,,,,,,,,,,1.6887020238471898e+18,81.49518974609376,16.592000007629395,45.43035888671875,-10.82871961593628,1.6887020238471898e+18,81.49518974609376,-237.94879760742188,140.89535827636718,-144.04052124023437,1.6887020238493908e+18,81.4973907063802,0.2031425287326176,-0.727891186873118,-0.3453064759572347,0.5548134048779806,-1.9914740324020384,0.7478630741437277,0.3864843845367431
6.55,1.6887020239013018e+18,81.54930183919271,2.7320428689320884,-8.963169733683268,3.75620444615682,1.6887020239013018e+18,81.54930183919271,0.374875545501709,-17.10589090983073,8.766504764556885,1.6887020239013018e+18,81.54930183919271,-2.3630133469899497,-8.12521743774414,4.947612603505452,1.6887020239012923e+18,81.54929248046875,2.671848237514496,-2.1929298639297485,0.9251554012298584,1.6887020239012923e+18,81.54929248046875,2.6706265211105347,-2.1884247064590454,0.9273697733879088,,,,,,,,,,,,1.6887020238971914e+18,81.54519145507813,11.287439727783203,48.50231857299805,-0.783239996433258,1.6887020238971914e+18,81.54519145507813,-243.25335083007812,143.96731567382812,-133.9950378417969,1.6887020239013018e+18,81.54930183919271,0.3008269667625427,-0.6852030952771505,-0.3879254659016927,0.5375646551450094,-2.017638683319092,0.9786516427993774,0.3836784660816192
6.6,1.688702023953204e+18,81.60120377604166,3.2009074091911316,-2.325244903564453,8.013067722320557,1.688702023953204e+18,81.60120377604166,1.332004646460215,-11.018748919169107,12.234302520751951,1.688702023953204e+18,81.60120377604166,-1.8747487862904864,-8.675999323527018,4.1585469245910645,1.6887020239445522e+18,81.59255208333333,1.5262468258539836,-0.0396044254302978,1.7953838507334392,1.6887020239445522e+18,81.59255208333333,1.5250250895818074,-0.0351247588793436,1.7976746161778767,,,,,,,,,,,,1.6887020239471898e+18,81.59518984374999,8.559519863128662,48.89027862548828,4.431039810180664,1.6887020239471898e+18,81.59518984374999,-245.9812744140625,144.3552734375,-128.7807586669922,1.688702023953204e+18,81.60120377604166,0.356088787317276,-0.6649937629699707,-0.3907802899678548,0.527131974697113,-1.990662097930908,1.088103969891866,0.3135454853375752
