seconds_elapsed_rounded,accelerometer_time,accelerometer_seconds_elapsed,accelerometer_z,accelerometer_y,accelerometer_x,accelerometeruncalibrated_time,accelerometeruncalibrated_seconds_elapsed,accelerometeruncalibrated_z,accelerometeruncalibrated_y,accelerometeruncalibrated_x,gravity_time,gravity_seconds_elapsed,gravity_z,gravity_y,gravity_x,gyroscope_time,gyroscope_seconds_elapsed,gyroscope_z,gyroscope_y,gyroscope_x,gyroscopeuncalibrated_time,gyroscopeuncalibrated_seconds_elapsed,gyroscopeuncalibrated_z,gyroscopeuncalibrated_y,gyroscopeuncalibrated_x,location_time,location_seconds_elapsed,location_bearingAccuracy,location_speedAccuracy,location_verticalAccuracy,location_horizontalAccuracy,location_speed,location_bearing,location_altitude,location_longitude,location_latitude,magnetometer_time,magnetometer_seconds_elapsed,magnetometer_z,magnetometer_y,magnetometer_x,magnetometeruncalibrated_time,magnetometeruncalibrated_seconds_elapsed,magnetometeruncalibrated_z,magnetometeruncalibrated_y,magnetometeruncalibrated_x,orientation_time,orientation_seconds_elapsed,orientation_qz,orientation_qy,orientation_qx,orientation_qw,orientation_roll,orientation_pitch,orientation_yaw
0.05,,,,,,1.6887019424248758e+18,0.072875732421875,9.90269660949707,3.285345554351806,-0.5228317379951477,,,,,,1.688701942403249e+18,0.0512489013671875,2.2368358969688416,1.4573717713356018,0.36827538907527924,1.6887019424119014e+18,0.0599013671875,2.657111167907715,1.0106765031814575,0.3756821155548095,,,,,,,,,,,,1.6887019424121894e+18,0.060189453125,-39.56459999084473,-25.870100021362305,24.076699256896973,1.6887019424121894e+18,0.060189453125,-294.1053924560547,69.59490203857422,-109.13509750366211,,,,,,,,,
0.1,,,,,,1.688701942459488e+18,0.10748795572916665,8.148757616678873,4.719842592875163,-1.9860427379608154,,,,,,1.688701942446865e+18,0.09486505126953125,2.202589213848114,0.6794730424880981,0.07215845864266153,1.688701942446865e+18,0.09486505126953125,2.202245593070984,0.6829091683030128,0.0744492020457983,,,,,,,,,,,,1.6887019424471939e+18,0.0951939453125,-39.70855941772461,-28.35279960632324,22.672479248046876,1.6887019424471939e+18,0.0951939453125,-294.2493591308594,67.11219787597656,-110.53931884765625,,,,,,,,,
0.15000000000000002,1.6887019425027407e+18,0.15074064127604167,0.3508160909016927,-1.1900418599446614,1.3288610974947612,1.6887019425027395e+18,0.1507393798828125,8.97876787185669,3.385844111442566,-0.08943174034357075,1.6887019425027407e+18,0.15074064127604167,8.485615412394205,4.630080382029216,-1.6709105571111043,1.6887019425027407e+18,0.15074064127604167,1.1872165997823079,0.7513133486111959,-0.30639982720216113,1.6887019425027407e+18,0.15074064127604167,1.1862493753433228,0.7558439373970032,-0.3040072719256082,,,,,,,,,,,,1.688701942497194e+18,0.145193896484375,-38.14451904296875,-30.138879776000977,22.269879150390626,1.688701942497194e+18,0.145193896484375,-292.68531494140626,65.32611846923828,-110.9419174194336,1.6887019425027407e+18,0.15074064127604167,0.7995276053746542,0.25109465916951496,0.06634839127461113,0.5414776007334391,0.1894312351942062,-0.4931881030400594,-1.9031929175059001
0.2,1.6887019425546488e+18,0.20264892578125002,-0.04032198588053385,-1.404643217722575,1.203949213027954,1.6887019425460006e+18,0.19400040690104167,8.364510218302408,3.2969107627868652,-0.47617170214653015,1.6887019425546488e+18,0.20264892578125002,8.452425956726074,4.638101259867351,-1.8102061748504639,1.6887019425546488e+18,0.20264892578125002,1.0687596400578816,0.875624418258667,0.046527571976184866,1.6887019425546488e+18,0.20264892578125002,1.0677415529886882,0.8801041046778361,0.048920128494501135,,,,,,,,,,,,1.688701942547198e+18,0.195198046875,-38.35191879272461,-30.38531913757324,21.603759765625,1.688701942547198e+18,0.195198046875,-292.89271240234376,65.07967681884766,-111.60803680419922,1.6887019425546488e+18,0.20264892578125002,0.8169957002003988,0.2576042612393697,0.05164563531676924,0.5132207671801249,0.20588415364424384,-0.4938345154126485,-1.9677626291910808
0.25,1.6887019426065672e+18,0.2545669759114583,0.9435065587361654,-1.3560506502787273,0.5244788924853008,1.6887019425979085e+18,0.24590861002604167,8.968299547831217,3.620938777923584,-1.1700902581214905,1.6887019426065672e+18,0.2545669759114583,8.205586751302084,5.026996453603108,-1.8996295134226482,1.6887019426065672e+18,0.2545669759114583,0.6390159577131271,0.5210680464903513,0.9742282629013062,1.6887019426065672e+18,0.2545669759114583,0.6380487332741419,0.5255477428436279,0.9766207933425903,,,,,,,,,,,,1.6887019425971912e+18,0.24519130859375,-37.19779891967774,-32.23971862792969,21.40855941772461,1.6887019425971912e+18,0.24519130859375,-291.7386047363281,63.22527923583984,-111.80323944091796,1.6887019426065672e+18,0.2545669759114583,0.825006902217865,0.2808264990647633,0.051359670857588434,0.4876320163408914,0.22222793102264404,-0.5392626523971558,-2.0122803846995034
0.30000000000000004,1.6887019426584696e+18,0.3064697265625,1.5075753529866536,-1.1915381749471028,0.782568097114563,1.6887019426498191e+18,0.297819091796875,9.511669476826986,4.0372900168101,-1.1403793891270955,1.6887019426584696e+18,0.3064697265625,8.038327852884928,5.235565026601155,-2.049443523089091,1.6887019426584696e+18,0.3064697265625,0.3335324128468831,0.9016371220350266,-0.09300423165162404,1.6887019426584696e+18,0.3064697265625,0.33256521075963974,0.9061167786518732,-0.09056077897548674,,,,,,,,,,,,1.6887019426472023e+18,0.29520244140625,-35.60935897827149,-34.02091903686524,21.335359954833983,1.6887019426472023e+18,0.29520244140625,-290.1501525878906,61.444078063964845,-111.87643737792969,1.6887019426584696e+18,0.3064697265625,0.8256533145904541,0.29616960883140564,0.04762395471334454,0.47773346304893494,0.24423753221829725,-0.564093828201294,-2.021416982014974
0.35000000000000003,1.6887019427017226e+18,0.34972253417968746,1.627577304840088,-0.22878813743591309,0.025424480438232394,1.6887019427017247e+18,0.3497246907552083,9.414161841074625,4.48255451520284,-2.324826637903849,1.6887019427017226e+18,0.34972253417968746,8.015035629272461,5.074410676956177,-2.495590567588806,1.6887019427017226e+18,0.34972253417968746,0.6721044778823853,2.1021400690078735,-0.8942303657531738,1.6887019427017226e+18,0.34972253417968746,0.6710354685783386,2.1065688133239746,-0.8918632566928864,,,,,,,,,,,,1.688701942697196e+18,0.34519619140625,-34.22587966918945,-34.13803939819336,23.07995948791504,1.688701942697196e+18,0.34519619140625,-288.7666748046875,61.326959228515626,-110.1318374633789,1.6887019427017226e+18,0.34972253417968746,0.8376635313034058,0.3012448400259018,0.01460138685069975,0.45524467527866364,0.2964207679033279,-0.5446052253246307,-2.062670350074768
0.4,1.6887019427449756e+18,0.39297566731770833,-1.4123738606770833,-1.4099677403767903,0.9519570668538412,1.6887019427536333e+18,0.40163330078125,6.828717152277629,3.8600217501322427,-1.270987610022227,1.6887019427449756e+18,0.39297566731770833,7.808724244435628,5.144522825876872,-2.9598098595937095,1.6887019427449756e+18,0.39297566731770833,0.7823656598726908,1.4417946934700012,0.4919501493374507,1.6887019427449756e+18,0.39297566731770833,0.7813984553019205,1.4462234576543171,0.49439358711242676,,,,,,,,,,,,1.6887019427471954e+18,0.395195458984375,-32.01279907226562,-34.67728042602539,25.070999526977538,1.6887019427471954e+18,0.395195458984375,-286.5535949707031,60.78771896362305,-108.1407974243164,1.6887019427449756e+18,0.39297566731770833,0.8451427221298218,0.3179278572400411,-0.014429718876878397,0.42929887771606445,0.35698671142260235,-0.552858571211497,-2.0992565949757895
0.45,1.68870194279689e+18,0.44489013671874994,-2.1782919565836587,-1.4948893388112385,1.841050664583842,1.688701942805541e+18,0.45354134114583333,5.206183830897014,3.590231021245321,-1.5986049175262451,1.68870194279689e+18,0.44489013671874994,7.758490403493245,5.169025580088298,-3.046111504236857,1.68870194279689e+18,0.44489013671874994,0.24332798520723978,-0.20458895961443582,-1.1152363419532776,1.68870194279689e+18,0.44489013671874994,0.24225897093613943,-0.20010927319526672,-1.1128437221050262,,,,,,,,,,,,1.6887019427971978e+18,0.44519765624999996,-31.77611961364746,-35.29459991455078,25.241799545288085,1.6887019427971978e+18,0.44519765624999996,-286.31691284179686,60.17039947509765,-107.96999816894531,1.68870194279689e+18,0.44489013671874994,0.8518411119778951,0.3212335805098216,-0.0239468912283579,0.4128941198190053,0.3688088556130727,-0.5556732813517252,-2.1324524879455566
0.5,1.6887019428487977e+18,0.4967976888020833,1.498604456583659,-3.1600774129231772,1.8569533030192058,1.6887019428574467e+18,0.5054468587239583,9.979665438334147,1.1651052236557007,-0.6039882997671763,1.6887019428487977e+18,0.4967976888020833,8.362154324849447,4.39154052734375,-2.6342970530192056,1.6887019428487977e+18,0.4967976888020833,-0.46990808844566345,-1.2128220399220784,-1.7791450023651123,1.6887019428487977e+18,0.4967976888020833,-0.4709261953830719,-1.2083423535029094,-1.7767524321873982,,,,,,,,,,,,1.6887019428471982e+18,0.495198193359375,-35.828958892822264,-32.171400451660155,23.582599639892578,1.6887019428471982e+18,0.495198193359375,-290.3697509765625,63.29359893798828,-109.62919769287109,1.6887019428487977e+18,0.4967976888020833,0.8635086417198181,0.26944100856781,-0.020169924323757433,0.4255739152431488,0.3001931707064311,-0.46482155720392865,-2.1540013949076333
0.55,1.6887019429007014e+18,0.5487014973958333,-0.576268196105957,-2.6502097447713218,2.2630890210469565,1.6887019429093522e+18,0.5573522949218751,7.690332571665446,1.2025927702585857,0.14257235204180077,1.6887019429007014e+18,0.5487014973958333,8.756268501281738,3.8296290238698325,-2.2027454376220703,1.6887019429007014e+18,0.5487014973958333,-0.7968737284342448,-1.6308574279149373,-0.6351980268955231,1.6887019429007014e+18,0.5487014973958333,-0.7978409131368002,-1.6264287233352661,-0.6328054964542389,,,,,,,,,,,,1.6887019428971958e+18,0.545195947265625,-38.859439086914065,-29.077479934692384,22.39675941467285,1.6887019428971958e+18,0.545195947265625,-293.4002380371094,66.38751983642578,-110.81503753662109,1.6887019429007014e+18,0.5487014973958333,0.8632974028587341,0.2303532908360163,-0.007729033939540333,0.4487673540910085,0.2414939055840174,-0.4016738732655843,-2.133347431818644
0.6000000000000001,1.6887019429526095e+18,0.6006094563802084,-0.2903432846069337,-2.6680661042531333,1.0790108442306519,1.6887019429526124e+18,0.6006125488281251,9.050552368164062,0.9373882561922073,-0.17347963899374003,1.6887019429526095e+18,0.6006094563802084,9.110623041788736,3.420565923055013,-1.1817780335744221,1.6887019429526095e+18,0.6006094563802084,-0.4032219747702281,-2.5774949391682944,-1.1199195981025696,1.6887019429526095e+18,0.6006094563802084,-0.4041891743739445,-2.573066234588623,-1.1175270477930705,,,,,,,,,,,,1.6887019429472003e+18,0.59520029296875,-42.07047958374024,-26.959559631347656,19.00027961730957,1.6887019429472003e+18,0.59520029296875,-296.61126708984375,68.50543823242188,-114.21151733398438,1.6887019429526095e+18,0.6006094563802084,0.8588600158691406,0.1841446210940679,0.034564075991511296,0.47628120581309,0.12430087476968764,-0.3569591244061788,-2.106171449025472
0.65,1.6887019430045164e+18,0.652516357421875,-0.34130064646402997,-3.1105575561523438,1.2587862412134807,1.6887019429958697e+18,0.6438697102864582,9.332406997680664,-0.5328018466631571,0.5814559093366066,1.6887019430045164e+18,0.652516357421875,9.46506977081299,2.5234755674997964,-0.40462377667427063,1.6887019430045164e+18,0.652516357421875,0.13479759963229296,-1.1588114102681477,-2.1440351804097495,1.6887019430045164e+18,0.652516357421875,0.1337794911426802,-1.1542807817459106,-2.1416935125986734,,,,,,,,,,,,1.6887019429971958e+18,0.64519580078125,-45.56943893432617,-23.294679260253908,14.903520011901856,1.6887019429971958e+18,0.64519580078125,-300.1102294921875,72.17031860351562,-118.3082778930664,1.6887019430045164e+18,0.652516357421875,0.8634534279505411,0.12245498597621911,0.04780488957961393,0.48668662707010907,0.038075519104798596,-0.26100262502829236,-2.109808921813965
0.7000000000000001,1.688701943056423e+18,0.7044229329427084,0.028634707132975223,-2.496577342351278,1.417131503423055,1.688701943047776e+18,0.6957759602864583,9.39521884918213,-0.9086743791898092,1.9784655173619587,1.688701943056423e+18,0.7044229329427084,9.680379549662272,1.5162747701009114,0.3273603767156601,1.688701943056423e+18,0.7044229329427084,-0.4502585952480634,-1.740609606107076,-1.8825339476267497,1.688701943056423e+18,0.7044229329427084,-0.45122579981883365,-1.7361808220545452,-1.8800905148188274,,,,,,,,,,,,1.688701943047194e+18,0.69519404296875,-48.74387893676758,-18.441520309448244,12.136559677124023,1.688701943047194e+18,0.69519404296875,-303.28466796875,77.02347869873047,-121.07523803710937,1.688701943056423e+18,0.7044229329427084,0.8651091257731119,0.05816111092766119,0.05511895815531407,0.49478453397750854,-0.03837091848254196,-0.15597089876731232,-2.105231444040934
0.75,1.6887019431083348e+18,0.756334716796875,0.5405728022257487,-3.1209398905436196,-1.1371287405490875,1.6887019430996836e+18,0.7476835123697917,10.34696356455485,-2.258026957511902,0.2323032021522522,1.6887019431083348e+18,0.756334716796875,9.73833179473877,0.6195996602376302,0.9725469350814819,1.6887019431083348e+18,0.756334716796875,-0.799571692943573,-0.9281078974405924,-1.8424714008967082,1.6887019431083348e+18,0.756334716796875,-0.8005389173825582,-0.9236282507578532,-1.840027928352356,,,,,,,,,,,,1.688701943097202e+18,0.7452018554687501,-51.7206787109375,-13.656679725646972,8.44483985900879,1.688701943097202e+18,0.7452018554687501,-306.261474609375,81.80831756591797,-124.76695861816407,1.6887019431083348e+18,0.756334716796875,0.8542668422063192,0.0006499069665248334,0.06097316617767013,0.5160165429115295,-0.10409350444873171,-0.06416837995251017,-2.0580290953318277
0.8,1.6887019431515858e+18,0.799585693359375,-0.13814163208007815,-3.3439223766326904,-2.263178825378418,1.6887019431515791e+18,0.7995792643229166,9.684750239054361,-3.464009682337443,-1.0486545364061992,1.6887019431515858e+18,0.799585693359375,9.739179134368896,-0.1422636609058827,1.158417284488678,1.6887019431515858e+18,0.799585693359375,-0.4441753923892975,-0.18959729745984075,-1.8316794633865356,1.6887019431515858e+18,0.799585693359375,-0.4452444016933441,-0.18509216606616968,-1.8293123245239258,1.688701943151893e+18,0.79989306640625,0.0,0.0,0.9968845248222352,12.359000205993652,1.1944242715835571,249.01461791992188,41.80000305175781,-122.7540396,49.1905408,1.6887019431471946e+18,0.7951945800781249,-52.60151824951172,-8.71079978942871,6.8197998046875,1.6887019431471946e+18,0.7951945800781249,-307.14231567382814,86.75419769287109,-126.39199676513672,1.6887019431515858e+18,0.799585693359375,0.8461689352989197,-0.03824645839631555,0.048486916348338044,0.5292630791664124,-0.12290983274579045,0.01339973462745545,-2.0228686332702637
0.8500000000000001,1.68870194319484e+18,0.8428401692708333,0.4634450276692708,-2.6595667203267417,-2.7822797298431396,1.6887019432034988e+18,0.851498779296875,10.21236769358317,-3.5491541226704917,-1.9100706974665325,1.68870194319484e+18,0.8428401692708333,9.71057415008545,-0.9019933144251505,1.0214858849843342,1.68870194319484e+18,0.8428401692708333,-0.5291111171245575,0.807665670911471,-1.9058486620585124,1.68870194319484e+18,0.8428401692708333,-0.5301292240619659,0.8121453473965327,-1.9034051895141602,,,,,,,,,,,,1.688701943197194e+18,0.845194091796875,-53.318878936767575,-3.860080051422119,7.263879776000977,1.688701943197194e+18,0.845194091796875,-307.85967407226565,91.60491790771485,-125.94791717529297,1.68870194319484e+18,0.8428401692708333,0.8389607667922974,-0.06763301417231556,0.0211595650762319,0.5393232107162476,-0.1092772583166758,0.0908763284484545,-1.9941247304280598
0.9,1.6887019432467507e+18,0.8947506510416666,-0.2747964859008789,-2.1136111418406167,-2.953914006551107,1.6887019432554022e+18,0.9034020996093749,9.056035995483398,-4.217549244562785,-3.201596736907959,1.6887019432467507e+18,0.8947506510416666,9.62149715423584,-1.8481483062108357,-0.007079852744936943,1.6887019432467507e+18,0.8947506510416666,-0.8145888050397238,3.062267462412516,-1.8647679487864177,1.6887019432467507e+18,0.8947506510416666,-0.8156069119771322,3.0667980511983237,-1.8623754183451335,,,,,,,,,,,,1.6887019432471964e+18,0.8951963378906249,-51.79631881713867,1.449359953403473,12.766079521179199,1.6887019432471964e+18,0.8951963378906249,-306.3371154785156,96.91435852050782,-120.44571533203126,1.6887019432467507e+18,0.8947506510416666,0.8241511583328247,-0.0786280656854311,-0.05114477686583994,0.5578831831614176,-0.0035389475524425,0.18816764652729026,-1.9516872962315877
0.9500000000000001,1.6887019432986624e+18,0.9466622721354166,-0.7039028803507487,-2.3811606566111245,-3.2872157096862793,1.6887019433073103e+18,0.9553102213541665,8.530811309814453,-5.247659524281819,-5.319045225779216,1.6887019432986624e+18,0.9466622721354166,9.2021484375,-2.8366312185923257,-1.7718849976857503,1.6887019432986624e+18,0.9466622721354166,-0.7947865923245748,4.059352397918701,-2.0381010373433432,1.6887019432986624e+18,0.9466622721354166,-0.7957028945287069,4.063831965128581,-2.035708427429199,,,,,,,,,,,,1.6887019432971953e+18,0.9451951171875,-46.74307861328125,7.014999866485596,22.66515998840332,1.6887019432971953e+18,0.9451951171875,-301.28387451171875,102.47999877929688,-110.54663848876953,1.6887019432986624e+18,0.9466622721354166,0.7980074087778727,-0.0656176830331484,-0.1582933490475019,0.5768403013547262,0.18619379649559653,0.291918009519577,-1.91809078057607
1.0,1.6887019433505738e+18,0.9985738932291667,0.04177872339884442,-1.2535460789998372,-3.3767003218332925,1.6887019433592174e+18,1.00721728515625,8.24267578125,-5.228516737620036,-7.137790044148763,1.6887019433505738e+18,0.9985738932291667,8.228749752044678,-3.89684788386027,-3.593467950820923,1.6887019433505738e+18,0.9985738932291667,-0.5265149374802908,4.284201463063558,-2.228589137395223,1.6887019433505738e+18,0.9985738932291667,-0.5275330444176992,4.288732210795085,-2.226247469584147,,,,,,,,,,,,1.688701943347199e+18,0.995198974609375,-39.23031921386719,11.912079811096191,31.36863899230957,1.688701943347199e+18,0.995198974609375,-293.7711120605469,107.37707824707032,-101.84315948486328,1.6887019433505738e+18,0.9985738932291667,0.7617680430412292,-0.04866625741124147,-0.27570269505182904,0.5832196672757467,0.40786529580752057,0.40716084837913513,-1.9211779832839966
1.05,1.6887019434024735e+18,1.0504735514322918,0.8385713895161947,0.10984500249226888,-2.5918641090393066,1.688701943402477e+18,1.0504769287109377,7.608278512954712,-4.631308317184448,-7.583752155303955,1.6887019434024735e+18,1.0504735514322918,6.801448345184326,-4.835911750793457,-5.123668352762858,1.6887019434024735e+18,1.0504735514322918,-0.0507527192433675,3.6901350816090903,-2.2310834725697837,1.6887019434024735e+18,1.0504735514322918,-0.0516690177222093,3.694563945134481,-2.2287418047587075,,,,,,,,,,,,1.6887019433971937e+18,1.0451937988281252,-30.275519180297852,16.28943977355957,38.25919876098633,1.6887019433971937e+18,1.0451937988281252,-284.8163208007812,111.75443878173829,-94.95259857177734,1.6887019434024735e+18,1.0504735514322918,0.721612791220347,-0.034009556596477766,-0.387082318464915,0.572179357210795,0.6413941383361816,0.5143437683582306,-1.976090709368388
1.1,1.6887019434543813e+18,1.1023812662760417,3.0331029891967773,1.1685665448506672,-2.387728214263916,1.688701943445733e+18,1.093733154296875,8.325427850087484,-4.322434584299724,-8.385647137959799,1.6887019434543813e+18,1.1023812662760417,5.3612542152404785,-5.405899365743001,-6.168482939402263,1.6887019434543813e+18,1.1023812662760417,0.24821491042772925,2.9713504314422607,-1.7064011494318645,1.6887019434543813e+18,1.1023812662760417,0.24724770088990525,2.975830078125,-1.7039577166239421,,,,,,,,,,,,1.688701943447197e+18,1.09519677734375,-21.840439224243163,18.687959289550783,42.60484008789062,1.688701943447197e+18,1.09519677734375,-276.3812316894531,114.15296020507813,-90.6069564819336,1.6887019434543813e+18,1.1023812662760417,0.6878790259361267,-0.0221874465545018,-0.4732062816619873,0.549386461575826,0.8503106832504272,0.5827605326970419,-2.064300775527954
1.1500000000000001,1.6887019435062886e+18,1.1542884928385417,3.425823529561361,2.0413526693979898,-1.7384320894877117,1.6887019434976407e+18,1.1456405436197918,7.375476996103923,-3.667997678120931,-8.50568675994873,1.6887019435062886e+18,1.1542884928385417,4.03014874458313,-5.669313430786133,-6.909105141957601,1.6887019435062886e+18,1.1542884928385417,0.3546072741349538,2.218509833017985,-1.396488904953003,1.6887019435062886e+18,1.1542884928385417,0.35358916719754535,2.2229386965433755,-1.3941980600357056,,,,,,,,,,,,1.688701943497196e+18,1.1451958984375001,-13.85431957244873,19.302839279174805,45.42059860229492,1.688701943497196e+18,1.1451958984375001,-268.3951110839844,114.76783752441406,-87.79119873046875,1.6887019435062886e+18,1.1542884928385417,0.6571615139643351,-0.0077044817929466,-0.5406105717023214,0.5248951117197672,1.0372648239135742,0.6156600515047709,-2.15303635597229
1.2000000000000002,1.6887019435581908e+18,1.2061907552083333,3.9767114321390786,1.8363516330718994,-1.2809969584147136,1.6887019435495421e+18,1.1975420735677085,7.147760073343913,-3.989832321802775,-8.754939397176107,1.6887019435581908e+18,1.2061907552083333,3.1287121772766113,-5.664711316426595,-7.369930267333984,1.6887019435581908e+18,1.2061907552083333,0.687579741080602,1.247335930665334,-0.7461209793885549,1.6887019435581908e+18,1.2061907552083333,0.6866125365098318,1.251764674981435,-0.7437284390131632,,,,,,,,,,,,1.688701943547197e+18,1.19519697265625,-7.659159755706787,18.922199630737303,46.74063949584961,1.688701943547197e+18,1.19519697265625,-262.1999572753906,114.38719787597657,-86.47115783691406,1.6887019435581908e+18,1.2061907552083333,0.6404314239819845,0.0046142720966599665,-0.5816419919331869,0.5014059742291769,1.163586695988973,0.6154211759567261,-2.2252785364786782
1.25,1.6887019436014505e+18,1.2494505615234375,7.239305019378662,3.1053547859191895,0.9333207607269287,1.6887019436014554e+18,1.2494554036458334,8.96969493230184,-2.630709091822306,-6.947161674499512,1.6887019436014505e+18,1.2494505615234375,2.6587419509887695,-5.454351902008057,-7.7069783210754395,1.6887019436014505e+18,1.2494505615234375,0.5969680547714233,1.7558557391166687,0.20295999199151993,1.6887019436014505e+18,1.2494505615234375,0.595975399017334,1.7602845430374146,0.2053270787000656,,,,,,,,,,,,1.6887019435971942e+18,1.2451942871093749,-4.106519889831543,17.58751983642578,47.82155914306641,1.6887019435971942e+18,1.2451942871093749,-258.647314453125,113.05251922607422,-85.3902374267578,1.6887019436014505e+18,1.2494505615234375,0.632548600435257,0.0239797048270702,-0.6013936996459961,0.4873898923397064,1.2330241799354553,0.5895056128501892,-2.2523664236068726
1.3,1.6887019436447089e+18,1.2927090657552083,2.6723153591156006,1.4132924874623616,0.3489402135213216,1.6887019436533624e+18,1.3013622233072917,4.249054670333862,-4.117649078369141,-7.813363234202067,1.6887019436447089e+18,1.2927090657552083,2.2241339683532715,-5.181432723999023,-8.0257887840271,1.6887019436447089e+18,1.2927090657552083,0.6465499401092529,1.587027907371521,1.1646655201911926,1.6887019436447089e+18,1.2927090657552083,0.6455827554066976,1.591456691424052,1.167108952999115,1.6887019436709727e+18,1.31897265625,0.0,0.0,0.9923006892204284,12.366000175476074,1.1918460130691528,247.80467224121097,41.80000305175781,-122.7540438,49.1905399,1.688701943647196e+18,1.2951958984375,-0.6026800096035003,16.311399841308592,48.59015884399414,1.688701943647196e+18,1.2951958984375,-255.1434753417969,111.77639770507812,-84.62163848876953,1.6887019436447089e+18,1.2927090657552083,0.6118471622467041,0.06358055397868151,-0.6166046063105265,0.49111796418825787,1.2949872811635335,0.5562676588694254,-2.21407413482666
1.35,1.6887019436966185e+18,1.3446184895833333,-0.43381718794504803,0.6309765179951986,0.6706480979919434,1.6887019437052705e+18,1.3532706705729165,0.851844867070516,-3.8247275352478027,-7.619744459788005,1.6887019436966185e+18,1.3446184895833333,2.0297665198644004,-4.685856660207112,-8.374017079671225,1.6887019436966185e+18,1.3446184895833333,0.932740310827891,1.116814374923706,0.9226101239522299,1.6887019436966185e+18,1.3446184895833333,0.9318240284919739,1.1212940216064453,0.9250027139981588,,,,,,,,,,,,1.6887019436971999e+18,1.34519990234375,1.4420399457216262,14.003159713745116,49.23919830322266,1.6887019436971999e+18,1.34519990234375,-253.0987548828125,109.46815948486328,-83.97259826660157,1.6887019436966185e+18,1.3446184895833333,0.602104902267456,0.10996703555186586,-0.6181262334187826,0.49309390783309937,1.327735145886739,0.4975648025671641,-2.161465644836426
1.4000000000000001,1.6887019437485253e+18,1.3965252278645834,-2.6096160411834717,0.31768091519673664,0.4339330991109212,1.6887019437571779e+18,1.4051778971354167,-0.771485909819603,-4.342175563176473,-8.62592617670695,1.6887019437485253e+18,1.3965252278645834,1.8769500652949016,-4.227595965067546,-8.650363286336264,1.6887019437485253e+18,1.3965252278645834,0.8675813476244608,-0.009722943107287088,-0.021736621235807774,1.6887019437485253e+18,1.3965252278645834,0.8666141827901205,-0.005243256688117944,-0.019293159246444702,,,,,,,,,,,,1.6887019437471956e+18,1.39519580078125,3.333039903640747,11.502159881591798,50.36159896850586,1.6887019437471956e+18,1.39519580078125,-251.20775756835937,106.96715698242187,-82.85019989013672,1.6887019437485253e+18,1.3965252278645834,0.6042143305142721,0.13798965513706204,-0.6189112663269043,0.48249046007792157,1.3521175384521484,0.4450499216715495,-2.152994394302368
1.4500000000000002,1.6887019438004262e+18,1.4484261881510416,-0.3855220079421997,-3.9921520551045737,-1.4010591506958008,1.6887019438090888e+18,1.4570887858072916,3.197808027267456,-8.59063227971395,-9.888937950134277,1.6887019438004262e+18,1.4484261881510416,1.9687096277872722,-3.8988213539123535,-8.783268292744955,1.6887019438004262e+18,1.4484261881510416,0.9521352847417196,-0.555938278635343,-0.6957755088806152,1.6887019438004262e+18,1.4484261881510416,0.9512190222740173,-0.5515095045169195,-0.6934338708718618,,,,,,,,,,,,1.688701943797194e+18,1.4451939453125,2.3155598878860473,9.608719635009766,50.578759002685544,1.688701943797194e+18,1.4451939453125,-252.22523498535156,105.07371826171875,-82.63303833007812,1.6887019438004262e+18,1.4484261881510416,0.6236103574434916,0.1375556091467539,-0.6152296662330627,0.4621490736802419,1.3453712860743205,0.4084116021792094,-2.1930505434672036
1.5,1.688701943852339e+18,1.5003388671875,2.0919728676478067,-5.329318046569824,1.749260425567627,1.688701943852336e+18,1.5003359375,3.418446183204651,-8.659326076507568,-7.130312442779541,1.688701943852339e+18,1.5003388671875,1.7751638491948445,-3.5552748839060464,-8.968083063761393,1.688701943852339e+18,1.5003388671875,0.6803511579831442,0.6656904021898905,-0.43946664532025653,1.688701943852339e+18,1.5003388671875,0.6792821486790975,0.6701700687408447,-0.43707407514254254,,,,,,,,,,,,1.6887019438471962e+18,1.4951962890625001,3.201279878616333,6.917399787902832,51.41811828613281,1.6887019438471962e+18,1.4951962890625001,-251.33951721191406,102.3823974609375,-81.7936798095703,1.688701943852339e+18,1.5003388671875,0.6319181720415751,0.14569487671057377,-0.6213340361913046,0.439709613720576,1.370507001876831,0.37068063020706177,-2.229883591334025
1.55,1.6887019439042435e+18,1.5522433268229168,-0.17672948042551676,-3.8478200435638428,1.506239414215088,1.6887019438955978e+18,1.5435978190104167,1.7782660722732544,-7.588039398193359,-6.68016258875529,1.6887019439042435e+18,1.5522433268229168,1.5585211912790935,-3.4214185873667398,-9.0608549118042,1.6887019439042435e+18,1.5522433268229168,0.41457388798395794,-0.34600426256656647,-0.931569496790568,1.6887019439042435e+18,1.5522433268229168,0.41355576117833454,-0.3415754834810893,-0.929227868715922,,,,,,,,,,,,1.6887019438971942e+18,1.5451943359375,4.24315996170044,5.624199867248535,51.608438110351564,1.6887019438971942e+18,1.5451943359375,-250.29763488769532,101.08919830322266,-81.60335998535156,1.6887019439042435e+18,1.5522433268229168,0.6367062528928121,0.1421196361382802,-0.6309877634048462,0.4197499950726827,1.3956828912099202,0.3562610944112142,-2.2755804856618247
1.6,1.6887019439561536e+18,1.604153564453125,-0.21052813529968262,-2.613796869913737,-3.723809560139974,1.6887019439475023e+18,1.5955023600260416,1.2506486127773921,-5.9164533615112305,-12.256436347961426,1.6887019439561536e+18,1.604153564453125,1.8461584250132244,-3.422340234120687,-9.00588321685791,1.6887019439561536e+18,1.604153564453125,-0.1792889523009459,-0.7773769299189249,-0.3687080939610799,1.6887019439561536e+18,1.604153564453125,-0.18030706172188124,-0.7729481558005015,-0.3662646214167277,,,,,,,,,,,,1.688701943947198e+18,1.59519794921875,2.381439971923828,4.628679847717285,51.67675933837891,1.688701943947198e+18,1.59519794921875,-252.15935668945312,100.0936782836914,-81.53503875732422,1.6887019439561536e+18,1.604153564453125,0.6542233228683472,0.12399017810821529,-0.6231597065925598,0.4101897676785787,1.3638325134913127,0.35652250051498413,-2.3119911352793374
1.6500000000000001,1.688701944008055e+18,1.6560552571614584,-0.660061001777649,-2.5318262577056885,-2.2808923721313477,1.6887019439994028e+18,1.6474027506510416,1.0596216519673665,-6.7164537111918134,-12.104093233744303,1.688701944008055e+18,1.6560552571614584,1.8480340639750164,-3.27440079053243,-9.058969179789225,1.688701944008055e+18,1.6560552571614584,1.1574878493944805,-0.11586078008015949,-0.4133521517117818,1.688701944008055e+18,1.6560552571614584,1.156469702720642,-0.111431997269392,-0.4109086791674296,,,,,,,,,,,,1.6887019439971873e+18,1.6451873046875,1.2443999648094177,4.438359928131104,51.77435836791992,1.6887019439971873e+18,1.6451873046875,-253.29639587402343,99.90335845947266,-81.43743896484375,1.688701944008055e+18,1.6560552571614584,0.6612364053726196,0.12326859434445693,-0.6232461929321289,0.3987695574760437,1.364850600560506,0.34063127636909485,-2.333977142969767
1.7000000000000002,1.6887019440513254e+18,1.6993255615234375,1.87203711271286,2.1660174131393433,2.3006045818328857,1.6887019440513196e+18,1.6993196614583335,3.522633711496989,-0.5710869903365771,-6.9020969072977705,1.6887019440513254e+18,1.6993255615234375,1.9739630818367004,-2.67463481426239,-9.228898525238037,1.6887019440513254e+18,1.6993255615234375,1.5613715648651123,-0.48777590692043304,-0.5682573914527893,1.6887019440513254e+18,1.6993255615234375,1.560455322265625,-0.4833471179008484,-0.5658902823925018,,,,,,,,,,,,1.6887019440471962e+18,1.69519619140625,1.1589999556541444,0.8051999747753144,52.411198425292966,1.6887019440471962e+18,1.69519619140625,-253.3817932128906,96.27019653320312,-80.80059814453125,1.6887019440513254e+18,1.6993255615234375,0.6828465461730957,0.13327470421791077,-0.6160216629505157,0.36935701966285706,1.3555073142051697,0.2765845060348511,-2.3730605840682983
1.75,1.6887019440945733e+18,1.7425731608072919,-1.1094553073247273,2.4748713970184326,4.514776547749837,1.6887019441032233e+18,1.7512231445312498,0.7403791894515354,0.25523442029953003,-4.322035789489746,1.6887019440945733e+18,1.7425731608072919,2.0242478052775064,-2.2665393352508545,-9.326818148295084,1.6887019440945733e+18,1.7425731608072919,0.9480628569920858,-0.2975931763648987,-0.6051129301389059,1.6887019440945733e+18,1.7425731608072919,0.9470956325531006,-0.2931644171476364,-0.6026694575945536,,,,,,,,,,,,1.688701944097194e+18,1.7451939941406251,0.1854400042444467,-1.9422399520874023,52.47707901000977,1.688701944097194e+18,1.7451939941406251,-254.35535278320313,93.52275695800782,-80.7347183227539,1.6887019440945733e+18,1.7425731608072919,0.6969942847887675,0.13777609666188553,-0.6129593253135681,0.34558860460917157,1.3525764147440593,0.23375162482261658,-2.4088829358418784
1.8,1.688701944146487e+18,1.7944868977864583,-0.6084410746892294,4.057158946990967,5.473054091135661,1.6887019441551342e+18,1.80313427734375,2.0570298631985984,2.000798543294271,-4.043471574783325,1.688701944146487e+18,1.7944868977864583,2.270392417907715,-2.073153018951416,-9.3150053024292,1.688701944146487e+18,1.7944868977864583,0.00951931873957316,-0.866461435953776,-0.6686429182688395,1.688701944146487e+18,1.7944868977864583,0.00860301653544108,-0.8619817694028219,-0.6662503679593405,,,,,,,,,,,,1.688701944147194e+18,1.795194091796875,-1.134599941968918,-3.4330799102783205,52.26723937988281,1.688701944147194e+18,1.795194091796875,-255.67539978027344,92.03191833496093,-80.9445571899414,1.688701944146487e+18,1.7944868977864583,0.7145209908485413,0.12874388943115866,-0.6046212116877238,0.3274901509284973,1.327256480852763,0.21372020741303757,-2.4493699073791504
1.85,1.6887019441983839e+18,1.8463839518229168,0.05025029182434082,1.2844687302907307,3.762322107950846,1.6887019442070418e+18,1.8550419108072915,2.013360857963562,-2.4592233995596566,-5.534798304239909,1.6887019441983839e+18,1.8463839518229168,2.384183963139852,-2.7525083223978677,-9.10237979888916,1.6887019441983839e+18,1.8463839518229168,-2.2619321743647256,0.2767728567123413,-0.3379612018664678,1.6887019441983839e+18,1.8463839518229168,-2.2628993590672812,0.2812016208966573,-0.3355686316887538,,,,,,,,,,,,1.688701944197197e+18,1.8451970703125,-2.3765599727630615,-0.4831199884414673,51.73531875610352,1.688701944197197e+18,1.8451970703125,-256.9173583984375,94.98187866210938,-81.47648010253906,1.6887019441983839e+18,1.8463839518229168,0.7101903160413107,0.0961631536483764,-0.6058233976364136,0.3450082143147786,1.3101476828257244,0.2854055364926656,-2.45709228515625
1.9000000000000001,1.6887019442502976e+18,1.898297607421875,-0.0548325777053833,-2.348487377166748,1.2646233240763347,1.6887019442589524e+18,1.9069524739583334,2.3511476516723633,-7.515058358510335,-7.588238875071208,1.6887019442502976e+18,1.898297607421875,2.1363255182902017,-4.215666135152181,-8.582349141438803,1.6887019442502976e+18,1.898297607421875,-3.5475998719533286,0.41452297071615857,-0.07472918182611467,1.6887019442502976e+18,1.898297607421875,-3.548567056655884,0.4190026472012202,-0.0722857192158699,,,,,,,,,,,,1.6887019442471967e+18,1.8951966796875,-1.4322799444198608,6.834439945220947,51.04723892211914,1.6887019442471967e+18,1.8951966796875,-255.97307434082032,102.2994400024414,-82.16455688476563,1.6887019442502976e+18,1.898297607421875,0.6716237465540568,0.0490375955899556,-0.6215994358062744,0.3993249535560608,1.3219902118047078,0.44543970624605816,-2.4174043337504068
1.9500000000000002,1.6887019443021996e+18,1.9501993815104166,-1.2220477263132732,-6.630199909210205,-2.4588939348856607,1.6887019443022054e+18,1.9502055664062499,0.4875376224517822,-12.693027019500732,-9.984650611877441,1.6887019443021996e+18,1.9501993815104166,1.7342477639516194,-5.7405368487040205,-7.752153555552165,1.6887019443021996e+18,1.9501993815104166,-3.029942512512207,0.7860817511876425,-0.5197954177856445,1.6887019443021996e+18,1.9501993815104166,-3.0310115814208984,0.7906123300393423,-0.5173519551753998,,,,,,,,,,,,1.6887019442971942e+18,1.9451942382812502,-0.11956002116203304,15.296359634399414,48.52671890258789,1.6887019442971942e+18,1.9451942382812502,-254.6603576660156,110.76135711669922,-84.68507843017578,1.6887019443021996e+18,1.9501993815104166,0.6223325332005819,-0.0076389086122314,-0.6397468249003092,0.4504272441069285,1.3456777334213257,0.6262593666712443,-2.3937873045603433
2.0,1.6887019443541094e+18,2.002109375,-0.5035808483759562,-4.0268980662028,-3.173893769582113,1.6887019443454618e+18,1.993461669921875,0.3467598557472229,-11.207582473754883,-11.257034301757812,1.6887019443541094e+18,2.002109375,1.5934482018152873,-6.303757667541504,-7.345628579457601,1.6887019443541094e+18,2.002109375,-0.07040223975976312,-0.4058181444803874,-0.4443026582400004,1.6887019443541094e+18,2.002109375,-0.07136942446231842,-0.40133846799532563,-0.4418592055638631,,,,,,,,,,,,1.6887019443471962e+18,1.9951961425781248,1.3956799507141113,20.352039337158203,46.99195938110351,1.6887019443471962e+18,1.9951961425781248,-253.14511413574218,115.8170394897461,-86.21983947753907,1.6887019443541094e+18,2.002109375,0.6057136058807373,-0.0358008282879988,-0.64453653494517,0.4651573101679484,1.3515475591023762,0.6984226703643799,-2.3998749256134033
2.0500000000000003,1.688701944406017e+18,2.0540170084635414,0.6777551571528116,-0.7165034612019857,2.1233768463134766,1.6887019443973716e+18,2.0453717447916664,2.3016960620880127,-7.034898598988851,-5.8225351969401045,1.688701944406017e+18,2.0540170084635414,1.513209342956543,-6.1154465675354,-7.519466559092204,1.688701944406017e+18,2.0540170084635414,0.5272276103496552,0.2677116887643933,0.014966201037168503,1.688701944406017e+18,2.0540170084635414,0.5262604057788849,0.2721913680434227,0.0174096624056498,,,,,,,,,,,,1.6887019443971978e+18,2.0451979492187498,0.9345199942588807,19.746920013427733,47.0383186340332,1.6887019443971978e+18,2.0451979492187498,-253.60627136230468,115.21191864013672,-86.17347869873046,1.688701944406017e+18,2.0540170084635414,0.6132079164187113,-0.03252013834814226,-0.6478820641835531,0.4507209062576294,1.3667254050572712,0.6737528244654337,-2.429476817448934
2.1,1.688701944457928e+18,2.105928059895833,-2.213886578877767,3.333324670791626,1.6569660504659016,1.688701944449273e+18,2.09727294921875,-2.738386034965515,-3.9206398725509644,-6.179065704345703,1.688701944457928e+18,2.105928059895833,1.6562954584757488,-6.153508345286052,-7.452856540679932,1.688701944457928e+18,2.105928059895833,-1.1169670814027388,-0.7729990780353546,0.7906123598416647,1.688701944457928e+18,2.105928059895833,-1.1179342648635309,-0.7685193692644438,0.7930049101511637,,,,,,,,,,,,1.6887019444471972e+18,2.095197216796875,1.654319977760315,19.01735954284668,46.996839141845705,1.6887019444471972e+18,2.095197216796875,-252.8864776611328,114.48235778808593,-86.21495819091797,1.688701944457928e+18,2.105928059895833,0.6099651455879211,-0.027062295625607097,-0.6424002250035604,0.4629399577776591,1.3462088108062744,0.6786512533823649,-2.391817649205526
2.15,1.688701944501179e+18,2.149178955078125,-2.681201457977295,5.788769960403442,0.7164402008056641,1.6887019445011837e+18,2.1491836751302085,0.45403808852036803,-1.323430339495341,-5.368098258972168,1.688701944501179e+18,2.149178955078125,2.5461429357528687,-7.119920015335083,-6.224593877792358,1.688701944501179e+18,2.149178955078125,-5.3208653926849365,-3.407635450363159,0.0003054291009902954,1.688701944501179e+18,2.149178955078125,-5.321858167648315,-3.4032065868377686,0.0026725381612777432,,,,,,,,,,,,1.6887019444971937e+18,2.14519375,-4.023559951782227,25.46871910095215,43.49543838500976,1.6887019444971937e+18,2.14519375,-258.56435241699216,120.9337173461914,-89.716357421875,1.688701944501179e+18,2.149178955078125,0.606951117515564,-0.09178927913308141,-0.5992965996265411,0.5130119621753693,1.1738123297691345,0.8134240508079529,-2.2953696250915527
2.2,1.6887019445444344e+18,2.1924345703125,1.4945251146952312,5.328533331553142,2.454494714736939,1.6887019445530913e+18,2.20109130859375,3.4801610310872397,-2.841476837793986,-0.5792625000079473,1.6887019445444344e+18,2.1924345703125,2.509401480356852,-8.683114051818848,-3.6713202794392905,1.6887019445444344e+18,2.1924345703125,-6.718703111012776,-1.594358300169309,-2.782694856325785,1.6887019445444344e+18,2.1924345703125,-6.719772179921468,-1.5899295061826706,-2.7803531885147095,,,,,,,,,,,,1.688701944547194e+18,2.195193994140625,-6.761239910125733,37.83463973999024,32.25191993713379,1.688701944547194e+18,2.195193994140625,-261.3020324707031,133.2996368408203,-100.95987854003906,1.6887019445444344e+18,2.1924345703125,0.5569137930870056,-0.22549475232760108,-0.5634954373041788,0.564525326093038,0.9514567454655966,1.0965706706047058,-2.164179960886637
2.25,1.6887019445963476e+18,2.24434765625,0.9467745423316956,7.833198229471843,1.391079604625702,1.6887019446049987e+18,2.2529986165364586,1.7373886704444885,-1.9216359456380208,1.4901303052902222,1.6887019445963476e+18,2.24434765625,1.145286758740743,-9.686881065368652,-0.2563587228457133,1.6887019445963476e+18,2.24434765625,-7.149261474609375,0.9391035040219625,-2.217644433180491,1.6887019445963476e+18,2.24434765625,-7.150228500366211,0.9435831805070242,-2.215302844842275,,,,,,,,,,,,1.688701944597194e+18,2.2451938964843747,0.1293199896812439,46.76015930175781,16.343119430541993,1.688701944597194e+18,2.2451938964843747,-254.41147155761718,142.22515563964845,-116.86867828369141,1.6887019445963476e+18,2.24434765625,0.42530369758605957,-0.3634127179781596,-0.553848405679067,0.6143834392229716,0.046322072545687355,1.4160569111506145,-1.2340375979741414
2.3000000000000003,1.6887019446482547e+18,2.2962548828125002,-2.431690772374471,-4.083693822224935,5.976773738861084,1.6887019446569062e+18,2.304906412760417,-2.484348158041636,-20.237296899159748,14.04606819152832,1.6887019446482547e+18,2.2962548828125002,1.0170703927675884,-9.203693072001139,3.115079720815023,1.6887019446482547e+18,2.2962548828125002,-6.407365481058757,1.2475395202636719,0.4239404797554016,1.6887019446482547e+18,2.2962548828125002,-6.408281962076823,1.252019226551056,0.4262821339070797,,,,,,,,,,,,1.6887019446471933e+18,2.29519326171875,1.4761999607086183,49.161119079589845,-0.8247200012207031,1.6887019446471933e+18,2.29519326171875,-253.0645965576172,144.62611694335936,-134.03651428222656,1.6887019446482547e+18,2.2962548828125002,0.28546181817849475,-0.4413543740908304,-0.5007465283075968,0.686137874921163,-1.2322265307108562,1.2255667448043823,0.1334443098555008
2.35,1.6887019447001582e+18,2.3481582031249997,-3.1650145848592124,-15.172740618387857,13.106619993845621,1.68870194470881e+18,2.356809977213542,-1.0043873190879822,-17.51346778869629,12.255439281463623,1.6887019447001582e+18,2.3481582031249997,1.3180908759435017,-8.931401570638021,3.8245185216267905,1.6887019447001582e+18,2.3481582031249997,1.8660914897918701,-1.9653062025705974,0.8620326370000839,1.6887019447001582e+18,2.3481582031249997,1.8651243249575298,-1.96077561378479,0.8644252568483353,,,,,,,,,,,,1.6887019446971973e+18,2.34519736328125,-0.7002799928188324,49.10743865966797,-7.4493200302124025,1.6887019446971973e+18,2.34519736328125,-255.24107360839844,144.5724365234375,-140.66112060546874,1.6887019447001582e+18,2.3481582031249997,0.2785063336292903,-0.46394195159276325,-0.4644208053747813,0.7006114721298218,-1.2303344011306763,1.142514705657959,0.09570194035768508
2.4000000000000004,1.6887019447520625e+18,2.400062418619792,2.515055159727732,4.479245821634929,-0.466397762298584,1.688701944752063e+18,2.40006298828125,3.5865419507026672,-4.422534465789795,3.1010981798171997,1.6887019447520625e+18,2.400062418619792,0.8432080944379171,-9.092251777648926,3.5833728313446045,1.6887019447520625e+18,2.400062418619792,0.09590584474305307,-3.286454995473226,0.3046690275271733,1.6887019447520625e+18,2.400062418619792,0.09498954502244783,-3.2818735440572104,0.3071125199397405,,,,,,,,,,,,1.688701944747198e+18,2.3951979492187503,-0.6539199769496917,49.42951889038086,-4.269999980926514,1.688701944747198e+18,2.3951979492187503,-255.19471130371093,144.89451599121094,-137.48179626464844,1.6887019447520625e+18,2.400062418619792,0.335584153731664,-0.5068872372309366,-0.44505969683329266,0.6571210821469625,-1.332111398379008,1.1828078826268513,0.02684003600734287
2.45,1.6887019448039772e+18,2.4519771321614585,2.150448799133301,1.2529791196187336,0.9745408693949381,1.6887019447953267e+18,2.4433268229166667,3.8490545749664307,-6.709674040476481,4.206582228342692,1.6887019448039772e+18,2.4519771321614585,1.1059200167655945,-9.017930666605631,3.696173667907715,1.6887019448039772e+18,2.4519771321614585,-0.26022859414418537,0.4983133276303609,0.9475028812885286,1.6887019448039772e+18,2.4519771321614585,-0.2612467010815938,0.5027420918146769,0.9499463637669882,,,,,,,,,,,,1.6887019447971922e+18,2.4451922363281247,-2.21795995272696,49.38803939819336,-4.101639938354492,1.6887019447971922e+18,2.4451922363281247,-256.7587554931641,144.85303955078126,-137.31343994140624,1.6887019448039772e+18,2.4519771321614585,0.35903951525688166,-0.5179109374682108,-0.4168391327063243,0.6549914677937826,-1.274678905804952,1.1628892024358113,-0.09676982710758841
2.5,1.688701944855881e+18,2.503881022135417,-0.5493240753809611,0.2480465571085612,1.2046666940053303,1.688701944847227e+18,2.495226806640625,0.9764710466066996,-9.054041862487793,5.083950360616048,1.688701944855881e+18,2.503881022135417,1.3151633739471436,-9.00841236114502,3.653884490331014,1.688701944855881e+18,2.503881022135417,0.09056076966226097,1.4924965302149455,-0.773100862900416,1.688701944855881e+18,2.503881022135417,0.0895935709122568,1.497027079264323,-0.7707083225250244,,,,,,,,,,,,1.6887019448471967e+18,2.495196630859375,-3.430639934539795,49.38559799194336,-4.911719894409179,1.6887019448471967e+18,2.495196630859375,-257.971435546875,144.85059814453126,-138.12351684570314,1.688701944855881e+18,2.503881022135417,0.34288307030995685,-0.49752474824587506,-0.4285651942094167,0.6716186205546061,-1.2192426522572835,1.1604508956273396,-0.0854226561884085
2.5500000000000003,1.688701944907788e+18,2.5557880045572916,-1.1510655681292217,0.3712666829427083,0.9625221888224283,1.6887019448991404e+18,2.5471402994791665,0.04247260466217991,-8.634899139404297,4.595415910085042,1.688701944907788e+18,2.5557880045572916,1.0632653236389162,-9.11707623799642,3.4601364135742188,1.688701944907788e+18,2.5557880045572916,0.20351993540922797,1.7804685831069946,-1.3426309029261272,1.688701944907788e+18,2.5557880045572916,0.20255273580551147,1.784999171892802,-1.340238372484843,,,,,,,,,,,,1.6887019448971958e+18,2.54519580078125,-1.14679996073246,49.59055862426758,-4.216319799423218,1.6887019448971958e+18,2.54519580078125,-255.68759155273438,145.05556030273436,-137.42811889648436,1.688701944907788e+18,2.5557880045572916,0.3095688621203105,-0.4745493233203888,-0.4676182270050049,0.6782720486323038,-1.2652526299158733,1.1898812850316365,0.06502417723337804
2.6,1.6887019449510426e+18,2.5990426025390625,-1.2987467050552368,0.0991687774658203,0.3059780597686767,1.688701944951048e+18,2.599047688802083,-0.45304108659426373,-9.062417030334473,3.735395590464274,1.6887019449510426e+18,2.5990426025390625,0.8059612214565277,-9.182166576385498,3.3575576543807983,1.6887019449510426e+18,2.5990426025390625,0.0981202311813831,0.6514114439487457,-0.7085273265838623,1.6887019449510426e+18,2.5990426025390625,0.0972039327025413,0.6559929102659225,-0.7061602026224136,,,,,,,,,,,,1.6887019449471962e+18,2.5951960449218747,1.454239946603775,49.40511932373047,-3.4818799018859865,1.6887019449471962e+18,2.5951960449218747,-253.08655395507813,144.8701171875,-136.6936767578125,1.6887019449510426e+18,2.5990426025390625,0.2887783348560333,-0.46331317722797394,-0.49235700070858,0.6778795719146729,-1.3261650800704956,1.2085734605789185,0.1837349459528923
2.6500000000000004,1.6887019449943078e+18,2.6423076985677083,-1.369757850964864,0.10430145263671874,0.2820275624593099,1.6887019450029555e+18,2.6509556477864584,-0.5228317479292551,-9.142377217610678,3.790430466334025,1.6887019449943078e+18,2.6423076985677083,0.8157560030619303,-9.180519739786783,3.3595738410949707,1.6887019449943078e+18,2.6423076985677083,-0.10079276499648883,0.18651752173900607,0.18086702128251395,1.6887019449943078e+18,2.6423076985677083,-0.1017090659588575,0.1909462952365478,0.1833104838927587,,,,,,,,,,,,1.6887019449971988e+18,2.645198828125,2.3521600008010863,49.51491928100586,-3.708799886703491,1.6887019449971988e+18,2.645198828125,-252.18863220214843,144.97991943359375,-136.92060241699218,1.6887019449943078e+18,2.6423076985677083,0.28387993574142456,-0.45950232942899066,-0.49541213115056354,0.6803168455759684,-1.3235408862431843,1.2081495523452759,0.19591596722602841
2.7,1.6887019450462077e+18,2.694207763671875,-0.6605367660522461,0.15899753570556638,0.5315249760945638,1.688701945054858e+18,2.702858072916667,0.4941178727895022,-8.94556744893392,4.0514475504557295,1.6887019450462077e+18,2.694207763671875,0.9149101773897806,-9.142094930013021,3.4380927085876465,1.6887019450462077e+18,2.694207763671875,-0.12838351726531977,-0.44720426201820374,0.24465153117974592,1.6887019450462077e+18,2.694207763671875,-0.12940162171920136,-0.4427245855331421,0.2470440864562988,,,,,,,,,,,,1.688701945047198e+18,2.6951978515625,1.4054399609565735,49.33923873901367,-4.072359943389893,1.688701945047198e+18,2.6951978515625,-253.1353546142578,144.80423583984376,-137.2841583251953,1.6887019450462077e+18,2.694207763671875,0.28749094406763714,-0.4629937807718913,-0.4870048562685649,0.6824923555056254,-1.3021310170491536,1.1970958709716797,0.16107013821601865
2.75,1.6887019450981153e+18,2.7461153157552083,0.3930388887723287,0.3353157043457031,0.7469523747762045,1.6887019451067727e+18,2.7547727864583336,1.3784652551015217,-8.793622970581055,4.375675042470296,1.6887019450981153e+18,2.7461153157552083,0.8986231287320455,-9.120207786560059,3.500033219655355,1.6887019450981153e+18,2.7461153157552083,-0.07340564082066216,-0.18860463922222456,0.034259358420968,1.6887019450981153e+18,2.7461153157552083,-0.07442375024159746,-0.18417586634556446,0.036651914318402534,,,,,,,,,,,,1.688701945097193e+18,2.745192919921875,1.4810799598693847,49.54663925170898,-4.350520038604737,1.688701945097193e+18,2.745192919921875,-253.0597137451172,145.0116394042969,-137.56231994628905,1.6887019450981153e+18,2.7461153157552083,0.2915231386820475,-0.4697511394818623,-0.481393704811732,0.6801522175470988,-1.3111507097880046,1.1909723281860352,0.15082977712154383
2.8000000000000003,1.6887019451500265e+18,2.7980262858072913,0.594868799050649,0.14587593078613278,0.8546452522277832,1.6887019451586775e+18,2.806677490234375,1.5120644966761272,-9.007980346679688,4.397609233856201,1.6887019451500265e+18,2.7980262858072913,0.9061652620633444,-9.099861145019531,3.5506653785705566,1.6887019451500265e+18,2.7980262858072913,-0.11377365142107003,0.145335027637581,-0.013642656772087,1.6887019451500265e+18,2.7980262858072913,-0.11484266569217043,0.14981470381220174,-0.011250101340313734,,,,,,,,,,,,1.6887019451472008e+18,2.7952006347656253,1.4957199811935424,49.600318908691406,-4.28951997756958,1.6887019451472008e+18,2.7952006347656253,-253.04507141113282,145.06531982421876,-137.50131530761718,1.6887019451500265e+18,2.7980262858072913,0.2895447611808777,-0.47076735893885296,-0.4800126254558563,0.6812688509623209,-1.3127505381902058,1.1854125658671062,0.1533811936775843
2.85,1.6887019452019302e+18,2.8499302571614584,1.235259215037028,0.061530749003092404,0.3718992869059245,1.6887019452019338e+18,2.8499335937500003,2.2058833837509155,-9.049655437469482,4.018147349357605,1.6887019452019302e+18,2.8499302571614584,0.9969814817110697,-9.075336456298828,3.5885457197825112,1.6887019452019302e+18,2.8499302571614584,-0.10028370966513946,0.45178575317064923,0.16305011448760823,1.6887019452019302e+18,2.8499302571614584,-0.10130181908607479,0.4562654395898183,0.16544266914327935,,,,,,,,,,,,1.688701945197194e+18,2.845194140625,0.839359986782074,49.32459945678711,-4.867799949645996,1.688701945197194e+18,2.845194140625,-253.7014373779297,144.7895965576172,-138.07959899902343,1.6887019452019302e+18,2.8499302571614584,0.28399122754732764,-0.46575978398323054,-0.48007015387217206,0.6869756579399109,-1.2919058799743652,1.1787867943445842,0.14982977509498593
2.9000000000000004,1.6887019452538376e+18,2.9018374837239578,2.7164453665415444,-0.3849131266276042,-0.006184021631876628,1.688701945245186e+18,2.8931861979166666,3.7186458110809326,-9.310871760050455,3.7525441646575928,1.6887019452538376e+18,2.9018374837239578,1.3463046948115032,-9.03487459818522,3.5746049880981445,1.6887019452538376e+18,2.9018374837239578,-0.007992154608170174,0.8151487509409586,0.6074036558469137,1.6887019452538376e+18,2.9018374837239578,-0.009010261545578602,0.8195775349934896,0.6097453236579895,,,,,,,,,,,,1.6887019452471913e+18,2.895191259765625,0.07563998699188237,49.47587890625,-4.9605199813842775,1.6887019452471913e+18,2.895191259765625,-254.46515502929688,144.9408752441406,-138.1723205566406,1.6887019452538376e+18,2.9018374837239578,0.2797166307767232,-0.4504891037940979,-0.4760531385739644,0.7015223304430643,-1.2035133441289265,1.1679259936014812,0.0933917214473088
2.95,1.6887019453057454e+18,2.953745361328125,1.8927712440490723,-0.6484495798746744,0.1728041172027588,1.688701945297097e+18,2.94509716796875,4.252843379974365,-9.730014165242514,3.462813218434652,1.6887019453057454e+18,2.953745361328125,1.8212249279022217,-8.997061093648275,3.4576307932535806,1.6887019453057454e+18,2.953745361328125,0.10664689168334003,0.9996809760729471,0.5851071079572042,1.6887019453057454e+18,2.953745361328125,0.10573059072097135,1.0041606426239014,0.587550550699234,,,,,,,,,,,,1.6887019452971937e+18,2.945193896484375,-1.800719976425171,49.461238861083984,-4.560359954833984,1.6887019452971937e+18,2.945193896484375,-256.3415100097656,144.92623596191407,-137.77215881347655,1.6887019453057454e+18,2.953745361328125,0.2784993350505829,-0.42835977673530573,-0.47101959586143494,0.7190373738606771,-1.079659899075826,1.1579248905181885,0.0077141593210399
3.0,1.6887019453576568e+18,3.00565673828125,-2.5693235794703164,0.2136087417602539,0.5612559318542479,1.688701945349001e+18,2.9970008138020834,0.07856430610020955,-9.065408070882162,4.220739682515462,1.6887019453576568e+18,3.00565673828125,2.179628928502401,-8.980554898579916,3.2907145023345947,1.6887019453576568e+18,3.00565673828125,0.16030121718843773,0.9865473906199137,0.19242254892985022,1.6887019453576568e+18,3.00565673828125,0.15938492616017652,0.9910779496033987,0.19486601154009497,,,,,,,,,,,,1.6887019453471985e+18,2.9951986328125004,-3.391599941253662,49.417318725585936,-4.1797199726104735,1.6887019453471985e+18,2.9951986328125004,-257.9323974609375,144.88231811523437,-137.39151916503906,1.6887019453576568e+18,3.00565673828125,0.2695369025071462,-0.40273935596148175,-0.47422410051027936,0.7349967161814371,-0.9796220461527506,1.15362548828125,-0.03519181100030737
3.0500000000000003,1.6887019454095598e+18,3.057559814453125,-1.4900760650634766,0.7429356575012207,-0.8642001946767172,1.6887019454009078e+18,3.0489076334635414,0.043469617764155,-8.086544195810953,2.447458823521932,1.6887019454095598e+18,3.057559814453125,2.199683984120687,-9.00958251953125,3.197525898615519,1.6887019454095598e+18,3.057559814453125,0.17221309741338095,-0.46334128081798553,0.018478672951459933,1.6887019454095598e+18,3.057559814453125,0.17119498550891873,-0.4589125116666158,0.020922134475161665,,,,,,,,,,,,1.688701945397196e+18,3.045196142578125,-3.757599925994873,49.47099990844727,-3.716119956970215,1.688701945397196e+18,3.045196142578125,-258.29839477539065,144.93599548339844,-136.92791442871095,1.6887019454095598e+18,3.057559814453125,0.27286462982495624,-0.3993767698605855,-0.4760219355424245,0.7344570755958557,-0.9621829390525818,1.161009709040324,-0.051700683931509596
3.1,1.688701945452818e+18,3.1008179931640623,1.2534323930740356,-0.6384940147399902,-0.48904120922088623,1.6887019454528192e+18,3.100819091796875,3.3984063466389975,-9.671988487243652,2.720240513483683,1.688701945452818e+18,3.1008179931640623,2.1735247373580933,-9.031941890716553,3.1520779132843018,1.688701945452818e+18,3.1008179931640623,0.27290405333042145,-0.34162637591362,0.1384373381733894,1.688701945452818e+18,3.1008179931640623,0.27198775112628937,-0.3371212482452392,0.1408807933330536,,,,,,,,,,,,1.6887019454471908e+18,3.09519072265625,-3.8942399501800535,49.54907913208008,-3.208599901199341,1.6887019454471908e+18,3.09519072265625,-258.4350341796875,145.01407775878906,-136.42039794921874,1.688701945452818e+18,3.1008179931640623,0.28217338025569916,-0.4038489758968353,-0.4736721068620682,0.7300104796886444,-0.9611817300319672,1.1667654514312744,-0.07485888525843615
3.1500000000000004,1.6887019454960722e+18,3.144072265625,1.5302566687266033,-0.6035566329956055,0.007985750834147098,1.6887019455047196e+18,3.152719401041667,3.675973733266195,-9.503095308939615,3.1475587685902915,1.6887019454960722e+18,3.144072265625,2.154028574625651,-9.076649983723959,3.0344130198160806,1.6887019454960722e+18,3.144072265625,0.4325434962908427,-0.29978211224079127,0.0002036218841870672,1.6887019454960722e+18,3.144072265625,0.43162719408671063,-0.29535335302352905,0.0025961765398582006,,,,,,,,,,,,1.6887019454971963e+18,3.145196337890625,-3.642919969558716,49.356318664550784,-2.5522398948669434,1.6887019454971963e+18,3.145196337890625,-258.1837097167969,144.82131652832032,-135.7640350341797,1.6887019454960722e+18,3.144072265625,0.29205115636189777,-0.4047572712103526,-0.47396472096443176,0.7254107793172201,-0.9475986361503601,1.1785891850789387,-0.10502664496501284
3.2,1.6887019455479798e+18,3.195979736328125,1.0325972239176433,0.5012152989705404,0.36143771807352704,1.6887019455566305e+18,3.2046305338541665,3.1034909884134927,-8.50987434387207,3.257229804992676,1.6887019455479798e+18,3.195979736328125,2.1777098178863525,-9.143734614054361,2.807182470957438,1.6887019455479798e+18,3.195979736328125,0.5173519551753998,-0.002087123071153932,0.18229236702124274,1.6887019455479798e+18,3.195979736328125,0.5164356529712677,0.002392555276552865,0.18468492353955904,,,,,,,,,,,,1.6887019455471926e+18,3.195192578125,-4.211439943313598,49.561279296875,-1.1394799947738647,1.6887019455471926e+18,3.195192578125,-258.7522338867187,145.02628173828126,-134.35127868652344,1.6887019455479798e+18,3.195979736328125,0.3034486472606659,-0.3996665378411611,-0.4770148495833079,0.7215446631113688,-0.9052292704582214,1.196931521097819,-0.15583687027295426
3.25,1.6887019455998866e+18,3.247886637369792,0.13643304506937662,1.155789852142334,0.6829720338185629,1.688701945608541e+18,3.2565409342447915,2.3954148292541504,-7.992226918538411,3.431507110595703,1.6887019455998866e+18,3.247886637369792,2.352238496144613,-9.15404160817464,2.627223491668701,1.6887019455998866e+18,3.247886637369792,0.31250847876071924,-0.16218472520510355,0.4810054798920949,1.6887019455998866e+18,3.247886637369792,0.31149036685625703,-0.15770504375298816,0.48339803020159405,,,,,,,,,,,,1.6887019455971978e+18,3.245198046875,-4.9287999153137205,49.402679443359375,-0.08051999770104887,1.6887019455971978e+18,3.245198046875,-259.4695983886719,144.86767578125,-133.2923156738281,1.6887019455998866e+18,3.247886637369792,0.3160258332888285,-0.39316126704216003,-0.4731089770793915,0.7222893635431925,-0.8357543349266052,1.1997075875600178,-0.23515055576960242
3.3000000000000003,1.688701945651794e+18,3.2997938639322917,-0.45567373434702557,1.2833523750305176,0.96180526415507,1.688701945651792e+18,3.2997919921875,2.0240288376808167,-7.777870178222656,3.6245280504226685,1.688701945651794e+18,3.2997938639322917,2.566877524058024,-9.110118548075357,2.5786994298299155,1.688701945651794e+18,3.2997938639322917,0.10496701051791503,-0.29800042510032654,0.5231042702992758,1.688701945651794e+18,3.2997938639322917,0.10399980967243506,-0.29352074861526484,0.5254968404769897,,,,,,,,,,,,1.6887019456471939e+18,3.295193896484375,-6.33179988861084,49.053759765625,0.40259998477995396,1.6887019456471939e+18,3.295193896484375,-260.8725952148437,144.5187561035156,-132.80919799804687,1.688701945651794e+18,3.2997938639322917,0.3273450930913289,-0.39125951131184894,-0.46305106083552044,0.7247937719027201,-0.7837124864260355,1.1873845259348552,-0.30441467960675556
3.35,1.6887019457037015e+18,3.3517014973958332,0.20359245936075845,0.4512624740600586,0.5120465755462646,1.6887019456950536e+18,3.3430534667968748,2.8456643422444663,-8.496115684509277,3.2301112016042075,1.6887019457037015e+18,3.3517014973958332,2.7674322923024497,-9.040142695109049,2.61709197362264,1.6887019457037015e+18,3.3517014973958332,0.0400625790158907,-0.44715335965156555,0.5741624236106873,1.6887019457037015e+18,3.3517014973958332,0.038993564744790335,-0.44272459546724957,0.5765549739201864,,,,,,,,,,,,1.6887019456971953e+18,3.3451951171875,-7.97879991531372,49.22943878173828,0.2732799954712391,1.6887019456971953e+18,3.3451951171875,-262.51959838867185,144.6944366455078,-132.9385192871094,1.6887019457037015e+18,3.3517014973958332,0.33859102924664813,-0.39389971892038983,-0.4496206243832906,0.7266448338826498,-0.7541903654734293,1.168558160463969,-0.35973864793777466
3.4000000000000004,1.6887019457556027e+18,3.403602620442708,-0.010560433069864867,0.8073158264160156,0.8086716334025065,1.6887019457469586e+18,3.3949588216145834,3.012364308039347,-8.30469004313151,3.4143585364023843,1.6887019457556027e+18,3.403602620442708,3.001525402069092,-8.953324317932129,2.6570573647816977,1.6887019457556027e+18,3.403602620442708,0.027488936359683597,-0.20514891048272446,0.5750278234481812,1.6887019457556027e+18,3.403602620442708,0.0265217320993542,-0.20066923399766282,0.5773694515228271,,,,,,,,,,,,1.6887019457471944e+18,3.39519453125,-9.640439987182617,48.948838806152345,0.09271999895572665,1.6887019457471944e+18,3.39519453125,-264.1812377929688,144.41383666992186,-133.11907653808595,1.6887019457556027e+18,3.403602620442708,0.3486816386381785,-0.3944581945737203,-0.4357016384601593,0.7300479014714559,-0.721967856089274,1.1463135083516438,-0.41307879487673443
3.45,1.688701945807516e+18,3.4555160319010416,0.7382506529490153,0.9078453381856283,1.7379340330759685,1.6887019457988616e+18,3.446861246744792,3.6640096505482993,-7.9246296882629395,4.369294166564941,1.688701945807516e+18,3.4555160319010416,3.168168226877848,-8.883764266967773,2.697486480077108,1.688701945807516e+18,3.4555160319010416,-0.0003563379868864666,-0.30405818422635394,0.309097816546758,1.688701945807516e+18,3.4555160319010416,-0.0013235410054524336,-0.29952759544054663,0.3114903767903645,,,,,,,,,,,,1.6887019457971978e+18,3.4451979003906255,-10.904359817504883,48.524279022216795,0.009759998321533184,1.6887019457971978e+18,3.4451979003906255,-265.4451599121094,143.98927612304686,-133.20203552246093,1.688701945807516e+18,3.4555160319010416,0.3558961749076843,-0.3952256540457408,-0.425179789463679,0.7323570648829142,-0.7029632528622946,1.1292558511098225,-0.4482375383377075
3.5,1.6887019458594243e+18,3.507424072265625,1.3465131918589275,0.3514273961385091,1.2511211236317952,1.6887019458507748e+18,3.4987747395833337,4.5718865394592285,-8.416354815165201,4.261417786280314,1.6887019458594243e+18,3.507424072265625,3.2147414684295654,-8.846190134684244,2.7651564280192056,1.6887019458594243e+18,3.507424072265625,-0.05574145416418707,-0.15877406050761542,0.017511472105979902,1.6887019458594243e+18,3.507424072265625,-0.0567086568723122,-0.1543452863891919,0.01990402676165104,,,,,,,,,,,,1.688701945847194e+18,3.4951940429687496,-11.209359741210937,48.57307891845703,0.11711999326944353,1.688701945847194e+18,3.4951940429687496,-265.7501525878906,144.03807678222657,-133.094677734375,1.6887019458594243e+18,3.507424072265625,0.3590492407480876,-0.3987569212913513,-0.4190856417020162,0.7324221928914388,-0.7080976565678915,1.1203263600667317,-0.45599788427352905
3.5500000000000003,1.6887019459026765e+18,3.5506766357421875,1.4547556638717651,1.0488865375518799,-0.5236399173736572,1.6887019459026831e+18,3.5506831054687495,4.52781867980957,-7.984649658203125,2.4384856621424356,1.6887019459026765e+18,3.5506766357421875,3.1312249898910522,-8.874156951904297,2.771222710609436,1.6887019459026765e+18,3.5506766357421875,0.02565633994527165,0.07666358910500995,-0.42386412620544434,1.6887019459026765e+18,3.5506766357421875,0.02466368465684355,0.0810923613607883,-0.42149700224399567,,,,,,,,,,,,1.6887019458971935e+18,3.5451935546874997,-11.233759880065918,48.46571807861328,0.19275999665260313,1.6887019458971935e+18,3.5451935546874997,-265.774560546875,143.93071594238282,-133.0190399169922,1.6887019459026765e+18,3.5506766357421875,0.35739897191524506,-0.4008694142103195,-0.42214004695415497,0.730317234992981,-0.7221154868602753,1.1270147562026978,-0.4417835474014282
3.6,1.68870194594594e+18,3.59393994140625,1.2251282533009846,-0.0009667078653971354,-0.9313432375590006,1.6887019459545874e+18,3.6025874837239584,4.054239273071289,-9.548359553019205,2.0923239390055337,1.68870194594594e+18,3.59393994140625,2.846794287363688,-8.953018506368002,2.820800304412842,1.68870194594594e+18,3.59393994140625,-0.1433497120936711,-0.450614919885993,-0.8022187948226929,1.68870194594594e+18,3.59393994140625,-0.1443169141809145,-0.44618615632255865,-0.7998262246449789,,,,,,,,,,,,1.6887019459471982e+18,3.5951982421875,-8.66443977355957,48.74387893676758,0.5807200074195862,1.6887019459471982e+18,3.5951982421875,-263.2052368164062,144.20887451171876,-132.63107604980468,1.68870194594594e+18,3.59393994140625,0.3514229158560435,-0.4092065095901489,-0.43116737405459077,0.7232535084088644,-0.7783185442288717,1.1463913520177205,-0.38686803976694745
3.6500000000000004,1.6887019459978473e+18,3.645847086588542,2.410593032836914,-4.647789637247722,2.9848252137502036,1.6887019460064975e+18,3.654497639973958,4.8618167241414385,-14.07298755645752,7.022336324055989,1.6887019459978473e+18,3.645847086588542,2.3071921666463218,-9.009288469950357,3.115600903828939,1.6887019459978473e+18,3.645847086588542,-0.3616831302642822,-1.7549140453338623,-0.6217080950737,1.6887019459978473e+18,3.645847086588542,-0.3627012421687444,-1.7504343191782634,-0.6193155447642008,,,,,,,,,,,,1.6887019459971958e+18,3.645195654296875,-5.938959789276123,48.89759826660156,-0.31719998717308046,1.6887019459971958e+18,3.645195654296875,-260.47974853515626,144.3625946044922,-133.52900085449218,1.6887019459978473e+18,3.645847086588542,0.3536248505115509,-0.4431476493676503,-0.42940611640612286,0.7028349240620931,-0.9296220342318217,1.1607460975646973,-0.2968047757943471
3.7,1.688701946049754e+18,3.6977540690104167,-0.19891961415608725,1.3744856516520183,1.7644813060760498,1.688701946058405e+18,3.7064051920572916,0.7832506075501442,-5.965506315231323,4.297908226648967,1.688701946049754e+18,3.6977540690104167,2.01401158173879,-9.043923695882162,3.22208579381307,1.688701946049754e+18,3.6977540690104167,0.26201028376817703,0.6622797250747681,-0.3152573704719543,1.688701946049754e+18,3.6977540690104167,0.2609921768307686,0.6668103138605753,-0.3128139078617096,,,,,,,,,,,,1.6887019460472008e+18,3.6952005859375,-4.9068399429321286,49.234318542480466,-1.6591999530792236,1.6887019460472008e+18,3.6952005859375,-259.4476379394531,144.69931640625,-134.87099609375,1.688701946049754e+18,3.6977540690104167,0.35407333572705585,-0.4587812026341756,-0.43052948514620465,0.6919029355049133,-1.00774880250295,1.1699163516362507,-0.245814765493075
3.75,1.6887019461016568e+18,3.7496569010416665,-3.6850555737813315,4.73613182703654,1.509855588277181,1.688701946101657e+18,3.7496569824218753,-1.8053846955299377,-4.165306091308594,4.325026869773865,1.6887019461016568e+18,3.7496569010416665,2.0550812085469565,-9.14235814412435,2.9022347132364907,1.6887019461016568e+18,3.7496569010416665,0.2269364365686973,2.0229310989379883,-0.6541857620080312,1.6887019461016568e+18,3.7496569010416665,0.2259692307561636,2.027359922726949,-0.6517932216326395,,,,,,,,,,,,1.6887019460971978e+18,3.7451978515625,-4.897079849243164,49.58811874389649,-0.5685199826955796,1.6887019460971978e+18,3.7451978515625,-259.43787841796876,145.05311584472656,-133.7803161621094,1.6887019461016568e+18,3.7496569010416665,0.3332642912864685,-0.4282100697358449,-0.45849361022313434,0.7036539912223816,-0.9496777852376302,1.1968046426773071,-0.2104309300581614
3.8000000000000003,1.6887019461535624e+18,3.8015624999999997,-3.114488442738851,0.15778923034667972,4.322148164113362,1.6887019461449142e+18,3.7929142252604167,-1.3982060352961223,-8.653443654378256,7.239086151123047,1.6887019461535624e+18,3.8015624999999997,1.751313845316569,-9.215263684590658,2.867809772491455,1.6887019461535624e+18,3.8015624999999997,-0.5281439224878947,1.5561283032099407,-1.4643967151641846,1.6887019461535624e+18,3.8015624999999997,-0.5291111270586649,1.56060794989268,-1.4620041449864705,,,,,,,,,,,,1.6887019461471936e+18,3.7951936035156253,-2.4473199605941773,49.60519943237305,-0.5977999806404114,1.6887019461471936e+18,3.7951936035156253,-256.9881134033203,145.07019653320313,-133.80959777832032,1.6887019461535624e+18,3.8015624999999997,0.2938478291034698,-0.4095812241236369,-0.4912232756614685,0.7101688385009766,-1.0165999333063762,1.2181837558746338,-0.04280566920836767
3.85,1.6887019462054697e+18,3.8534696451822916,-3.066258509953817,2.0015691121419272,1.1329739888509116,1.6887019461968248e+18,3.8448245442708333,-1.8394823869069417,-7.612167040506999,4.799204508463542,1.6887019462054697e+18,3.8534696451822916,1.0310993989308674,-9.23830509185791,3.123981555302938,1.6887019462054697e+18,3.8534696451822916,-0.7266242305437723,0.5379686579108238,-1.9115500847498577,1.6887019462054697e+18,3.8534696451822916,-0.727693239847819,0.5424483132859071,-1.9092592795689898,,,,,,,,,,,,1.6887019461971935e+18,3.845193505859375,1.6909199655056,49.629598999023436,-2.132559967041016,1.6887019461971935e+18,3.845193505859375,-252.8498748779297,145.09459533691407,-135.3443572998047,1.6887019462054697e+18,3.8534696451822916,0.2480899443229039,-0.412805716196696,-0.5246985952059428,0.7017829418182373,-1.2431812286376955,1.2258699735005696,0.254689301053683
3.9000000000000004,1.6887019462573834e+18,3.9053834635416664,-2.627532402674357,1.075608253479004,-0.11003518104553223,1.6887019462487316e+18,3.896731608072917,-2.580260435740153,-7.736992518107097,3.479762395222982,1.6887019462573834e+18,3.9053834635416664,0.07891344527403514,-9.151028315226236,3.521925687789917,1.6887019462573834e+18,3.9053834635416664,-0.8894197940826416,-1.2814425627390544,-1.486133337020874,1.6887019462573834e+18,3.9053834635416664,-0.89043790102005,-1.2769629160563152,-1.4837408065795898,,,,,,,,,,,,1.6887019462471967e+18,3.895196728515625,6.722199821472168,48.90979919433594,-4.047959995269776,1.6887019462471967e+18,3.895196728515625,-247.81859741210937,144.37479553222656,-137.25975952148437,1.6887019462573834e+18,3.9053834635416664,0.22194039324919376,-0.4452333648999532,-0.5440005858739217,0.6755126317342123,-1.5369804700215657,1.2013917366663616,0.535760760307312
3.95,1.6887019463092836e+18,3.957283610026041,-0.6919142007827759,-1.4813989003499348,-0.7718096574147543,1.6887019463006351e+18,3.94863525390625,-1.9826529423395793,-10.120443344116211,3.3858439922332764,1.6887019463092836e+18,3.957283610026041,-0.7685685555140177,-8.938190142313639,3.9621646404266357,1.6887019463092836e+18,3.957283610026041,-1.0651962757110596,-1.9454021851221721,-0.7379761338233948,1.6887019463092836e+18,3.957283610026041,-1.066163460413615,-1.940922498703003,-0.7356344858805338,,,,,,,,,,,,1.6887019462971935e+18,3.9451934570312504,11.348439598083496,48.3339599609375,-5.8730799674987795,1.6887019462971935e+18,3.9451934570312504,-243.19235534667968,143.79895935058593,-139.08487548828126,1.6887019463092836e+18,3.957283610026041,0.21752670407295224,-0.49657439192136127,-0.5392430424690247,0.6442367434501648,-1.7527283827463787,1.145762324333191,0.6668634613355001
4.0,1.688701946352537e+18,4.000537231445312,6.1479651927948,-2.7710814476013184,-2.164392113685608,1.6887019463525417e+18,4.000541910807292,3.90987221399943,-11.38604736328125,2.3054845730463662,1.688701946352537e+18,4.000537231445312,-1.2066504955291748,-8.735846042633057,4.29622220993042,1.688701946352537e+18,4.000537231445312,-0.6904304325580597,1.3413837254047394,-1.471268892288208,1.688701946352537e+18,4.000537231445312,-0.691423088312149,1.3458125442266464,-1.4688254594802856,,,,,,,,,,,,1.688701946347195e+18,3.995194921875,13.585919761657715,47.37015914916992,-7.734800052642822,1.688701946347195e+18,3.995194921875,-240.9548767089844,142.83515625,-140.94659729003905,1.688701946352537e+18,4.000537231445312,0.19984135776758188,-0.5177435278892517,-0.5402148365974426,0.6324871778488159,-1.837138831615448,1.0982074737548828,0.7389019131660461
4.05,1.6887019463958003e+18,4.043800130208333,-0.7922423283259074,-0.308380126953125,-2.32660174369812,1.688701946404447e+18,4.05244677734375,-2.1318056186040244,-8.526424407958984,1.9780666828155518,1.6887019463958003e+18,4.043800130208333,-1.3840932846069336,-8.667339642842611,4.381163597106934,1.6887019463958003e+18,4.043800130208333,0.18779016099870205,1.7048739592234294,-1.292845368385315,1.6887019463958003e+18,4.043800130208333,0.18672114051878452,1.7094046274820964,-1.2904019355773926,,,,,,,,,,,,1.688701946397196e+18,4.045196142578125,16.423639488220214,46.03791885375976,-9.01579990386963,1.688701946397196e+18,4.045196142578125,-238.11715698242188,141.50291748046874,-142.22759704589845,1.6887019463958003e+18,4.043800130208333,0.1609752873579661,-0.4952922562758128,-0.5687722563743591,0.6364517211914062,-1.8696056604385376,1.0834566752115886,0.8723590771357218
4.1000000000000005,1.6887019464477071e+18,4.09570703125,-0.13983476161956787,-0.7498455047607422,-1.658422549565633,1.6887019464563617e+18,4.104361653645833,-1.7238293091456096,-9.611968676249186,3.08414896329244,1.6887019464477071e+18,4.09570703125,-1.7695016463597615,-8.56007162729899,4.448777357737224,1.6887019464477071e+18,4.09570703125,-0.18835011683404443,-0.4089742799599965,-1.1820242404937744,1.6887019464477071e+18,4.09570703125,-0.18941913296778992,-0.404545525709788,-1.179580807685852,,,,,,,,,,,,1.6887019464471936e+18,4.095193603515625,18.495199584960936,45.091199493408205,-9.913719749450683,1.6887019464471936e+18,4.095193603515625,-236.04559631347655,140.5561981201172,-143.12551574707032,1.6887019464477071e+18,4.09570703125,0.13723974426587418,-0.49160708983739215,-0.5889429847399393,0.6265231370925903,-1.9420671463012695,1.0610297520955403,0.9871661067008972
4.15,1.688701946499614e+18,4.147613932291667,4.883862495422363,-2.154574712117513,0.21106505393981934,1.6887019465082657e+18,4.156265869140625,2.370290199915568,-10.81755256652832,4.796014149983724,1.688701946499614e+18,4.147613932291667,-2.6510234673817954,-8.401006062825521,4.310496966044108,1.688701946499614e+18,4.147613932291667,0.07605272283156707,-0.8830056885878245,-1.485827883084615,1.688701946499614e+18,4.147613932291667,0.07508552260696884,-0.8785260319709779,-1.4834353129069011,,,,,,,,,,,,1.6887019464971963e+18,4.1451962890625,22.638319396972655,43.78580017089844,-8.959679985046387,1.6887019464971963e+18,4.1451962890625,-231.90247497558593,139.25079956054688,-142.17147827148438,1.688701946499614e+18,4.147613932291667,0.13769040008385972,-0.5153339306513468,-0.606576164563497,0.5894045035044352,-2.1153575579325357,1.0291906595230103,1.115792949994405
4.2,1.6887019465515164e+18,4.1995166015625,1.696729024251302,-2.550993283589681,-0.48700586954752606,1.6887019465515249e+18,4.19952490234375,-1.4117653369903564,-10.834102630615234,3.8228331804275513,1.6887019465515164e+18,4.1995166015625,-2.8206214110056558,-8.333202044169107,4.339375178019206,1.6887019465515164e+18,4.1995166015625,0.2581414779027303,1.528792103131612,-0.3212133043756088,1.6887019465515164e+18,4.1995166015625,0.2572251756985982,1.5333226919174194,-0.31882075779139996,,,,,,,,,,,,1.688701946547196e+18,4.19519580078125,25.778599548339844,42.577998352050784,-8.64247989654541,1.688701946547196e+18,4.19519580078125,-228.76219482421874,138.04299621582032,-141.85427856445312,1.6887019465515164e+18,4.1995166015625,0.11646522084871923,-0.5017809271812439,-0.6247819264729818,0.5866561333338419,-2.1412936051686606,1.0161264340082805,1.1975146134694417
4.25,1.6887019466034289e+18,4.251428873697917,3.4344648122787476,-2.3757921854654946,-1.430903673171997,1.6887019465947779e+18,4.242777587890624,-0.03150548537572225,-10.77966594696045,3.1222347418467202,1.6887019466034289e+18,4.251428873697917,-2.5944480895996094,-8.365830739339193,4.417868773142497,1.6887019466034289e+18,4.251428873697917,0.18137607475121809,0.8487972418467203,-0.27723100905617076,1.6887019466034289e+18,4.251428873697917,0.18045977254708603,0.8532769481341044,-0.27478755700091523,,,,,,,,,,,,1.688701946597195e+18,4.245194970703125,24.624479675292967,42.73659820556641,-10.243119812011718,1.688701946597195e+18,4.245194970703125,-229.91631469726562,138.20159606933595,-143.45491638183594,1.6887019466034289e+18,4.251428873697917,0.09864669789870577,-0.4800807436307271,-0.6325892607371012,0.5996574560801188,-2.0959993998209634,1.0225120782852173,1.2178464730580647
4.3,1.6887019466553336e+18,4.303333902994791,3.2489622831344604,-3.696918805440267,-2.0955790678660073,1.688701946646688e+18,4.294688069661459,1.743769496679306,-11.883155822753906,2.5499513149261475,1.6887019466553336e+18,4.303333902994791,-2.1499224106470742,-8.486778577168783,4.4141489664713545,1.6887019466553336e+18,4.303333902994791,0.6326018571853638,2.1373156309127808,0.9960157697399458,1.6887019466553336e+18,4.303333902994791,0.6315837502479553,2.1417953173319497,0.9984083467473587,,,,,,,,,,,,1.6887019466471956e+18,4.295195556640625,24.304838943481446,42.45599899291993,-10.926319694519043,1.6887019466471956e+18,4.295195556640625,-230.2359588623047,137.9209991455078,-144.13811950683595,1.6887019466553336e+18,4.303333902994791,0.08361233522494631,-0.4491676688194275,-0.6372093359629313,0.6203428506851196,-2.0163185199101767,1.0468546946843464,1.214770992596944
4.3500000000000005,1.6887019467072453e+18,4.355245361328126,-1.5633221864700317,-3.6320584615071616,-1.1437425613403323,1.6887019466985956e+18,4.346595621744792,-1.9210377136866252,-12.675180435180664,2.577269355456034,1.6887019467072453e+18,4.355245361328126,-0.8020464181900024,-8.893014907836914,4.041375557581584,1.6887019467072453e+18,4.355245361328126,1.4844025373458862,0.8662069141864777,2.4937047163645425,1.6887019467072453e+18,4.355245361328126,1.4834353526433308,0.8706356883049011,2.4960972468058267,,,,,,,,,,,,1.688701946697195e+18,4.345195166015625,18.746520042419434,44.70811920166015,-11.067839622497559,1.688701946697195e+18,4.345195166015625,-235.79427795410157,140.17311401367186,-144.27963562011718,1.6887019467072453e+18,4.355245361328126,0.0973068277041117,-0.3963918189207713,-0.6180388530095419,0.6715395649274191,-1.7545544703801472,1.136484185854594,1.0233037670453389
4.4,1.6887019467591508e+18,4.407151123046876,0.02241573731104518,-2.4410622914632163,2.754004796346029,1.6887019467504988e+18,4.398498616536458,-0.559122900168101,-11.68714427947998,5.434100310007731,1.6887019467591508e+18,4.407151123046876,0.2989566499988238,-9.249115626017252,3.2375478744506836,1.6887019467591508e+18,4.407151123046876,1.6718363761901855,-0.4770348370075226,2.2719605763753257,1.6887019467591508e+18,4.407151123046876,1.6708691517512004,-0.47255518039067584,2.2744040489196777,,,,,,,,,,,,1.688701946747196e+18,4.3951958984375,12.219519996643067,47.60927886962891,-7.864119911193848,1.688701946747196e+18,4.3951958984375,-242.32127685546874,143.07427673339845,-141.07591552734374,1.6887019467591508e+18,4.407151123046876,0.15728689730167383,-0.3675841788450877,-0.5898737112681071,0.7012942433357239,-1.4643563032150269,1.2311079104741414,0.6921663681666056
4.45,1.6887019468024105e+18,4.4504106445312495,1.3728205561637878,-2.6338233947753906,6.903824329376221,1.6887019468024061e+18,4.450406168619792,2.251047889391581,-11.893524805704752,9.332008361816406,1.6887019468024105e+18,4.4504106445312495,1.102092295885086,-9.395636558532715,2.5877294540405273,1.6887019468024105e+18,4.4504106445312495,1.548543393611908,2.1204660534858704,1.3493250012397766,1.6887019468024105e+18,4.4504106445312495,1.5476270914077759,2.125047504901886,1.351768434047699,,,,,,,,,,,,1.6887019467971914e+18,4.44519140625,7.4078398704528805,48.86831893920898,-3.845439910888672,1.6887019467971914e+18,4.44519140625,-247.1329559326172,144.33331909179688,-137.05723571777344,1.6887019468024105e+18,4.4504106445312495,0.18202604353427887,-0.32760243117809296,-0.5786106586456299,0.7242714166641235,-1.1563510298728943,1.2779347896575928,0.4106245189905166
4.5,1.6887019468456676e+18,4.493667561848958,-2.497499426205953,0.5303638776143392,5.256560802459717,1.6887019468543173e+18,4.502317464192708,-1.5138591130574544,-8.186045487721762,6.10728120803833,1.6887019468456676e+18,4.493667561848958,1.6404068072636921,-9.49272378285726,1.8364875316619873,1.6887019468456676e+18,4.493667561848958,1.4735596577326457,2.090584476788839,0.48543424407641095,1.6887019468456676e+18,4.493667561848958,1.472490668296814,2.0950642029444375,0.48777591188748676,,,,,,,,,,,,1.6887019468471946e+18,4.495194482421875,4.033319997787475,49.449038696289065,0.1927599966526031,1.6887019468471946e+18,4.495194482421875,-250.50747375488282,144.9140380859375,-133.0190399169922,1.6887019468456676e+18,4.493667561848958,0.17980997761090592,-0.26739818354447675,-0.5857410828272501,0.743498702843984,-0.828069806098938,1.314161419868469,0.1789650246500968
4.55,1.6887019468975688e+18,4.545568684895834,-4.406975746154785,4.532731056213379,1.815927545229594,1.6887019469062185e+18,4.5542185058593745,-2.6121648152669272,-4.627519607543945,2.8801608085632324,1.6887019468975688e+18,4.545568684895834,1.988566239674886,-9.5339724222819,1.1634602546691895,1.6887019468975688e+18,4.545568684895834,1.1267918546994526,-0.06816237668196358,0.9157379070917765,1.6887019468975688e+18,4.545568684895834,1.1258755922317505,-0.06373360256354015,0.9181304574012756,,,,,,,,,,,,1.6887019468971927e+18,4.545192822265625,2.4741599559783936,49.553959655761716,3.4623599529266356,1.6887019468971927e+18,4.545192822265625,-252.06663513183594,145.01895751953126,-129.7494384765625,1.6887019468975688e+18,4.545568684895834,0.1967694709698359,-0.2321526060501734,-0.5858427087465922,0.7510517835617065,-0.5226743817329407,1.33057697614034,-0.09824693222374963
4.6000000000000005,1.6887019469494764e+18,4.5974764811197915,-4.9570159912109375,5.439864317576091,1.5942083597183228,1.6887019469581315e+18,4.606131429036458,-2.11545459429423,-4.067997932434082,2.7172494729359946,1.6887019469494764e+18,4.5974764811197915,2.4012186527252197,-9.459849039713541,0.9861763119697571,1.6887019469494764e+18,4.5974764811197915,0.25534166108506423,-1.2511538465817769,0.9072366754213969,1.6887019469494764e+18,4.5974764811197915,0.2543235574654924,-1.246674160162608,0.9096801479657491,,,,,,,,,,,,1.6887019469471954e+18,4.595195458984375,-0.3903999924659729,49.61007843017578,5.206959819793701,1.6887019469471954e+18,4.595195458984375,-254.9311950683594,145.0750732421875,-128.0048385620117,1.6887019469494764e+18,4.5974764811197915,0.22514331837495163,-0.23466430107752478,-0.566536525885264,0.7570665081342062,-0.3846604923407236,1.3001629908879597,-0.2840499679247538
4.65,1.6887019470013821e+18,4.64938232421875,-2.2218286593755088,5.442919413248698,2.859367609024048,1.6887019470013898e+18,4.649389770507813,0.44027937948703766,-3.8398821353912354,4.237688899040222,1.6887019470013821e+18,4.64938232421875,2.5278471310933432,-9.398497581481934,1.2284952799479167,1.6887019470013821e+18,4.64938232421875,-0.12405654788017266,-1.202284614245097,0.2511674215396245,1.6887019470013821e+18,4.64938232421875,-0.12502375245094297,-1.1978049079577129,0.2536108841498692,,,,,,,,,,,,1.6887019469971932e+18,4.64519306640625,-2.6522799491882325,49.6661994934082,5.324079895019532,1.6887019469971932e+18,4.64519306640625,-257.1930725097656,145.13119812011718,-127.8877182006836,1.6887019470013821e+18,4.64938232421875,0.24584951500097907,-0.26164700587590534,-0.5487757523854574,0.7549017469088236,-0.4475404719511668,1.277355949083964,-0.2949272394180298
4.7,1.6887019470532887e+18,4.7012887369791665,2.5749957958857217,1.5557044347127278,2.446849783261617,1.688701947044641e+18,4.692641031901042,3.590629776318868,-6.745566527048747,4.405984083811442,1.6887019470532887e+18,4.7012887369791665,2.5850631395975747,-9.343188603719076,1.4988394578297932,1.6887019470532887e+18,4.7012887369791665,-0.2207259784142176,-1.2373584508895872,0.5101233869791032,1.6887019470532887e+18,4.7012887369791665,-0.22169317305088035,-1.2328788042068481,0.5125159323215485,,,,,,,,,,,,1.6887019470471916e+18,4.695191601562501,-3.2012799263000487,49.53199920654297,4.667719745635987,1.6887019470471916e+18,4.695191601562501,-257.7420715332031,144.9969940185547,-128.54407958984376,1.6887019470532887e+18,4.7012887369791665,0.2597525517145792,-0.28594881296157837,-0.5337952971458435,0.7521405418713888,-0.5205656786759695,1.258514126141866,-0.28210762143135065
4.75,1.688701947105203e+18,4.753202799479166,4.2616861661275225,-2.6852070490519204,-0.7913763721783956,1.6887019470965484e+18,4.744548258463542,7.7798638343811035,-11.7766752243042,1.4548361500104268,1.688701947105203e+18,4.753202799479166,2.9779345989227295,-9.172268867492676,1.7946914434432983,1.688701947105203e+18,4.753202799479166,-0.2388992110888163,-1.1944451729456584,0.9657779335975647,1.688701947105203e+18,4.753202799479166,-0.239866425593694,-1.1899655262629192,0.9681196212768555,,,,,,,,,,,,1.6887019470971932e+18,4.745193212890625,-5.892599964141846,49.53931884765625,3.9674399375915526,1.6887019470971932e+18,4.745193212890625,-260.4333984375,145.0043182373047,-129.24435729980468,1.688701947105203e+18,4.753202799479166,0.27844300866127014,-0.3054267764091491,-0.5034284790356954,0.7586972117424011,-0.5386930505434672,1.2057479619979858,-0.3279070953528086
4.800000000000001,1.6887019471571087e+18,4.805108968098959,1.6969885031382244,-0.13864676157633463,-2.0386623541514077,1.6887019471484593e+18,4.796459391276041,5.256632645924886,-9.85045305887858,0.01076770946383479,1.6887019471571087e+18,4.805108968098959,3.0050440629323325,-9.11424191792806,2.0314086278279624,1.6887019471571087e+18,4.805108968098959,-0.19313522676626838,-0.976518988609314,-0.2589559455712636,1.6887019471571087e+18,4.805108968098959,-0.19410243133703864,-0.9720393220583597,-0.2565125028292338,,,,,,,,,,,,1.688701947147196e+18,4.795195751953125,-7.573759937286377,49.251399230957034,2.615679931640625,1.688701947147196e+18,4.795195751953125,-262.11455688476565,144.71640014648438,-130.5961181640625,1.6887019471571087e+18,4.805108968098959,0.29060089588165283,-0.3257060348987579,-0.4892212549845378,0.7550339698791504,-0.5913556218147278,1.1892314354578655,-0.3284375071525573
4.8500000000000005,1.6887019472090135e+18,4.857013509114584,2.3120244344075522,-1.1738252639770508,0.518905242284139,1.6887019472003656e+18,4.848365478515625,4.320640007654826,-9.494720141092936,2.300300121307373,1.6887019472090135e+18,4.857013509114584,2.511044979095459,-9.17856534322103,2.376135508219401,1.6887019472090135e+18,4.857013509114584,-0.37563122312227887,-1.7083864609400432,-0.8196284373601278,1.6887019472090135e+18,4.857013509114584,-0.3766493300596873,-1.703906774520874,-0.8172358870506287,,,,,,,,,,,,1.6887019471971948e+18,4.845194775390626,-5.914559841156006,49.45147933959961,2.0569199562072753,1.6887019471971948e+18,4.845194775390626,-260.4553527832031,144.9164794921875,-131.15487670898438,1.6887019472090135e+18,4.857013509114584,0.29752789934476215,-0.3629016677538554,-0.48868444561958313,0.7353763182957967,-0.7543401718139648,1.2075342734654744,-0.2352049102385838
4.9,1.688701947252274e+18,4.900273925781249,5.176232099533081,-9.638947010040283,7.160244464874268,1.688701947252275e+18,4.900274820963541,5.618347644805908,-17.922441482543945,9.72044293085734,1.688701947252274e+18,4.900273925781249,2.1393609046936035,-9.19121503829956,2.6794649362564087,1.688701947252274e+18,4.900273925781249,-0.4182136207818985,-0.14332428574562084,-0.4818963259458542,1.688701947252274e+18,4.900273925781249,-0.41928263008594513,-0.1388954520225525,-0.47945284843444824,,,,,,,,,,,,1.6887019472471936e+18,4.895193603515625,-3.9381599903106688,49.75403900146485,0.3977200031280518,1.6887019472471936e+18,4.895193603515625,-258.478955078125,145.2190399169922,-132.81407775878907,1.688701947252274e+18,4.900273925781249,0.2971594780683517,-0.3899287134408951,-0.4874139279127121,0.7225457429885864,-0.892218142747879,1.2113680243492126,-0.14068611711263657
4.95,1.6887019472955313e+18,4.9435314941406245,-4.829288800557454,-0.503935178120931,6.685684045155842,1.688701947304181e+18,4.952181233723958,-3.208176930745443,-6.887341181437175,7.294719219207764,1.6887019472955313e+18,4.9435314941406245,2.317958037058512,-9.254637082417807,2.265789786974589,1.6887019472955313e+18,4.9435314941406245,0.7170539895693461,4.409276167551677,-0.3846923808256785,1.6887019472955313e+18,4.9435314941406245,0.7160867849985758,4.413705031077067,-0.38235074281692505,1.6887019472958397e+18,4.94383984375,0.0,0.0,1.0274708271026611,12.562000274658203,1.223947048187256,253.79693603515625,41.80000305175781,-122.7541146,49.1905538,1.688701947297193e+18,4.945193017578125,-2.664479970932007,49.75403900146485,0.8979199841618538,1.688701947297193e+18,4.945193017578125,-257.2052734375,145.2190368652344,-132.31387939453126,1.6887019472955313e+18,4.9435314941406245,0.26422409713268274,-0.33935094873110455,-0.5142037669817606,0.7412239909172058,-0.7661157250404358,1.2306227684020996,-0.13025116423765817
5.0,1.6887019473474376e+18,4.9954375,-5.129635492960612,8.171964645385742,0.7083117167154948,1.6887019473560822e+18,5.004082356770834,-2.3667010068893433,-1.517448365688324,2.2679971059163413,1.6887019473474376e+18,4.9954375,2.2793215910593667,-9.421659151713053,1.4989919265111287,1.6887019473474376e+18,4.9954375,0.5940664410591125,2.266513705253601,-0.8504262367884318,1.6887019473474376e+18,4.9954375,0.5930483341217041,2.2709933519363403,-0.8479827841122946,,,,,,,,,,,,1.6887019473471977e+18,4.995197705078125,-1.0955600172281266,49.77355880737305,3.945479917526245,1.6887019473471977e+18,4.995197705078125,-255.6363555908203,145.23855590820312,-129.26632080078124,1.6887019473474376e+18,4.9954375,0.22367890179157254,-0.26681459943453467,-0.5577218135197958,0.7533162037531534,-0.5747138460477194,1.2865638335545857,-0.14132474859555558
5.050000000000001,1.688701947399341e+18,5.047340983072917,-4.460047721862793,1.9373261133829753,4.1780314445495605,1.688701947407995e+18,5.0559947916666665,-2.76450777053833,-8.975876649220785,6.551747798919678,1.688701947399341e+18,5.047340983072917,1.8767329454421997,-9.482736269632975,1.650011658668518,1.688701947399341e+18,5.047340983072917,-1.33850759267807,0.18356500566005707,-0.8503244320551554,1.688701947399341e+18,5.047340983072917,-1.3394747575124104,0.18799378971258798,-0.8479318618774414,,,,,,,,,,,,1.6887019473971955e+18,5.0451954589843755,1.4493599772453307,49.91019897460937,3.423319911956787,1.6887019473971955e+18,5.0451954589843755,-253.09143676757813,145.3751953125,-129.7884765625,1.688701947399341e+18,5.047340983072917,0.19366595645745596,-0.26193058490753174,-0.578152596950531,0.747954249382019,-0.7108301122983297,1.3098867734273274,0.048979155719280236
5.1000000000000005,1.6887019474512456e+18,5.099245686848959,-3.7912138303120932,0.3614672025044759,2.706944465637207,1.6887019474512466e+18,5.099246826171875,-2.44636207818985,-9.025428056716919,5.120939612388611,1.6887019474512456e+18,5.099245686848959,1.4128841956456502,-9.390227953592936,2.45389993985494,1.6887019474512456e+18,5.099245686848959,-0.9979501763979594,-2.047518491744995,-0.3745113064845403,1.6887019474512456e+18,5.099245686848959,-0.9989683032035828,-2.043038805325826,-0.37211874127388,,,,,,,,,,,,1.6887019474471951e+18,5.095195166015626,3.413559913635254,49.78331756591797,0.2122799873352051,1.6887019474471951e+18,5.095195166015626,-251.12723388671876,145.2483154296875,-132.99951782226563,1.6887019474512456e+18,5.099245686848959,0.17977987726529432,-0.310422678788503,-0.5744259754816691,0.7355536222457886,-1.038059115409851,1.275978684425354,0.32189184427261347
5.15,1.6887019475031565e+18,5.151156656901041,-1.971449613571167,2.7353739738464355,0.03357100486755373,1.6887019474945014e+18,5.1425014648437495,-1.136790156364441,-6.062614917755127,3.0851460297902427,1.6887019475031565e+18,5.151156656901041,0.8493517637252808,-9.256855328877768,3.121689240137736,1.6887019475031565e+18,5.151156656901041,-1.1930707295735676,-3.2718451817830405,-0.23895012338956192,1.6887019475031565e+18,5.151156656901041,-1.1940888563791912,-3.26741631825765,-0.23650666077931717,,,,,,,,,,,,1.6887019474972e+18,5.145199951171875,4.189479923248291,49.59055938720703,-2.7645199298858643,1.6887019474972e+18,5.145199951171875,-250.3513153076172,145.05555725097656,-135.97631225585937,1.6887019475031565e+18,5.151156656901041,0.20106148719787595,-0.38186295827229816,-0.5558407107988993,0.7100376486778259,-1.293849507967631,1.2327131032943726,0.43069911003112793
5.2,1.688701947555064e+18,5.203064127604167,-0.8910394708315531,-0.8420273462931315,0.13938458760579422,1.688701947546415e+18,5.194415283203125,-0.9722836017608643,-9.649854977925619,4.000201225280762,1.688701947555064e+18,5.203064127604167,0.007426357517639796,-9.06629498799642,3.7347195943196616,1.688701947555064e+18,5.203064127604167,-0.93569282690684,-3.47098716100057,-0.6475171645482382,1.688701947555064e+18,5.203064127604167,-0.9367109537124634,-3.4665584564208984,-0.6451246043046316,,,,,,,,,,,,1.6887019475471933e+18,5.195193408203125,6.397679805755615,48.990319061279294,-4.858039855957031,1.6887019475471933e+18,5.195193408203125,-248.143115234375,144.45531616210937,-138.06983947753906,1.688701947555064e+18,5.203064127604167,0.22471987207730607,-0.4625944395860036,-0.5327538251876831,0.6715849240620931,-1.559561292330424,1.1782718102137248,0.5223131080468496
5.25,1.6887019476069742e+18,5.254973958333333,3.6621330082416534,-2.596216837565104,-0.7417358557383219,1.6887019475983173e+18,5.246317220052084,0.14297114436825117,-10.962517420450846,3.1830523014068604,1.6887019476069742e+18,5.254973958333333,-1.2081574201583862,-8.88678232828776,3.954224427541097,1.6887019476069742e+18,5.254973958333333,-0.4807509481906891,-2.961271047592163,-1.911091963450114,1.6887019476069742e+18,5.254973958333333,-0.481769065062205,-2.9568423430124917,-1.9086484511693318,,,,,,,,,,,,1.6887019475971896e+18,5.245189599609375,10.20651969909668,48.38275909423828,-5.158159923553467,1.6887019475971896e+18,5.245189599609375,-244.3342742919922,143.8477569580078,-138.36996154785157,1.6887019476069742e+18,5.254973958333333,0.2417924106121063,-0.5335524280865988,-0.524714191754659,0.617189904054006,-1.8580734729766846,1.133234699567159,0.6650452613830566
5.300000000000001,1.688701947658872e+18,5.306872314453124,11.860399087270102,-2.3494227727254233,1.236991008122762,1.688701947650228e+18,5.298227945963542,10.270991961161295,-11.055638313293457,4.720839738845825,1.688701947658872e+18,5.306872314453124,-3.1924625237782798,-8.306058565775553,4.093943198521932,1.688701947658872e+18,5.306872314453124,0.40968696648875874,3.556253890196482,-5.939849853515625,1.688701947658872e+18,5.306872314453124,0.4086688607931137,3.56078447898229,-5.9374574025472,,,,,,,,,,,,1.6887019476471997e+18,5.29519970703125,19.595639610290526,45.82807846069336,-5.253320026397705,1.6887019476471997e+18,5.29519970703125,-234.94515686035157,141.29307556152344,-138.46511840820312,1.688701947658872e+18,5.306872314453124,0.1725843623280525,-0.5589916706085205,-0.5897949934005737,0.5539207657178243,-2.2244413693745932,1.0123207370440166,1.086923082669576
5.3500000000000005,1.6887019477021322e+18,5.350132080078125,-1.8502620458602905,-3.844187021255493,0.7848207950592041,1.6887019477021348e+18,5.350134847005208,-3.5076786279678345,-11.343574206034342,5.547759294509888,1.6887019477021322e+18,5.350132080078125,-3.31062114238739,-7.875103235244751,4.8180975914001465,1.6887019477021322e+18,5.350132080078125,1.343445360660553,7.741495370864868,-2.4728589057922363,1.6887019477021322e+18,5.350132080078125,1.3423764109611511,7.746000528335571,-2.4704153537750244,,,,,,,,,,,,1.6887019476971942e+18,5.3451941894531245,27.989239501953126,40.142879486083984,-10.909239864349365,1.6887019476971942e+18,5.3451941894531245,-226.5515563964844,135.60787658691407,-144.12103881835938,1.6887019477021322e+18,5.350132080078125,0.03819743264466515,-0.4717021882534027,-0.6666357219219208,0.5748871862888336,-2.169066071510315,0.9334132373332977,1.3896576166152954
5.4,1.6887019477453898e+18,5.393389648437501,-0.9353022178014118,-3.159038702646891,-4.4974517822265625,1.6887019477540413e+18,5.402041422526042,-2.980260670185089,-11.686346371968588,0.39561333258946735,1.6887019477453898e+18,5.393389648437501,-2.647614320119222,-7.850380738576253,5.252112706502278,1.6887019477453898e+18,5.393389648437501,-0.17592918872833252,2.1622594197591147,-0.5146030609806379,1.6887019477453898e+18,5.393389648437501,-0.17689639329910278,2.1667898495992026,-0.5122105230887731,,,,,,,,,,,,1.688701947747192e+18,5.39519208984375,26.910759735107423,38.8667594909668,-16.777439689636232,1.688701947747192e+18,5.39519208984375,-227.63003845214843,134.33175659179688,-149.9892333984375,1.6887019477453898e+18,5.393389648437501,-0.03246811280647907,-0.4060046176115672,-0.6847025156021118,0.6042819817860922,-2.03422212600708,0.9294118682543436,1.4701162179311116
5.45,1.6887019477972974e+18,5.445297526041666,4.6039455731709795,-7.063426335652669,-4.860888957977295,1.6887019478059517e+18,5.453951578776042,2.3114667336146035,-15.267404874165853,0.7684948792060217,1.6887019477972974e+18,5.445297526041666,-2.2406978209813437,-8.022964159647623,5.1702853838602705,1.6887019477972974e+18,5.445297526041666,0.5363906050721804,-0.6470589935779572,2.480723738670349,1.6887019477972974e+18,5.445297526041666,0.5354233831167221,-0.6425793270270029,2.483065406481425,,,,,,,,,,,,1.6887019477971976e+18,5.44519765625,25.12711944580078,39.989158630371094,-17.11903953552246,1.6887019477971976e+18,5.44519765625,-229.4136749267578,135.45415649414062,-150.33084106445312,1.6887019477972974e+18,5.445297526041666,-0.009491435562570866,-0.4133351445198059,-0.6648042400677999,0.6218204100926717,-1.9742345412572224,0.959537923336029,1.3660216331481934
5.5,1.6887019478492106e+18,5.497210693359375,0.4922908544540405,-3.727644920349121,-1.20591139793396,1.6887019478578593e+18,5.505859375,-1.5595222115516663,-11.981062253316244,3.4412777423858643,1.6887019478492106e+18,5.497210693359375,-1.0588549772898357,-8.682772318522135,4.4122185707092285,1.6887019478492106e+18,5.497210693359375,2.211841265360514,0.13652838518222174,2.844137668609619,1.6887019478492106e+18,5.497210693359375,2.210924983024597,0.14100806166728339,2.846581141153971,,,,,,,,,,,,1.6887019478471933e+18,5.495193408203125,19.32479934692383,44.03223876953125,-13.42975959777832,1.6887019478471933e+18,5.495193408203125,-235.21599426269532,139.4972412109375,-146.6415588378906,1.6887019478492106e+18,5.497210693359375,0.04908682095507777,-0.38407952586809796,-0.6363292336463928,0.6666712164878845,-1.7955668369928997,1.0892644723256428,1.153705636660258
5.550000000000001,1.6887019479011116e+18,5.549111653645833,-1.3857402602831523,-4.051187833150228,2.6591177781422934,1.6887019479011128e+18,5.549112792968749,-1.496112421154976,-13.34267807006836,6.075675964355469,1.6887019479011116e+18,5.549111653645833,0.21558664242426553,-9.172788937886557,3.4498823483784995,1.6887019479011116e+18,5.549111653645833,1.915469765663147,-0.6542366743087769,2.623920758565267,1.6887019479011116e+18,5.549111653645833,1.9145534833272297,-0.649807890256246,2.6262624263763428,,,,,,,,,,,,1.688701947897196e+18,5.545196044921875,12.248799705505371,47.665399169921876,-8.513159942626952,1.688701947897196e+18,5.545196044921875,-242.2919952392578,143.13039855957032,-141.72496032714844,1.6887019479011116e+18,5.549111653645833,0.11900648226340606,-0.35080379247665405,-0.6037283539772034,0.7055276234944662,-1.4951976935068767,1.2090822855631511,0.8061832388242086
5.6000000000000005,1.6887019479530202e+18,5.601020100911458,2.668974836667379,-2.63187567392985,8.340472857157389,1.6887019479443702e+18,5.592370035807292,3.789832353591919,-12.819348017374674,10.49372386932373,1.6887019479530202e+18,5.601020100911458,1.0813125570615132,-9.425600051879883,2.4686289628346763,1.6887019479530202e+18,5.601020100911458,1.9605719645818074,1.8168150335550308,1.1613057255744934,1.6887019479530202e+18,5.601020100911458,1.9595539172490437,1.8213456720113754,1.1637492179870605,,,,,,,,,,,,1.6887019479471933e+18,5.595193359375,6.9539999008178714,49.2440788269043,-3.4257599830627443,1.6887019479471933e+18,5.595193359375,-247.5867950439453,144.70907897949218,-136.63755798339844,1.6887019479530202e+18,5.601020100911458,0.16427581012248985,-0.30643293261528015,-0.590969979763031,0.7275718649228414,-1.1419086853663127,1.2895612319310505,0.4560938576857249
5.65,1.6887019480049226e+18,5.652922932942708,-3.3566839694976807,3.354508558909098,5.444218794504802,1.6887019479962788e+18,5.644278727213542,-0.9700901508331299,-7.016753037770589,8.145766417185465,1.6887019480049226e+18,5.652922932942708,1.6928112904230754,-9.535810470581055,1.5441439946492512,1.6887019480049226e+18,5.652922932942708,1.4908675352732341,1.523803303639094,0.6442592144012451,1.6887019480049226e+18,5.652922932942708,1.4898494084676106,1.528333991765976,0.6467026670773824,,,,,,,,,,,,1.6887019479971958e+18,5.645195703125,4.204119873046875,49.47587890625,0.3196399927139283,1.6887019479971958e+18,5.645195703125,-250.33667602539063,144.94087829589844,-132.89216003417968,1.6887019480049226e+18,5.652922932942708,0.16354441146055854,-0.23527890443801872,-0.5974788467089335,0.7488298018773397,-0.7280727624893188,1.332391619682312,0.15206970771153763
5.7,1.6887019480568343e+18,5.704834309895833,-6.409984270731608,6.038374106089274,2.3241395155588784,1.6887019480481884e+18,5.6961883951822925,-3.827519178390503,-3.79681126276652,3.663610855738322,1.6887019480568343e+18,5.704834309895833,2.1062299410502114,-9.533333778381348,0.9385984738667806,1.6887019480568343e+18,5.704834309895833,1.0529789725939434,-0.1429933806260427,1.1433361172676086,1.6887019480568343e+18,5.704834309895833,1.052011768023173,-0.13846278438965479,1.145779589811961,,,,,,,,,,,,1.6887019480471964e+18,5.6951963867187505,2.3887599229812624,49.54663772583008,3.921079969406128,1.6887019480471964e+18,5.6951963867187505,-252.15202941894532,145.0116394042969,-129.29071960449218,1.6887019480568343e+18,5.704834309895833,0.1858717004458109,-0.2075606336196263,-0.5901594559351603,0.7576124668121338,-0.4154118597507477,1.3307825326919556,-0.15263403331240016
5.75,1.6887019481087406e+18,5.756740559895834,-5.052860975265503,6.877307573954265,1.543913761774699,1.6887019481000922e+18,5.7480922851562495,-3.16470738252004,-2.7128626505533853,2.369293212890625,1.6887019481087406e+18,5.756740559895834,2.621490557988485,-9.418328603108725,0.8049653172492981,1.6887019481087406e+18,5.756740559895834,0.2875648116072019,-1.3481287161509197,1.0402526060740154,1.6887019481087406e+18,5.756740559895834,0.2866485118865966,-1.3436489899953206,1.0426451365152996,,,,,,,,,,,,1.6887019480971976e+18,5.74519775390625,-1.4884000033140183,49.414878845214844,6.749039936065674,1.6887019480971976e+18,5.74519775390625,-256.02919006347656,144.8798797607422,-126.46275939941407,1.6887019481087406e+18,5.756740559895834,0.21702530980110166,-0.2132716327905654,-0.5652830600738525,0.7666342457135519,-0.2941389183203379,1.285007158915202,-0.3308404684066772
5.800000000000001,1.688701948151996e+18,5.799995727539063,-3.6042771339416504,8.111886501312256,2.2507925033569336,1.6887019481519982e+18,5.799998209635416,-0.7822535832722982,-1.3310075998306274,3.2017961343129477,1.688701948151996e+18,5.799995727539063,2.710992932319641,-9.375439643859863,0.9925037324428558,1.688701948151996e+18,5.799995727539063,-0.13332133740186686,-0.997695654630661,0.0337503030896187,1.688701948151996e+18,5.799995727539063,-0.13431399688124657,-0.9932668805122375,0.036117404699325596,,,,,,,,,,,,1.6887019481471956e+18,5.795195654296875,-3.0890398979187013,49.400238037109375,6.709999752044678,1.6887019481471956e+18,5.795195654296875,-257.629833984375,144.86524047851563,-126.50179748535156,1.688701948151996e+18,5.799995727539063,0.23189866542816162,-0.2336017787456512,-0.5531457364559174,0.7652855217456818,-0.34743076562881464,1.2696105241775513,-0.33138641715049744
5.8500000000000005,1.6887019481952576e+18,5.8432578125,1.0623934268951423,5.154043197631836,1.8418413798014324,1.688701948203906e+18,5.851906087239584,7.0179494606951875,-7.363313674926758,3.099104166030884,1.6887019481952576e+18,5.8432578125,2.445421059926351,-9.383998235066732,1.452601393063863,1.6887019481952576e+18,5.8432578125,-0.9119199713071188,-2.4699318011601767,-0.5039129356543223,1.6887019481952576e+18,5.8432578125,-0.9128871957461039,-2.4655030568440757,-0.5015203654766083,,,,,,,,,,,,1.6887019481971922e+18,5.8451919921875,-3.235439968109131,49.661318969726565,5.241119861602783,1.6887019481971922e+18,5.8451919921875,-257.77623291015624,145.126318359375,-127.97067565917969,1.6887019481952576e+18,5.8432578125,0.23945013682047522,-0.2721309810876846,-0.5473542809486389,0.7539595365524292,-0.5315867761770884,1.2728821436564128,-0.21754748622576395
5.9,1.688701948247165e+18,5.895164713541667,15.305768330891928,-12.818918863932291,-0.7697840134302775,1.6887019482558124e+18,5.903812093098959,15.402799288431803,-20.91745726267497,1.677368700504303,1.688701948247165e+18,5.895164713541667,2.8570878505706787,-9.068073908487955,2.395432392756144,1.688701948247165e+18,5.895164713541667,-0.6672175526618958,-3.2539772987365723,2.4732406536738076,1.688701948247165e+18,5.895164713541667,-0.668235681951046,-3.249497652053833,2.475633223851522,,,,,,,,,,,,1.6887019482471997e+18,5.895199853515625,-7.4517598152160645,49.466119384765626,1.7079999923706055,1.6887019482471997e+18,5.895199853515625,-261.9925598144531,144.93111267089844,-131.50379943847656,1.688701948247165e+18,5.895164713541667,0.2791745762030284,-0.34141432245572406,-0.48579417665799457,0.7540400425593058,-0.694009025891622,1.1787094672520955,-0.234315017859141
5.95,1.6887019482990646e+18,5.947064615885417,0.5511000156402588,1.3851396242777507,-1.2878795464833577,1.688701948307719e+18,5.955718912760417,1.3978071610132854,-6.918846607208252,2.22931307554245,1.6887019482990646e+18,5.947064615885417,2.8655877908070884,-8.996751149495443,2.6576953728993735,1.6887019482990646e+18,5.947064615885417,0.0003054328262806008,-0.01985311011473338,-0.9013825754324595,1.6887019482990646e+18,5.947064615885417,-0.000712675973772998,-0.015424345930417416,-0.8989391326904297,,,,,,,,,,,,1.6887019482971935e+18,5.9451935546875,-8.954799842834472,49.13671951293945,0.6661199808120728,1.6887019482971935e+18,5.9451935546875,-263.49559326171874,144.60171508789062,-132.5456787109375,1.6887019482990646e+18,5.947064615885417,0.29737430810928345,-0.36715344587961835,-0.4669019877910614,0.7474656502405802,-0.7451265454292297,1.1589120229085286,-0.2562951942284902
6.0,1.6887019483509763e+18,5.998976318359375,-3.9503339926401773,-7.702656428019207,9.559757868448893,1.6887019483596268e+18,6.007626627604167,-0.061415751775105644,-17.413567543029785,12.769497553507486,1.6887019483509763e+18,5.998976318359375,2.338704744974772,-9.167384465535482,2.5901222229003906,1.6887019483509763e+18,5.998976318359375,0.06434447442491847,1.441132905582587,-1.3155492146809895,1.6887019483509763e+18,5.998976318359375,0.06337726985414824,1.4456126044193904,-1.3131057421366374,1.6887019483426268e+18,5.990626708984375,0.0,0.0,0.987500011920929,13.008999824523926,0.44574174284935,268.771728515625,41.70000076293945,-122.7541229,49.1905642,1.6887019483471951e+18,5.99519521484375,-5.446079874038697,49.7930793762207,1.0735999941825867,1.6887019483471951e+18,5.99519521484375,-259.98687133789065,145.2580780029297,-132.13819885253906,1.6887019483509763e+18,5.998976318359375,0.27984884381294245,-0.36733974019686383,-0.49456172188123065,0.7361236214637756,-0.8324653704961141,1.2053069273630779,-0.1358351235588391
6.050000000000001,1.688701948402874e+18,6.0508738606770835,-3.9906604290008545,4.286309878031413,3.5490254561106362,1.688701948402869e+18,6.050869018554687,-1.9839491248130798,-4.344767808914185,5.158925533294678,1.688701948402874e+18,6.0508738606770835,1.932570179303487,-9.388448715209961,2.075029452641805,1.688701948402874e+18,6.0508738606770835,0.7237226168314616,3.3625077406565347,-1.6168584823608398,1.688701948402874e+18,6.0508738606770835,0.7227553923924764,3.366936445236206,-1.6144150495529175,,,,,,,,,,,,1.6887019483971948e+18,6.045194921875,-1.107759964466095,49.678399658203126,2.7279199361801147,1.6887019483971948e+18,6.045194921875,-255.6485565185547,145.14339599609374,-130.48387756347657,1.688701948402874e+18,6.0508738606770835,0.23208482066790262,-0.3150365650653839,-0.5482945839564005,0.7386067509651184,-0.8140330910682678,1.2760926485061646,0.009958849598964033
6.1000000000000005,1.6887019484547812e+18,6.102781412760417,-3.8832152684529624,5.931768894195557,1.8865612745285034,1.6887019484461353e+18,6.094135253906249,-2.400399923324585,-2.6769704023996987,3.1790643533070884,1.6887019484547812e+18,6.102781412760417,1.3890331983566284,-9.545572280883789,1.7759774128595989,1.6887019484547812e+18,6.102781412760417,-0.4201225737730662,1.5224288900693257,-1.358615239461263,1.6887019484547812e+18,6.102781412760417,-0.4210897584756215,1.526959498723348,-1.3561717669169109,,,,,,,,,,,,1.688701948447189e+18,6.095189062499999,3.047559976577759,49.52711944580078,3.6673200130462646,1.688701948447189e+18,6.095189062499999,-251.4932373046875,144.99212036132812,-129.5444763183594,1.6887019484547812e+18,6.102781412760417,0.19087596237659452,-0.2778215706348419,-0.5923662185668945,0.7316396037737528,-0.8997818430264791,1.3372081120808919,0.219309185942014
6.15,1.6887019485066985e+18,6.154698323567708,-4.31147559483846,-0.5182332992553711,3.7901490529378257,1.6887019484980477e+18,6.1460478515625,-3.4197423458099365,-9.765308698018393,6.4999033610026045,1.6887019485066985e+18,6.154698323567708,0.9530856808026632,-9.440936724344889,2.478572209676107,1.6887019485066985e+18,6.154698323567708,-1.5250759919484456,-0.8332201925416788,-0.2851722637812297,1.6887019485066985e+18,6.154698323567708,-1.526094118754069,-0.8287914171814919,-0.28277971347173053,,,,,,,,,,,,1.6887019484971937e+18,6.14519384765625,5.521719932556152,49.37339859008789,0.9564799904823303,1.6887019484971937e+18,6.14519384765625,-249.01907348632812,144.83839721679686,-132.25531616210938,1.6887019485066985e+18,6.154698323567708,0.15854700406392414,-0.30497389038403827,-0.5976576407750448,0.7241980830828348,-1.1923144261042278,1.295943816502889,0.51776984333992
6.2,1.6887019485586084e+18,6.206608235677083,-2.0658596754074097,3.8883654276529946,-0.37527044614156085,1.6887019485499556e+18,6.19795556640625,-1.6893328030904133,-5.883352597554524,3.2374889850616455,1.6887019485586084e+18,6.206608235677083,0.6805514097213745,-9.248530069986979,3.190949281056722,1.6887019485586084e+18,6.206608235677083,-1.250848412513733,-2.8943305015563965,0.3021237750848134,1.6887019485586084e+18,6.206608235677083,-1.251815636952718,-2.8898507754007974,0.3045163253943125,,,,,,,,,,,,1.6887019485471951e+18,6.1951950195312495,5.782799911499024,49.33679885864258,-2.037399935722351,1.6887019485471951e+18,6.1951950195312495,-248.75799255371095,144.8018005371094,-135.24919738769532,1.6887019485586084e+18,6.206608235677083,0.17120104034741715,-0.3665476640065511,-0.5739085872968038,0.711601972579956,-1.351811448733012,1.2310731808344524,0.5593482255935669
6.25,1.6887019486018642e+18,6.249864257812501,-1.289452612400055,1.4034440517425537,-0.5605958700180054,1.688701948601864e+18,6.249863850911457,-1.0374880234400432,-7.645466963450114,3.2723843256632485,1.6887019486018642e+18,6.249864257812501,0.2223897874355316,-9.043570041656494,3.7910306453704834,1.6887019486018642e+18,6.249864257812501,-1.288162112236023,-3.5488215684890747,-0.01588249579071995,1.6887019486018642e+18,6.249864257812501,-1.2891547679901123,-3.544392943382263,-0.0135153941810131,,,,,,,,,,,,1.6887019485971976e+18,6.24519765625,5.799879837036133,49.15135803222656,-4.511559867858887,1.6887019485971976e+18,6.24519765625,-248.74091796875,144.616357421875,-137.72335815429688,1.6887019486018642e+18,6.249864257812501,0.19404678791761393,-0.43450482189655304,-0.5464019775390625,0.6889814734458923,-1.5057565569877625,1.1727554202079773,0.564410001039505
6.300000000000001,1.688701948645117e+18,6.293117024739583,0.1614860693613688,-2.084808031717936,-0.32405893007914227,1.688701948653771e+18,6.301771077473958,-0.21535402908921245,-11.053444862365723,3.8047874768575034,1.688701948645117e+18,6.293117024739583,-0.581091046333313,-8.858609835306803,4.1614729563395185,1.688701948645117e+18,6.293117024739583,-0.8924741347630819,-3.624619801839193,-0.7096727093060812,1.688701948645117e+18,6.293117024739583,-0.8934922218322754,-3.6201910972595215,-0.7072292268276215,,,,,,,,,,,,1.6887019486471933e+18,6.295193310546875,8.29355993270874,48.778038787841794,-6.217119979858398,1.6887019486471933e+18,6.295193310546875,-246.2472351074219,144.24303283691407,-139.42891845703124,1.688701948645117e+18,6.293117024739583,0.21779740353425336,-0.5023261308670044,-0.5251282056172689,0.6509684324264526,-1.702480951944987,1.1266835927963257,0.6035803953806559
6.3500000000000005,1.6887019486970245e+18,6.345024332682292,8.331499497095743,-1.7006336847941081,-1.3905580043792725,1.6887019487056786e+18,6.353678873697916,7.868398348490397,-10.135199228922525,2.96809713045756,1.6887019486970245e+18,6.345024332682292,-2.2260767618815103,-8.52214527130127,4.265459219614665,1.6887019486970245e+18,6.345024332682292,-0.4211406707763672,-2.0249165296554565,-3.9905789693196616,1.6887019486970245e+18,6.345024332682292,-0.42210787286361057,-2.020385891199112,-3.988186518351237,,,,,,,,,,,,1.6887019486971953e+18,6.3451953125,15.2231595993042,47.02367935180664,-6.780759811401367,1.6887019486971953e+18,6.3451953125,-239.31763305664063,142.48867797851562,-139.99255981445313,1.6887019486970245e+18,6.345024332682292,0.216403712828954,-0.5719362099965414,-0.5337401231129965,0.5830512841542562,-2.039975921312968,1.0539481242497761,0.8105895519256592
6.4,1.6887019487489324e+18,6.396932373046876,5.698496500651042,-3.6666380564371743,0.1952346165974935,1.688701948757586e+18,6.405586181640625,-0.00558320681254069,-11.835499127705893,4.966901620229085,1.6887019487489324e+18,6.396932373046876,-3.7348500887552896,-7.7840576171875,4.648162047068278,1.6887019487489324e+18,6.396932373046876,0.7588473657766978,5.454873879750569,-4.303851048151652,1.6887019487489324e+18,6.396932373046876,0.7578801612059275,5.459353605906169,-4.301407655080159,,,,,,,,,,,,1.6887019487471974e+18,6.3951974609375,26.6765193939209,41.62151947021484,-9.208559703826904,1.6887019487471974e+18,6.3951974609375,-227.86427307128906,137.08651733398438,-142.42035522460938,1.6887019487489324e+18,6.396932373046876,0.1082198098301887,-0.5557963053385416,-0.6159430543581644,0.5451287825902303,-2.2458197275797525,0.9180783828099569,1.207272966702779
6.45,1.688701948800841e+18,6.448841227213542,1.8430423736572266,-3.546402931213379,-3.674046516418457,1.6887019488094935e+18,6.457493408203125,-1.1535398960113528,-11.16989549001058,1.484347661336263,1.688701948800841e+18,6.448841227213542,-2.932637612024943,-7.557932217915853,5.513254324595134,1.688701948800841e+18,6.448841227213542,0.09916379302740101,5.041572650273641,-1.278642733891805,1.688701948800841e+18,6.448841227213542,0.09814568733175598,5.0460522174835205,-1.276301105817159,,,,,,,,,,,,1.6887019487971976e+18,6.4451976562499995,27.542719268798827,39.14003982543945,-16.130839347839355,1.6887019487971976e+18,6.4451976562499995,-226.99807434082032,134.60503845214845,-149.34263916015624,1.688701948800841e+18,6.448841227213542,-0.014495123798648498,-0.4584729274113973,-0.6618080933888754,0.5918682416280111,-2.058028221130371,0.8809477686882019,1.377403974533081
6.5,1.6887019488527496e+18,6.500749430338542,-1.1260146299997966,-5.728194713592529,-5.032248497009277,1.6887019488527478e+18,6.5007478027343755,-4.302294969558716,-13.45065450668335,0.9439685195684433,1.6887019488527496e+18,6.500749430338542,-2.3683674335479736,-7.685214201609294,5.607048988342285,1.6887019488527496e+18,6.500749430338542,0.7757988770802816,-0.35689800977706904,2.1679607878128686,1.6887019488527496e+18,6.500749430338542,0.7748316526412964,-0.35236744085947674,2.170302381118139,1.6887019488617078e+18,6.509707763671875,0.0,0.0,0.9888490438461304,12.984000205993652,0.1904105991125106,271.8530578613281,41.70000076293945,-122.7541458,49.1905922,1.6887019488471964e+18,6.495196435546875,26.134839630126955,38.749639892578124,-18.78799934387207,1.6887019488471964e+18,6.495196435546875,-228.40595397949218,134.21463317871093,-151.9997985839844,1.6887019488527496e+18,6.500749430338542,-0.031205051578581267,-0.43044062455495197,-0.659074624379476,0.6155170202255249,-1.9665269056955974,0.9019848704338074,1.3595376412073772
6.550000000000001,1.688701948904653e+18,6.552653157552084,4.136794686317444,-6.10223929087321,-2.6897640228271484,1.6887019488960061e+18,6.544006184895832,2.768495778242747,-14.650256156921387,1.3880365292231243,1.688701948904653e+18,6.552653157552084,-1.5071460008621216,-8.406085332234701,4.805741628011067,1.688701948904653e+18,6.552653157552084,2.1976386308670044,-1.1014409065246582,2.519462823867798,1.688701948904653e+18,6.552653157552084,2.196620504061381,-1.0969612499078114,2.521804412206014,,,,,,,,,,,,1.6887019488971955e+18,6.545195410156251,20.576519393920897,43.13431854248047,-15.035279464721679,1.6887019488971955e+18,6.545195410156251,-233.9642761230469,138.59931640625,-148.24707641601563,1.688701948904653e+18,6.552653157552084,0.0468745405475298,-0.42265276114145917,-0.6301020781199137,0.6492103139559428,-1.8689966599146526,1.0317582488059998,1.165608326594035
6.6000000000000005,1.6887019489565624e+18,6.6045625,-2.4296933015187583,-6.335117022196452,2.450598955154419,1.6887019489479094e+18,6.5959091796875,-2.5387848615646362,-14.452848116556803,5.012763977050781,1.6887019489565624e+18,6.6045625,-0.23437921206156412,-9.127944310506185,3.5465367635091147,1.6887019489565624e+18,6.6045625,2.5494461059570312,-0.7060074955224991,3.3861278692881265,1.6887019489565624e+18,6.6045625,2.5484279791514077,-0.7015278190374374,3.3885203997294107,,,,,,,,,,,,1.6887019489471926e+18,6.595192626953124,14.25203971862793,46.772359466552736,-8.232559871673583,1.6887019489471926e+18,6.595192626953124,-240.28875732421875,142.23735961914062,-141.44435424804686,1.6887019489565624e+18,6.6045625,0.1336812650163968,-0.3810243209203084,-0.6045130093892416,0.6859862804412842,-1.6202789147694905,1.197687745094299,0.8613357742627462
6.65,1.688701949008471e+18,6.656471028645833,-0.23705961306889853,-6.171690940856934,8.876542727152506,1.6887019489998162e+18,6.647816243489584,-0.20777678489685059,-16.78684711456299,11.137193361918131,1.688701949008471e+18,6.656471028645833,0.8914331992467245,-9.421380678812662,2.564862330754598,1.688701949008471e+18,6.656471028645833,1.862782637278239,-0.5814418991406759,1.9853120644887288,1.688701949008471e+18,6.656471028645833,1.8618154525756836,-0.5769622425238291,1.9877045551935832,,,,,,,,,,,,1.6887019489972004e+18,6.64520029296875,6.773439979553222,49.100118255615236,-2.4058398962020875,1.6887019489972004e+18,6.64520029296875,-247.7673553466797,144.56511840820312,-135.61763610839844,1.688701949008471e+18,6.656471028645833,0.21171547472476956,-0.3555190960566203,-0.5718551675478617,0.7081294457117716,-1.2237323919932048,1.288025975227356,0.38944582144419354
6.7,1.688701949051718e+18,6.6997178955078125,-1.1267166137695312,2.7223448753356934,7.9241533279418945,1.6887019490517258e+18,6.699725667317709,0.6187440752983093,-6.930810610453288,9.786444981892904,1.688701949051718e+18,6.6997178955078125,1.689465045928955,-9.47353744506836,1.891927182674408,1.688701949051718e+18,6.6997178955078125,1.4428637027740479,1.5987870693206787,1.9688950777053833,1.688701949051718e+18,6.6997178955078125,1.4419474005699158,1.6032158136367798,1.9712620973587036,,,,,,,,,,,,1.688701949047198e+18,6.6951978515625,1.90807995647192,49.6686393737793,2.113039970397949,1.688701949047198e+18,6.6951978515625,-252.63271789550782,145.13363647460938,-131.09876098632813,1.688701949051718e+18,6.6997178955078125,0.23992207646369929,-0.31672874093055725,-0.5590559542179108,0.727607011795044,-0.8370231688022614,1.307157814502716,0.020392458885908148
