time,TotalAcceleration_z,TotalAcceleration_y,TotalAcceleration_x,Location_bearingAccuracy,Location_speedAccuracy,Location_verticalAccuracy,Location_horizontalAccuracy,Location_speed,Location_bearing,Location_altitude,Location_longitude,Location_latitude,Orientation_qz,Orientation_qy,Orientation_qx,Orientation_qw,Orientation_roll,Orientation_pitch,Orientation_yaw,Magnetometer_z,Magnetometer_y,Magnetometer_x,GyroscopeUncalibrated_z,GyroscopeUncalibrated_y,GyroscopeUncalibrated_x,MagnetometerUncalibrated_z,MagnetometerUncalibrated_y,MagnetometerUncalibrated_x,Accelerometer_z,Accelerometer_y,Accelerometer_x,AccelerometerUncalibrated_z,AccelerometerUncalibrated_y,AccelerometerUncalibrated_x,Gyroscope_z,Gyroscope_y,Gyroscope_x,Gravity_z,Gravity_y,Gravity_x
3.1,-1.557627834379673,8.896714051564535,-0.4946163793404897,0.0,0.6292925417423249,0.9824634671211243,12.0528000831604,1.064627116918564,195.4997131347656,40.900001525878906,-122.75317759,49.190342980000004,-0.4233734409014384,-0.3957255433003108,0.608191043138504,0.5406515300273895,1.8761749267578125,-1.4437023003896077,-1.073848048845927,-3.4452800333499907,-48.88173904418945,-12.41227970123291,-0.6485607127348582,-0.02239839111765225,2.9871055682500205,-271.7354766845703,44.00905838012695,-155.2132766723633,-1.033376693725586,-0.8233059247334799,0.36058469613393146,-1.5382260434329509,8.860263252258301,-0.427477765083313,-0.2770985395040814,-0.10533433847101126,2.41415971250866,-0.5442804813385009,9.730866432189941,-0.8540380239486695
3.2,-4.258825500806172,9.478867689768473,-0.945164958635966,0.0,0.6375502347946167,0.9834197163581848,11.70300006866455,1.105487585067749,196.15359497070312,40.900001525878906,-122.7531783,49.1903416,-0.3915527214606603,-0.4073979755242665,0.6717958052953085,0.47883451481660205,2.615942637125651,-1.296102245648702,-2.453395366668701,6.231759858131409,-49.54663848876953,-9.444019889831543,-0.31472286581993103,0.45428011814753216,0.6440046764910221,-262.0584320068359,43.34415893554687,-152.2450180053711,-1.969083348910014,0.03523238499959308,0.38780110081036884,-4.162514328956604,9.466205755869547,-0.8034899185101191,-0.480712768000861,0.21124484560762838,1.8132135001942515,-2.2395280996958413,9.456471920013428,-1.3201559980710347
3.3,-3.593182182312012,9.614840126037597,-1.3527822732925414,0.0,0.6247273261348406,0.984351580341657,11.53516674041748,1.1392953197161357,189.27949333190918,40.900001525878906,-122.75317479166667,49.19034143333334,-0.3855230987071991,-0.38929858803749084,0.6640602350234985,0.5082965016365051,2.571066904067993,-1.3496031761169434,-2.5440767765045167,2.613239985704422,-49.525899505615236,-10.173579788208007,0.40306925028562546,0.446695218483607,-1.6792176564534504,-265.6769561767578,43.36489982604981,-152.97457733154297,-1.7872073650360107,0.04931583404541014,-0.20889416933059687,-3.5235310395558677,9.571390151977539,-1.2981062928835552,-0.038363607755551754,0.3266156535440435,0.0658398334247372,-1.77356618642807,9.568415800730387,-1.1376937131086986
3.4,-0.40628135204315186,8.926026026407877,-1.000897765159607,0.0,0.6119044174750646,0.9852834443251293,11.36733341217041,1.1731030543645224,182.40539169311523,40.900001525878906,-122.75317128333333,49.19034126666667,-0.40972915291786194,-0.34544671078523,0.582664559284846,0.6081703007221222,1.0036190077662468,-1.4324369033177693,1.0867255926132202,-12.520859575271606,-46.837018966674805,-12.79413948059082,0.6784574866294861,0.04999931617639958,-3.8711447715759277,-280.81105651855466,46.053779220581056,-155.5951370239258,-1.1908825437227886,-0.7690466245015463,-0.433987816174825,0.04765706509351723,8.838688214619955,-0.8273184299468994,0.40398555248975754,0.44198646148045856,-1.6815338333447774,1.1084126171966393,9.662399133046469,-0.5109678308169047
3.5,5.227619568506877,7.9695948759714765,0.16749758451866606,0.0,0.5990815088152885,0.9862153083086014,11.19950008392334,1.206910789012909,175.5312900543213,40.900001525878906,-122.753167775,49.190341100000005,-0.45867497225602466,-0.2799634387095769,0.44912369052569073,0.7128392060597738,0.031242447594801534,-1.1160381237665813,1.1637121240297954,-28.380858993530275,-38.713039779663085,-14.851059627532958,0.15467617226143673,-0.03003420556584994,-2.7416141629219055,-296.6710540771484,54.17775917053223,-157.6520568847656,0.9212532440821329,-0.813500165939331,0.2957483703891436,5.3754760265350345,7.906244945526123,0.2774477824568748,0.3937026475640861,0.001665996556932281,-3.2573417641899804,4.359633493423462,8.76670970916748,-0.11940283924341197
3.6,6.8243301709493,8.238588015238443,-0.22293130797334015,0.0,0.5862586001555125,0.9871471722920736,11.03166675567627,1.2407185236612956,168.65718841552734,40.900001525878906,-122.75316426666667,49.19034093333334,-0.4637305438518524,-0.2502613638838132,0.4210747182369232,0.7382270594437917,0.04040649595359957,-1.0233200788497925,1.1444400747617085,-32.94853897094727,-35.987559127807614,-14.234959602355957,0.054468817077577086,0.231848810488979,0.15009468297163645,-301.2387359619141,56.90323905944824,-157.03595581054688,1.7119581699371338,-0.1306314468383789,-0.015278212726116147,6.7488564650217695,8.213064670562744,-0.1381855038926005,0.20087921665628639,-0.016882092296851395,-0.9400030278008091,5.130136171976726,8.358912309010824,-0.20239236454168952
3.7,5.150550802548726,8.450851440429688,-0.5654040525356928,0.0,0.5734356914957365,0.9880790362755458,10.8638334274292,1.2745262583096824,161.7830867767334,40.900001525878906,-122.75316075833334,49.19034076666667,-0.4446327785650889,-0.289772093296051,0.4779258320728938,0.6987306873003641,0.0554531843711932,-1.1866999864578247,1.1713358759880066,-27.08887939453125,-39.89155883789063,-14.381359958648682,-0.040189844556152786,-0.29336803779006004,2.609234551588694,-295.3790710449219,52.99923858642578,-157.18235778808594,1.4809325138727825,-0.6093811988830566,-0.3630922238032022,5.463212887446086,8.38056214650472,-0.4820540559788545,0.008055785748486703,-0.03543018115063507,1.3773357085883617,3.8806156317392984,8.975738207499186,-0.2091021413604418
3.8,0.6923632502555848,9.11976490020752,-0.3668197154998779,0.0,0.5606127828359604,0.9890109002590179,10.696000099182129,1.3083339929580688,154.90898513793945,40.900001525878906,-122.75315725,49.190340600000006,-0.4031887412071228,-0.36409059166908264,0.5799644231796265,0.6054801344871521,0.9663065582513809,-1.4759519815444946,0.8585445165634156,-11.504599690437317,-46.40513954162598,-14.589979553222657,-0.4218788097302119,-0.1815033337722222,3.455181121826172,-279.7947937011719,46.48565902709961,-157.39097595214844,0.09040045738220215,-0.6304704666137695,-0.10213761925697322,0.7709873764154812,9.101699193318685,-0.32073794056971866,-0.20645336337232342,-0.11080840819825727,2.4151003168274956,0.6243452404936155,9.732390562693277,-0.27509225904941553
3.9,-3.2146575649579368,9.406684398651123,-0.4488536516825358,0.0,0.5477898741761843,0.9899427642424902,10.52816677093506,1.3421417276064556,148.0348834991455,40.900001525878906,-122.75315374166667,49.19034043333333,-0.37909003098805744,-0.3966139107942581,0.6556585828463236,0.5181979835033417,2.679886301358541,-1.3744237422943115,-2.435408433278402,2.225279974937439,-49.32947883605957,-11.690039730072021,-0.6185621380805969,-0.09104946851730346,1.4271034002304077,-266.0649169921875,43.561318969726564,-154.49103698730468,-1.5113212764263153,-0.2057337760925293,0.39661117891470593,-3.437489112218221,9.41914701461792,-0.3953142414490382,-0.42096251249313354,-0.18618663524587944,3.45286492506663,-1.811993400255839,9.591423352559408,-0.8930584688981374
4.0,-3.659323811531067,9.597611745198568,-0.9310074150562286,0.0,0.5349669655164083,0.9908746282259624,10.36033344268799,1.3759494622548423,141.16078186035156,40.900001525878906,-122.75315023333333,49.19034026666667,-0.37313205500443775,-0.38236723840236664,0.671330044666926,0.5134103546539942,2.6265542109807334,-1.3463208278020222,-2.521255532900492,2.757199931144714,-49.53809928894043,-10.20651979446411,-0.0321213286370039,0.5817473431428274,-0.8035677808026472,-265.5329956054687,43.352699279785156,-153.00751800537108,-1.7675278385480244,0.03494517008463541,0.13594956199328104,-3.6549169063568114,9.594141960144043,-0.8734999060630798,-0.29775515672835434,0.27125192365863104,0.20804125680164862,-1.913952350616455,9.55869655609131,-1.0765244245529175
4.1,-1.31036947046717,9.166704177856445,-1.1079765955607097,0.0,0.5221440568566322,0.9918064922094346,10.19250011444092,1.409757196903229,134.28668022155762,40.900001525878906,-122.753146725,49.1903401,-0.38117583592732746,-0.3306040068467458,0.616470734278361,0.6022833486398061,1.40229528148969,-1.4502248366673787,0.3650768001874288,-8.71201982498169,-48.30345916748047,-11.22033987045288,0.4224642217159271,0.42674027569591994,-3.1809280713399253,-277.00221862792966,44.58733940124512,-154.02133483886718,-1.5052678783734639,-0.5649256706237792,-0.39671674370765686,-1.5868401875098546,9.267601331075033,-1.0870393911997478,0.03582643604639807,0.21538841861271946,-1.5123860805549405,-0.07685818647344904,9.736079692840576,-0.75032706061999
4.2,3.653002715110779,8.228677940368652,-0.27182465791702265,0.0,0.5093211481968561,0.9927383561929068,10.02466678619385,1.4435649315516157,127.41257858276367,40.900001525878906,-122.75314321666667,49.190339933333334,-0.4209070861339569,-0.2724353611469269,0.49565058946609497,0.7080194592475891,0.0972553744912147,-1.201626443862915,1.142470645904541,-25.876199531555176,-41.128639221191406,-13.226019763946534,0.31446833908557886,-0.09829839877784248,-3.280091881752014,-294.16639404296876,51.762158966064455,-156.02701568603516,0.13099439144134517,-0.887081527709961,0.0390843480825424,3.6083765029907227,8.221738497416178,-0.21784656122326848,0.3694080288211505,0.1595249135668079,-3.2328134179115295,3.4904019832611084,9.111937999725342,-0.31599421302477515
4.3,7.087839841842651,7.859325488408406,-0.16520446414748827,0.0,0.4964982395370801,0.993670220176379,9.85683345794678,1.4773726662000022,120.53847694396973,40.900001525878906,-122.75313970833334,49.19033976666667,-0.43984928727149963,-0.23162911832332608,0.41795769333839417,0.7602019011974335,0.028934009683628848,-0.9962928295135498,1.064958433310191,-34.73827896118164,-34.24295883178711,-14.061719608306884,0.12745703458786006,0.0857960254885256,-1.0713965386152267,-303.0284759521484,58.64783897399902,-156.8627182006836,1.7529853185017903,-0.365209420522054,-0.010168219606081635,7.264908631642659,7.820741415023804,-0.10488539064923923,0.2489059512813886,0.12029336467579316,-2.15328089594841,5.403422673543294,8.181945164998373,-0.14953830838203425
4.4,7.523732264836629,7.843672672907512,-0.2800599535306294,0.0,0.4836753308773041,0.9946020841598512,9.689000129699709,1.511180400848389,113.66437530517578,40.900001525878906,-122.7531362,49.1903396,-0.4439917504787445,-0.24431380877892173,0.42758602897326153,0.7480344275633494,0.029327520169317684,-1.0300032099088032,1.0885595480600994,-33.63905982971191,-35.642299270629884,-14.284979724884034,-0.33276883823176223,-0.3956625113884608,1.5749124189217885,-301.92925415039065,57.248498153686526,-157.08597564697266,2.473390499750773,-0.5487703482309977,-0.13456178704897562,7.659305667877197,7.797969722747803,-0.17874384745955463,0.1284038737416267,0.08106181578477842,-1.0737483739852904,5.086554718017578,8.3760835647583,-0.14165617227554317
4.5,3.3386855125427246,8.701699097951254,-0.6164509306351343,0.0,0.4836753308773041,0.986598312854767,10.017333507537844,1.5113101998964948,113.57562001546223,40.833334604899086,-122.75313408333334,49.19033905,-0.438914492726326,-0.32468220094839734,0.5145672957102457,0.6592298348744711,0.12191196903586383,-1.3083489735921223,1.2751952608426411,-20.345939540863036,-43.48933982849121,-14.44967966079712,-0.45033494631449383,-1.0181341816981633,3.2105804681777954,-288.6361358642578,49.401459503173825,-157.25067443847655,0.811049242814382,-0.7284158070882162,-0.3674512828389804,3.7749768098195395,8.624231338500977,-0.5842475245396296,-0.39058468987544376,-0.7115943791965643,2.390430271625519,2.78694216410319,9.358347256978353,-0.23607432842254636
4.6,-1.926122561097145,8.897910435994467,-0.49930231273174286,0.0,0.4836753308773041,0.9785945415496826,10.345666885375978,1.5114399989446006,113.48686472574869,40.76666768391927,-122.75313196666667,49.1903385,-0.40310295422871906,-0.3864910850922267,0.6188846230506897,0.5506334404150645,1.987920105457306,-1.4506082733472188,-1.0131819248199463,-3.639259921014309,-48.57429885864258,-12.903939723968506,-0.6715699831644694,0.25943956027428305,2.906165917714437,-271.92945251464846,44.31649894714356,-155.70493927001954,-1.2831982771555583,-0.8267655372619629,0.21746644377708435,-1.5160525341828663,8.87268590927124,-0.4206382781267166,-0.4692272304867705,-0.1629483041663965,2.093727900336186,-0.4001915430029233,9.739391326904297,-0.6610292345285416
4.7,-4.495276308059692,9.311908721923828,-0.9576076149940491,0.0,0.4836753308773041,0.9705907702445984,10.674000263214113,1.5115697979927063,113.39810943603516,40.70000076293945,-122.75312985000001,49.19033795,-0.3723973572254181,-0.39196223020553583,0.6848494291305542,0.4883515238761902,2.6629891872406004,-1.290597677230835,-2.465338706970215,5.646159887313843,-49.408778762817384,-9.7685396194458,-0.4260530558725198,0.5212716807921728,0.69251757239302,-262.64403381347654,43.48201904296875,-152.5695343017578,-2.096807765960693,-0.11561012268066403,0.2899888038635253,-4.439682960510254,9.309476057688395,-0.8916255434354147,-0.5478697710980972,0.38569777086377144,1.7970255290468533,-2.3677701552708945,9.435980002085367,-1.2352739175160725
4.8,-3.8105700413386026,9.494221846262613,-1.1866406202316284,0.0,0.4836753308773041,0.9625869989395142,11.002333641052246,1.5116995970408122,113.30935414632161,40.63333384195963,-122.75312773333333,49.1903374,-0.36630495886007947,-0.3739538639783859,0.6836660802364349,0.5080448786417643,2.6197654008865356,-1.321104367574056,-2.5517091751098633,3.333039844036102,-49.69913864135742,-9.579439830780029,0.22647828757762906,0.29382618069648736,-1.4021800398826598,-264.9571563720703,43.191659164428714,-152.38043670654298,-1.7131248911221821,-0.005813916524251302,0.0027337869008382163,-3.6255250374476113,9.485946496327719,-1.1236296097437541,-0.160237590658168,0.33739487566053866,0.19624681050578752,-1.9761621157328289,9.526664892832438,-1.165482183297475
4.9,-0.5684947744011879,9.05144993464152,-0.8639086882273356,0.0,0.4836753308773041,0.9545832276344298,11.33066701889038,1.5118293960889182,113.22059885660806,40.56666692097982,-122.75312561666667,49.19033685,-0.39737315972646076,-0.33629535635312396,0.605440229177475,0.5999090472857157,1.2556669662396114,-1.4428519209225972,0.254819393157959,-9.036539733409882,-48.02041931152344,-11.47531967163086,0.5206353565057119,-0.08101600284377733,-3.235447804133097,-277.3267364501953,44.870379257202146,-154.276318359375,-0.9517444173494974,-0.6709486643473307,-0.09956744313240051,-0.5301298379898072,9.02548770904541,-0.7824530005455017,0.22739458978176116,0.2890919804573059,-1.4045319080352783,0.3736152917146683,9.738083648681641,-0.7654450058937072
5.0,4.019642949104309,8.39731208483378,-0.3298107211788495,0.0,0.4836753308773041,0.9465794563293456,11.659000396728516,1.511959195137024,113.13184356689452,40.5,-122.7531235,49.1903363,-0.44107381502787274,-0.2814320623874664,0.4858502546946208,0.6988832354545593,0.10496320202946657,-1.1914050777753193,1.2002516984939575,-24.8916597366333,-41.648359298706055,-13.554199695587158,0.2282345245281855,-0.17623462000240878,-2.9217175245285034,-293.1818511962891,51.24243927001953,-156.35519561767578,0.4096326033274333,-0.6804494857788086,0.016130122045675918,3.6516467928886414,8.455736637115479,-0.29920253654321033,0.37535124147931737,-0.13330861444895464,-3.080898861090342,3.3825752337773642,9.16069761912028,-0.3683093637228012
5.1,7.028916454315185,7.958647727966309,-0.2464607328176498,0.0,0.4207446724176407,0.9473794102668761,11.401000261306763,1.4463415443897247,109.6524829864502,40.5,-122.753123125,49.190337975,-0.4580606997013092,-0.24365511536598206,0.42483958005905154,0.7418018102645874,0.053254722803831034,-1.0227782249450683,1.1362624645233155,-32.74357967376709,-36.25229911804199,-13.811619853973388,0.0523562409604589,0.21685715826849142,-0.5509495375057062,-301.0337768554688,56.638498306274414,-156.61261749267578,1.9175271034240722,-0.40897512435913086,0.02738218307495115,6.970491806666057,7.971987883249919,-0.21435702700788772,0.20902813752322938,-0.0270730146616133,-1.4508743694785868,5.0812563101450605,8.385168870290121,-0.2756154388189315
5.2,6.486742814381917,8.274580081303915,-0.49621159831682843,0.0,0.3578140139579773,0.9481793642044067,11.14300012588501,1.3807238936424255,106.17312240600586,40.5,-122.75312275,49.19033965,-0.45235668619473773,-0.24839473515748975,0.43765653173128766,0.7361235717932383,0.061297791078686666,-1.053753097852071,1.1377140879631042,-31.395479011535645,-37.26001968383789,-13.468799877166749,0.029046642780303944,-0.07580837747082111,1.0603093564510346,-299.6856750488281,55.63077926635742,-156.2697982788086,1.6408244768778484,-0.2440031369527181,-0.1976211369037628,6.355835437774658,8.30768092473348,-0.4100699822107951,0.042705033567141386,0.07916258512572806,0.17915012213316828,4.76061209042867,8.564633051554361,-0.2950648417075475
5.3,3.7872400283813477,8.731708844502768,-0.7476573884487152,0.0,0.2948833554983139,0.9489793181419373,10.884999990463257,1.3151062428951263,102.69376182556152,40.5,-122.753122375,49.190341325,-0.43491146465142566,-0.30214141805966693,0.5100319186846415,0.6763315697511038,0.13581005235513047,-1.2679103811581929,1.2475362221399944,-21.81237964630127,-42.95131912231445,-13.621299839019775,-0.25348362295577914,-0.3697516421477,2.8414905865987143,-290.1025756835937,49.939479446411134,-156.42229919433595,0.8878713051478068,-0.593689759572347,-0.39705804487069446,3.4690942962964377,8.81396214167277,-0.6871389001607895,-0.104931146541441,-0.14763618017913716,1.5091622559861704,2.6603607734044394,9.394054730733236,-0.36191590627034503
5.4,-0.6557331085205078,9.264610449473063,-0.47577290236949915,0.0,0.2319526970386505,0.9497792720794678,10.626999855041504,1.2494885921478271,99.2144012451172,40.5,-122.753122,49.190343,-0.3937148650487264,-0.3591136535008748,0.6103066603342692,0.5848763684431711,1.5516702582438786,-1.4767651359240215,-0.46571483214696247,-7.673799896240235,-47.96063919067383,-12.738019847869873,-0.3649410828948021,0.23663392476737496,2.6365962425867715,-275.9639923095703,44.930159378051755,-155.5390151977539,-0.6220561861991882,-0.49839576085408527,0.11642006039619442,-0.7113861620426178,9.210452842712403,-0.43381875157356264,-0.2525673266500234,-0.3744349454840024,2.8391743898391724,-0.052931743860244754,9.771976470947266,-0.5939563870429992
5.5,-3.2083763678868613,9.299306551615397,-0.5053840776284536,0.0,0.23073933273553848,0.9508178532123566,10.549099826812744,1.2290597438812256,97.11190795898439,40.5,-122.75312116,49.19034392,-0.35767700771490735,-0.37344448765118915,0.6769829392433167,0.5233969688415527,2.691108465194702,-1.351853887240092,-2.4979591369628906,1.7287399828433991,-49.30629920959473,-10.882399749755859,-0.347124179204305,0.27980173596491414,1.2741121848424275,-266.5614532470703,43.584498977661134,-153.6833969116211,-1.2959047158559163,-0.2715643246968587,0.4104879101117452,-3.0783663193384805,9.292427062988281,-0.4147559305032094,-0.3551163288454215,0.2535217995367323,1.9530252814292908,-1.807792067527771,9.592518170674643,-0.8918751776218414
5.6,-3.5876786708831787,9.58050308227539,-0.9332008361816406,0.0,0.22952596843242645,0.9518564343452454,10.471199798583985,1.2086308956146241,95.00941467285158,40.5,-122.75312032000001,49.19034484,-0.3537055432796478,-0.3751749932765961,0.692328405380249,0.5047656416893005,2.7082027912139894,-1.3029878377914428,-2.4811451911926268,4.589639949798584,-49.52589874267578,-9.846619796752929,0.030288734550898252,-0.1005636929379155,-0.3577634071310361,-263.70054931640624,43.36489906311035,-152.64761810302736,-1.240136480331421,0.1189590454101562,0.1571032285690307,-3.5182469288508096,9.586843967437744,-0.8598209420839945,-0.0601470893686355,0.10342307105857992,0.366050011055036,-2.3241291840871177,9.467992146809896,-1.08411971728007
5.7,-2.3834508061408997,9.64526891708374,-0.9151549637317657,0.0,0.22831260412931442,0.9528950154781342,10.393299770355224,1.1882020473480224,92.90692138671876,40.5,-122.75311948000001,49.19034576,-0.3694716890652974,-0.36197596291701,0.6549513339996338,0.5498465597629547,2.412237226963043,-1.4174743294715881,-1.732478141784668,-1.9483399152755738,-49.123299026489256,-11.14347972869873,0.47821585536003114,0.028221972286701202,-2.2516493082046507,-270.23853759765626,43.767499160766604,-153.9444778442383,-1.2051265239715576,-0.033659934997558594,-0.07025727629661559,-2.202194462219874,9.572885672251383,-0.8142576018969218,0.23482215010815047,-0.046675657419572476,-1.2209252593192188,-0.9811322316527367,9.700188318888346,-0.8044981857140859
5.8,1.478564977645874,8.67886749903361,-0.217447762688001,0.0,0.2270992398262024,0.953933596611023,10.315399742126464,1.1677731990814209,90.80442810058595,40.5,-122.75311864000001,49.19034668,-0.410119225581487,-0.3194396495819092,0.5481392641862234,0.653351366519928,0.27942383351425326,-1.3699285387992859,1.3708083629608154,-17.84859952926636,-44.71665916442871,-13.727439689636231,0.4828126182158788,0.02494365721940996,-3.3127731482187905,-286.1387939453125,48.17413902282715,-156.5284393310547,-0.41464600960413617,-0.892953077952067,0.10243704666694005,1.5785451173782348,8.633782577514648,-0.11006984878331423,0.35927553029702697,-0.013194919967755778,-2.2680327533320948,1.9088798999786376,9.584042167663574,-0.3108629107475281
5.9,5.429613709449768,8.44626490275065,-0.21894327737390992,0.0,0.22588587552309036,0.9549721777439117,10.237499713897705,1.1473443508148193,88.70193481445314,40.5,-122.7531178,49.190347599999996,-0.44104087352752686,-0.26346276452143985,0.45070341726144153,0.7294971346855164,0.029630529073377387,-1.0987825592358906,1.1059643626213074,-29.839978981018067,-38.13597946166992,-14.372819709777833,0.06602435031284888,0.02194024560352167,-1.9910643597443898,-298.13018188476565,54.754818725585935,-157.17381896972657,0.9705499410629272,-0.27378511428833,-0.08856483052174251,5.137489994366963,8.461519559224447,-0.16729818292272589,0.48372891048590344,0.020285817484060924,-3.3151402473449707,4.31352976957957,8.789247194925943,-0.13432233904798824
6.0,6.722037029266358,8.24135971069336,-0.1747956911101937,0.0,0.22467251121997833,0.9560107588768004,10.159599685668946,1.1269155025482178,86.59944152832031,40.5,-122.75311696,49.19034852,-0.44938976168632505,-0.2501512378454208,0.43162519335746763,0.7409948706626892,0.034693177789449636,-1.0442767858505249,1.110450267791748,-32.52153987884522,-36.375519561767575,-14.289859580993653,-0.28145615942776203,-0.1769473006327947,0.6022876799106598,-300.8117370605469,56.51527900695801,-157.09085845947266,1.7889774322509766,-0.23456802368164062,-0.0037693992257117974,6.690531651178996,8.216255029042562,-0.10997013867987941,-0.10676142573356628,-0.08219955706348021,-0.6967045416434606,4.913891633351644,8.486347516377768,-0.17666700234015778
6.1,5.031108975410461,8.404091517130533,-0.44915275772412616,0.0,0.2234591469168663,0.9570493400096892,10.081699657440186,1.1064866542816163,84.4969482421875,40.5,-122.75311612,49.19034944,-0.4581565260887146,-0.27940938373406726,0.47749804457028705,0.6949109435081482,0.13697405283649758,-1.1689512332280476,1.2599718570709229,-26.21535930633545,-41.01517906188965,-13.084499740600586,-0.7331146498521169,-0.23747386410832402,2.226527432600657,-294.50555419921875,51.875619125366214,-155.885498046875,1.2318302392959595,-0.6053094863891602,0.03990278641382855,4.7708894809087115,8.450652122497559,-0.42831524709860486,-0.37076685509898444,-0.1597534115708461,0.8031356594327724,3.6313418547312417,9.072714964548746,-0.5367816885312399
6.2,1.1538390206793945,9.159725030263266,-1.1361919442812602,0.0,0.22224578261375427,0.958087921142578,10.003799629211425,1.0860578060150146,82.39445495605469,40.5,-122.75311528,49.19035036,-0.4473516245683034,-0.32429120937983197,0.568156103293101,0.6087426245212555,0.7428097973267237,-1.3786307374636333,1.9034675359725952,-14.040980052947997,-47.21765899658203,-10.418799686431885,-0.5188689410686493,-0.22681426703929902,2.3997535705566406,-282.3311737060547,45.67313919067383,-153.21979827880858,-0.2536521504322688,-0.458769957224528,-0.01741913954416909,0.9143573620046178,9.270592530568441,-1.0877372821172078,-0.6347722844644026,-0.237307266078212,2.3029758605090054,1.2137056638797123,9.642317295074463,-1.1584752102692921
6.3,-1.5933207770188649,9.617950598398844,-1.4216357469558716,0.0,0.22103241831064224,0.9591265022754668,9.925899600982666,1.065628957748413,80.29196166992188,40.5,-122.75311444,49.19035128,-0.4126475602388382,-0.35523293415705365,0.6369407773017883,0.5451457798480988,1.9727412660916646,-1.411022961139679,-0.016678412755330402,-3.9845199048519135,-49.501498794555665,-9.401319789886475,-0.06635523711641629,0.5786166489124298,1.6121497650941212,-272.27471313476565,43.38929901123047,-152.2023147583008,-0.9695221222937107,-0.06574837366739907,-0.0676056941350301,-1.6407585062086583,9.602277374267578,-1.428634762763977,-0.3500928875115333,0.16832576782414405,1.9563919788960256,-0.643706365674734,9.685274887084962,-1.360330057144165
6.4,-2.6142584482828775,9.544072151184082,-1.2022936741511028,0.0,0.2198190540075302,0.9601650834083556,9.847999572753906,1.0452001094818115,78.18946838378906,40.5,-122.7531136,49.1903522,-0.3796384384234746,-0.3609661062558492,0.6690849363803864,0.5271124740441641,2.455803712209066,-1.3677375515302022,-2.7186461687088013,0.3672199947759509,-49.766239166259766,-9.25369987487793,0.10931942635215817,0.3961206649740537,0.29318986708919204,-267.9229766845703,43.12455940246582,-152.05469665527343,-1.091754178206126,-0.06510400772094727,0.048966288566589335,-2.5867409706115723,9.520941575368246,-1.1609177788098652,-0.06541349055866401,0.5739588017265002,1.6098080972830455,-1.4961283604303997,9.611377875010172,-1.266699214776357
6.5,-2.3481964588165285,9.822417259216309,-0.9339186668395996,0.0,0.22053052349524063,0.9611846912990916,9.795726862820713,1.0292510227723555,77.09867165305398,40.5,-122.75311313636364,49.19035277272727,-0.371515142917633,-0.35676593780517574,0.6577537178993225,0.549322509765625,2.4456079483032225,-1.4153557777404786,-2.7518253326416016,-2.0276400104165075,-49.333139419555664,-10.589599514007569,0.4311181455850601,0.04545855273803074,-1.3332388599713643,-270.3178344726563,43.55765914916992,-153.39059448242188,-1.1775474309921266,0.1351333618164062,0.017129480838775617,-2.3143580158551535,9.806484858194986,-0.8726823528607687,0.2711605388515939,0.21608085681994757,-0.5223406938215097,-1.1390632838010788,9.68868891398112,-0.9485984643300375
6.6,-0.2537388949034114,9.202696005503336,-0.539282406369845,0.0,0.22124199298295105,0.9622042991898275,9.743454152887518,1.0133019360628994,76.00787492231889,40.5,-122.75311267272728,49.19035334545455,-0.40710005660851795,-0.33460265398025507,0.575556735197703,0.6232721904913584,0.7426617282132307,-1.4289447863896687,1.850798785686493,-13.631059789657593,-46.500299072265626,-13.104019832611083,0.4385096073150635,-0.5984952211380005,-3.3436930179595947,-281.92125549316404,46.390499114990234,-155.90501861572267,-1.3458945949872334,-0.48301267623901367,-0.03939628352721528,0.06699902812639873,9.073882579803467,-0.41455652347455424,0.29618229443616595,-0.10330506233554895,-1.8326905887348182,1.3728732106586297,9.649608135223389,-0.45760078479846317
6.7,4.669493595759074,8.13260587056478,0.11395818006712942,0.0,0.2219534624706615,0.9632239070805636,9.691181442954324,0.9973528493534435,74.91707819158381,40.5,-122.75311220909092,49.19035391818182,-0.4643338123957316,-0.28522097567717236,0.44337406754493713,0.71036696434021,0.01845128679027158,-1.111601750055949,1.1707828839619954,-28.15637912750244,-38.60323905944824,-15.472039699554443,0.2217186292012532,-0.2675844269494216,-2.971630334854126,-296.4465667724609,54.28755912780762,-158.27303771972657,0.33207658926645917,-0.6259516080220541,0.1776948732634385,4.7623152256011965,8.108438396453858,0.18197416141629214,0.32120405002073804,-0.4226909814910455,-3.143040483648127,4.368639945983887,8.755278396606446,-0.05646492755040526
6.8,7.700103282928467,7.51027266184489,-0.0024925240625937595,0.0,0.22266493195837192,0.9642435149712996,9.638908733021129,0.9814037626439875,73.82628146084872,40.5,-122.75311174545455,49.190354490909094,-0.4720891465743382,-0.24247474968433377,0.3855753242969513,0.7546779612700144,-0.0031218337535391834,-0.9458757042884827,1.1164509057998657,-35.09329948425293,-33.06443901062012,-15.628199577331543,0.33416873464981717,0.4424955149491628,-0.508443479736646,-303.3834930419922,59.826358795166016,-158.4291961669922,1.9557796319325764,-0.4407784938812256,-0.019547249811391026,7.636593818664551,7.526823043823242,0.04107678945486743,0.32814454343734367,0.0075987930776494905,-1.8268873681398956,5.714737176895142,7.971413215001424,0.015521483689856966
6.9,7.007022190093994,7.683353519439697,-0.018305093422532077,0.0,0.22337640144608234,0.9652631228620355,9.586636023087935,0.9654546759345315,72.73548473011364,40.5,-122.75311128181818,49.19035506363637,-0.45885029435157776,-0.25665715932846067,0.41533397436141967,0.7419482827186584,0.0014158683887217,-1.0204595923423767,1.108807420730591,-32.788719940185544,-35.54225883483887,-15.325639629364014,-0.2787836225082477,-0.37591120103995007,1.9002490639686584,-301.07891540527345,57.34853897094727,-158.1266357421875,1.876188087463379,-0.6653986930847168,-0.011123221553862101,7.019245386123657,7.7100733915964765,0.052741801055769116,0.33508503685394925,0.4378885676463445,-0.5107342526316643,5.104992866516113,8.358937819798788,-0.005676818157856651
7.0,3.7042888402938843,8.362317085266113,-0.24496522080153227,0.0,0.22408787093379276,0.9662827307527715,9.53436331315474,0.9495055892250754,71.64468799937855,40.5,-122.75311081818182,49.190355636363634,-0.4418282210826874,-0.32287878294785816,0.50893701116244,0.6619602541128794,0.14367063871274388,-1.293070395787557,1.3007047375043232,-18.576939392089844,-44.04809913635254,-14.520439720153808,-0.7043276379505793,-0.10875946516171102,3.823609232902527,-286.867138671875,48.842699432373045,-157.32143859863282,1.0551033318042755,-1.0132625897725422,-0.02063352987170218,3.2307093689839044,8.389335950215658,-0.21684954874217507,-0.4906266041410466,-0.24701863511775932,2.859625687201818,2.3412241637706757,9.452430248260498,-0.27593406413992244
7.1,-1.9926230312945943,9.161619345347086,-0.8965108692646027,0.0,0.22479934042150318,0.9673023386435075,9.482090603221547,0.9335565025156195,70.55389126864347,40.5,-122.75311035454546,49.19035620909091,-0.40733876327673596,-0.3787514666716258,0.6351938048998514,0.534018819530805,2.0796030163764954,-1.4099887013435364,-0.9253519773483276,-0.9149999976158142,-49.38681869506836,-10.511519622802734,-0.9350208640098572,-0.11013899743556976,2.7880500316619874,-269.20518798828124,43.5039794921875,-153.31251831054686,-1.0625710984071095,-0.5021292368570963,0.21446899573008213,-2.3925235271453857,9.261021296183268,-0.8851449688275655,-0.46214269987081713,-0.07045428379382376,2.0152785731761744,-1.148438949758808,9.638171831766764,-1.1821395655473073
7.2,-4.497409820556641,9.520343462626139,-1.4732808272043865,0.0,0.2255108099092136,0.9683219465342434,9.429817893288352,0.9176074158061635,69.46309453790838,40.5,-122.75310989090909,49.19035678181818,-0.3899165540933609,-0.3834131409724553,0.6779652138551077,0.49118327101071674,2.5217594305674234,-1.305681546529134,-2.5926597913106284,4.871459865570069,-50.001698684692386,-8.245979738235473,-0.01756237819790842,0.294895201921463,-0.1723912718395392,-263.4187347412109,42.88909912109375,-151.0469772338867,-2.4112364053726196,0.05276521046956376,0.019263327121734633,-4.493840503692627,9.520443153381347,-1.4368900060653687,-0.4336587956005877,0.10611006753011182,1.170931459150531,-2.1114223480224608,9.460661506652832,-1.504575824737549
7.3,-2.793221632639567,9.201001326243082,-1.0234301884969075,0.0,0.22622227939692405,0.9693415544249795,9.377545183355158,0.9016583290967074,68.3722978071733,40.5,-122.75310942727272,49.190357354545455,-0.39072082936763763,-0.355515976746877,0.6412901679674784,0.5550367534160614,2.027477443218231,-1.4252028663953145,-1.0458437204360962,-2.766960006952286,-49.379498672485354,-9.922259902954101,0.564159502585729,0.5320636381705602,-2.396348019440969,-271.0571594238281,43.51129913330078,-152.72325897216797,-2.0481010278066,-0.49409135182698566,0.0290242234865824,-3.0377880136171975,9.253942171732584,-1.0192427237828572,0.06573395577795577,0.3167451949733676,-0.6138536429992227,-0.9485201214750608,9.676744302113852,-1.1053886413574219
7.4,1.788874191045761,8.47190818786621,-0.7033702254295349,0.0,0.22693374888463447,0.9703611623157155,9.325272473421963,0.8857092423872515,67.2815010764382,40.5,-122.75310896363636,49.19035792727273,-0.42723901867866515,-0.29900524616241453,0.5324246108531951,0.664899480342865,0.27579353749752045,-1.3068029403686523,1.3662531614303588,-19.684699630737306,-44.370178604125975,-12.500119686126709,0.3733913799126943,-0.19980384036898613,-3.988746444384257,-287.9748901367187,48.52061882019043,-155.30111541748047,-0.6806258678436279,-0.9546731948852539,-0.1399357914924621,1.7979071487983067,8.46251662572225,-0.6147560228904089,0.5651267071564993,0.5273803224166235,-2.398638745148977,2.4616845647493997,9.406495889027914,-0.5624475032091141
7.5,7.079165856043498,7.367700258890788,-0.1546361641958356,0.0,0.2276452183723449,0.9713807702064514,9.27299976348877,0.8697601556777954,66.19070434570312,40.5,-122.7531085,49.1903585,-0.46643954515457153,-0.2386966819564501,0.41626877586046857,0.7424001395702362,0.06362057911852992,-1.0002532700697582,1.1569880445798237,-33.828159141540525,-35.29581909179687,-14.012919712066651,0.0332616116851568,0.15005904734134673,-2.045482265949249,-302.11835327148435,57.594978713989256,-156.8139205932617,1.796868880589803,-0.8684428532918295,0.179959163069725,7.429215669631958,7.303094069163005,-0.09252247462670009,0.21973100473934953,-0.04544004459272732,-3.10776304656809,5.417824109395345,8.153964122136435,-0.34284647802511853
7.6,7.977869908014934,7.688139120737712,-0.9489535888036092,0.0,0.23201501965522758,0.9728486657142639,9.263999748229981,0.8635621547698975,65.2454906463623,40.5,-122.75310798,49.19035911,-0.46268383661905926,-0.22011916587750113,0.41616035501162213,0.7509395480155945,0.09827374542752897,-0.9773312906424204,1.1569553812344868,-35.2555591583252,-34.57723960876465,-12.544039821624756,-0.03265583794564009,0.14744760096073153,1.0818169160435598,-303.545751953125,58.313558959960936,-155.34503784179688,2.5170280933380127,-0.43507035573323566,-0.41262071828047436,8.082356643676757,7.68778018951416,-0.9139386057853699,0.08378282786262306,-0.11099005290165995,-0.5311976644125851,5.479404067993164,8.112697887420655,-0.5446452975273133
7.7,5.225127140680949,8.313563187917074,-0.8396813372770945,0.0,0.23638482093811028,0.9743165612220764,9.254999732971191,0.8573641538619995,64.30027694702149,40.5,-122.75310746,49.190359720000004,-0.4422958691914876,-0.2812777037421862,0.48772025605042774,0.696421355009079,0.11847803369164463,-1.1951394081115725,1.2153258124987285,-25.977459716796876,-40.928559112548825,-13.454159927368163,-0.07350745052099229,-0.4911865641673406,3.013550957043966,-294.2676544189453,51.96223907470703,-156.25515899658203,1.6600423256556194,-0.7688593864440918,-0.4412866681814194,5.533502101898193,8.297112464904785,-0.7952147275209427,-0.05216534901410342,-0.1765400612105926,2.04536771774292,3.807864507039388,8.98993174235026,-0.4049910356601079
7.8,-0.7916254848241806,8.258129437764486,-0.6192425737778345,0.0,0.24075462222099298,0.9757844567298889,9.245999717712403,0.8511661529541016,63.35506324768066,40.5,-122.75310694,49.190360330000004,-0.38845021029313404,-0.37112776438395184,0.6230899294217428,0.5643155773480734,1.8349968492984772,-1.4246145685513814,-0.1683709224065145,-6.359859925508499,-47.89597930908203,-12.780719757080078,-0.4426736819247405,-0.21046852941314378,4.52236266930898,-274.6500579833984,44.99481964111328,-155.5817138671875,-0.24558985978364947,-1.4242758750915527,0.028723935286204,-0.13978072007497153,8.225826342900595,-0.6150551239649454,-0.24694863691305122,-0.19584594449649256,3.2827070554097495,-0.17089777936538067,9.69647216796875,-0.6069388637940089
7.9,-6.07130880355835,8.726623916625977,-0.40043887197971345,0.0,0.24512442350387567,0.9772523522377015,9.236999702453614,0.8449681520462036,62.40984954833984,40.5,-122.75310642,49.190360940000005,-0.35351882576942445,-0.4160188913345337,0.7088711619377136,0.44614890217781067,2.7884348392486573,-1.1864099025726318,-2.3192938804626464,11.402119779586792,-48.58161849975586,-9.81733980178833,-0.6218608220418295,-0.21840977172056833,1.4807373347381751,-256.88807678222656,44.30917892456055,-152.61833801269532,-2.6298943996429442,-0.3621316909790039,0.8755265235900879,-5.943472305933635,8.679465770721436,-0.3782653845846653,-0.441731924811999,-0.2151518277823925,4.520046393076579,-3.394826610883077,9.102919737497965,-1.270957847436269
8.0,-5.861318667729695,8.894221464792887,-1.589133342107137,0.0,0.24949422478675837,0.9787202477455139,9.227999687194826,0.8387701511383057,61.46463584899902,40.5,-122.75310590000001,49.190361550000006,-0.3560197204351425,-0.4059513161579768,0.7177163064479828,0.439428652326266,2.7354718844095864,-1.168126900990804,-2.3830406665802,12.25611982345581,-49.036679077148435,-8.238659811019897,0.06896669045090675,0.2878397017717361,-0.9946413397789001,-256.03407592773436,43.85411949157715,-151.03965759277344,-2.335375666618347,-0.12923606236775717,-0.07387628157933553,-5.677370548248291,8.954939524332682,-1.6125630537668865,-0.306904252957214,0.006997180933302104,0.35324670035730715,-3.4471226930618286,9.055383205413818,-1.4978688756624858
8.1,-3.042972505092621,9.164610385894775,-1.4482559065024059,0.0,0.2538640260696411,0.9801881432533264,9.218999671936036,0.8325721502304078,60.519422149658205,40.5,-122.75310538000001,49.19036216,-0.3685969064633052,-0.3679058204094569,0.6644438207149506,0.5334075391292572,2.41474856932958,-1.3785437146822612,-1.7186023791631062,1.5652600049972534,-49.32337913513184,-10.360239791870118,0.6886996477842331,0.6549493670463562,-3.1848222812016806,-266.7249298095703,43.56741905212402,-153.1612350463867,-1.5202161868413289,-0.4259168306986491,-0.4824929932753245,-3.082553744316101,9.176714134216308,-1.3996815919876098,0.1460181932444825,0.21002831332611316,-1.7305997453178419,-1.5613082766532898,9.60065155029297,-0.9679848313331604
8.2,2.822932536403338,7.848857084910075,-0.32203404636432725,0.0,0.25823382735252376,0.9816560387611389,9.209999656677248,0.8263741493225097,59.574208450317386,40.5,-122.75310486000001,49.19036277,-0.40901318192481995,-0.2922316590944926,0.5234667013088862,0.684765080610911,0.17404454015195367,-1.2854352792104085,1.2257212201754253,-21.653779315948487,-43.047698974609375,-13.551759910583495,0.5072981268167496,0.18045977813502148,-4.439437747001648,-289.9439727783203,49.843099975585936,-156.3527587890625,0.11350425084431966,-1.4863204956054688,-0.039894036948680885,2.284846464792887,7.885945796966553,-0.3429712528983752,0.598940639446179,0.4130594457189242,-3.814446190992991,2.3525433888038,9.424180666605631,-0.31867180267969764
8.3,7.636573791503906,7.6022368431091305,0.14021941050887102,0.0,0.2626036286354065,0.9831239342689514,9.20099964141846,0.8201761484146118,58.62899475097656,40.5,-122.75310434000001,49.19036338,-0.4423093020915985,-0.2328978925943374,0.4179179310798645,0.7583391308784485,0.03012556917965406,-0.9976448059082031,1.0723276138305664,-34.74681968688965,-34.57235946655273,-14.008039665222167,-0.11481721202532448,0.05299256245295205,-1.4719561437765758,-303.0370178222656,58.31843910217285,-156.8090362548828,2.3189440727233888,-0.6307768821716309,0.3028639495372772,7.573482831319173,7.5994053681691485,0.17836498732989028,0.24254531475404895,0.2306716274470091,-2.644372008740902,5.278086503346761,8.254300594329834,-0.1687140601376692
8.4,7.56600562731425,7.697810173034668,-0.6616154586275419,0.0,0.26697342991828915,0.984591829776764,9.191999626159669,0.8139781475067138,57.68378105163574,40.5,-122.75310382,49.19036399,-0.44654158254464466,-0.22778688122828797,0.42215113838513685,0.7550864020983378,0.061588307221730504,-0.9995653529961904,1.101946274439494,-34.63213920593262,-34.879798889160156,-13.295559883117676,-0.08365799598395826,-0.013347403891384599,1.2746619582176208,-302.9223327636719,58.01099891662598,-156.0965591430664,2.2712151209513345,-0.5460970401763916,-0.3365884746114413,7.349953571955363,7.760621865590413,-0.6158527334531149,-0.1138500099380811,0.04828380917509395,-1.4742978264888127,5.198239088058472,8.302897930145264,-0.3292734920978546
8.5,4.288536389668782,8.462117513020834,-0.6081757644812266,0.0,0.2713432312011719,0.9860597252845764,9.18299961090088,0.8077801465988159,56.73856735229492,40.5,-122.7531033,49.1903646,-0.4298153569300969,-0.28915828963120777,0.49887069563070935,0.6932173073291779,0.09337092439333594,-1.2293269236882527,1.1786160270373027,-24.789179611206055,-41.68007926940918,-14.047079753875732,-0.17600554538269833,-0.6048583934704462,3.0069587230682373,-293.0793701171875,51.210719680786134,-156.84807739257812,1.0250585476557414,-0.741357167561849,-0.3235592643419901,4.325266313552857,8.437451553344726,-0.5919843196868897,-0.13298814218829977,-0.3407656231217764,2.2171909429810266,3.2840957164764406,9.210149574279786,-0.28354857563972474
8.6,-1.2949158549308777,8.727920214335123,-0.13160524951914945,0.0,0.2670887500047684,0.9865868151187897,9.255799674987795,0.8139320850372315,55.74457321166992,40.5,-122.75310259000001,49.19036551,-0.37124472856521606,-0.3672063847382863,0.6258083780606588,0.5760541260242462,1.9151149988174438,-1.4441224137941997,-1.171796401341756,-6.228099852800369,-47.79715843200684,-13.788439750671387,-0.33796119317412376,0.4517348495622476,4.0640610456466675,-274.51829223632814,45.09363899230957,-156.58943786621094,-0.7437284787495931,-0.9835724830627441,0.26621583104133606,-0.699900625894467,8.700602372487387,-0.05822534983356795,-0.21949672483077098,-0.0671783990198464,2.381657748144459,-0.21050518254439032,9.721678256988525,-0.3722790280977885
8.7,-5.207180817921956,9.171988169352213,-0.277966223579521,0.0,0.26283426880836486,0.9871139049530029,9.328599739074708,0.820084023475647,54.750579071044925,40.5,-122.75310188,49.190366420000004,-0.3271968712409337,-0.39316702385743457,0.7076638142267863,0.48723451296488446,2.88965904712677,-1.2439188559850056,-2.3084755738576255,7.437119889259338,-48.83903923034668,-11.598539638519288,-0.27613654111822444,-0.02942334363857908,1.0328204122682412,-260.853076171875,44.05175933837891,-154.3995376586914,-2.1624829371770224,-0.11670033137003581,0.5070088009039561,-5.170191844304402,9.115856806437174,-0.18005990345651904,-0.3060053074732422,0.20640882508208355,2.546124553307891,-2.9700640439987183,9.312276840209961,-0.7654885550340017
8.8,-4.382335042953491,9.262496757507325,-0.9132207632064819,0.0,0.2585797876119614,0.9876409947872162,9.401399803161622,0.8262359619140625,53.75658493041992,40.5,-122.75310117000001,49.19036733,-0.33132614493370055,-0.3863143265247345,0.7030345320701599,0.4965173065662384,2.8612039566040037,-1.2673311948776245,-2.3437095642089845,6.109759843349456,-49.07937927246094,-11.232539749145507,0.10186178081979351,-0.021253020289198815,-1.2312752604484558,-262.18042907714846,43.81141891479492,-154.03353729248047,-1.570206308364868,-0.09672927856445314,-0.10587358474731441,-4.368696014086406,9.264012177785238,-0.8243273993333181,-0.1015372563463946,0.09019807343914486,0.6562283663079143,-2.78525447845459,9.365710258483887,-0.8023642202218374
8.9,-2.050449639558792,9.18634525934855,-0.758624479174614,0.0,0.25432530641555784,0.9881680846214295,9.474199867248537,0.832387900352478,52.76259078979492,40.5,-122.75310046,49.190368240000005,-0.36644604802131653,-0.3573051244020462,0.6384826401869456,0.5726891160011292,2.0464225014050803,-1.4481830994288127,-1.0651204784711201,-5.721799863874912,-48.37421913146973,-12.402519607543946,0.4057672441005707,-0.17458528503775597,-3.3099733352661134,-274.0119964599609,44.51657943725586,-155.2035171508789,-1.3397052486737568,-0.533155600229899,-0.1836969008048375,-1.6893327729776502,9.100402990976969,-0.6328018872688214,0.10293079478045301,-0.02601267820379383,-1.2336678206920624,-0.42641531676054,9.733787695566813,-0.5408245474100113
9.0,2.9192436039447784,8.16650422414144,-0.022532414024074868,0.0,0.25007082521915436,0.9886951744556427,9.546999931335451,0.8385398387908936,51.76859664916992,40.5,-122.75309975,49.19036915,-0.43303655584653217,-0.2953676035006841,0.5003326336542765,0.6865620613098145,0.10185597216089563,-1.240977684656779,1.202834705511729,-23.69483938217163,-42.07535934448242,-14.043419647216798,0.029957847669720664,-0.3805435945590337,-4.01386825243632,-291.9850372314453,50.815439224243164,-156.84441986083985,-0.22614573438962302,-1.0487229029337566,0.2446432982881864,2.9283363819122314,8.165866279602051,0.02656033150851726,0.2018215466629375,-0.29166038605299865,-3.6962761878967285,3.1658353090286253,9.2304292678833,-0.2674615412950515
9.1,7.857929706573486,7.261120001475017,-0.0012961129347483318,0.0,0.24581634402275085,0.9892222642898559,9.619799995422364,0.8446917772293091,50.77460250854492,40.5,-122.75309904000001,49.19037006,-0.4868941108385722,-0.2403391525149345,0.3915327588717143,0.7426133950551351,0.04145700236161548,-0.9542182385921478,1.1818389495213826,-34.74315929412842,-34.27345962524414,-14.721739768981934,-0.24605143318573633,-0.16386459891994798,-1.5304465492566426,-303.0333526611328,58.61733856201172,-157.52273559570312,2.191054344177246,-0.7336294651031494,0.23631417999664941,7.540182987848918,7.275875806808472,0.12422737975915275,0.024450807041968364,-0.07792870502100524,-1.8524968729664881,5.565905014673869,8.062055349349976,-0.22650900731484092
9.2,8.44522819519043,7.66516809463501,-0.5979663789272308,0.0,0.24156186282634734,0.9897493541240692,9.692600059509278,0.8508437156677247,49.780608367919925,40.5,-122.75309833,49.190370970000004,-0.4847864329814911,-0.2312786608934402,0.40104790329933165,0.7417885899543762,0.08056101799011228,-0.9606097221374512,1.200063133239746,-34.98593978881836,-34.37227897644043,-13.639599800109863,-0.061875556285182605,0.4449644237756729,1.5176692431171734,-303.27613525390626,58.5185188293457,-156.4405975341797,2.842728042602539,-0.36577577590942384,-0.15040771961212157,8.391230344772339,7.63818899790446,-0.5718846122423807,-0.15291993257900077,0.13580297601098815,-0.008717558036247889,5.569910287857056,8.049092292785645,-0.45390670001506805
9.3,4.52572496732076,8.1762748559316,-1.1745767990748088,0.0,0.23730738162994383,0.9902764439582825,9.765400123596192,0.8569956541061401,48.78661422729492,40.5,-122.75309762,49.19037188,-0.45561522742112476,-0.2725808868805567,0.49930358429749805,0.6827904681364695,0.25822419176499045,-1.200084129969279,1.362416942914327,-24.968519401550292,-42.12781867980957,-11.608299732208252,-0.3226895689964294,0.03631594032049178,3.4353228569030763,-293.2587127685547,50.76297874450684,-154.40929718017577,1.0944772958755493,-0.9236220518747967,-0.35926819841067,4.1123648683230085,8.222137451171875,-1.1244272589683533,-0.23730078457544246,0.08369235208568473,1.7121420277903476,3.162485341231028,9.192329406738281,-0.8441386918226877
9.4,-0.3364906857411067,9.099804878234863,-1.0083753565947216,0.0,0.23305290043354032,0.9908035337924957,9.838200187683105,0.8631475925445556,47.79262008666992,40.5,-122.75309691,49.190372790000005,-0.4207707891861598,-0.34926414986451465,0.6056498984495798,0.5764367083708445,1.4216844538847606,-1.4344782034556072,0.4820280472437541,-8.061759781837463,-48.377878952026364,-10.800659751892088,-0.2629011298219363,-0.40365466227134067,2.9787571032842,-276.3519592285156,44.51291923522949,-153.6016586303711,-0.5426111767689387,-0.615935484568278,0.04840936263402303,-0.3178864896297455,9.113184547424316,-0.9675378322601318,-0.32168163657188414,0.031581728160381316,3.4330016136169434,0.19199070930480958,9.727596855163574,-1.0520694494247436
9.5,-3.900899132092794,9.025427977244059,-1.0591231286525726,0.0,0.2287984192371368,0.991330623626709,9.91100025177002,0.8692995309829712,46.79862594604492,40.5,-122.7530962,49.1903737,-0.3921767969926198,-0.3853508035341899,0.6681059698263804,0.501051127910614,2.5054412285486856,-1.333290954430898,-2.604005455970764,2.985339940339327,-49.66253890991211,-9.419619750976562,-0.2595159212748209,0.08620835778613882,1.2621494034926097,-265.3048553466797,43.22825889587402,-152.22061614990236,-2.041721602280935,-0.5053893725077311,0.29318376382191974,-3.714857061704,9.035796642303467,-0.9560323456923167,-0.26016496618588764,-0.16345736322303614,2.118137076497078,-1.7574864029884338,9.551142374674479,-1.3338095744450886
9.6,-3.866901079813639,9.432207743326822,-1.324726402759552,0.0,0.2287984192371368,0.983171284198761,9.872000217437744,0.8688853780428568,46.75133959452311,40.60000038146973,-122.75309541666667,49.19037421666667,-0.3831111391385396,-0.38970712820688885,0.6797047058741251,0.48917995889981586,2.5915162563323975,-1.3003427982330322,-2.52330482006073,4.9239198684692385,-49.55273933410645,-9.389119720458984,0.099774655730774,0.12795081424216428,-0.28906651710470516,-263.36627502441405,43.33805885314941,-152.19011840820312,-1.636520524819692,-0.020956993103027333,0.04468977451324462,-3.9124643405278525,9.363114992777506,-1.264905869960785,-0.0024752780639876737,-0.02137392325676049,0.2957287899528942,-2.2572312355041504,9.445730368296305,-1.3818569580713909
9.7,-2.4015564203262327,9.652048301696777,-1.1910274982452393,0.0,0.2287984192371368,0.975011944770813,9.833000183105469,0.8684712251027426,46.704053243001304,40.70000076293945,-122.75309463333333,49.190374733333336,-0.39583757519721985,-0.36625956892967226,0.6414172768592834,0.5445809841156006,2.158899450302124,-1.4187408685684204,-1.7253520011901855,-2.475379979610443,-49.28555870056152,-10.617659759521484,0.40854158997535706,0.12301298665503657,-2.7595837314923606,-270.76557006835935,43.60523948669434,-153.4186569213867,-1.5016183614730836,-0.034740066528320325,-0.11964161396026607,-2.321337044239044,9.58395274480184,-1.1518449982007344,0.2552144100579123,0.12070951670951519,-1.5266794965912898,-0.8619397530953089,9.67993974685669,-1.0708003242810566
9.8,1.8184455335140228,8.201399564743042,-0.6532406037052473,0.0,0.2287984192371368,0.966852605342865,9.794000148773193,0.8680570721626282,46.65676689147949,40.80000114440918,-122.75309385,49.19037525,-0.4460952977339427,-0.3089844932158788,0.5209034383296967,0.6556975642840067,0.32697759692867595,-1.2916922569274902,1.4681041836738586,-20.524059581756593,-44.02125930786133,-12.853919792175294,0.6023742198944092,-0.3222008764743805,-4.323582029342651,-288.8142517089844,48.86953926086426,-155.65491790771483,-0.7460857828458151,-1.1628631750742595,-0.06887640555699663,2.3585255493720374,8.118647813796997,-0.4560321156556408,0.4292982782082011,-0.10312805294718902,-2.9263067149246735,2.90500017007192,9.269964853922525,-0.533242459098498
9.9,7.6423765023549395,7.377869764963786,0.16580266629656157,0.0,0.2287984192371368,0.958693265914917,9.755000114440918,0.8676429192225138,46.60948053995768,40.900001525878906,-122.75309306666666,49.19037576666667,-0.4792701154947281,-0.24209216237068173,0.40287265181541443,0.7408329546451569,0.04946445859968657,-0.9781026045481364,1.1748064160346985,-33.96235904693604,-34.7443790435791,-14.646099758148193,0.11402818063894908,0.28344147590299446,-1.742569485058387,-302.25255126953124,58.146418762207034,-157.4470977783203,2.171804189682007,-0.7481123606363932,0.43781811992327374,7.710990619659424,7.293442916870117,0.25339992046356197,0.60338214635849,-0.3269656226038932,-4.325933933258057,5.5176880836486815,8.098340511322021,-0.26538735330104823
10.0,8.549056847890219,7.3826554616292315,-0.7094718950490156,0.0,0.2287984192371368,0.950533926486969,9.716000080108643,0.8672287662823995,46.562194188435875,41.00000190734863,-122.75309228333333,49.190376283333336,-0.48165665070215863,-0.24509091675281522,0.4242907464504242,0.7259091734886169,0.10526156922181444,-1.0212602416674297,1.2321845889091492,-33.076639366149905,-36.16323966979981,-13.261399745941162,-0.43737951417764026,-0.15671238904663667,1.8592192729314168,-301.36683959960936,56.72755928039551,-156.0623977661133,3.4595720767974854,-0.9664513270060221,-0.18646740913391113,8.791330099105835,7.348856767018636,-0.5616154260933399,-0.16063210647553205,0.058592158757771046,0.05598325406511621,5.228501319885254,8.268317143122355,-0.49935491879781085
10.1,3.76115825176239,8.225687026977539,-1.150947666168213,0.0,0.2287984192371368,0.942374587059021,9.677000045776367,0.8668146133422852,46.51490783691406,41.10000228881836,-122.7530915,49.1903768,-0.45843067169189455,-0.3136383295059204,0.5260955810546875,0.6418997049331665,0.3811836779117584,-1.3033079147338866,1.5493138074874877,-18.14383955001831,-45.03263893127441,-12.16949987411499,-0.4063781052827835,0.054367005825042745,4.077907244364421,-286.4340362548828,47.858158874511716,-154.97049560546876,1.3395675420761108,-1.1947669982910156,-0.3660680174827575,3.6649069705357156,8.230412562688192,-1.0974082748095195,-0.3042051101696085,-0.04128662405436803,1.7796685170156485,2.3990112443765006,9.40287971496582,-0.7907081345717112
10.2,-3.0391839047273,8.62961514790853,-1.0243274768193562,0.0,0.23274081448713935,0.9439941247304281,9.792333285013834,0.8667707244555155,44.94890848795573,41.10000228881836,-122.75309133333333,49.190378,-0.4068670968214671,-0.3756815592447917,0.6424821118513743,0.5278343707323074,2.1510258118311563,-1.39070725440979,-0.8589495817820231,0.253760027885437,-49.63203926086426,-9.797819709777832,-0.4997794032096863,-0.3653584897518158,2.819082021713257,-268.03643188476565,43.2587589263916,-152.59881896972655,-1.9695831338564556,-1.0058657328287761,0.22013884782791138,-3.3170504172643027,8.617451349894205,-0.9376873672008514,-0.44777811386368493,-0.1411654068665071,3.503353779966181,-1.2906610009570916,9.609396616617838,-1.2894526521364849
10.3,-4.664010127385457,9.259126663208008,-1.365703523159027,0.0,0.23668320973714185,0.9456136624018351,9.907666524251303,0.866726835568746,43.3829091389974,41.10000228881836,-122.75309116666666,49.1903792,-0.39155923823515576,-0.400419145822525,0.686565508445104,0.4634924530982971,2.5769314765930176,-1.253666917483012,-2.5001442432403564,7.9214598655700685,-49.70279884338379,-7.839719915390015,-0.2532545501987139,0.21105394512414932,0.6941465325653553,-260.3687347412109,43.18799934387207,-150.64071807861328,-2.082127650578817,-0.06044419606526694,0.26648010810216266,-4.734498620033264,9.284749984741211,-1.3918251693248749,-0.3499945486246636,0.032564436960400955,2.097579337882273,-2.6308900515238443,9.305335680643717,-1.64046976963679
10.4,-4.403990109761556,9.412666320800781,-1.7871394157409668,0.0,0.2406256049871444,0.9472332000732422,10.02299976348877,0.8666829466819763,41.81690979003906,41.10000228881836,-122.753091,49.1903804,-0.38291652997334796,-0.38884735107421875,0.6824469566345215,0.48564959565798443,2.5810027519861856,-1.2911629676818848,-2.5344318548838296,5.832819890975952,-49.76013870239258,-8.546099948883057,0.4248567832012971,0.26956973969936365,-1.3244067678848903,-262.45737609863284,43.13065872192383,-151.34709625244142,-2.1094133853912354,-0.006667772928873668,-0.3633492986361186,-4.428995037078858,9.416833877563477,-1.737907099723816,-0.25221098338564235,0.20629428078730902,0.6918048957983652,-2.327654552459717,9.413910675048829,-1.4323209285736085
10.5,-0.6878367997705936,8.818947474161783,-0.8684949167072773,0.0,2.21656304448843,0.9481845021247863,10.002399826049805,0.8494133114814758,41.367608642578126,41.10000228881836,-122.7530909,49.190380770000004,-0.4157988280057907,-0.352632611989975,0.5937405228614807,0.5892213881015778,1.2213580484191577,-1.434717873732249,0.279135266939799,-7.583519900217652,-48.29369964599609,-11.72541971206665,0.6728426218032837,-0.2475276794284582,-3.534797191619873,-275.87371215820315,44.597098922729494,-154.526416015625,-1.1133282681306202,-0.8917247454325358,-0.10385625064373016,-1.0978070894877117,8.901300430297852,-0.9202397217353185,0.5498932612438997,0.006274098530411702,-2.4320072631041207,0.12469842533270518,9.716650962829592,-0.8236139317353567
10.6,4.113979959487915,7.966424369812012,0.11150553375482555,0.0,4.192500483989716,0.9491358041763306,9.981799888610839,0.8321436762809753,40.91830749511719,41.10000228881836,-122.7530908,49.19038114,-0.4671209156513214,-0.2999140202999115,0.4697269260883331,0.6852343320846558,0.08013094812631602,-1.1821164608001709,1.2526190280914307,-24.508579635620116,-41.43363952636719,-14.7119797706604,0.22609650095303854,-0.15342898480594155,-3.20961324373881,-292.798779296875,51.4571590423584,-157.51297607421876,0.41709179878234864,-1.080927848815918,0.3847536206245422,4.124029775460561,7.970492124557495,0.16759728640317917,0.3172282242413723,0.04371793830597941,-2.3055512142000776,3.6722049713134766,9.04207468032837,-0.2795701573292414
10.7,7.858328660329183,7.360920667648315,-0.030209388583898544,0.0,6.168437923491001,0.9500871062278747,9.961199951171874,0.8148740410804749,40.46900634765625,41.10000228881836,-122.7530907,49.19038151,-0.49099252621332806,-0.2464302356044451,0.39790908992290497,0.734562893708547,0.05082490853965277,-0.9733897944291433,1.2051549553871155,-34.28565864562988,-34.47475929260254,-14.568019771575928,-0.08756753578782081,0.373208124935627,-0.9372810840606689,-302.5758575439453,58.41603889465332,-157.3690170288086,2.3478978474934897,-0.7439936796824137,0.25307252506415046,8.068498293558756,7.293124119440715,-0.0416749939322472,0.08456318723884494,0.08116177808154713,-2.1790951652960344,5.569706360499064,8.065829912821451,-0.30494030316670734
10.8,7.973582983016968,7.525128126144409,-0.791027287642161,0.0,8.144375362992287,0.9510384082794189,9.94060001373291,0.7976044058799744,40.01970520019531,41.10000228881836,-122.7530906,49.190381880000004,-0.4926587790250778,-0.2513840869069099,0.4146514981985092,0.7221701244513193,0.08635420600573217,-1.0105402370293934,1.2453582684199016,-32.583759498596194,-36.45359916687012,-14.021459770202636,-0.10351620614528656,-0.17661641227702296,1.5102879603703816,-300.8739532470703,56.437198638916016,-156.82245635986328,2.783165136973063,-0.773078441619873,-0.34319107234477997,8.046942806243896,7.461658477783203,-0.7229913592338562,-0.008954727288448455,-0.05010714740351292,-0.3355871669270776,5.229316997528076,8.278729057312011,-0.45218666791915896
10.9,3.1963126162687936,8.552845160166422,-1.0182457367579143,0.0,10.120312802493572,0.951989710330963,9.920000076293944,0.7803347706794739,39.570404052734375,41.10000228881836,-122.7530905,49.190382250000006,-0.4612616201241811,-0.32830074926217395,0.5158039977153143,0.6405405402183533,0.29211920872330666,-1.308394193649292,1.490175187587738,-19.388239574432372,-44.305519104003906,-13.561519622802734,-0.4068362570057313,-0.42299872015913326,3.6958619753519693,-287.6784332275391,48.58527946472168,-156.36251525878907,0.7539900640646616,-0.8719549179077148,-0.46480326851209003,3.731905976931254,8.51266606648763,-0.9723833103974661,-0.10247264181574185,-0.18137607288857296,1.5079208314418793,2.740543027718862,9.345128695170084,-0.5266047964493433
11.0,-2.4952354788780213,9.103254318237305,-0.693679291009903,0.0,12.096250241994857,0.9529410123825073,9.899400138854979,0.7630651354789734,39.12110290527344,41.10000228881836,-122.7530904,49.19038262,-0.4269601345062256,-0.39676052331924433,0.6116726398468018,0.534027361869812,2.0208378076553344,-1.4434484004974366,-0.5023766040802002,-2.4741599440574644,-48.993978881835936,-11.748599815368653,-0.5439754873514175,-0.3210096793870131,2.434527059396108,-270.7643585205078,43.89681854248047,-154.54959716796876,-1.8712373733520509,-0.6203926086425782,0.2756016433238983,-2.330708958208561,9.089336236317953,-0.6478567272424698,-0.4743623109534383,-0.37676386162638664,3.062814712524414,-0.5828501954674721,9.717293739318848,-0.9735827147960663
11.1,-4.0648075342178345,9.40847889582316,-1.1366904576619465,0.0,14.072187681496144,0.9538923144340514,9.878800201416015,0.7457955002784729,38.6718017578125,41.10000228881836,-122.7530903,49.19038299,-0.4180695613225301,-0.4157882233460744,0.647789478302002,0.4823253005743027,2.490728418032328,-1.3361756006876628,-2.521096428235372,4.804359936714173,-49.622279739379884,-9.685579776763916,-0.13304136258860427,0.17137315248449644,0.2816597844163577,-263.4858337402344,43.26851959228516,-152.48657836914063,-2.2522394259770713,-0.13201586405436194,0.24184848864873246,-4.085146427154541,9.402397155761719,-1.128514975309372,-0.19439282230186195,0.0066090322692285985,1.2815912420099431,-1.846474568049113,9.53335460027059,-1.3884164690971375
11.2,-3.5174492994944253,9.58514897028605,-1.3879368503888447,0.0,16.04812512099743,0.9548436164855956,9.85820026397705,0.7285258650779725,38.22250061035156,41.10000228881836,-122.7530902,49.190383360000006,-0.4093739887078603,-0.3991832882165909,0.6435656547546387,0.5082473109165827,2.43354070186615,-1.3776540954907734,-2.625489830970764,2.1130399644374847,-49.44415969848633,-10.28337984085083,0.3456580966711044,0.6627887964248658,-1.432051408290863,-266.1771514892578,43.446638870239255,-153.0843765258789,-2.0742493867874146,-0.035508950551350914,-0.1951743960380554,-3.390529990196228,9.563912709554037,-1.314955751101176,0.08557666634971443,0.38998192616484384,-0.4996322285045277,-1.3227970401446025,9.640044371287027,-1.1567577222983043
11.3,-0.3607180441419284,8.717351913452148,-1.08743816614151,0.0,18.024062560498717,0.9557949185371398,9.837600326538084,0.711256229877472,37.773199462890624,41.10000228881836,-122.7530901,49.19038373,-0.4284973939259847,-0.34015824397404987,0.569790373245875,0.6106196443239847,0.8321390375494957,-1.40914652744929,1.9864937861760457,-13.127199578285218,-46.846778869628906,-12.363479804992675,0.5082398851712545,0.41429389268159866,-3.579364856084188,-281.4173980712891,46.04401893615723,-155.1644775390625,-1.5002408623695374,-0.9387014706929525,-0.3623496393362681,-0.3905086681246757,8.714540386199952,-1.0394421577453614,0.2974300548208482,0.3997453591137221,-2.040643905148362,1.119937650859356,9.677044296264649,-0.7253243327140808
11.4,5.559823195139567,7.408179044723511,-0.13409776597594217,0.0,20.0,0.956746220588684,9.81700038909912,0.6939865946769714,37.32389831542969,41.10000228881836,-122.75309,49.1903841,-0.4606873393058777,-0.2575384080410003,0.4410439183314641,0.7244594097137451,0.0761963364978631,-1.071712851524353,1.1805412769317627,-30.676899337768553,-37.84561958312988,-13.91531982421875,0.49065206448237103,0.3765220691760381,-3.154304484526316,-298.9670928955078,55.045178985595705,-156.71631774902343,0.8936165571212769,-1.1705360412597656,0.20098234713077542,5.116951545079549,7.487640619277954,-0.09441679522084691,0.509283443291982,0.40950879206260044,-3.581655581792196,4.435938556989034,8.69264300664266,-0.35510165989398956
11.5,9.948997688293456,6.840601444244385,-0.1158126160502434,0.0,18.024533675611018,0.9577994406223296,9.775700378417968,0.6855557084083557,37.07962875366211,41.10000228881836,-122.75308979,49.19038442,-0.4622435510158539,-0.21737224161624905,0.39835675358772277,0.7617686867713929,0.06344563513994214,-0.940574836730957,1.123285675048828,-37.02089958190918,-33.10713920593262,-13.578599643707275,-0.274151224642992,0.1963931773789227,0.4890994280576706,-305.31109619140625,59.78365898132324,-156.37959899902344,4.178589820861816,-1.0820307731628418,0.24901928901672363,9.75663471221924,6.836294253667195,-0.16370894325276217,0.1092812530696392,0.28169796367486316,-1.3349314567943413,5.727232615152995,7.95225175221761,-0.37490448852380115
11.6,7.552446126937866,7.879066546758016,-1.1717851758003235,0.0,16.04906735122204,0.9588526606559753,9.734400367736814,0.67712482213974,36.83535919189453,41.10000228881836,-122.75308958,49.19038474,-0.46324852108955383,-0.25674828886985773,0.4595996191104253,0.7115975320339203,0.14180349806944523,-1.1051916877428691,1.2439357439676921,-29.44469928741455,-39.18761978149414,-12.629439735412598,-0.3623041749000549,-0.7432397425174713,2.8366443395614622,-297.7348907470703,53.70317916870117,-155.43043823242186,3.202437241872152,-0.8566523392995199,-0.567888488372167,7.122336308161418,8.02193776766459,-1.0851450661818187,-0.2277804259210825,-0.23926192273696262,1.0506344292538634,4.133307576179504,8.834640661875406,-0.6098455687363943
11.7,0.7641080369551977,8.350751717885336,-1.2497513393561046,0.0,14.073601026833057,0.9599058806896209,9.693100357055663,0.6686939358711242,36.59108963012695,41.10000228881836,-122.75308937,49.190385060000004,-0.44233402609825134,-0.3497379074494044,0.5736885964870453,0.5908344089984894,1.0021420866250992,-1.4011897047360737,1.149465262889862,-11.577799701690674,-47.29329872131348,-11.853519821166993,-0.7354817589124044,-0.7656941339373589,3.9401317834854126,-279.8679962158203,45.597499465942384,-154.6545181274414,-0.15503249565760294,-1.3020740350087483,-0.3067902823289235,0.7975277721881866,8.342576026916504,-1.2547961950302124,-0.5648421049118042,-0.7602218091487885,3.4362003153020684,0.9085586905479431,9.674962043762207,-0.9307769656181335
11.8,-4.49112872282664,8.846365133921305,-1.5219349066416423,0.0,12.098134702444076,0.9609591007232665,9.651800346374511,0.6602630496025086,36.34682006835938,41.10000228881836,-122.75308916,49.19038538,-0.4326095829407374,-0.4108838041623433,0.6493878463904063,0.470848227540652,2.3615546226501465,-1.3148874243100483,-2.630795439084371,4.105299881100654,-50.006578826904295,-8.630279970169067,-0.5614360570907592,-0.5850816369056702,1.6553684274355571,-264.1848937988281,42.88421897888183,-151.43127899169923,-2.7140440940856934,-0.6362509727478027,0.19754360119501746,-4.243770678838094,8.765607357025146,-1.3865410089492798,-0.5626045738657315,-0.6750188296039898,2.5446262779560955,-1.6534142593542736,9.511664867401123,-1.6686169306437175
11.9,-5.127101039886474,9.091410064697266,-2.2620548963546754,0.0,10.122668378055096,0.9620123207569122,9.610500335693358,0.6518321633338928,36.1025505065918,41.10000228881836,-122.75308894999999,49.1903857,-0.4315447986125946,-0.41770153045654296,0.6639694809913635,0.44540778994560243,2.4243844509124757,-1.2597806215286256,-2.5520801067352297,7.439559888839722,-49.94679985046387,-6.847859859466553,0.054977866820991046,0.2210568649073442,-0.45598545546333,-260.8506378173828,42.9439998626709,-149.64885559082032,-2.8665628910064695,-0.2477649688720703,-0.2901844263076782,-5.019444068272908,9.10179885228475,-2.135693927605947,-0.5603670428196589,-0.5898158500591913,1.6530522406101227,-2.2350660959879556,9.347373803456625,-1.9615337252616882
12.0,-2.883750081062317,9.484052340189615,-2.053839405377706,0.0,8.147202053666113,0.9630655407905578,9.569200325012206,0.643401277065277,35.858280944824216,41.10000228881836,-122.75308874,49.19038602,-0.43286079665025073,-0.38689935704072315,0.6373757123947144,0.5051598250865936,2.118848522504171,-1.365955650806427,-1.8723189036051433,-0.9296399563550949,-49.82113914489746,-8.763259649276733,0.5803219825029373,0.8705084224541982,-2.6521732807159424,-269.21983337402344,43.06965866088867,-151.5642562866211,-1.7782444755236309,-0.10970322291056316,-0.4644827644030253,-2.632603406906128,9.457133134206137,-1.9883358875910442,0.3187062124100824,0.5410229805856943,-1.5564464647322893,-0.9074322332938513,9.618237018585205,-1.5360373258590698
12.1,1.9236300339301426,8.034799496332804,-1.2127622713645299,0.0,6.171735729277133,0.9641187608242034,9.527900314331054,0.6349703907966614,35.61401138305664,41.10000228881836,-122.75308853,49.190386339999996,-0.45192932585875195,-0.3078970064719518,0.5265413771073023,0.6472070415814718,0.4341193263729413,-1.2920107046763103,1.5829705993334453,-20.480139350891115,-44.28965950012207,-12.461079788208007,1.0439381718635559,0.4090048253536224,-4.539095306396485,-288.7703399658203,48.60113945007324,-155.26207580566407,-0.5340719024340311,-1.3366303443908691,-0.43706472714742023,2.4763719849288464,7.844171206156413,-0.9952148248751959,0.5796422739160445,0.5324269085275857,-2.4881947090510614,2.815322160720825,9.276933034261068,-0.7029546350240707
12.2,8.015257835388184,6.605985085169475,0.42991046980023384,0.0,4.196269404888152,0.965171980857849,9.486600303649903,0.6265395045280456,35.36974182128906,41.10000228881836,-122.75308832,49.19038666,-0.45933326085408527,-0.2229652255773544,0.39150745670000714,0.7646337151527405,0.034282139812906544,-0.934947669506073,1.1002956827481587,-36.92573909759521,-32.580099487304686,-14.341099643707276,0.6692028660327196,0.6282239854335785,-2.4829890628655753,-305.21593017578124,60.3106990814209,-157.14209747314453,2.204530636469523,-1.2672228813171387,0.6230970770120621,8.073024654388428,6.60682258605957,0.5444867914775386,0.8405783354220066,0.5238308364694769,-3.419942953369834,5.860897827148437,7.845080280303955,-0.17378901988267897
12.3,9.382357199986776,6.83360234896342,-0.6470591127872467,0.0,2.2208030804991714,0.9662252008914948,9.44530029296875,0.61810861825943,35.12547225952149,41.10000228881836,-122.75308811,49.19038698,-0.45883814493815106,-0.2063859676321347,0.40091652671496064,0.7650692264238993,0.09034397018452478,-0.9328423837820689,1.127167324225108,-38.1432991027832,-32.11039924621582,-12.94175968170166,-0.5627087006966273,-0.06177374285956225,1.610928013920784,-306.43349304199216,60.78039894104004,-155.7427551269531,3.570650339126587,-1.0349568525950115,-0.13119468837976456,9.59302536646525,6.691727797190349,-0.4425724943478902,0.1394311502067881,0.2286614399177559,-0.90567830611359,5.925862073898315,7.788202444712321,-0.4818714459737142
12.4,5.121477890014648,7.910791397094727,-1.2892528414726256,0.0,0.2453367561101913,0.9672784209251404,9.404000282287598,0.6096777319908142,34.881202697753906,41.10000228881836,-122.7530879,49.1903873,-0.4672224819660187,-0.27682834863662714,0.4873959839344025,0.6820337653160096,0.22901355922222139,-1.1811678647994994,1.3620232105255128,-26.398359298706055,-41.231119537353514,-12.30247974395752,-0.9172650774319967,-1.0792207022507985,3.691636800765991,-294.6885559082031,51.65967903137207,-155.10347595214844,1.500263500213623,-1.132147979736328,-0.5094977736473083,5.131408254305522,7.858827273050944,-1.2401800553003948,-0.5617160350084305,-0.06650795663396518,1.6085863411426544,3.5972553491592407,9.032729466756185,-0.7940515776475271
12.5,-0.6249255140622457,8.435696919759115,-1.496511181195577,0.0,0.24298095703124994,0.9686396777629852,9.383600234985352,0.5920829832553863,34.248995780944824,41.10000228881836,-122.75308815,49.19038734,-0.4589763780434926,-0.36739415427049,0.5948466956615448,0.5453214844067892,1.4311737815539043,-1.3907539248466492,0.5911109646161398,-5.206959885358811,-49.070838928222656,-9.644099807739257,-0.7155064702033996,-0.9279043078422546,3.56348237991333,-273.4971527099609,43.81995849609375,-152.44509735107422,-0.8195312321186066,-1.2125037511189778,-0.05270286401112873,-1.119442203392585,8.595617055892944,-1.4124632875124614,-0.8245153643868186,-1.0151747356761585,3.631010814146562,-0.08080885186791419,9.648039976755777,-1.500579595565796
12.6,-4.60139787197113,9.483454068501791,-2.142473578453064,0.0,0.2406251579523086,0.97000093460083,9.363200187683105,0.5744882345199585,33.61678886413574,41.10000228881836,-122.7530884,49.19038738,-0.44473642110824585,-0.42170919974644977,0.6473239163557688,0.45291271309057873,2.3518470923105874,-1.2926388184229534,-2.5971761544545493,6.457459807395935,-49.81625900268555,-7.484699869155884,-0.24510968041916684,-0.1579086563239495,1.078889824450016,-261.8327301025391,43.07453918457031,-150.28569793701172,-2.7016183932622275,0.05316257476806641,-0.24117358525594076,-4.67294340133667,9.506086158752442,-2.0791235685348513,-0.3385911518425652,-0.35261212647751417,1.8312033758865613,-1.9247292280197144,9.42546787261963,-1.908191967010498
12.7,-4.663112799326579,9.376275698343912,-2.4589243729909263,0.0,0.23826935887336728,0.9713621914386749,9.34280014038086,0.5568934857845306,32.98458194732666,41.10000228881836,-122.75308865,49.19038742,-0.42880704005559284,-0.4155961523453395,0.6508651077747345,0.4681961039702098,2.418846607208252,-1.3109126091003418,-2.5714415311813354,5.71203989982605,-49.83943862915039,-8.385059928894043,0.5376632238427798,0.7873034874598185,-1.0114147067070007,-262.5781585693359,43.05135879516602,-151.1860580444336,-2.7728172540664673,-0.09736617406209308,-0.7964300711949667,-4.747858603795369,9.348259607950846,-2.4559333324432373,0.14733306070168814,0.30995048272113007,0.03139593762656053,-1.9678768912951152,9.449731985727945,-1.7217055757840474
12.8,-1.0380862367649872,8.789535522460938,-1.2435698707898457,0.0,0.23591355979442594,0.9727234482765197,9.322400093078613,0.5392987370491028,32.35237503051758,41.10000228881836,-122.7530889,49.19038746,-0.4189046074946721,-0.36359166105588275,0.5871807833512624,0.586747278769811,1.1371527339021366,-1.4446387092272441,0.21858982245127356,-7.384659951925277,-48.04115943908691,-12.379339694976807,1.1281408270200093,1.1246029039223988,-3.365587512652079,-275.67485961914065,44.849639129638675,-155.18033752441406,-1.4653183420499165,-0.9337220986684164,-0.5822611500819524,-1.4473585883776348,8.907182375590006,-1.3183455765247345,0.6382460122307141,0.7149095941955845,-1.6682793569440644,0.14613980799913404,9.729111989339193,-0.7524880717198054
12.9,4.313421821594238,7.359006309509278,0.2423929337412119,0.0,0.2335577607154846,0.9740847051143645,9.302000045776367,0.5217039883136749,31.720168113708496,41.10000228881836,-122.75308915000001,49.1903875,-0.42113170623779295,-0.2830182999372482,0.46830368638038633,0.7215886950492859,-0.026598786562681158,-1.1591868162155152,1.0418540000915528,-26.8363395690918,-39.590219497680664,-15.795339679718017,0.8242862969636917,0.8761589328447977,-3.8391353289286294,-295.12653198242185,53.30057907104492,-158.596337890625,0.4086494445800781,-1.5885101318359376,0.1189153045415878,4.293421685695648,7.338188807169597,0.2646062945326169,1.1291589637597401,1.119868705670039,-3.367954651514689,3.883580525716146,8.934714476267496,0.1067515973312159
13.0,9.74018375078837,6.527819474538167,0.4693920488158862,0.0,0.23120196163654325,0.9754459619522095,9.281599998474121,0.504109239578247,31.087961196899418,41.10000228881836,-122.75308940000001,49.19038754,-0.42768147587776184,-0.21155643463134757,0.3867151389519374,0.788992573817571,-0.0053919668619831175,-0.9129469295342764,0.9905645648638407,-38.795999145507814,-30.504879760742188,-15.08895959854126,-0.36783251017332075,0.3898541986942291,-0.6151107430458069,-307.08619384765626,62.385919189453126,-157.88995666503905,3.7452243169148765,-1.2306076685587566,0.4411426881949107,10.047661781311035,6.475177526473999,0.40987058728933334,0.283413710241968,0.6503771150654013,-2.3760436962951315,6.027848084767659,7.735007921854655,-0.015620741372307137
13.1,8.525427659352621,7.4376903374989825,-1.0463614165782928,0.0,0.2288461625576019,0.9768072187900543,9.261199951171875,0.48651449084281917,30.455754280090336,41.10000228881836,-122.75308965,49.19038758,-0.4405993272860845,-0.23853235940138495,0.44591950873533887,0.7400042414665222,0.08993987925350662,-1.0596673985322316,1.12968909740448,-32.58497924804688,-36.49874000549316,-13.283359622955322,-0.6951137483119965,-0.75617480588456,2.9593876004219055,-300.8751739501953,56.392059326171875,-156.08435516357423,3.7641478776931763,-1.0805981953938801,-0.6384225388367971,8.643593406677246,7.486543750762939,-0.9530612468719483,-0.2722561572763053,-0.3021382291406166,0.6407687122171573,4.797978734970092,8.512346458435058,-0.4089396655559539
13.2,1.5853446846206982,7.825925827026367,-1.479562024275462,0.0,0.22649036347866058,0.9781684756278991,9.240799903869629,0.4689197421073913,29.823547363281254,41.10000228881836,-122.7530899,49.19038762,-0.44750914971033734,-0.3561847507953644,0.5617421269416809,0.5934016307195028,0.9084321061770121,-1.3939396739006042,1.0767940282821655,-12.247579884529113,-46.89679946899414,-12.7343599319458,-0.9628508885701498,-1.7436384757359822,4.360457976659139,-280.53777465820315,45.99399909973145,-155.53535919189454,0.5004132551451524,-1.8080236911773682,-0.6561161577701567,2.189432740211487,7.778468132019043,-1.4548361897468567,-0.8279260247945786,-1.2546535733466346,3.6575811207294464,1.4351736654837925,9.595202445983887,-0.7598355213801066
13.3,-5.2996235370635985,8.439006996154784,-1.696032667160034,0.0,0.22413456439971924,0.9795297324657439,9.220399856567383,0.45132499337196347,29.19134044647217,41.10000228881836,-122.75309015,49.19038766,-0.43056580424308766,-0.4346211075782776,0.6535953879356384,0.4443578064441681,2.4779746532440186,-1.2728587627410888,-2.4704158782958983,8.350899827480315,-49.4539192199707,-8.629059743881225,-0.8621853987375895,-0.40052398449430854,2.4914139111836753,-259.9392944335938,43.43687896728515,-151.43005828857423,-3.0168713092803956,-0.9210895538330078,0.037305569648742654,-5.069194793701172,8.446165402730307,-1.6616158882776897,-0.8445339202880859,-0.8299558794436355,3.073301240801811,-2.235384921232859,9.363120714823404,-1.7250401377677917
13.4,-6.580561399459839,8.75015370051066,-2.483052055040995,0.0,0.2217787653207779,0.9808909893035888,9.199999809265137,0.4337302446365356,28.55913352966309,41.10000228881836,-122.7530904,49.1903877,-0.42007067799568176,-0.4463760107755661,0.6817885339260101,0.3992573271195094,2.558728575706482,-1.1667541861534119,-2.3731525341669717,13.632279586791991,-48.991539764404294,-6.337899875640869,0.07043276354670523,0.2246762402355671,-0.14627168476581573,-254.6579147338867,43.89925956726074,-149.13889770507814,-3.362780054410299,-0.2697367668151855,-0.3600627581278483,-6.52323333422343,8.749256292978922,-2.4119652112325034,-0.8611418157815933,-0.40525818554063636,2.489021360874176,-3.2066819270451865,9.027291615804037,-2.1076330741246543
13.5,-4.115954041481018,9.12991444269816,-1.851845343907674,0.0,0.22342533320188523,0.9815378785133361,9.18819980621338,0.41495997607707974,28.65210647583008,41.10000228881836,-122.75309054,49.19038751,-0.4108378241459529,-0.4215610275665919,0.6564058363437653,0.46996909379959106,2.5501091480255127,-1.3055354356765747,-2.460039178530375,6.364739835262299,-49.36241912841797,-9.54649977684021,0.8996263345082601,1.1139382322629292,-2.2039000193277993,-261.9254623413086,43.52837944030762,-152.34749755859374,-1.9791011611620586,-0.3109286626180013,-0.43637274702390033,-4.121637010574341,9.190113639831543,-1.7508283615112306,0.5237614275379614,0.7049801502038132,-1.27096067098054,-2.168389344215393,9.441612434387206,-1.4239927768707275
13.6,0.7935197850068411,8.173184235890707,-0.6853442993791153,0.0,0.22507190108299255,0.9821847677230834,9.17639980316162,0.39618970751762383,28.745079421997072,41.10000228881836,-122.75309068,49.19038732,-0.4063196927309036,-0.3537081430355708,0.5566717485586802,0.6288017928600311,0.5717535667742292,-1.4141053756078084,0.6646594901879629,-12.32077989578247,-46.09281883239746,-15.204859638214112,1.3629676302274067,0.9904670914014181,-4.124765793482463,-280.61097106933596,46.79797897338867,-158.0058578491211,-0.4398449957370758,-1.4740391572316487,-0.5909541000922521,0.3017947822809219,8.262416760126749,-0.7885347654422125,0.720646876164458,0.832076562116995,-2.323523721234365,0.8887949486573538,9.68428897857666,-0.2003815472126007
13.7,6.380461533864339,7.441678365071614,0.7662017444769541,0.0,0.2267184689640999,0.9828316569328307,9.164599800109864,0.377419438958168,28.838052368164064,41.10000228881836,-122.75309082000001,49.190387130000005,-0.40911518037319183,-0.27102071543534595,0.4351637562115987,0.7538416186968485,-0.11181691785653429,-1.0741921067237854,0.9271086653073629,-30.430459403991698,-36.626839828491214,-17.393539810180663,0.4700098981459935,0.9373472730318705,-2.6226990024248757,-298.720654296875,56.263959121704104,-160.1945373535156,1.7463781436284382,-1.1596510410308838,0.2617958486080169,6.030810395876567,7.473981539408366,0.7918248971303304,0.9175323247909546,0.9591729740301768,-3.3760867714881897,4.436644355456035,8.69965155919393,0.5068975389003754
13.8,8.776514625549316,7.31892671585083,0.3925425501540303,0.0,0.2283650368452072,0.983478546142578,9.152799797058107,0.35864917039871214,28.931025314331055,41.10000228881836,-122.75309096000001,49.19038694,-0.4140198826789856,-0.22652131915092463,0.39935590028762813,0.7859700560569763,-0.04380521215498446,-0.9532893896102905,0.9470642328262329,-37.00259895324707,-31.79197940826416,-15.745319843292236,-0.35822156133751076,0.0523562418917815,0.12079860518376036,-305.29279174804685,61.098818969726565,-158.54631805419922,3.1014726638793944,-0.6782347679138183,0.14432082176208494,8.747262318929037,7.3247292041778564,0.46141596883535385,0.28017716241690016,0.5033975088347991,-1.6288276327153046,5.642069180806478,8.019846757253012,0.2507428911825021
13.9,7.105387131373088,7.853443384170532,-0.3704887107014656,0.0,0.23001160472631454,0.9841254353523253,9.14099979400635,0.33987890183925623,29.02399826049805,41.10000228881836,-122.7530911,49.19038675,-0.4284840375185012,-0.2625442445278168,0.4469667325417201,0.7387825349966685,-0.006048929683553617,-1.0909347236156464,1.048927326997121,-30.410939598083495,-37.48205909729004,-15.323199844360351,-0.7135517001152039,-1.048336398601532,2.668839716911316,-298.7011352539063,55.408738708496095,-158.12419738769532,2.5889827807744346,-0.8208781083424886,-0.4037157545487086,6.792625268300374,7.901000579198201,-0.37956148758530617,-0.3571779999571542,0.04762204363942144,0.11843150605758031,4.309248765309651,8.773975054423014,0.015484255428115531
14.0,1.183450182278951,8.614759604136148,-0.792024294535319,0.0,0.23165817260742189,0.9847723245620728,9.12919979095459,0.3211086332798004,29.116971206665042,41.10000228881836,-122.75309124,49.19038656,-0.42717493573824566,-0.3476499666770299,0.559554398059845,0.6167858143647512,0.6483003279815117,-1.4100782473882039,1.813139835993449,-13.660339736938477,-46.29899940490723,-13.97997980117798,-0.9657270212968191,-0.5743151555458704,3.630982995033264,-281.9505340576172,46.59179954528808,-156.78097839355468,-0.08223262429237366,-1.0408593813578289,-0.2994628250598907,1.156570827960968,8.636654281616211,-0.7027720212936401,-0.8500467538833618,-0.794555203481154,3.1912572275508535,1.253020465373993,9.675453376770019,-0.48828497529029846
14.1,-3.868595997492472,9.202397028605143,-0.8222336769104004,0.0,0.2333047404885292,0.9854192137718201,9.117399787902833,0.3023383647203445,29.209944152832033,41.10000228881836,-122.75309138,49.19038637,-0.4030033399661382,-0.3898614744345347,0.6462895671526591,0.5170476088921229,2.409965475400289,-1.3850584228833516,-2.6767673095067344,0.4392000079154969,-49.42951889038086,-10.842139720916748,-0.39767326911290485,0.12823080147306123,1.6868789394696553,-267.8509948730469,43.46127891540527,-153.64313354492188,-2.4981258312861123,-0.4311800003051758,0.3319534063339233,-3.641876141230265,9.132407029469809,-0.7641080220540365,-0.4901314307935536,-0.21987215311012487,1.9455844022785174,-1.2311212768157322,9.653358300526937,-1.127657562494278
14.2,-4.681916427612305,9.262616539001465,-1.2541979789733886,0.0,0.23495130836963654,0.9860661029815674,9.105599784851076,0.2835680961608886,29.302917098999025,41.10000228881836,-122.75309152000001,49.190386180000004,-0.37485541701316827,-0.3860024988651275,0.6764050483703613,0.5028866291046142,2.6327718257904054,-1.3242607116699219,-2.504447269439697,3.7453999757766723,-49.508818817138675,-10.290699863433836,0.13515393311778703,0.5908848643302917,-0.28239792212843895,-264.5447937011719,43.38197898864746,-153.0916961669922,-2.593120288848877,-0.25036087036132815,-0.08728897571563721,-4.567399899164836,9.294720013936361,-1.1593225598335266,-0.13021610770374537,0.3548108972609043,0.6999115770061811,-2.057537794113159,9.520490805308023,-1.1603147586186726
14.3,-2.451147735118866,9.699206829071045,-1.2060823043187459,0.0,0.23659787625074385,0.9867129921913147,9.093799781799317,0.2647978276014328,29.395890045166016,41.10000228881836,-122.75309166000001,49.19038599,-0.370581790804863,-0.3630524625380834,0.6401865382989248,0.5650353531042734,2.1431851337353387,-1.4507404367129009,-0.9519691665967306,-4.398099875450134,-48.61455955505371,-12.526959800720215,0.8424137234687805,0.526932367682457,-2.6475205183029176,-272.68829650878905,44.2762393951416,-155.3279556274414,-1.6215919256210327,-0.0217258135477702,-0.5694442490736643,-2.1982064048449197,9.593623638153076,-1.0815558433532715,0.3566180418245494,0.43850452788174155,-0.9749651161332925,-0.5984275552133719,9.7359938621521,-0.5606510862708092
14.4,2.4284159392118454,7.518747250239055,0.6357929209868113,0.0,0.2382444441318512,0.987359881401062,9.08199977874756,0.2460275590419769,29.488862991333008,41.10000228881836,-122.7530918,49.1903858,-0.40247948467731476,-0.30994926889737445,0.4956291814645131,0.7009133994579315,-0.0913300029933452,-1.2498897512753804,0.982750823100408,-24.323139667510986,-40.346619033813475,-17.038519287109374,0.881834864616394,-0.06205372539504122,-4.637027184168498,-292.6133331298828,52.54417877197265,-159.83951873779296,-0.6136028170585632,-1.6976397037506104,0.2902112851540248,2.4845873594284056,7.451010417938233,0.7410571843385696,0.8434521913528442,0.5221981585025788,-2.649841809272766,3.046662521362305,9.246709442138672,0.35707976669073105
14.5,8.601599216461182,6.111368735631307,1.3008978913227718,0.0,0.2382444441318512,0.9803543431418282,9.185285568237306,0.24531442565577366,29.493736812046595,41.07143075125558,-122.75309165714286,49.19038595714286,-0.45761136213938397,-0.2367518196503321,0.33412282168865204,0.7883865634600321,-0.10365354269742962,-0.8396517237027487,1.0044209659099579,-39.0778190612793,-27.963619422912597,-18.66355953216553,-0.2793944875399272,-0.10359257025023301,-2.7025950948397317,-307.3680145263672,64.92717895507812,-161.4645553588867,2.1016412576039634,-1.1719729105631511,0.6349343756834666,8.247162342071533,6.216054677963257,1.4523436625798543,0.3022637578348319,-0.08757007312184821,-3.6721909840901694,6.3331460158030195,7.416354179382324,0.6820771098136902
14.6,9.805288632710775,6.347460587819417,0.19411773482958472,0.0,0.2382444441318512,0.9733488048825946,9.28857135772705,0.24460129226957045,29.498610632760183,41.0428592136928,-122.75309151428571,49.190386114285715,-0.4659634629885356,-0.20885207007328666,0.3254733234643936,0.795598973830541,-0.04106881562620398,-0.793435275554657,1.0426532626152039,-41.1213191986084,-25.97135944366455,-16.957999801635744,-0.14210252867390713,0.3176753744482994,0.9394598565995693,-309.41151123046876,66.91943893432617,-159.75899658203124,2.9341510931650796,-0.6391316254933676,-0.09040686488151549,9.942776203155518,6.272286097208659,0.25892334928115207,-0.08010606848013896,-0.015373439547450587,-0.7097045130406818,6.932943026224772,6.927195390065511,0.312019723157088
14.7,7.594699478149414,6.825765895843506,-0.4675575464963913,0.0,0.2382444441318512,0.9663432666233608,9.391857147216797,0.2438881588833672,29.50348445347377,41.014287676130024,-122.75309137142857,49.19038627142857,-0.4610259473323822,-0.25261293947696684,0.41527323722839354,0.7410461902618408,0.021296634315513062,-1.0159844756126404,1.1270671367645264,-33.6439395904541,-34.940799713134766,-15.579399681091308,-0.7848854760328928,-0.19453512939314044,3.5707618792851767,-301.9341339111328,57.949999237060545,-158.38039855957032,2.4480989456176756,-1.4792745590209961,-0.3785502165555954,7.44995363553365,6.903592348098755,-0.39042889947692555,-0.4624758947951098,0.05682319402694702,2.2527819580088058,5.108339428901672,8.308318535486857,-0.09349449475606282
14.8,1.55732871654133,8.495417912801107,-1.1068798700968425,0.0,0.2382444441318512,0.959337728364127,9.495142936706543,0.243175025497164,29.508358274187362,40.98571613856724,-122.75309122857144,49.19038642857143,-0.42911232511202496,-0.32268673181533813,0.5556289007266363,0.6320148011048635,0.606990727285544,-1.3710604111353557,1.735685129960378,-15.819739484786988,-45.961059188842775,-12.479379749298095,-0.4781547591090202,0.27586675733327864,4.020226287841797,-284.1099334716797,46.92973937988281,-155.28037719726564,-0.11337654789288841,-1.0765117804209392,-0.43160303433736164,0.9965109328428904,8.558927059173584,-1.0191430548826854,-0.46979609822543955,0.163962597027421,3.135312959862252,1.337598239382108,9.622300624847412,-0.7163533320029577
14.9,-4.501796682675679,8.949854532877604,-0.49621159831682843,0.0,0.2382444441318512,0.9523321901048932,9.598428726196289,0.24246189211096075,29.51323209490095,40.957144601004465,-122.75309108571429,49.190386585714286,-0.36000439524650574,-0.3614658365646998,0.6718857487042745,0.5359832247098287,2.566335439682007,-1.3757603963216145,-2.6400330464045205,-0.4623799979686737,-49.38681907653809,-10.827499675750733,-0.21461732561389604,0.8113562961419424,2.1757238606611886,-268.75257568359376,43.50397872924805,-153.6284973144531,-2.883556683858236,-0.6618272463480631,0.44145150979359943,-4.553661203384399,8.926185607910156,-0.4135993868112564,-0.47711630165576935,0.271102000027895,4.017843961715698,-1.657489573955536,9.610071563720703,-0.9492258667945862
15.0,-4.866801857948303,9.466704527537027,-0.44586263100306195,0.0,0.2382444441318512,0.9453266518456596,9.701714515686033,0.24174875872475754,29.518105915614537,40.92857306344168,-122.75309094285714,49.19038674285714,-0.3335528671741485,-0.36250667273998255,0.6879458725452423,0.5326222976048788,2.8095696767171225,-1.3468236923217773,-2.4370515743891397,1.9544399797916412,-49.28311958312988,-11.476539707183838,0.38553233196338016,0.13507758531098565,-0.9290496533115705,-266.33575744628905,43.60767936706543,-154.27753601074218,-2.811515768369039,-0.09127012888590495,0.2693667411804199,-5.018945535024007,9.372885704040527,-0.37667015691598255,0.08650106230440237,0.46848274472480017,0.6209827015797297,-2.1398485898971558,9.53931458791097,-0.7522086103757223
15.1,-1.7609978169202805,9.236056137084962,-0.5255834884941578,0.0,0.2382444441318512,0.9383211135864258,9.80500030517578,0.2410356253385543,29.522979736328125,40.900001525878906,-122.7530908,49.1903869,-0.3637141287326812,-0.34667427539825435,0.5995192170143128,0.6206319212913514,1.0663964331150055,-1.472905445098877,-0.3923814415931701,-11.208139848709106,-46.512499237060545,-14.826659774780273,0.8682431181271871,-0.6715699831644694,-4.183332562446594,-279.4983337402344,46.37829933166504,-157.62765808105468,-2.1303244113922117,-0.5103012084960937,-0.4749833643436432,-1.716850247234106,9.176375071207682,-0.42402811348438263,0.45457109015533753,-0.25177828911833017,-2.042103425797188,0.40624145045876503,9.720627784729004,-0.04518811653057734
15.2,4.398506581783295,6.747460683186849,1.3082757592201233,0.0,0.23690233627955115,0.9396509726842245,9.75266679128011,0.1886222561200459,19.681986490885414,40.900001525878906,-122.75309166666666,49.19038556666667,-0.4430090735356013,-0.30650971333185834,0.3977310409148534,0.7380495766798655,-0.20151220013697935,-1.044515719016393,0.9660152792930603,-30.21207904815674,-33.6695592880249,-20.674119567871095,0.7655974149703979,-1.3221872687339782,-5.326195240020752,-298.5022735595703,59.22123908996582,-163.47511596679686,-0.36059000094731647,-1.6248594125111897,0.3041088134050369,5.090131878852844,6.561418851216634,1.6150556057691574,0.8226411180062727,-0.9720393229614605,-4.7051895531741055,5.120640794436137,8.152170340220133,1.101686845223109
15.3,10.082856178283691,4.852046092351277,2.212663014729818,0.0,0.23556022842725113,0.9409808317820231,9.70033327738444,0.13620888690153748,9.840993245442707,40.900001525878906,-122.75309253333333,49.19038423333333,-0.49068114161491394,-0.24437106897433594,0.2574886654814084,0.7955494821071625,-0.1806033502022425,-0.7070218622684479,1.0381685495376587,-40.11237907409668,-22.495579719543457,-22.177159690856932,-0.1811979040503502,0.5459353650609652,-1.1566224594910939,-308.40257873535154,70.39521942138671,-164.97815704345703,2.749986489613851,-1.5175405343373616,0.8781179189682007,10.103394508361816,4.739782810211182,2.121436675389608,0.3212561134926297,-0.21541908676877164,-2.932089550928636,7.375887473424275,6.333783785502116,1.2778494854768117
15.4,9.170692284901937,5.853741486867269,1.1567303538322449,0.0,0.2342181205749511,0.9423106908798218,9.64799976348877,0.0837955176830291,0.0,40.900001525878906,-122.7530934,49.1903829,-0.48188571135203034,-0.22517804056406018,0.29153587917486823,0.7948534687360128,-0.10496234521269794,-0.7486578126748403,1.0489827394485474,-40.754098892211914,-24.386579322814942,-19.40409984588623,-0.2169080749154091,0.3787619074185689,1.0605384409427643,-309.04429626464844,68.50421829223633,-162.2050979614258,2.027093489964803,-0.818856954574585,0.4020501772562663,9.208419036865234,5.8762938499450685,1.247378444671631,-0.18012889102101326,0.5412011494239172,-1.1589895486831665,7.167356872558594,6.649680423736572,0.7618605971336365
15.5,6.633702079455058,6.794918378194173,-0.24317059417565667,0.0,0.23300788402557365,0.9433790504932403,9.62309980392456,0.0856568589806556,12.311548614501952,40.900001525878906,-122.75309317,49.19038255,-0.4692429006099701,-0.2625585446755091,0.4189620514710744,0.7284956375757853,0.03923280409071594,-1.035604198773702,1.174878219763438,-32.929019355773924,-34.618719482421874,-16.032019805908202,-0.9812532166639963,0.6387868771950403,4.141539057095845,-301.21921691894534,58.27207908630371,-158.83301696777343,1.6872544288635254,-1.5707012017567952,-0.14067674179871878,7.113662242889404,6.586643060048421,0.02891327564915021,-0.5980625165005525,0.5040147310743729,2.5987098266681037,5.251169323921204,8.187380949656168,-0.007728996376196544
15.6,0.7393822133541107,8.828438758850098,-1.4012369155883788,0.0,0.23179764747619622,0.9444474101066589,9.598199844360352,0.08751820027828211,24.623097229003903,40.900001525878906,-122.75309294,49.1903822,-0.42486496567726134,-0.321139520406723,0.5744635820388794,0.6199211120605469,0.738765674829483,-1.3960472106933595,1.8553454160690308,-13.857979488372802,-46.65889930725098,-11.420419692993164,-0.5713880757490793,-0.1784744660059611,3.6748634974161782,-282.14817504882814,46.231899642944335,-154.22141723632814,-0.552696418762207,-0.8166189193725586,-0.5119206428527832,0.7665008828043937,8.835497538248697,-1.3581262429555256,-0.47679304376696097,0.39351290766375535,2.773643479880058,1.3005039642254512,9.625614802042643,-0.8899811307589213
15.7,-3.1981071631113687,9.094221591949463,-0.8915258248647054,0.0,0.23058741092681878,0.9455157697200776,9.573299884796143,0.0893795415759086,36.934645843505855,40.900001525878906,-122.75309271,49.19038185,-0.3826325138409932,-0.36717651784420013,0.6612322628498077,0.529561181863149,2.4067490100860596,-1.3782240351041157,-1.705387830734253,1.0955599755048753,-49.58567886352539,-10.091839790344238,-0.09880745261907578,0.8472395479679108,2.0822563648223875,-267.19463500976565,43.305119323730466,-152.89284057617186,-1.7760226329167683,-0.5241468747456869,0.25077233711878455,-3.4304103453954062,9.060921510060629,-0.7527421116828918,-0.3555235710333694,0.28301108425313776,2.948577133092013,-1.6094749768575032,9.590672492980957,-1.1393068234125774
15.8,-5.541179021199544,9.234799861907959,-0.46420758962631226,0.0,0.22937717437744135,0.9465841293334961,9.548399925231934,0.0912408828735351,49.24619445800781,40.900001525878906,-122.75309248,49.1903815,-0.3220622440179189,-0.3712056229511897,0.7198804517587026,0.489950771133105,2.829805294672648,-1.236468493938446,-2.412698666254679,7.493239784240723,-49.356319427490234,-10.17723970413208,0.061850106343626955,0.6676502552970002,0.6649268120527267,-260.7969512939453,43.53447952270508,-152.97823638916014,-2.4798070192337036,-0.030303001403808618,0.5152712613344193,-5.696473407745361,9.237850570678711,-0.36598222255706786,-0.14631495173230316,0.4729635779054441,1.8055684205257532,-3.1196291923522947,9.24764633178711,-0.9745982885360718
15.9,-3.5851462682088218,9.20837926864624,-0.8652047961950302,0.0,0.22816693782806388,0.9476524889469147,9.523499965667725,0.0931022241711616,61.55774307250976,40.900001525878906,-122.75309225000001,49.19038115,-0.35125518838564557,-0.3570012499888738,0.6604834198951721,0.5563160379727682,2.3228766719500222,-1.4056299726168315,-1.8589452107747395,-0.8613200604915618,-49.12695846557617,-11.647339725494385,0.5187264084815979,-0.8097018972039223,-3.4956000645955405,-269.15151062011716,43.76383934020996,-154.44833526611328,-2.3043450315793357,-0.43099292119344074,-0.2245575487613678,-3.9348971446355185,9.269794782002768,-0.7787640740474066,0.06289366756876306,0.6629160715577503,0.662559707959493,-1.5874017576376598,9.600289662679037,-0.6793652574221293
16.0,2.616431939601898,7.5808210372924805,0.22935205399990083,0.0,0.22695670127868645,0.9487208485603332,9.498600006103516,0.0949635654687881,73.86929168701171,40.900001525878906,-122.75309202,49.1903808,-0.44821038842201233,-0.32358341217041015,0.4786717236042023,0.6785578608512879,0.005760659277439123,-1.2343366622924805,1.1825030326843262,-21.762359428405762,-41.8386791229248,-16.438279628753662,0.7345909078915914,-1.339169333378474,-5.214065869649251,-290.05255737304685,51.0521183013916,-159.23927612304686,-0.5787576675415039,-1.5973639488220215,0.11373188495635989,2.605285262068113,7.624529997507731,0.3097708250085513,0.6277149418989817,-1.0791698209941387,-4.35716187953949,3.1633341014385223,9.149165948232016,0.11601310029315454
16.1,8.252047777175903,6.18664288520813,1.367697536945343,0.0,0.225746464729309,0.9497892081737518,9.473700046539307,0.0968249067664146,86.18084030151365,40.900001525878906,-122.75309179,49.19038045,-0.49623872339725494,-0.26167022933562595,0.3256296714146932,0.7602709531784058,-0.11449181661009784,-0.8568396866321564,1.1040741602579753,-36.586579132080075,-29.515459251403808,-19.821339416503907,0.3192025423049926,0.42699480429291725,-1.8297196080287297,-304.87677612304685,63.37533874511719,-162.6223358154297,1.8844228585561116,-1.2090799808502197,0.6395907402038574,8.638289213180542,6.0825551350911455,1.4507484237353008,0.3380768892327041,-0.2992441450161013,-2.3821170810948717,6.503651221593221,7.285342454910278,0.7285968661308289
16.2,9.350153923034668,6.1238313515981035,0.5589234953125318,0.0,0.22453622817993157,0.9508575677871705,9.448800086975098,0.0986862480640411,98.49238891601561,40.900001525878906,-122.75309156,49.1903801,-0.48858523368835444,-0.23167334745327628,0.3301290720701217,0.7734180390834808,-0.05220261216163632,-0.8290900389353434,1.104401667912801,-38.71059951782227,-28.759059524536134,-17.616799354553223,-0.2787378087639808,0.5555819422006607,1.3053274035453797,-307.00079345703125,64.13173828125,-160.41779632568358,2.738426605860392,-1.1032617092132568,0.20713137462735176,9.161519527435303,6.17667293548584,0.521037120372057,0.04843883656642654,0.48068153096193617,-0.40707228265025397,6.529706001281738,7.301507949829102,0.306674588471651
16.3,6.425426801045735,7.855038563410441,-0.13908281549811358,0.0,0.22332599163055414,0.951925927400589,9.423900127410889,0.1005475893616676,110.80393753051757,40.900001525878906,-122.75309133,49.19037975,-0.4700017273426056,-0.26927155504624045,0.41933990518252057,0.7272070646286011,0.009744593485568968,-1.0442937811215718,1.155067761739095,-30.874539375305176,-36.445059585571286,-15.844139671325683,-0.41487930963436764,-0.06589708849787712,2.791654189427694,-299.16473999023435,56.4457389831543,-158.64513549804687,1.514467477798462,-0.5943641662597656,-0.11012511948744454,6.423771667480469,7.9736028671264645,-0.06568298153579231,-0.1827111824443846,0.2050251186910001,1.1910946682998629,4.936781787872315,8.448113059997558,-0.01987755056470634
16.4,1.9824536219239235,8.074779510498047,-0.759422093629837,0.0,0.2221157550811767,0.9529942870140076,9.39900016784668,0.1024089306592941,123.11548614501952,40.900001525878906,-122.7530911,49.1903794,-0.4200333505868912,-0.3356289267539978,0.568008174498876,0.6191146969795227,0.8659605098267397,-1.3967735171318054,0.9526076714197794,-14.500919723510743,-45.997659301757814,-13.25163984298706,-0.4730387826760609,1.0059932718674343,4.470362742741902,-282.79111633300784,46.89313888549805,-156.05263671875,0.7677016618351141,-1.5478874047597249,-0.17777906358242032,2.576073005795479,8.00219718615214,-0.6926224579413732,-0.4138612014551957,-0.07063129357993603,2.7892616192499795,1.5952310264110565,9.571780999501547,-0.5396382908026377
16.5,-5.016193675994873,8.905248260498047,-0.3586841206997633,0.0,0.22352158278226847,0.9539236545562744,9.422400188446044,0.1048611059784889,122.80470046997068,40.900001525878906,-122.75309086,49.19037933,-0.33077414035797115,-0.3692074060440063,0.6959662795066833,0.5186903417110443,2.815299224853516,-1.3127782583236693,-2.422286796569824,3.2500799052417277,-49.17087936401367,-11.356979751586914,-0.061570125709598224,0.10023279239734013,2.326480279366175,-265.0401123046875,43.71991882324219,-154.15797729492186,-2.64284143447876,-0.5655927658081055,0.40111371874809265,-4.950151840845744,8.910871664683023,-0.2735793898658206,-0.2662736189862092,0.5483406285444895,3.396079882979393,-2.3126442035039267,9.477020104726156,-0.7660438517729441
16.6,-4.947659413019816,9.08325449625651,-0.7408777096619209,0.0,0.22492741048336024,0.9548530220985413,9.44580020904541,0.10731328129768368,122.49391479492186,40.900001525878906,-122.75309062000001,49.19037926,-0.3335645894209544,-0.38988229135672253,0.7051753997802734,0.489274059732755,2.8517348368962607,-1.2538975675900776,-2.3422977526982627,7.635979843139649,-49.13305931091308,-11.241079807281494,0.05366451228037472,-0.36135733127593994,-0.4121507778763771,-260.6542083740234,43.7577392578125,-154.04207763671874,-2.019100030263265,-0.237512747446696,0.13109968105951944,-4.81076995531718,9.053144772847494,-0.7509475092714032,0.014810590457989659,0.20208821434414748,1.225369071079926,-2.8985933860143027,9.330015818277994,-0.8758143683274587
16.7,-3.7312081257502236,9.690632661183676,-0.7268198827902476,0.0,0.226333238184452,0.9557823896408081,9.469200229644775,0.10976545661687848,122.18312911987303,40.900001525878906,-122.75309038,49.190379189999994,-0.34695865710576373,-0.39136524001757306,0.6774372557799021,0.5166001518567404,2.8595060110092163,-1.3341734608014424,-2.3160730997721353,4.338319972157478,-48.85977897644043,-12.353719806671142,0.49586987495422363,0.04558581983049711,-1.3853914539019268,-263.9518768310547,44.03101921081543,-155.15471801757812,-1.5279868245124817,0.16649993260701498,-0.08109191060066225,-3.712344694137573,9.705887031555175,-0.6807580471038819,0.29589479990218853,-0.1441641998561946,-0.9453417408195409,-2.2455744981765746,9.518504524230957,-0.6517640650272369
16.8,0.19282163927952448,8.814959367116293,0.22901307543118796,0.0,0.22773906588554377,0.956711757183075,9.492600250244141,0.11221763193607326,121.87234344482421,40.900001525878906,-122.75309014000001,49.190379119999996,-0.3684673011302948,-0.35214105248451233,0.5765800873438517,0.6357972423235575,0.7940415913860003,-1.4483092427253723,-0.2278501788775126,-11.740059742331505,-45.72803955078125,-16.053979778289794,0.9249008744955063,0.5360088100035986,-3.7679441372553506,-280.03025817871094,47.16275978088379,-158.8549774169922,-0.6270882487297058,-0.8899005254109701,0.015642300248146057,-0.23599213858445486,8.945168813069662,0.19591234189768633,0.6109196361274261,0.19355519601341448,-2.357826488600536,0.5009523928165436,9.727144559224447,0.14099567259351412
16.9,4.665884494781494,8.03485927581787,0.5942575216293335,0.0,0.22914489358663556,0.9576411247253418,9.516000270843506,0.11466980725526806,121.56155776977538,40.900001525878906,-122.7530899,49.19037905,-0.4028406023979187,-0.28930378556251524,0.45606098175048826,0.7378021001815795,-0.1446802079677581,-1.1374456882476807,0.9060722470283509,-29.007939720153807,-37.383239364624025,-17.642419624328614,0.20112738191771015,0.12230031316479045,-3.15753702322642,-297.2981353759766,55.50755920410156,-160.44341583251952,0.601313591003418,-0.8383586883544922,0.013897830247879045,4.575176636377971,8.093024571736654,0.65334028378129,0.9259444723526636,0.5312745918830236,-3.7703112363815308,4.040587504704793,8.86941115061442,0.579509049654007
17.0,7.9867433706919355,7.181359211603801,0.6616154511769613,0.0,0.23055072128772733,0.9585704922676086,9.53940029144287,0.11712198257446285,121.25077209472654,40.900001525878906,-122.75308966,49.19037898,-0.43008196850617725,-0.244591549038887,0.37139503657817835,0.7853642602761587,-0.1073586729665597,-0.9175485670566559,0.9487140774726868,-37.41007919311524,-30.00467929840088,-17.755879592895507,-0.15241087600588799,-0.10781771782785654,-0.8814531154930592,-305.7002777099609,62.88611831665039,-160.55687713623047,2.0634228388468423,-0.6013827323913574,0.02545502285162608,8.328219095865885,7.095716079076131,0.7489535063505173,0.025414538414527992,0.002494366761917874,-2.0218239737053714,5.995362599690755,7.731090625127156,0.6326512694358826
17.1,7.7032937208811445,7.25424059232076,0.3384846939394872,0.0,0.2319565489888191,0.9594998598098755,9.562800312042237,0.11957415789365763,120.93998641967772,40.900001525878906,-122.75308942000001,49.19037891,-0.4351510802904765,-0.25905642161766684,0.4159192045529683,0.7538176079591116,-0.04902028800764427,-1.02422297000885,1.0221080482006073,-32.97781963348389,-34.83831939697266,-16.535879611968994,-0.8162381410598755,-0.05409211665391922,3.148185682296753,-301.2680145263672,58.05247917175293,-159.33687896728514,2.6359906991322837,-1.08900785446167,0.06365596254666646,7.342775026957194,7.3201431433359785,0.2541376948356629,-0.3694028185017294,0.04400081122223514,0.8812431077275309,4.833502173423767,8.477137486139933,0.22446473145585819
17.2,2.00089826186498,8.12801973025004,-0.4835495849450429,0.0,0.23336237668991086,0.9604292273521423,9.586200332641601,0.12202633321285243,120.62920074462889,40.900001525878906,-122.75308918,49.190378839999994,-0.40377852320671076,-0.33082890013853705,0.5663054287433624,0.6344382067521414,0.6877158837548146,-1.403708855311076,0.7386414011319479,-15.437879848480225,-45.58529968261719,-13.965339660644531,-0.7227808435757955,0.21057033818215132,4.318715492884318,-283.728076171875,47.30549926757813,-156.7663375854492,0.6781899432341257,-1.501071850458781,-0.12157662212848662,2.0965912356972694,8.07015323638916,-0.40067815482616426,-0.7642201754179868,0.08550725568255241,3.7843101891604336,1.31333419829607,9.655878829956055,-0.3679919622838497
17.3,-3.7222350438435874,9.04516871770223,-0.7330013364553452,0.0,0.23476820439100263,0.9613585948944092,9.609600353240968,0.12447850853204721,120.31841506958007,40.900001525878906,-122.75308894000001,49.190378769999995,-0.3631751934687297,-0.38301559289296466,0.6757876972357432,0.5134278933207194,2.6855141321818032,-1.3384488026301067,-2.4768553574879966,2.092299979925156,-49.31361885070801,-11.059299659729003,-0.4519130140542984,-0.6498842686414719,2.3257930676142373,-266.19789428710936,43.577178955078125,-153.86029663085938,-1.6874892711639404,-0.48346837361653644,0.23001097639401755,-3.5525439977645874,9.04377285639445,-0.6515456611911455,-0.6075702668590979,-0.2845556018803494,3.0538680986924605,-1.8541494806607564,9.565903663635254,-0.9144996503988901
17.4,-5.107001399993896,9.387761116027832,-1.2004791021347045,0.0,0.2361740320920944,0.962287962436676,9.633000373840332,0.126930683851242,120.00762939453124,40.900001525878906,-122.7530887,49.1903787,-0.36038962602615354,-0.4007465660572052,0.7067806124687195,0.4581666111946106,2.7235435962677004,-1.2126675128936768,-2.4021676540374757,10.039379787445068,-49.31849899291992,-9.001159858703613,-0.1571959822128216,0.09893471499284108,0.418595423301061,-258.2508148193359,43.57229881286621,-151.80215606689453,-1.9655285835266114,0.20113182067871094,0.19442019462585444,-5.148456970850627,9.300801912943522,-1.1636097133159637,-0.45092035830020905,-0.6546184594432513,2.3234260082244873,-3.1170931259791055,9.19747813542684,-1.3763152360916138
17.5,-5.156931718190511,9.156733989715576,-1.2848460376262665,0.0,0.2367688864469528,0.9633703649044036,9.681500339508057,0.12563510537147518,119.87202529907225,40.900001525878906,-122.75308860000001,49.190378669999994,-0.3601951052745183,-0.38955020904541016,0.6912994583447775,0.4897248297929764,2.715399463971456,-1.28150870402654,-2.436492999394735,5.590039816498757,-49.43561897277832,-10.240679836273193,0.5024672031402588,0.19889771882444623,-1.8241963148117066,-262.7001586914063,43.45517921447754,-153.04167785644532,-2.6088021198908486,-0.23125712076822913,-0.14106272657712304,-4.932205677032471,9.11296526590983,-1.171286682287852,0.14370605315674434,0.1396243546835401,-0.6032155413519252,-2.398786505063375,9.430028756459555,-1.0978846947352092
17.6,-1.616252008980761,8.756634076436361,-0.6500501533349355,0.0,0.2373637408018112,0.9644527673721314,9.730000305175782,0.12433952689170832,119.73642120361328,40.900001525878906,-122.7530885,49.19037864,-0.37768153349558503,-0.3492082307736079,0.6156957050164541,0.5949668685595194,1.5159872993826866,-1.4705003301302593,-0.5441663265228271,-8.243539941310882,-47.866698837280275,-12.805119800567628,0.6047820448875427,0.5073235780000687,-3.133280555407206,-276.5337341308594,45.024098587036136,-155.60611724853516,-1.5752273400624592,-0.9964836438496908,-0.15558805068333942,-1.5561721980571748,8.787162590026856,-0.5601597845554351,0.31486921864702844,0.13900539428471928,-2.119059158319777,-0.06382522732019424,9.767743492126465,-0.49307875633239745
17.7,3.932105521361033,7.75563661257426,-0.18424734504272536,0.0,0.2379585951566696,0.965535169839859,9.778500270843505,0.12304394841194148,119.60081710815429,40.900001525878906,-122.7530884,49.190378609999996,-0.4230258911848068,-0.27961041529973346,0.47510168453057605,0.7165227135022482,0.014754309784621,-1.1700347264607747,1.0803668697675068,-26.281239318847657,-39.964759063720706,-14.953539657592774,0.3651446998119354,-0.2210059526454036,-4.131816267967224,-294.57143249511716,52.926039123535155,-157.7545394897461,0.1352604826291402,-1.2101672490437825,-0.17303745945294693,3.412763297557831,7.841877857844035,-0.156829584389925,0.4860323841373126,0.13838643388589847,-3.634902775287628,3.47398042678833,9.09212557474772,-0.045774150639772394
17.8,10.076475302378336,6.341977039972941,0.7074778924385706,0.0,0.238553449511528,0.9666175723075867,9.82700023651123,0.12174836993217464,119.4652130126953,40.900001525878906,-122.7530883,49.19037858,-0.4517131994167964,-0.22649202495813367,0.3627586265405019,0.7828295230865479,-0.04223868437111373,-0.8831717272599539,1.0268227656682332,-38.12133979797363,-30.0595796585083,-16.41875982284546,0.0352774690836668,0.01794416302194198,-1.0600802799065907,-306.4115356445312,62.83121948242187,-159.21975860595703,3.858164151509603,-1.2347621122996013,0.44418230652809143,9.760921716690063,6.463711977005005,0.7051847750941912,0.2611894318833947,0.07578547148538445,-2.34866235156854,6.158100843429565,7.62086288134257,0.26508285353581107
17.9,8.723274230957031,6.6033529281616214,-0.4198207318782806,0.0,0.2391483038663864,0.9676999747753143,9.875500202178955,0.1204527914524078,119.32960891723633,40.900001525878906,-122.75308820000001,49.19037855,-0.4497405827045441,-0.23742250800132747,0.42412986159324645,0.7483787298202514,0.0548520837910473,-1.014732801914215,1.115060520172119,-34.10753917694092,-34.71631965637207,-14.313039684295655,-0.7058547933896383,0.2298634972733756,3.0392072995503745,-302.3977325439453,58.17447853088379,-157.1140380859375,3.568261241912842,-1.7067756652832031,-0.1615416586399078,8.690332969029745,6.610870520273845,-0.30887353311603266,0.03634647962947687,0.013184509084870418,-1.0624219278494518,5.121779799461365,8.316015799840292,-0.24589302142461142
18.0,2.4928227216005325,7.935098489125569,-1.205085297425588,0.0,0.2397431582212448,0.968782377243042,9.92400016784668,0.11915721297264097,119.19400482177734,40.900001525878906,-122.7530881,49.190378519999996,-0.4308610161145528,-0.31597220400969184,0.5513063073158264,0.6373290121555328,0.5809517254432043,-1.3536762793858845,1.7027015884717305,-16.49439969062805,-45.377899169921875,-12.351279735565186,-0.5411044403910636,-0.919596540927887,4.360233879089355,-284.7845916748047,47.512899017333986,-155.15227661132812,0.6520437796910604,-1.59280792872111,-0.4742116133371989,1.9323040048281352,7.982157230377197,-1.1573285261789958,-0.6299547891725193,-0.29735253023153,3.6373276710510254,1.4906632751226425,9.588047663370768,-0.759106328090032
18.1,-3.4590245683987937,8.583951950073242,-1.101496050755183,0.0,0.2403380125761032,0.9698647797107697,9.972500133514405,0.11786163449287412,119.05840072631835,40.900001525878906,-122.75308799999999,49.19037849,-0.39274413883686066,-0.41547025740146637,0.657380094130834,0.4881473481655121,2.582650661468506,-1.3247500658035278,-2.471543471018473,5.903579986095428,-48.973239517211915,-11.132499694824219,-0.3654246851801872,-0.6589708905667067,3.490509510040283,-262.38661193847656,43.917558670043945,-153.93349609375,-1.3845011691252391,-0.8905264536539713,-0.0046609838803609305,-3.4171900749206543,8.601359939575195,-0.9961320757865906,-0.5142212791199035,-0.25486500569703907,3.031364978776158,-2.1036283016204833,9.48356227874756,-1.0977691769599915
18.2,-7.105088075002034,8.463313897450766,-1.3741781115531921,0.0,0.2409328669309616,0.9709471821784973,10.021000099182128,0.11656605601310728,118.92279663085937,40.900001525878906,-122.7530879,49.19037846,-0.35373605291048676,-0.4480411559343338,0.7198423345883688,0.3943568567434947,2.799083630243937,-1.0867297252019246,-2.2366195917129517,17.742459774017334,-47.28109893798828,-8.981639766693116,-0.4336379716793696,0.24370977903405824,1.3649529406490426,-250.54773406982423,45.6096996307373,-151.7826385498047,-2.8077008724212646,-0.2124487559000651,0.15323873360951737,-6.885048071543376,8.445168336232504,-1.290927807490031,-0.39848776906728745,-0.21237748116254807,2.4254022865012907,-4.195701678593953,8.726105690002441,-1.507412354151408
18.3,-7.3992057800292965,8.525507545471191,-1.828834342956543,0.0,0.24152772128582,0.972029584646225,10.069500064849853,0.11527047753334044,118.7871925354004,40.900001525878906,-122.7530878,49.19037843,-0.3447600781917572,-0.42668957710266114,0.7247543811798096,0.41604008674621584,2.8043792247772217,-1.114946150779724,-2.289502668380737,15.70017957687378,-47.823998641967776,-9.0389799118042,0.17972164725263914,0.6552547812461853,-2.0744474828243256,-252.5900146484375,45.066798782348634,-151.83997802734376,-3.328057861328125,-0.2715902328491211,-0.40539071559906004,-7.339086214701335,8.524231433868408,-1.7370895346005757,-0.10884855253001052,0.21907154098153114,0.17429384730833908,-4.031048814455668,8.811352729797363,-1.4119310975074768
18.4,-3.2379875481128693,8.257830460866293,-1.465404470761617,0.0,0.2421225756406784,0.9731119871139526,10.118000030517578,0.1139748990535736,118.6515884399414,40.900001525878906,-122.7530877,49.1903784,-0.3762538731098175,-0.37152813871701557,0.6501268943150839,0.5421226769685745,2.1992946664492288,-1.3965260585149128,-0.869056502978007,-1.8336600303649901,-48.92809867858887,-11.591219806671143,0.615691077709198,0.48902817964553835,-4.1635353565216064,-270.1238586425781,43.96269912719727,-154.39221801757813,-2.0159963766733804,-1.3639392852783203,-0.6068378587563833,-2.716352234284083,8.202695687611898,-1.325424333413442,0.18079066400726637,0.6505205631256104,-2.076814591884613,-0.8793463880817095,9.661084493001303,-0.8025435407956442
18.5,3.4694931507110596,7.527820110321045,-0.17228323221206665,0.0,0.2422363445162773,0.9740268647670746,10.117000007629395,0.10861683413386343,106.78642959594727,40.900001525878906,-122.75308778,49.19037846,-0.4208217014869054,-0.29366783301035565,0.5092722078164419,0.6882759928703308,0.1183287187789877,-1.2572392423947651,1.1941153009732564,-22.589519596099855,-42.40963973999023,-14.150779724121094,0.5532657454411188,0.19041178748011586,-4.076634685198466,-290.8797210693359,50.48115921020508,-156.95177612304687,0.48509907722473145,-1.7407534917195637,0.07439666986465454,3.495196080207825,7.494918632507324,-0.09774680864065885,0.5826821489767595,0.3213984200900251,-4.118495095859874,3.005161929130554,9.284929466247558,-0.24052733033895488
18.6,9.763813098271688,6.852346102396647,0.3677967810848107,0.0,0.2423501133918762,0.9749417424201965,10.115999984741212,0.10325876921415328,94.92127075195313,40.900001525878906,-122.75308786,49.19037852,-0.44482186933358503,-0.23192064464092246,0.40783188740412396,0.762736976146698,0.016100458956013083,-0.9766939282417297,1.0644638140996296,-35.05303955078125,-34.13071975708008,-14.909619808197021,-0.1032616769274076,0.09529498157401879,-1.111392964919408,-303.34324035644534,58.760078811645506,-157.7106170654297,4.275814533233643,-1.2726664543151855,0.45703551669915515,9.437890529632568,6.9080789883931475,0.4799603472153346,0.1815316837534986,0.2280789185244816,-1.5786620212549511,5.418346166610718,8.167484601338705,-0.07623010377089177
18.7,8.068398555119833,7.306384245554606,-0.8095716635386149,0.0,0.24246388226747512,0.9758566200733184,10.114999961853027,0.09790070429444311,83.05611190795898,40.900001525878906,-122.75308794,49.19037858,-0.44196944932142895,-0.25361254066228867,0.46661431590716046,0.7212804555892944,0.11644433376689749,-1.1180936694145203,1.1759360631306965,-30.182799339294434,-38.57273979187012,-13.499299621582031,-0.33803755479554337,0.18371772331496075,3.03849462668101,-298.4729919433594,54.3180591583252,-156.30029907226563,3.8244027296702066,-1.4746231238047283,-0.3531604011853536,8.608877579371134,7.207281589508057,-0.6850451827049255,-0.21961878146976233,0.13475941695893803,0.9611710533499718,4.48286509513855,8.672295411427816,-0.42631739377975464
18.8,1.0704292226582766,7.726902770996094,-1.323589849472046,0.0,0.242577651143074,0.9767714977264403,10.113999938964843,0.09254263937473295,71.19095306396484,40.900001525878906,-122.75308801999999,49.19037864,-0.3981795430183411,-0.33395947217941285,0.6036518812179565,0.6016788363456727,1.2704370141029357,-1.4317686319351197,1.1054853200912476,-10.372439992427825,-47.465319061279295,-11.86449966430664,-0.3756821279724439,-0.8317439258098602,4.650644302368164,-278.6626342773437,45.425479125976565,-154.66549682617188,0.6315644681453705,-1.9779446601867676,-0.5341387271881104,1.1103694041570027,7.803393443425496,-1.195514013369878,-0.29714140125239885,-0.350872100253279,2.804749559611082,0.4495671580856045,9.676579316457113,-0.78898486495018
18.9,-4.516751845677693,8.164809544881185,-1.0272188285986583,0.0,0.2426914200186729,0.9776863753795623,10.11299991607666,0.0871845744550228,59.3257942199707,40.900001525878906,-122.7530881,49.190378700000004,-0.36527013778686523,-0.41992707550525665,0.6941317319869995,0.4537733892599742,2.7464147408803306,-1.219277600447337,-2.3367244402567544,11.3081800699234,-48.50475959777832,-10.22969970703125,-0.4051869213581085,-0.642660790681839,3.281904125213623,-256.9820129394531,44.386039352416994,-153.03069610595702,-1.3990452289581299,-1.003954807917277,0.21800121665000916,-4.9530430634816485,8.072785377502441,-0.9724829991658529,-0.37466402103503543,-0.8365036174654961,4.648328065872192,-3.3720739682515464,9.075492064158121,-1.2870572209358215
