time,Barometer_relativeAltitude,Barometer_pressure,Location_altitude,Location_speedAccuracy,Location_bearingAccuracy,Location_latitude,Location_altitudeAboveMeanSeaLevel,Location_bearing,Location_horizontalAccuracy,Location_verticalAccuracy,Location_longitude,Location_speed,Orientation_yaw,Orientation_qx,Orientation_qz,Orientation_roll,Orientation_qw,Orientation_qy,Orientation_pitch,Magnetometer_z,Magnetometer_y,Magnetometer_x,GyroscopeUncalibrated_z,GyroscopeUncalibrated_y,GyroscopeUncalibrated_x,MagnetometerUncalibrated_z,MagnetometerUncalibrated_y,MagnetometerUncalibrated_x,Accelerometer_z,Accelerometer_y,Accelerometer_x,AccelerometerUncalibrated_z,AccelerometerUncalibrated_y,AccelerometerUncalibrated_x,Gyroscope_z,Gyroscope_y,Gyroscope_x,Gravity_z,Gravity_y,Gravity_x
3.1,-0.412200927734375,1006.562957763672,76.05107427760959,1.5954344998136192,-1.0,49.280037847393764,95.23250318691133,-1.0,4.963591960264704,3.1069542149864424,-122.96822514675834,0.2549999937415122,1.9899886550404993,0.016232270589856615,0.7521668216437878,-0.9099711022662627,0.18387286411954928,-0.6285854084921458,-1.2128219435122918,-15.242294931411742,55.24491653442383,-37.858175086975095,-0.31780229546129696,0.18950116597115996,-0.7893225314561277,32.06126925819799,87.46264367354544,80.37158845600328,1.0876240786509634,1.6244829529073834,-1.1725849189254827,-0.09303855895996094,1.1174236297607423,-0.3730232238769531,-0.3116382879205048,0.18327228697016829,-0.7433516481891275,-1.990305371126272,9.183081551238745,-2.49194637866402
3.2,-0.412200927734375,1006.562957763672,76.0625366801396,1.6479821004835853,-1.0,49.28003747020812,95.24396558944134,-1.0,4.999499252425303,3.0969092308836745,-122.9682250377936,0.2699999928474425,1.851811723611295,0.005947489568270954,0.7352991886954309,-1.016372154411116,0.1956667717060399,-0.6438441914183184,-1.2203153678306078,-11.525565719604492,54.38937759399414,-39.036384201049806,-1.0171855628490447,-0.7096601221710443,-2.1803940668702126,37.62843643991571,86.04257924933182,78.40643310546875,1.5884895872979332,3.4681408931462463,-1.617743167097494,-0.0110107421875,1.3237007141113282,-0.39420089721679685,-0.9894099995493889,-0.7454887136816979,-2.095351996459067,-1.5993307494919375,9.207398363275974,-2.5292758791149033
3.3,-0.412200927734375,1006.562957763672,76.07399908266962,1.7005297011535512,-1.0,49.28003709302248,95.25542799197136,-1.0,5.035406544585903,3.086864246780907,-122.96822492882886,0.2849999919533729,0.8402198119718814,0.05112125659323229,0.578516655657139,-2.026422178573957,0.2386657701476263,-0.7775308011062402,-1.0660255229730549,13.002693557739258,39.44935913085938,-48.470654296875,-0.7140468508005142,-0.19616727624088523,-2.060645318031311,60.606590270996094,70.625830078125,69.74518432617188,-2.8315353996748476,2.4530410364246364,2.8381959243164956,-0.06728515625,1.0178558349609375,-0.18558807373046876,-0.7681831270456314,-0.028078423440456392,-2.1618119955062864,2.1082324797074494,8.573919345875083,-4.222703152378201
3.4,-0.412200927734375,1006.562957763672,76.08546148519963,1.753077301823517,-1.0,49.280036715836836,95.26689039450137,-1.0,5.071313836746501,3.076819262678139,-122.96822481986412,0.2999999910593032,0.761378152857761,0.07386888057231594,0.5502012471315114,-2.1771896075262367,0.21187693455411366,-0.8018837782155555,-1.0204270715587624,18.350646591186525,35.5252552986145,-46.76102600097656,-0.40398659370839596,-0.4407120323739946,-0.8146661272272469,65.57944307829204,67.3523975573088,71.79611832468134,-3.3634135382497305,-0.2702757906240225,2.2819344916459547,-0.03084831237792969,0.7731033325195312,-0.19845085144042968,-0.44018788686953486,-0.4037065736949444,-0.9167859031818806,2.9414953945278377,8.344066385728045,-4.104239964158944
3.5,-0.412200927734375,1006.562957763672,76.09692388772964,1.8056249024934832,-1.0,49.280036338651186,95.27835279703139,-1.0,5.1072211289071,3.0667742785753718,-122.96822471089938,0.31499999016523356,0.6825364937436404,0.09661650455139961,0.5218858386058838,-2.3279570364785167,0.18508809896060105,-0.8262367553248708,-0.9748286201444699,23.69859962463379,31.60115146636963,-45.051397705078124,-0.09392633661627768,-0.6852567885071039,0.43131306357681753,70.552295885588,64.0789650364926,73.8470523231908,-3.895291676824614,-2.9935926176726815,1.7256730589754135,0.005588531494140625,0.528350830078125,-0.21131362915039062,-0.11219264669343827,-0.7793347239494324,0.3282401891425252,3.7747583093482255,8.114213425581008,-3.985776775939688
3.6,-0.412200927734375,1006.562957763672,76.10838629025966,1.858172503163449,-1.0,49.28003596146554,95.28981519956142,-1.0,5.143128421067699,3.0567292944726043,-122.96822460193465,0.32999998927116386,0.79981916225804,0.1013880794985903,0.5558333332846809,-2.2298928875994575,0.17742668429913416,-0.8041999163885066,-1.0324418728284377,21.125835037231447,32.21862707138062,-43.68907012939453,0.006051613262388858,-0.1934734921902418,0.41868530614301563,67.52198791503906,64.7784219039114,75.0356569792095,-0.007534571183081429,0.3282256560937311,0.8247323512166367,0.32512702941894533,0.9064002990722656,-0.30423965454101565,0.000685872556641709,-0.24641173975542185,0.40564877362921836,3.095224103526138,8.403801702535898,-3.909212189838402
3.7,-0.412200927734375,1006.562957763672,76.11984869278967,1.910720103833415,-1.0,49.2800355842799,95.30127760209143,-1.0,5.179035713228298,3.0466843103698364,-122.96822449296991,0.3449999883770942,0.9171018307724393,0.10615965444578099,0.589780827963478,-2.1318287387203982,0.1697652696376673,-0.7821630774521424,-1.0900551255124056,18.5530704498291,32.836102676391604,-42.326742553710936,0.10602956314105541,0.2983098041266203,0.40605754870921373,64.49167994449013,65.47787877133018,76.2242616352282,3.8802225344584507,3.650043929860144,-0.07620835654214017,0.64466552734375,1.2844497680664062,-0.39716567993164065,0.11356439180672169,0.2865112444385886,0.4830573581159115,2.4156898977040497,8.693389979490785,-3.832647603737116
3.8,-0.412200927734375,1006.562957763672,76.13131109531969,1.963267704503381,-1.0,49.28003520709426,95.31274000462145,-1.0,5.214943005388897,3.036639326267069,-122.96822438400517,0.35999998748302453,0.9601621476311418,0.06453769356759187,0.6106443381739483,-1.9790860013435538,0.20396902759921884,-0.7619556236131105,-1.1306194195076977,11.464731216430664,31.724480056762694,-41.88366622924805,0.6554337238892913,1.4942699015140533,1.0236402180045843,56.60548553466797,64.60430908203125,76.67799682617188,-6.295140402957125,-2.3207347405028345,2.7897055081050093,-0.5680801391601562,0.6672378540039062,-0.17056121826171874,0.6163921900093555,1.500596535205841,0.8114234775304794,1.6717722350877522,8.868262591498196,-3.814408767213225
3.9,-0.412200927734375,1006.562957763672,76.1427734978497,2.015815305173347,-1.0,49.280034829908615,95.32420240715146,-1.0,5.250850297549496,3.026594342164301,-122.96822427504043,0.37499998658895484,1.227455893457118,0.040112417829629585,0.6535919409169033,-1.6513256835225216,0.22158710929778536,-0.7181272617912049,-1.1651291834664388,4.227212524414062,32.548085594177245,-41.101500892639166,0.4477703261189163,1.3441002599895,0.9920918866991997,49.484666483025805,65.32204316791734,77.53443258185135,-2.7712140119943016,-1.512251418312788,1.3245326518313585,-0.2789924621582031,0.7532749176025391,-0.2529338836669922,0.4259549848735332,1.3322139889001847,0.9211262546479702,0.4096669023841222,9.003438758380934,-3.5853397678246344
4.0,-0.412200927734375,1006.562957763672,76.15423590037972,2.068362905843313,-1.0,49.28003445272297,95.33566480968148,-1.0,5.286757589710095,3.0165493580615337,-122.96822416607569,0.3899999856948852,1.4947496392830941,0.0156871420916673,0.6965395436598585,-1.3235653657014894,0.2392051909963519,-0.6742988999692991,-1.19963894742518,-3.010306167602539,33.371691131591795,-40.319335556030275,0.24010692834854125,1.1939306184649467,0.9605435553938151,42.36384743138363,66.03977725380345,78.39086833753083,0.752712378968522,-0.7037680961227417,-0.14064020444229247,0.01009521484375,0.8393119812011719,-0.33530654907226565,0.23551777973771096,1.1638314425945282,1.030829031765461,-0.8524384303195076,9.138614925263672,-3.356270768436044
4.1,-0.412200927734375,1006.562957763672,76.15381475770846,2.298677914456353,-1.0,49.28003317867369,95.33524366701022,-1.0,5.382615046063001,3.0148944222553804,-122.96822331950347,0.4009999871253967,1.727339075461664,-0.042197451302341996,0.7205519730657511,-0.9666382398227008,0.2658130971047469,-0.6323082236332909,-1.207192652457668,-10.696399450302124,33.4345724105835,-37.233750915527345,0.3915309966541827,1.107633177936077,0.6746514508500696,34.92994087620785,66.0752591584858,81.53454308760794,0.9147803631289116,-0.37683467179663477,-1.1564285950705968,-0.07594642639160155,0.8915561676025391,-0.37922134399414065,0.4039396297186614,1.1058353722095489,0.7212314603850245,-1.7998868026109993,9.165050906798914,-2.635537839607233
4.2,-0.3937053680419922,1006.5608215332031,76.1533936150372,2.5289929230693935,-1.0,49.28003190462441,95.33482252433896,-1.0,5.478472502415906,3.013239486449227,-122.96822247293123,0.41199998855590814,1.9599285116402339,-0.10008204469635129,0.7445644024716438,-0.6097111139439122,0.2924210032131418,-0.5903175472972826,-1.214746357490156,-18.38249273300171,33.497453689575195,-34.148166275024415,0.542955064959824,1.0213357374072074,0.388759346306324,27.496034321032074,66.11074106316818,84.67821783768504,1.0768483472893013,-0.04990124747052786,-2.172216985698901,-0.16198806762695311,0.9438003540039063,-0.42313613891601565,0.5723614796996117,1.0478393018245697,0.41163388900458814,-2.7473351749024912,9.191486888334154,-1.9148049107784217
4.3,-0.3752098083496094,1006.5586853027344,76.15297247236595,2.7593079316824336,-1.0,49.280030630575126,95.3344013816677,-1.0,5.574329958768812,3.011584550643074,-122.96822162635901,0.42299998998641963,1.9093170497565723,-0.1440182251913456,0.7282141869472291,-0.578224353064107,0.30503685472184,-0.5956847348853276,-1.2699174852402964,-21.989029693603516,31.375415420532228,-31.648841857910156,-0.8059622943401337,-0.559547908604145,-2.231142497062683,25.14246826171875,63.63096313476562,86.4530044555664,4.38167171287179,2.7182228941366073,-4.201459259593337,0.2063140869140625,1.257794189453125,-0.56268310546875,-0.7398378074169158,-0.4652616061270237,-2.0378693342208862,-2.427135084725916,9.359985552169382,-1.5044919048402459
4.4,-0.3752098083496094,1006.5586853027344,76.15255132969469,2.989622940295474,-1.0,49.280029356525844,95.33398023899645,-1.0,5.670187415121719,3.0099296148369206,-122.96822077978679,0.43399999141693113,1.2861974088514754,-0.12252148080778501,0.6543107112316155,-1.231746687647076,0.3046682937843488,-0.6705155741091602,-1.2280945903201637,-17.7836633682251,29.495678234100343,-34.603887939453124,-1.0214985067907132,-0.6667749379810535,-2.0840241491794584,29.307048275596216,61.82856919138055,83.46493727031506,0.7186216211502163,2.525367860745266,-1.2820157168856445,0.019201660156249994,1.190201187133789,-0.3658416748046875,-0.9891017243266106,-0.6400018337648362,-2.0027786821126936,-0.5481020206021294,9.202647354743554,-2.393790807026513
4.5,-0.3752098083496094,1006.5586853027344,76.15213018702343,3.2199379489085143,-1.0,49.28002808247656,95.33355909632519,-1.0,5.766044871474625,3.008274679030767,-122.96821993321457,0.44499999284744257,0.6630777679463783,-0.10102473642422441,0.5804072355160019,-1.8852690222300452,0.30429973284685763,-0.7453464133329928,-1.186271695400031,-13.57829704284668,27.615941047668457,-37.55893402099609,-1.237034719241293,-0.7740019673579618,-1.9369058012962341,33.471628289473685,60.026175247995475,80.47687008506374,-2.9444284705713573,2.3325128273539244,1.6374278258220478,-0.1679107666015625,1.1226081848144531,-0.169000244140625,-1.2383656412363053,-0.8147420614026487,-1.9676880300045014,1.330931043521657,9.045309157317728,-3.28308970921278
4.6,-0.3752098083496094,1006.5586853027344,76.15170904435217,3.4502529575215544,-1.0,49.28002680842728,95.33313795365393,-1.0,5.86190232782753,3.0066197432246136,-122.96821908664234,0.45599999427795407,0.5837970192727,-0.04574582126358542,0.5496357000841952,-2.1007940905689755,0.26538933115317914,-0.7841216526230922,-1.1021840821815885,-9.34573154449463,26.13233184814453,-40.70286331176757,-0.738809347951074,-0.8653655101594172,-0.5695826303213836,37.53287546258224,58.60280488666735,77.42645745528372,-3.194962544001238,-0.09448471937134872,2.105736238791663,-0.06157264709472657,0.8686546325683594,-0.1424579620361328,-0.726516848243773,-0.8590377442073077,-0.5628409423865377,2.4136672672476838,8.692938231748343,-3.521412683802321
4.7,-0.3752098083496094,1006.5586853027344,76.15128790168092,3.680567966134595,-1.0,49.280025534378,95.33271681098267,-1.0,5.957759784180436,3.0049648074184603,-122.96821824007012,0.46699999570846557,0.5045162705990218,0.009533093897053566,0.5188641646523884,-2.316319158907906,0.22647892945950066,-0.8228968919131916,-1.018096468963146,-5.113166046142578,24.648722648620605,-43.84679260253906,-0.24058397666085513,-0.9567290529608726,0.7977405406534672,41.59412263569079,57.179434525339225,74.3760448255037,-3.445496617431119,-2.521482266096622,2.5740446517612785,0.044765472412109375,0.6147010803222657,-0.11591567993164062,-0.21466805525124072,-0.9033334270119667,0.8420061452314258,3.496403490973711,8.340567306178958,-3.7597356583918624
4.8,-0.3752098083496094,1006.5586853027344,76.15086675900966,3.910882974747635,-1.0,49.280024260328716,95.33229566831142,-1.0,6.053617240533343,3.003309871612307,-122.9682173934979,0.477999997138977,0.7544488683626785,0.026512204501768978,0.5899823975614371,-2.127257163581381,0.20557234291429127,-0.7802500755522581,-1.1430875665619402,-11.772725296020507,24.785367965698242,-45.39199676513672,0.05801246464252472,-0.5896835431456566,0.3790778651833534,34.7650634765625,57.560665893554685,72.78709411621094,6.915070889768302,3.818766611709594,-2.875279775789976,0.900006103515625,1.2820343017578124,-0.6558425903320313,0.01784580573439598,-0.6565840691328049,0.30824873354285953,2.149047495146319,8.922695666405557,-3.452804616969973
4.9,-0.3752098083496094,1006.5586853027344,76.1504456163384,4.141197983360676,-1.0,49.280022986279434,95.33187452564016,-1.0,6.149474696886248,3.0016549358061537,-122.96821654692566,0.4889999985694885,0.7467067004174879,0.015705115589955868,0.5918145940601743,-2.1116575603515724,0.21096595637950433,-0.7771558980631981,-1.1530280822907333,-13.556463432312011,26.876355743408205,-45.794412994384764,0.22588155353441833,0.21063425629399712,0.43448090108577164,32.70228809557463,59.74051473517167,72.58650488602487,1.367158746239971,2.3540256878863275,-0.77378616127044,0.32478027343750004,1.147540283203125,-0.4313175201416016,0.2119883606210351,0.19600736871361735,0.42268637437373396,2.057653221550872,8.959819133850111,-3.3917430346074697
5.0,-0.3752098083496094,1006.5586853027344,76.15002447366714,4.371512991973716,-1.0,49.28002171223015,95.3314533829689,-1.0,6.245332153239154,3.0000000000000004,-122.96821570035344,0.5,0.7389645324722973,0.004898026678142761,0.5936467905589116,-2.0960579571217632,0.21635956984471738,-0.7740617205741379,-1.1629685980195263,-15.340201568603515,28.967343521118163,-46.19682922363281,0.39375064242631197,1.0109520557336509,0.4898839369881898,30.63951271458676,61.92036357678865,72.38591565583882,-4.180753397288359,0.8892847640630602,1.3277074532490967,-0.250445556640625,1.0130462646484375,-0.20679244995117188,0.4061309155076742,1.0485988065600396,0.5371240152046084,1.9662589479554256,8.996942601294666,-3.330681452244967
5.1,-0.3752098083496094,1006.5586853027344,76.15148321315647,4.32824407990187,-0.14864434066936028,49.28002168027414,95.33291212245823,0.9197265625,6.5009514255918575,3.0000000000000004,-122.9682145436508,0.4989999998360872,0.9842992384659358,-0.044927387378354056,0.6283265204302346,-1.7147360875773952,0.2600347609620102,-0.724814930728028,-1.2156215794151999,-24.625714159011842,29.808702087402345,-42.18708953857421,0.3841682215221226,1.2875451461877674,0.6264178656274453,21.155519585860404,62.5921630859375,76.60249408922698,-1.9076915440140882,0.08806606988765298,0.7122287618682719,-0.1411121368408203,0.9474136352539062,-0.23383522033691406,0.3922758946195245,1.2972051210701467,0.6364414191804826,0.6624186394766329,9.178691338842734,-3.0499308795740268
5.2,-0.3752098083496094,1006.5586853027344,76.15294195264578,4.284975167830024,0.7027113186612794,49.28002164831813,95.33437086194753,2.839453125,6.756570697944562,3.0000000000000004,-122.96821338694816,0.49799999967217445,1.2296339444595743,-0.09475280143485088,0.6630062503015578,-1.333414218033027,0.30370995207930307,-0.6755681408819183,-1.2682745608108732,-33.911226749420166,30.650060653686523,-38.17734985351562,0.37458580061793323,1.564138236641884,0.7629517942667008,11.671526457134046,63.26396259508635,80.81907252261513,0.36537030926018255,-0.7131526242877543,0.09675007048744713,-0.031778717041015626,0.881781005859375,-0.26087799072265627,0.37842087373137473,1.5458114355802537,0.7357588231563568,-0.6414216690021596,9.360440076390802,-2.7691803069030865
5.3,-0.3752098083496094,1006.5586853027344,76.1544006921351,4.241706255758178,1.5540669779919192,49.28002161636212,95.33582960143686,4.7591796875,7.012189970297266,3.0000000000000004,-122.96821223024553,0.4969999995082617,1.7133676969595402,-0.15597541044437574,0.7044666889795126,-0.7098860146881177,0.3357317078675225,-0.6051707467336457,-1.2764132496233105,-44.78001365661621,30.40444145202637,-30.317466735839844,0.862431001663208,0.5130298256874084,0.9901914656162262,1.3363540649414063,63.02432403564453,88.49016571044922,1.3144202331701664,-0.2896887562677264,-0.36631352620407936,-0.06957244873046875,0.9347183227539062,-0.2414154052734375,0.8663358330726624,0.49884081184864043,0.9791529834270477,-2.1408088783068955,9.384587493984402,-1.8286755628407
5.4,-0.3752098083496094,1006.5586853027344,76.1558594316244,4.198437343686332,2.405422637322559,49.280021584406114,95.33728834092616,6.67890625,7.267809242649969,3.0000000000000004,-122.96821107354289,0.4959999993443489,1.7541835282815574,-0.1631755270116081,0.707056408179615,-0.6634974431809466,0.3322687575533345,-0.6014815867567351,-1.280869933778942,-45.675685501098634,31.799775028228762,-29.937831687927247,0.18465451486408702,-0.05078769847750664,-0.01845009669195863,0.7586797212299548,64.60303172061317,88.54908451281096,2.055826928572319,0.6394659097907692,-2.216708490386903,-0.01282234191894531,1.032746124267578,-0.39667091369628904,0.1619884621351958,-0.08209204021841293,-0.05585153335705406,-2.1716127709014246,9.395927525518314,-1.6506342010437418
5.5,-0.3752098083496094,1006.5586853027344,76.15731817111373,4.155168431614486,3.2567782966531986,49.2800215524501,95.33874708041549,8.5986328125,7.5234285150026725,3.0000000000000004,-122.96820991684025,0.49499999918043613,1.794999359603575,-0.17037564357884047,0.7096461273797174,-0.6171088716737756,0.3288058072391465,-0.5977924267798247,-1.2853266179345735,-46.571357345581056,33.195108604431155,-29.55819664001465,-0.4931219719350338,-0.6146052226424217,-1.0270916590001433,0.1810053775185033,66.18173940558182,88.6080033151727,2.797233623974472,1.5686205758492648,-4.067103454569727,0.043927764892578124,1.13077392578125,-0.5519264221191407,-0.5423589088022709,-0.6630248922854662,-1.0908560501411557,-2.2024166634959537,9.407267557052226,-1.4725928392467833
5.6,-0.3752098083496094,1006.5586853027344,76.15877691060305,4.11189951954264,4.108133955983838,49.280021520494095,95.34020581990481,10.518359375,7.779047787355377,3.0000000000000004,-122.96820876013761,0.49399999901652336,1.1743240188368596,-0.12991116197302902,0.633723210376405,-1.315003658719982,0.31543385965294357,-0.6814544231000191,-1.2123716910086695,-33.838848733901976,36.658471012115484,-38.76497192382813,-0.7593041818588973,-0.856762515567243,-1.3963544179452583,13.283906635485197,69.44936611777857,79.32507243909333,-0.2825279941396226,1.7972420945052057,-0.9672921913033723,-0.049749374389648444,1.1066680908203126,-0.3482646942138672,-0.7739878971129656,-0.8854444335214794,-1.4092051499523222,-0.1657077300438763,9.139467377374544,-2.5007126342801094
5.7,-0.3752098083496094,1006.5586853027344,76.16023565009236,4.068630607470794,4.959489615314478,49.28002148853808,95.34166455939412,12.4380859375,8.034667059708081,3.0000000000000004,-122.96820760343498,0.4929999988526106,0.553648678070144,-0.08944668036721756,0.5578002933730924,-2.0128984457661883,0.3020619120667406,-0.7651164194202136,-1.1394167640827653,-21.1063401222229,40.121833419799806,-47.9717472076416,-1.0254863917827606,-1.0989198084920644,-1.7656171768903732,26.38680789345189,72.71699282997533,70.04214156301398,-3.3622896122537176,2.0258636131611465,2.1325190719629825,-0.143426513671875,1.082562255859375,-0.14460296630859376,-1.0056168854236602,-1.1078639747574925,-1.7275542497634888,1.8710012034082015,8.871667197696864,-3.528832429313436
5.8,-0.3752098083496094,1006.5586853027344,76.16169438958168,4.025361695398948,5.810845274645118,49.28002145658208,95.34312329888344,14.3578125,8.290286332060784,3.0000000000000004,-122.96820644673234,0.4919999986886978,0.392485622110143,-0.01608492061412656,0.4966430420862709,-2.372321728186413,0.23767894049802263,-0.8344236154195199,-0.9913160141534109,0.5230232238769531,36.771924591064455,-55.270206451416016,-0.3050812158733606,-0.96914823949337,0.40834404826164244,47.314154052734374,69.32503051757813,63.09364776611328,-5.027623229128718,-2.97428661953479,4.306908499023616,-0.10859222412109375,0.5283126831054688,0.08484649658203125,-0.27322366572916507,-0.8625976536422968,0.4874208629131317,3.857816210298091,8.20530254039079,-3.7339160698023433
5.9,-0.3752098083496094,1006.5586853027344,76.16315312907099,3.9820927833271025,6.6622009339757575,49.280021424626064,95.34458203837275,16.2775390625,8.545905604413488,3.0000000000000004,-122.9682052900297,0.49099999852478504,0.49623699403581145,-0.028803619666139965,0.5300641113309228,-2.227168437347924,0.25504582230915634,-0.8061554016485479,-1.0553577354669323,-3.359867191314697,37.83975944519043,-55.725854110717776,-0.0061907129362225866,0.08714805319905283,0.5752588040661066,42.965465585809,70.52349403782895,62.6970145376105,-1.1038971086943334,-0.34019664978146524,2.1598901643108204,0.19986801147460936,0.8584739685058593,-0.14023475646972655,0.014108016411773894,0.14080412150360644,0.6001227792352437,2.9833004256510547,8.51123248578526,-3.70918171185974
6.0,-0.3752098083496094,1006.5586853027344,76.16461186856031,3.9388238712552566,7.513556593306397,49.28002139267006,95.34604077786207,18.197265625,8.80152487676619,3.0000000000000004,-122.96820413332706,0.48999999836087227,0.5999883659614799,-0.04152231871815337,0.5634851805755746,-2.0820151465094345,0.27241270412029006,-0.7778871878775758,-1.1193994567804537,-7.2427576065063475,38.90759429931641,-56.18150177001953,0.2926997900009155,1.1434443458914756,0.7421735598705709,38.61677711888363,71.72195755807977,62.30038130910773,2.819829011740051,2.2938933199718594,0.012871829598024487,0.5083282470703125,1.18863525390625,-0.36531600952148435,0.3014396985527128,1.1442058966495097,0.7128246955573558,2.1087846410040183,8.817162431179732,-3.684447353917137
6.1,-0.3752098083496094,1006.5586853027344,76.16607060804964,3.8955549591834107,8.364912252637037,49.280021360714045,95.3474995173514,20.1169921875,9.057144149118896,3.0000000000000004,-122.96820297662443,0.4889999981969595,0.6304124560859432,-0.08719443236444253,0.5691248340008013,-1.913855823750279,0.31847313339008854,-0.7473127921757523,-1.1488379158926234,-11.658244180679322,39.732532882690435,-54.648477649688715,0.28304931786842646,1.6099026618525385,0.5828966829460114,34.233309294048105,72.4576022499486,63.936767578125,0.07456298587486154,1.309436614151746,0.7619349799570441,0.14507598876953126,1.0477394104003905,-0.30988998413085933,0.27638766111340374,1.6116582851391286,0.5676012191921472,1.3903852742558858,8.938371111408323,-3.6343147819087656
6.2,-0.3752098083496094,1006.5586853027344,76.16752934753895,3.8522860471115647,9.216267911967677,49.28002132875804,95.3489582568407,22.03671875,9.3127634214716,3.0000000000000004,-122.96820181992179,0.4879999980330467,0.6608365462104064,-0.1328665460107317,0.5747644874260279,-1.7456965009911234,0.364533562659887,-0.7167383964739287,-1.178276375004793,-16.073730754852296,40.557471466064456,-53.11545352935791,0.27339884573593737,2.0763609778136014,0.42361980602145194,29.84984146921258,73.19324694181743,65.57315384714227,-2.670703039990328,0.3249799083316326,1.5109981303160638,-0.21817626953125,0.9068435668945313,-0.25446395874023436,0.2513356236740947,2.0791106736287475,0.42237774282693863,0.671985907507753,9.059579791636914,-3.584182209900394
6.3,-0.3752098083496094,1006.5586853027344,76.16898808702827,3.809017135039719,10.067623571298316,49.280021296802026,95.35041699633003,23.956445312499998,9.568382693824303,3.0000000000000004,-122.96820066321915,0.48699999786913395,0.8885841761181081,-0.21863282137435078,0.5782171623555639,-1.1906948401017547,0.4843020552057255,-0.6183674397707551,-1.187544001667297,-33.41061592102051,39.28456268310547,-45.51263656616211,-0.04290496427565813,2.0949238896369935,0.4029265751130879,12.716554260253906,71.87871856689453,73.18726348876953,-1.0837154711928592,-0.6474660709252953,1.3453674669717253,-0.252691650390625,0.8804367065429688,-0.172503662109375,-0.03840558622032403,2.1245298385620117,0.40044177260715513,-1.3589088006356729,9.095047206276655,-3.3872173738765716
6.4,-0.3752098083496094,1006.5586853027344,76.17044682651758,3.765748222967873,10.918979230628956,49.28002126484601,95.35187573581933,25.876171875,9.824001966177008,3.0000000000000004,-122.96819950651651,0.4859999977052212,0.9697884393564764,-0.25262266491308044,0.5739147654404662,-0.990586962762656,0.5187343371755132,-0.5766382844316309,-1.1861712193263338,-38.55448532104492,39.220091819763184,-40.51095829010009,0.21122775613330305,1.6160108335316181,0.3872204256244004,7.597487158524363,71.84055701807927,78.26684791163395,-0.15902634778890767,-0.3643788756535947,0.37878396827371796,-0.2125530242919922,0.9020751953125,-0.251833724975586,0.2165756799513474,1.6076384775340558,0.3870983493630774,-1.9609830131932346,9.090065296984761,-2.9904538593359664
6.5,-0.3752098083496094,1006.5586853027344,76.1719055660069,3.722479310896027,11.770334889959596,49.28002123289001,95.35333447530866,27.7958984375,10.079621238529711,3.0000000000000004,-122.96819834981387,0.4849999975413084,1.0509927025948447,-0.28661250845181013,0.5696123685253683,-0.7904790854235573,0.553166619145301,-0.5349091290925065,-1.1847984369853706,-43.698354721069336,39.1556209564209,-35.50928001403808,0.4653604765422642,1.1370977774262427,0.37151427613571286,2.478420056794819,71.80239546926398,83.34643233449836,0.7656627756150438,-0.0812916803818941,-0.5877995304242895,-0.17241439819335938,0.9237136840820312,-0.3311637878417969,0.47155694612301885,1.0907471165060998,0.37375492611899974,-2.5630572257507964,9.085083387692867,-2.593690344795361
6.6,-0.3593559265136719,1006.556770324707,76.17336430549622,3.679210398824181,12.621690549290236,49.280021200933994,95.35479321479798,29.715625,10.335240510882414,3.0000000000000004,-122.96819719311124,0.48399999737739563,1.0411554461899168,-0.31546760762441906,0.5568022126866369,-0.7210843333614031,0.5680368827639228,-0.5142126281460889,-1.200103876279628,-47.32370510101318,39.504673576354975,-32.856976127624506,-0.10621367949061089,0.747239357791841,-0.4266018708702177,-0.7454236080771999,72.24474631861636,85.34515792445133,1.9314870230328662,0.6495751281946152,-1.1970695837298595,-0.0679107666015625,1.0093833923339843,-0.34765129089355473,-0.11853657967876646,0.7050802448764444,-0.4534040869679302,-2.6246756291453073,9.13793234982699,-2.2857343150138107
6.7,-0.3435020446777344,1006.5548553466797,76.17482304498553,3.6359414867523356,13.473046208620875,49.28002116897799,95.35625195428729,31.6353515625,10.590859783235118,3.0000000000000004,-122.9681960364086,0.48299999721348286,1.0313181897849888,-0.3443227067970279,0.5439920568479054,-0.6516895812992489,0.5829071463825447,-0.4935161271996713,-1.215409315573885,-50.94905548095703,39.85372619628906,-30.204672241210936,-0.6777878355234861,0.3573809381574392,-1.2247180178761483,-3.9692672729492187,72.68709716796874,87.3438835144043,3.097311270450689,1.3804419367711245,-1.8063396370354294,0.036592864990234376,1.0950531005859374,-0.3641387939453125,-0.7086301054805517,0.319413373246789,-1.28056310005486,-2.686294032539818,9.190781311961114,-1.9777782852322605
6.8,-0.3276481628417969,1006.5529403686523,76.17628178447485,3.5926725746804897,14.324401867951515,49.280021137021976,95.35771069377661,33.555078125,10.846479055587821,3.0000000000000004,-122.96819487970596,0.4819999970495701,-0.036877574922749165,-0.3990005982096331,0.4132555918046813,-1.6658612586460126,0.5561118998327637,-0.5992107665184789,-1.2178185359436882,-37.21892108917236,43.44340896606445,-48.96667251586914,-0.881574285030365,0.4275529071688652,-2.683489203453064,10.677593655056423,76.29515584309895,68.45422871907552,-1.2894971404159068,5.032285200364291,3.3668411746108533,-0.08229827880859375,1.4222061157226562,-0.00277557373046875,-0.8533808588981628,0.4555557548999786,-2.6584633588790894,0.36892678200897294,9.197293353429734,-3.312013839688897
6.9,-0.3117942810058594,1006.551025390625,76.17774052396416,3.549403662608644,15.175757527282155,49.28002110506597,95.35916943326592,35.4748046875,11.102098327940526,3.0000000000000004,-122.96819372300332,0.4809999968856573,-0.34236344089325244,-0.4293389082226378,0.360570268087288,-1.9459030849041998,0.529885864115825,-0.6308427176514132,-1.1372240378960998,-26.950913667678833,43.97499866485596,-52.230424118041995,-0.512089785374701,0.05153294447809453,-1.8998281539883464,20.40439677099038,76.71088141725774,65.68845300507127,-2.3625281359871844,1.9359411894301326,2.773980605243854,-0.06645088195800782,1.0734214782714844,-0.08467483520507812,-0.4919688353314996,0.061752350442111525,-1.8576381657272578,1.6618426279308485,8.863195181266889,-3.539088815716058
7.0,-0.2959403991699218,1006.5491104125975,76.17919926345348,3.506134750536798,16.027113186612794,49.28002107310996,95.36062817275524,37.39453125,11.35771760029323,3.0000000000000004,-122.96819256630069,0.47999999672174454,-0.6478493068637556,-0.45967721823564256,0.30788494436989466,-2.225944911162387,0.5036598283988862,-0.6624746687843475,-1.0566295398485117,-16.682906246185304,44.50658836364746,-55.49417572021484,-0.14260528571903702,-0.32448701821267606,-1.116167104523629,30.131199886924342,77.12660699141652,62.922677291067025,-3.4355591315584624,-1.1604028215040265,2.181120035876855,-0.050603485107421874,0.7246368408203125,-0.1665740966796875,-0.1305568117648363,-0.33205105401575563,-1.056812972575426,2.9547584738527237,8.529097009104042,-3.7661637917432187
7.1,-0.2800865173339843,1006.5471954345702,76.1806580029428,3.462865838464952,16.878468845943434,49.28002104115395,95.36208691224456,39.314257812499996,11.613336872645933,3.0000000000000004,-122.96819140959805,0.47899999655783176,-0.6141836206948772,-0.4582221334730232,0.31893475336653493,-2.186108664713184,0.5116566006704195,-0.6519557168346073,-1.0860989643003893,-16.302166175842288,44.0627986907959,-55.19433259963989,0.011953347362577915,-0.049176059663295746,-0.1602528778836132,30.304079557719984,76.6732461226614,63.26918509633917,-0.23490461751341796,-0.5601267809422313,0.6447823336536065,0.260102663542095,0.8234747635690789,-0.32090132863898024,0.014966774359345458,-0.05998484035953877,-0.13714026287198067,2.6589065845388546,8.664293663479015,-3.6712477244433757
7.2,-0.2642326354980468,1006.5452804565429,76.18211674243211,3.419596926393106,17.729824505274074,49.28002100919794,95.36354565173387,41.233984375,11.868956144998638,3.0000000000000004,-122.96819025289541,0.477999996393919,-0.5805179345259989,-0.45676704871040386,0.3299845623631752,-2.1462724182639805,0.5196533729419527,-0.6414367648848671,-1.115568388752267,-15.921426105499268,43.619009017944336,-54.894489479064944,0.16651198044419288,0.22613489888608457,0.7956613487564027,30.476959228515625,76.21988525390626,63.615692901611325,2.9657498965316265,0.0401492596195638,-0.8915553685696423,0.5708088121916118,0.9223126863178454,-0.475228560598273,0.1604903604835272,0.21208137329667806,0.7825324468314647,2.3630546952249856,8.799490317853987,-3.576331657143533
7.3,-0.24837875366210932,1006.5433654785155,76.18357548192144,3.37632801432126,18.581180164604714,49.28002097724193,95.3650043912232,43.1537109375,12.124575417351341,3.0000000000000004,-122.96818909619277,0.4769999962300062,-0.49870940384057916,-0.45331283704191855,0.3480508487979922,-2.0472855179879756,0.536890909296904,-0.6203414139869772,-1.165160718165086,-17.52660999298096,43.80588912963867,-52.08277816772461,0.5393736537545919,0.8020487815141678,0.05669819526374338,28.742938571506077,76.72463819715712,66.888185289171,0.39939967173047364,3.780861127041876,4.647119791078419,0.22722930908203126,1.3041580200195313,0.123028564453125,0.5631973341107368,0.8608477406203747,0.03335707038640975,1.7762713634124396,9.00956269192785,-3.4365664527440067
7.4,-0.23252487182617182,1006.5414505004882,76.18503422141075,3.3330591022494143,19.432535823935353,49.28002094528592,95.3664631307125,45.0734375,12.380194689704044,3.0000000000000004,-122.96818793949014,0.47599999606609344,-0.41717589090092644,-0.47085094179501463,0.33573316125165187,-1.8439326574096802,0.576730303746396,-0.5705905982291357,-1.1958506056251723,-23.370048809051514,44.886413383483884,-46.21916942596435,0.33443405821453775,1.554411529004574,0.41658238545060156,22.96601354587845,77.69585093001874,72.58551913255837,-1.2911690885628575,1.472715906677395,2.902897010305561,-0.024974822998046875,1.0796913146972655,-0.04010848999023438,0.3410464599030092,1.59510304890573,0.4118269920814782,1.0115825197682935,9.119894194280878,-3.294981061793044
7.5,-0.2166709899902343,1006.5395355224608,76.18649296090007,3.2897901901775684,20.283891483265993,49.28002091332991,95.36792187020183,46.9931640625,12.635813962056748,3.0000000000000004,-122.9681867827875,0.47499999590218067,-0.3356423779612737,-0.4883890465481107,0.3234154737053115,-1.6405797968313844,0.6165696981958881,-0.5208397824712943,-1.2265404930852584,-29.21348762512207,45.9669376373291,-40.3555606842041,0.12949446267448364,2.3067742764949797,0.7764665756374598,17.189088520250824,78.66706366288035,78.28285297594573,-2.9817378488561883,-0.8354293136870862,1.158674229532704,-0.277178955078125,0.855224609375,-0.20324554443359374,0.11889558569528162,2.3293583571910856,0.7902969137765468,0.24689367612414753,9.230225696633905,-3.153395670842081
7.6,-0.21619033813476554,1006.539473100142,76.18795170038939,3.2465212781057224,21.135247142596633,49.2800208813739,95.36938060969115,48.912890624999996,12.891433234409451,3.0000000000000004,-122.96818562608486,0.4739999957382679,-0.19478800832654752,-0.5056220426389382,0.2800636355180214,-1.283441060744105,0.6774925388939486,-0.43603648348203605,-1.224509276076228,-37.559071922302245,45.055117225646974,-30.744740867614745,0.1407895484473556,1.9214219644665718,0.5543979333713651,8.803497354607833,77.7137339341013,87.98469812493576,-1.2464436984004825,-0.6071446842222661,0.2931710308124871,-0.2163482666015625,0.8783191680908203,-0.2656394958496094,0.1407579360762611,1.9088604599237442,0.565043691592291,-0.8771233498116733,9.22384625395596,-2.9008268529679997
7.7,-0.2157096862792968,1006.5394106778231,76.1894104398787,3.2032523660338765,21.986602801927273,49.28002084941789,95.37083934918046,50.8326171875,13.147052506762156,3.0000000000000004,-122.96818446938222,0.4729999955743551,-0.05393363869182133,-0.5228550387297656,0.23671179733073128,-0.9263023246568253,0.7384153795920091,-0.35123318449277785,-1.2224780590671973,-45.90465621948242,44.143296813964845,-21.13392105102539,0.15208463422022758,1.5360696524381638,0.3323292911052704,0.41790618896484377,76.76040420532226,97.68654327392578,0.48885045205522326,-0.378860054757446,-0.5723321679077298,-0.155517578125,0.9014137268066407,-0.328033447265625,0.16262028645724058,1.4883625626564025,0.33979046940803526,-2.0011403757474944,9.217466811278015,-2.648258035093918
7.8,-0.21522903442382807,1006.5393482555043,76.19086917936802,3.1599834539620306,22.837958461257912,49.28002081746188,95.37229808866978,52.75234375,13.40267177911486,3.0000000000000004,-122.96818331267959,0.47199999541044235,0.19157738028865723,-0.5212676525775133,0.2317260921440356,-0.5595620608615329,0.7726222840957121,-0.2784360250387892,-1.206802433324491,-49.50194761488173,42.65336227416992,-11.45389133029514,0.3995094222947955,0.5743017703294754,0.3454240305349231,-3.0816531711154513,75.23959520128038,107.61019558376736,1.775003106784324,-0.18269270630280177,-1.951225236951891,-0.1324127197265625,0.923577880859375,-0.39839019775390627,0.42604366441567737,0.5509185128741794,0.3558780252933502,-2.954961955664555,9.164124314581024,-1.849702812329183
7.9,-0.21474838256835932,1006.5392858331853,76.19232791885733,3.1167145418901847,23.689314120588552,49.28002078550587,95.37375682815909,54.6720703125,13.658291051467563,3.0000000000000004,-122.96818215597695,0.4709999952465296,0.021645308563102317,-0.5387495950887701,0.2067930037828552,-0.6933874912042468,0.765226613294397,-0.2803056174452676,-1.2183226181701388,-45.766482030020825,44.461951637268065,-10.657384088304308,-0.23339030826464296,0.27883328376337885,-0.7040185048244892,1.1163112350374633,77.28320758663423,108.03427837884914,1.8582520775890194,1.2096648455780246,-1.0591882816091718,-0.07583160400390625,1.077688980102539,-0.3079067230224609,-0.21158308958013855,0.2691730834957626,-0.6581615008413793,-2.5477329912582176,9.20213232114085,-2.0307338032713655
8.0,-0.21426773071289057,1006.5392234108665,76.19378665834665,3.073445629818339,24.54066977991919,49.28002075354986,95.37521556764841,56.591796875,13.913910323820268,3.0000000000000004,-122.96818099927431,0.4699999950826168,-0.1482867631624526,-0.5562315376000269,0.18185991542167482,-0.8272129215469606,0.757830942493082,-0.28217520985174593,-1.2298428030157866,-42.03101644515991,46.27054100036621,-9.860876846313477,-0.8662900388240814,-0.01663520280271765,-1.7534610401839017,5.314275641190378,79.32681997198807,108.45836117393092,1.9415010483937152,2.602022397458851,-0.16715132626645263,-0.01925048828125,1.2318000793457031,-0.21742324829101561,-0.8492098435759544,-0.01257234588265419,-1.6722010269761085,-2.14050402685188,9.240140327700676,-2.211764794213548
8.1,-0.21378707885742182,1006.5391609885476,76.19524539783598,3.030176717746493,25.39202543924983,49.28002072159385,95.37667430713773,58.511523437499996,14.169529596172971,3.0000000000000004,-122.96817984257167,0.46899999491870403,-0.809226757423971,-0.6249938843447611,0.11889988123109727,-1.4470821074551043,0.6910716634711532,-0.3158822110818017,-1.1795190287489092,-26.813240957260135,51.1837697982788,-12.331697273254395,-0.5239850229118019,0.022285748110152805,-1.8442853903397918,21.134142825478,84.15820139834756,106.09448057475842,-0.19932711913554013,1.9422127439802883,1.2507150336571784,-0.018832015991210937,1.1144996643066407,-0.15787887573242188,-0.5311441025231034,0.03597165029495955,-1.8339446239173411,-0.04222911020235287,9.043854706112668,-2.872277817495018
8.2,-0.21330642700195307,1006.5390985662287,76.19670413732528,2.986907805674647,26.24338109858047,49.280020689637844,95.37813304662704,60.43125,14.425148868525675,3.0000000000000004,-122.96817868586903,0.46799999475479126,-1.4701667516854895,-0.6937562310894955,0.0559398470405197,-2.0669512933632483,0.6243123844492244,-0.3495892123118575,-1.1291952544820318,-11.595465469360352,56.096998596191405,-14.802517700195313,-0.18168000699952244,0.06120669902302326,-1.9351097404956819,36.954010009765625,88.98958282470703,103.73059997558593,-2.340155286664795,1.2824030905017256,2.6685813935808094,-0.018413543701171875,0.9971992492675781,-0.09833450317382812,-0.21307836147025228,0.0845156464725733,-1.995688220858574,2.056045806447174,8.847569084524661,-3.532790840776488
8.3,-0.21282577514648432,1006.5390361439098,76.1981628768146,2.943638893602801,27.09473675791111,49.28002065768183,95.37959178611636,62.3509765625,14.680768140878378,3.0000000000000004,-122.9681775291664,0.4669999945908785,-1.8109717041465299,-0.7487105821574777,0.03027626810709505,-2.388642635362875,0.5572054844076721,-0.3577631409216169,-1.027596934093781,3.4515609741210938,56.59613571166992,-13.252391052246093,0.21724696829915047,0.3529035784304142,0.25862607583403585,49.95600891113281,89.24690755208333,105.3847147623698,-3.3300279859983917,-2.5563649250379203,2.1494258123263714,0.0381378173828125,0.5793350219726563,-0.1193450927734375,0.1863501882180571,0.22908288277685643,0.1388375461101532,3.698734895531982,8.394730185842812,-3.464875023218095
8.4,-0.2123451232910156,1006.538973721591,76.19962161630392,2.900369981530955,27.94609241724175,49.280020625725825,95.38105052560567,64.270703125,14.936387413231081,3.0000000000000004,-122.96817637246376,0.4659999944269657,-1.7265971572965182,-0.7333590604620146,0.022482022637493063,-2.23784620341855,0.5942345279280292,-0.32403602108217866,-1.0920240791873665,-0.4253011703491212,56.942613792419436,-11.876153564453125,0.218952427059412,0.6002864527516067,0.534767126943916,45.74652633666992,89.58339258829753,106.77470982869465,0.09779035870756969,-0.9777646169964225,0.5947857579693943,0.3029369354248047,0.7895435333251953,-0.2776573181152344,0.20581601904705166,0.5427755494602025,0.4881106708198786,2.8351926398875005,8.681183291964084,-3.419831459524855
8.5,-0.21186447143554685,1006.5389112992721,76.20108035579324,2.8571010694591092,28.79744807657239,49.28002059376981,95.382509265095,66.1904296875,15.192006685583786,3.0000000000000004,-122.96817521576112,0.46499999426305294,-1.6422226104465065,-0.7180075387665517,0.014687777167891075,-2.087049771474224,0.6312635714483864,-0.29030890124274045,-1.1564512242809522,-4.302163314819336,57.28909187316894,-10.499916076660156,0.22065788581967355,0.8476693270727992,0.8109081780537963,41.537043762207034,89.91987762451171,108.16470489501953,3.525608703413531,0.6008356910450756,-0.9598542963875829,0.5677360534667969,0.9997520446777344,-0.43596954345703126,0.2252818498760462,0.8564682161435485,0.837383795529604,1.9716503842430189,8.967636398085356,-3.374787895831614
8.6,-0.2113838195800781,1006.5388488769532,76.20253909528256,2.8138321573872633,29.64880373590303,49.28002056181381,95.38396800458432,68.11015625,15.44762595793649,3.0000000000000004,-122.96817405905848,0.46399999409914017,-1.5841308097254554,-0.7093699845507448,-0.006916111213083092,-1.9351688260959445,0.6557311951481317,-0.24866895059331873,-1.1946663886566642,-5.065897655487061,56.576910400390624,-8.0212833404541,0.27812805052381007,1.2354842229746281,0.6474169375374914,41.01038854498613,89.11237090261358,110.84958484047337,0.37234136709227705,0.637344650627002,0.5941502000122145,0.17536125183105467,0.9997520446777344,-0.2785072326660156,0.2839239831082523,1.2267856585793198,0.6505471196956932,1.3338303665084874,9.108781117983684,-3.256869021702557
8.7,-0.21032714843749997,1006.5387268066407,76.20399783477187,2.7705632453154174,30.50015939523367,49.280020529857794,95.38542674407363,70.02988281249999,15.703245230289193,3.0000000000000004,-122.96817290235585,0.4629999939352274,-1.5260390090044043,-0.700732430334938,-0.02851999959405726,-1.7832878807176649,0.680198818847877,-0.207028999943897,-1.2328815530323762,-5.829631996154785,55.864728927612305,-5.542650604248047,0.33559821522794664,1.6232991188764572,0.4839256970211864,40.483733327765215,88.30486418071546,113.53446478592723,-2.780925969228977,0.6738536102089284,2.148154696412012,-0.2170135498046875,0.9997520446777344,-0.121044921875,0.3425661163404584,1.597103101015091,0.46371044386178256,0.696010348773956,9.249925837882012,-3.1389501475735004
8.8,-0.20927047729492185,1006.5386047363282,76.20545657426119,2.7272943332435715,31.35151505456431,49.28002049790179,95.38688548356295,71.949609375,15.958864502641898,3.0000000000000004,-122.96817174565321,0.4619999937713146,-1.2206863086696014,-0.6580003283749605,-0.10952150792157037,-1.21224423877656,0.7368642853819061,-0.10363690302981383,-1.2470951487222721,-10.113424301147461,53.65677261352539,-1.359687042236328,0.12735827453434462,2.453438234329224,0.4323301941156387,36.200042724609375,86.18321058485243,117.41246032714844,-0.4490848506844788,-0.19564409420102835,1.7169753878699243,-0.1802581787109375,0.9366958618164063,-0.11955108642578124,0.12699593082070348,2.407813608646393,0.4665893614292145,-1.0882619445562922,9.297336086867451,-2.9037959976653753
8.9,-0.2082138061523437,1006.5384826660156,76.2069153137505,2.6840254211717256,32.20287071389495,49.280020465945775,95.38834422305226,73.8693359375,16.2144837749946,3.0000000000000004,-122.96817058895057,0.46099999360740185,-1.1437809914647485,-0.6358378857483222,-0.15511119719142974,-0.9889846195201846,0.7496699992967284,-0.047792565536403514,-1.2348984478761227,-10.631799793243408,52.808577156066896,0.5418424606323244,0.20131389875896272,1.8427255626767876,0.4439204763621092,35.73348770141602,85.28989783393013,119.34758796691895,0.39291936249393966,-0.2852245141743869,0.4572126202540472,-0.14765167236328125,0.919408416748047,-0.21476593017578127,0.18704059347510338,1.8495013501495123,0.45663226768374443,-1.7423549611673037,9.25761855511561,-2.59416468065558
9.0,-0.20715713500976557,1006.5383605957031,76.20837405323982,2.6407565090998797,33.05422637322559,49.28002043398977,95.38980296254158,75.7890625,16.470103047347305,3.0,-122.96816943224795,0.4599999934434891,-1.0668756742598957,-0.6136754431216839,-0.20070088646128909,-0.7657250002638091,0.7624757132115506,0.008051771957006801,-1.222701747029973,-11.150175285339355,51.9603816986084,2.4433719635009767,0.2752695229835808,1.232012891024351,0.45551075860857965,35.26693267822266,84.3965850830078,121.28271560668945,1.2349235756723582,-0.37480493414774535,-0.8025501473618298,-0.115045166015625,0.9021209716796875,-0.30998077392578127,0.24708525612950324,1.2911890916526318,0.4466751739382744,-2.3964479777783154,9.217901023363769,-2.2845333636457843
9.1,-0.20610046386718744,1006.5382385253906,76.20983279272915,2.597487597028034,33.905582032556225,49.280020402033756,95.3912617020309,77.7087890625,16.725722319700008,3.0,-122.96816827554531,0.4589999932795763,-0.9368344637288986,-0.5920601764712732,-0.21189714196341913,-0.5661049365240676,0.7742181968011156,0.04426008787815913,-1.2126755732558636,-10.564593982696532,50.01719608306885,5.325403404235839,0.026589518482796837,0.8052118143066764,0.042733586160466075,36.24192982723839,82.41516490735506,124.01892650001928,2.0098678428563104,0.6412455743622036,-1.7864454801857188,-0.08250656127929687,1.0077159881591797,-0.37063026428222656,0.0476697358302772,0.8604050986468792,0.08073029685765504,-2.843719575802274,9.18324865143396,-1.7710463149340077
9.2,-0.20504379272460932,1006.5381164550781,76.21129153221845,2.554218684956188,34.75693769188687,49.28002037007774,95.39272044152021,79.62851562499999,16.98134159205271,3.0,-122.96816711884267,0.45799999311566353,-0.8067932531979014,-0.5704449098208624,-0.22309339746554918,-0.36648487278432607,0.7859606803906806,0.08046840379931147,-1.2026493994817542,-9.97901268005371,48.0740104675293,8.207434844970702,-0.22209048601798714,0.3784107375890017,-0.3700435862876475,37.216926976254115,80.4337447317023,126.7551373933491,2.7848121100402623,1.6572960828721524,-2.770340813009608,-0.04996795654296875,1.1133110046386718,-0.43127975463867185,-0.15174578446894885,0.42962110564112665,-0.2852145802229643,-3.2909911738262325,9.14859627950415,-1.257559266222231
9.3,-0.2039871215820312,1006.5379943847656,76.21275027170778,2.510949772884342,35.60829335121751,49.28002033812174,95.39417918100953,81.5482421875,17.236960864405415,3.0,-122.96816596214003,0.4569999929517507,-1.504156996783492,-0.6545033826823724,-0.24624720590698496,-1.0701341071950505,0.7112967233808408,0.05488216579365768,-1.273978851752273,2.9570079803466798,45.0864860534668,5.380653381347656,-1.237841820716858,-0.8675602972507477,-2.626002311706543,50.67592536078559,77.48385450575087,123.4577874077691,0.35395547673404215,3.0572219754704832,0.7285616734392939,-0.10532684326171875,1.28944091796875,-0.12159881591796876,-1.2723977863788605,-0.9559322893619537,-2.6014711380004885,-1.3225296852850168,9.377289036765395,-2.3897185526189206
9.4,-0.20293045043945304,1006.537872314453,76.21420901119708,2.467680860812496,36.45964901054815,49.280020306165724,95.39563792049884,83.46796875,17.49258013675812,3.0,-122.9681648054374,0.4559999927878379,-1.9790528943137722,-0.7150441146731334,-0.24329297509172035,-1.5719035370015684,0.6459369721587799,0.037868722879727396,-1.2089216510307854,10.859473323822023,42.828209304809576,4.356210708618164,-0.8795178532600403,-0.836413300037384,-2.0810480646789076,58.33622470431858,75.2041998969184,122.65398678249784,-1.2235246425982749,1.6535772523186356,1.2130521621062977,-0.08909416198730469,1.0944869995117188,-0.14907493591308596,-0.9041864983737469,-0.8767912574112415,-2.1032345414161684,0.3524804286672232,9.141421740925757,-2.8948852098789066
9.5,-0.20187377929687492,1006.5377502441405,76.2156677506864,2.42441194874065,37.311004669878784,49.28002027420972,95.39709665998816,85.3876953125,17.748199409110825,3.0,-122.96816364873476,0.45499999262392515,-2.453948791844052,-0.7755848466638944,-0.24033874427645574,-2.073672966808086,0.5805772209367189,0.02085527996579711,-1.1438644503092976,18.761938667297365,40.569932556152345,3.331768035888672,-0.5211938858032227,-0.8052663028240203,-1.5360938176512717,65.99652404785157,72.92454528808594,121.85018615722656,-2.8010047619305922,0.2499325291667879,1.6975426507733016,-0.07286148071289063,0.8995330810546875,-0.17655105590820314,-0.5359752103686333,-0.7976502254605293,-1.604997944831848,2.0274905426194634,8.905554445086121,-3.4000518671388926
9.6,-0.2008171081542968,1006.537628173828,76.21712649017573,2.3811430366688042,38.16236032920943,49.280020242253705,95.39855539947749,87.307421875,18.003818681463528,3.0,-122.96816249203212,0.4539999924600124,-2.4966476522944485,-0.7897210706150973,-0.22103059401589759,-2.1718740637046103,0.5694317821386327,0.0018145485929936672,-1.1218444217309793,20.499881458282474,39.64945278167725,4.3743244171142575,-0.12243160238783612,-0.45630497199140096,-0.29889236710181355,67.13580956710013,72.18511481034128,122.97199136834396,-1.3325146891340427,-0.5358646070886404,1.4263398084322363,0.14015731811523435,0.843524169921875,-0.21665306091308595,-0.1476942101493478,-0.47273749676533044,-0.3596981893293558,2.4537941492686848,8.814991429203152,-3.3842467897940427
9.7,-0.1998561512340198,1006.5375172008166,76.21858522966504,2.3378741245969583,39.01371598854007,49.2800202102977,95.4000141389668,89.22714843749999,18.25943795381623,3.0,-122.96816133532948,0.4529999922960996,-2.539346512744845,-0.8038572945663003,-0.2017224437553394,-2.270075160601134,0.5582863433405464,-0.017226182779809775,-1.0998243931526608,22.23782424926758,38.72897300720215,5.416880798339844,0.27633068102755043,-0.10734364115878155,0.9383090834476446,68.27509508634868,71.44568433259663,124.09379657946135,0.13597538366250692,-1.3216617433440685,1.1551369660911708,0.3531761169433594,0.7875152587890625,-0.25675506591796876,0.24058679006993772,-0.14782476807013153,0.8856015661731362,2.8800977559179066,8.724428413320183,-3.3684417124491928
9.8,-0.19889519431374283,1006.5374062278054,76.22004396915436,2.294605212525113,39.86507164787071,49.28002017834169,95.40147287845612,91.146875,18.515057226168935,3.0,-122.96816017862685,0.45199999213218683,-2.376592118575518,-0.7781369698785632,-0.191243989039174,-2.141104198194858,0.5975411269063076,-0.02850688234960632,-1.1657154393923816,18.03529281616211,39.657595825195315,6.131151580810547,-0.34658828303217887,-0.085764816403389,0.07350074523128569,64.48892669677734,72.39572143554688,124.33422241210937,3.273170285066515,0.5930773027771711,-1.8668035749918221,0.46044769287109377,0.9683746337890625,-0.4392120361328125,-0.3207557349465787,-0.016437619179487207,0.09404073730111125,2.086041018487215,9.012445963053107,-3.2525382697957754
9.9,-0.19793423739346586,1006.537295254794,76.22150270864367,2.251336300453267,40.71642730720134,49.28002014638568,95.40293161794543,93.0666015625,18.770676498521638,3.0,-122.96815902192421,0.45099999196827406,-2.323789668757567,-0.7622537716237962,-0.20901630113687597,-2.0282475850614223,0.6106851058343602,-0.004488369510758598,-1.1945535337783748,17.27604742050171,40.37501907348633,5.071330642700195,-0.023383500552154157,0.5715529635548592,0.44354412232059987,63.49070326152601,73.18974986829255,123.27917094983553,0.12417000329243022,0.8855492746356874,-0.2488698464517669,0.14306030273437498,1.0059539794921875,-0.3059974670410156,-0.016295013041235484,0.6080003622919322,0.4541566591709852,1.6171254832945445,9.114892981153577,-3.158168818141073
10.0,-0.19697328047318888,1006.5371842817826,76.22296144813299,2.208067388381421,41.567782966531986,49.28002011442967,95.40439035743475,94.986328125,19.02629577087434,3.0,-122.96815786522157,0.4499999918043613,-2.270987218939617,-0.7463705733690291,-0.22678861323457794,-1.9153909719279862,0.6238290847624128,0.019530143328089125,-1.2233916281643682,16.516802024841308,41.09244232177734,4.011509704589844,0.2998212819278706,1.2288707435131072,0.813587499409914,62.49247982627467,73.98377830103824,122.22411948756168,-3.0248302784816543,1.178021246494204,1.3690638820882886,-0.17432708740234376,1.0435333251953125,-0.17278289794921875,0.28816570886410775,1.2324383437633515,0.8142725810408592,1.1482099481018737,9.217339999254047,-3.0637993664863705
10.1,-0.1960123235529119,1006.5370733087713,76.22442018762231,2.164798476309575,42.41913862586263,49.28002008247366,95.40584909692407,96.9060546875,19.281915043227045,3.0,-122.96815670851893,0.4489999916404485,-2.0026301377030067,-0.6942012313699174,-0.28019781893002094,-1.4955797777044244,0.6510818224785433,0.06854360284801178,-1.2393606575756801,12.827843761444091,42.53874835968017,2.115251350402832,0.31470163526537365,1.4216236785054206,0.7026056867092848,58.90600987484581,75.34075726960835,120.42133973774156,-1.2050577055400886,0.2675827229216696,1.0317113843046128,-0.13945274353027343,0.9654495239257812,-0.189788818359375,0.3176194912055508,1.4100876480340958,0.7053321905434131,-0.13412032158968912,9.269984992474765,-2.8406540726713834
10.2,-0.1950513666326349,1006.53696233576,76.22587892711162,2.121529564237729,43.270494285193266,49.28002005051765,95.40730783641338,98.82578124999999,19.537534315579748,3.0,-122.9681555518163,0.44799999147653574,-1.7342730564663966,-0.6420318893708057,-0.33360702462546393,-1.0757685834808626,0.6783345601946736,0.11755706236793444,-1.2553296869869923,9.138885498046875,43.985054397583006,0.2189929962158203,0.3295819886028767,1.614376613497734,0.5916238740086556,55.31953992341694,76.69773623817845,118.61855998792146,0.614714867401477,-0.6428558006508648,0.694358886520937,-0.10457839965820312,0.88736572265625,-0.20679473876953125,0.34707327354699374,1.5877369523048401,0.5963918000459671,-1.416450591281252,9.322629985695482,-2.617508778856396
10.3,-0.19409040971235791,1006.5368513627486,76.22733766660095,2.0782606521658833,44.1218499445239,49.28002001856164,95.4087665759027,100.7455078125,19.793153587932455,3.0,-122.96815439511366,0.44699999131262297,-1.2949065013348293,-0.5713400743198452,-0.3586680191776367,-0.5090602079185069,0.7168775929345189,0.17526401755400495,-1.2365283367541153,3.8258472442626954,44.916595458984375,2.090887451171875,0.7834459245204926,0.5509280771017074,0.6931430548429489,49.82203369140625,77.62786407470703,121.01379089355468,2.2534395244477685,0.19667530771881342,-1.4772046986901013,-0.062908935546875,0.9721832275390625,-0.3325531005859375,0.7618395686149597,0.5385511994361878,0.6532437767833471,-2.7977311397808786,9.263653480591774,-1.5541537979034705
10.4,-0.19312945279208094,1006.5367403897372,76.22879640609025,2.0349917400940374,44.973205603854545,49.28001998660563,95.41022531539201,102.665234375,20.04877286028516,3.0,-122.96815323841102,0.4459999911487102,-1.433086558092097,-0.5844200568179132,-0.36373308928004,-0.6300603604006523,0.7002303082884309,0.18169832188406215,-1.248105235493723,5.090733528137207,44.68487148284912,1.5948911666870118,-0.07693949887470808,0.09374875379726288,-0.4752921506762504,51.78660631681743,77.23817536203485,120.09130224930612,2.1618847868071867,1.603134079991132,-1.6753555113617888,-0.03402252197265625,1.1298076629638671,-0.33997306823730467,-0.1010054027661681,0.0810578085482121,-0.5207738900557161,-2.428621198066101,9.298485476098284,-1.6709265506443844
10.5,-0.19216849587180396,1006.5366294167259,76.23025514557958,1.9917228280221912,45.82456126318519,49.28001995464962,95.41168405488133,104.5849609375,20.30439213263786,3.0,-122.96815208170838,0.4449999909847974,-1.5712666148493648,-0.5975000393159812,-0.3687981593824433,-0.7510605128827976,0.6835830236423429,0.18813262621411936,-1.2596821342333309,6.355619812011719,44.45314750671387,1.0988948822021485,-0.9373249222699087,-0.36343056950718167,-1.6437273561954497,53.75117894222862,76.84848664936267,119.16881360505757,2.070330049166605,3.0095928522634505,-1.8735063240334764,-0.0051361083984375,1.2874320983886718,-0.3473930358886719,-0.9638503741472959,-0.37643558233976365,-1.6947915568947791,-2.059511256351324,9.333317471604794,-1.7876993033852986
10.6,-0.19120753895152698,1006.5365184437146,76.2317138850689,1.9484539159503456,46.675916922515825,49.28001992269361,95.41314279437066,106.5046875,20.560011404990565,3.0,-122.96815092500574,0.44399999082088465,-2.249519467274519,-0.6811694213406061,-0.3643478465866973,-1.4337392814895984,0.5911120817883402,0.1854947631168568,-1.1832025642705062,15.981810092926027,40.27909774780274,-1.5013553619384765,-0.7703875506849727,-0.4011147630400956,-1.7206185586750506,63.29555391010485,72.56669456080387,116.74620015997635,-0.5476322309979049,1.7585881733968853,0.13170552797684465,-0.03936004638671874,1.0900291442871093,-0.25231094360351564,-0.7773487558588386,-0.426299447612837,-1.7214826818555593,0.1438799788930023,9.037604223576635,-2.695439047380639
10.7,-0.19024658203125,1006.5364074707032,76.23317262455821,1.9051850038784996,47.52727258184646,49.2800198907376,95.41460153385997,108.42441406249999,20.815630677343268,3.0,-122.9681497683031,0.4429999906569719,-2.927772319699673,-0.7648388033652311,-0.35989753379095124,-2.116418050096399,0.4986411399343374,0.18285690001959426,-1.1067229943076815,25.608000373840333,36.1050479888916,-4.101605606079102,-0.6034501791000366,-0.4387989565730095,-1.7975097611546516,72.83992887798108,68.28490247224507,114.32358671489514,-3.165594511162415,0.50758349453032,2.1369173799871652,-0.073583984375,0.8926261901855469,-0.15722885131835937,-0.5908471375703812,-0.4761633128859103,-1.7481738068163395,2.3472712141373284,8.741890975548475,-3.603178791375979
10.8,-0.18976627696644174,1006.5363450483843,76.23463136404753,1.8619160918066537,48.378628241177104,49.28001985878159,95.41606027334929,110.344140625,21.07124994969597,3.0,-122.96814861160047,0.4419999904930591,-3.047329135370104,-0.8141641338554362,-0.31216790678363077,-2.3556665411596276,0.4659081416142349,0.14901242505941664,-1.0194657360940715,29.7099853515625,33.06169967651367,-0.5007614135742188,-0.006201248709112395,-0.4675990991294384,1.12556629832834,75.60477142333984,66.18013610839844,118.27482604980469,-4.436179635807127,-3.9503012218326328,3.5560759570653735,-0.0603271484375,0.45157470703125,-0.01079864501953125,0.019870524294674407,-0.38481450378894805,1.2021804943680763,3.6323865172599255,8.350559561752677,-3.6255675141209367
10.9,-0.18928597190163352,1006.5362826260654,76.23609010353684,1.8186471797348078,49.22998390050775,49.28001982682558,95.4175190128386,112.2638671875,21.326869222048675,3.0,-122.96814745489783,0.44099999032914633,-2.914923189307263,-0.7889380197347937,-0.31815204896201155,-2.2287851878826457,0.503288030847888,0.1433585860699883,-1.0877411779067467,25.78172492980957,35.79744968414306,0.87947998046875,0.12418316300027071,-0.2082759475335479,0.8935996663756669,71.75972534982782,68.79813609876132,119.6019740857576,-0.2175705039703857,-0.5820585536999254,1.750956582539901,0.2840091705322266,0.8562236785888673,-0.17693214416503908,0.1383509852923453,-0.17611273042857647,0.9102838473860174,2.8199144286544433,8.661314545376896,-3.5107508584039655
11.0,-0.18880566683682526,1006.5362202037466,76.23754884302616,1.775378267662962,50.08133955983838,49.280019794869574,95.41897775232792,114.18359375,21.58248849440138,3.0,-122.9681462981952,0.43999999016523356,-2.782517243244422,-0.7637119056141511,-0.3241361911403923,-2.101903834605664,0.5406679200815412,0.13770474708056,-1.156016619719422,21.85346450805664,38.53319969177246,2.259721374511719,0.25456757470965385,0.05104720406234263,0.6616330344229937,67.9146792763158,71.41613608912418,120.92912212171052,4.001038627866357,2.786184114432782,-0.05416279198557143,0.6283454895019531,1.2608726501464844,-0.3430656433105469,0.2568314462900162,0.03258904293179511,0.6183872004039586,2.007442340048961,8.972069529001116,-3.3959342026869948
11.1,-0.188325361772017,1006.5361577814276,76.23900758251548,1.732109355591116,50.93269521916902,49.28001976291356,95.42043649181724,116.1033203125,21.838107766754085,3.0,-122.96814514149256,0.4389999900013208,-2.6624708194679725,-0.732572098424231,-0.34635717501358176,-1.9149521118578832,0.5591009254880239,0.16044988297948626,-1.1973113550128034,18.52213954925537,40.01642189025878,3.5151821136474606,0.2436489097774029,1.0067450212314724,0.8911291624419392,64.58055917840255,72.86770148026315,122.05619812011719,0.2568882428426198,1.3742630581665785,0.8044964372044429,0.1536842346191406,1.0782299041748047,-0.23222808837890627,0.2353330034762621,1.026813491806388,0.8738396401051431,1.2812029627159085,9.11918991846904,-3.1723431817050276
11.2,-0.18784505670720877,1006.5360953591087,76.24046632200479,1.68884044351927,51.78405087849966,49.280019730957555,95.42189523130655,118.02304687499999,22.09372703910679,3.0,-122.96814398478992,0.437999989837408,-2.5424243956915236,-0.7014322912343107,-0.36857815888677126,-1.7280003891101021,0.5775339308945068,0.18319501887841255,-1.2386060903061848,15.190814590454101,41.499644088745114,4.770642852783203,0.2327302448451519,1.9624428384006023,1.1206252904608847,61.24643908048931,74.31926687140214,123.18327411852385,-3.487262142181117,-0.0376579980996251,1.663155666394457,-0.32097702026367186,0.895587158203125,-0.12139053344726562,0.213834560662508,2.021037940680981,1.1292920798063277,0.554963585382856,9.266310307936966,-2.94875216072306
11.3,-0.18736475164240052,1006.5360329367898,76.24192506149411,1.6455715314474242,52.635406537830306,49.28001969900154,95.42335397079587,119.9427734375,22.34934631145949,3.0,-122.96814282808728,0.43699998967349524,-2.133790945490907,-0.5758875966415902,-0.5040504493730408,-0.9530319870984441,0.5823008548114427,0.2720462912781039,-1.2408871264281491,8.424895477294921,44.03221817016602,1.2608596801757812,-0.1328951733186841,2.5560091495513917,0.02779314815998076,54.818669128417966,76.68045043945312,119.49756317138672,0.3487154425756633,-0.022433716317415243,-0.35026650063604103,-0.1747772216796875,0.9387313842773437,-0.38117523193359376,-0.13969075940549372,2.4885875940322877,0.024622862692922343,-1.837295317178294,9.277758812120556,-2.5828398211179673
11.4,-0.1868844465775923,1006.5359705144708,76.24338380098342,1.6023026193755783,53.48676219716094,49.280019667045536,95.42481271028518,121.8625,22.604965583812195,3.0,-122.96814167138464,0.43599998950958246,-2.0783948446290847,-0.5371062639491878,-0.5376645011621966,-0.7838354690889363,0.5720583613240602,0.3006377345999717,-1.2258631113563663,6.330758762359618,44.28856143951416,0.8408723831176758,0.13352389391511682,1.7648640919476748,0.27382111437618734,52.58329720748098,76.95547244423315,119.24269654123407,0.691832265079934,-0.11536173699215053,-0.7148220809101499,-0.17163734436035155,0.9300598144531249,-0.3405853271484375,0.13393239052966235,1.7135493468493224,0.27394165969453754,-2.313623246263508,9.22763702454105,-2.265468769395072
11.5,-0.18640414151278403,1006.5359080921519,76.24484254047275,1.5590337073037324,54.33811785649158,49.28001963508952,95.4262714497745,123.7822265625,22.8605848561649,3.0,-122.968140514682,0.4349999893456697,-2.0229987437672623,-0.4983249312567855,-0.5712785529513524,-0.6146389510794286,0.5618158678366776,0.32922917792183937,-1.2108390962845834,4.236622047424317,44.544904708862305,0.4208850860595703,0.3999429611489177,0.9737190343439579,0.5198490805923939,50.347925286544,77.23049444901316,118.98782991108142,1.034949087584205,-0.20828975766688584,-1.0793776611842587,-0.16849746704101562,0.9213882446289062,-0.29999542236328125,0.40755554046481846,0.938511099666357,0.5232604566961527,-2.7899511753487216,9.177515236961543,-1.9480977176721765
11.6,-0.18592383644797578,1006.5358456698331,76.24630127996207,1.5157647952318865,55.18947351582222,49.28001960313352,95.42773018926383,125.701953125,23.1162041285176,3.0,-122.96813935797937,0.4339999891817569,-2.0877171876651217,-0.4884301732631703,-0.5796242079940142,-0.6210503688408067,0.5457497107660922,0.3521841116118305,-1.2250817234082487,2.4440032958984377,45.06588878631592,0.4428730010986328,-0.25718076527118683,0.5208867896348238,-0.5659231664612889,48.88960788124486,77.75996800472862,118.81213659989206,1.8987081442242022,1.0093201481155305,-1.4834057946063486,-0.07745819091796875,1.0592544555664063,-0.31981620788574217,-0.2680760268878658,0.49222736646188425,-0.5912049748934807,-2.6522119338653187,9.220126926558837,-1.7881098478144126
11.7,-0.18544353138316755,1006.5357832475141,76.24776001945138,1.4724958831600405,56.040829175152865,49.280019571177505,95.42918892875313,127.62167968749999,23.371823400870305,3.0,-122.96813820127673,0.43299998901784414,-2.152435631562981,-0.4785354152695551,-0.5879698630366759,-0.6274617866021848,0.5296835536955069,0.3751390453018217,-1.239324350531914,0.6513845443725585,45.58687286376953,0.4648609161376953,-0.9143044916912914,0.0680545449256897,-1.6516954135149717,47.43129047594572,78.28944156044408,118.63644328870271,2.7624672008641995,2.226930053897947,-1.8874339280284382,0.013581085205078124,1.1971206665039062,-0.33963699340820314,-0.94370759424055,0.04594363325741141,-1.7056704064831139,-2.5144726923819163,9.262738616156131,-1.6281219779566487
11.8,-0.1849632263183593,1006.5357208251952,76.2492187589407,1.4292269710881946,56.8921848344835,49.28001953922149,95.43064766824246,129.54140625,23.62744267322301,3.0,-122.96813704457409,0.43199998885393137,1.6820354569629425,-0.6067665837671343,-0.5465825279131826,-1.8119835646975009,0.3959467359716452,0.41847595044250097,-1.2152489027389364,14.064427185058594,45.86683120727539,-8.68783187866211,-0.8108838111162185,-0.29121349602937696,-2.29466655254364,61.00161895751953,78.45225372314454,109.56569976806641,-1.2544055075925216,4.3387640652287,2.4737524297679956,-0.02027740478515625,1.3244171142578125,-0.09411468505859374,-0.7746330440044403,-0.3209347430616617,-2.278313493728638,0.8584195240695773,9.186933638170064,-3.2542769886088374
11.9,-0.1846988677978515,1006.5356979370116,76.25067749843001,1.3859580590163487,57.74354049381414,49.280019507265486,95.43210640773177,131.46113281249998,23.883061945575715,3.0,-122.96813588787145,0.4309999886900186,2.090983726359135,-0.6523929330459494,-0.49857479046269276,-2.096923928006786,0.3718745910008052,0.42510428640045184,-1.1414551224765987,20.762935638427734,44.07470626831055,-9.035583114624023,-0.4642157135065645,-0.8154046826064586,-1.3679184733889995,67.77005322105006,76.61361176340205,109.41106185913085,-2.988917629865277,0.9314857685806599,2.1485838012377543,-0.07271080017089845,0.9646923065185546,-0.11409187316894531,-0.44049204271286724,-0.8251636324450374,-1.323435416072607,2.14049104818264,8.886832077442035,-3.231548483289406
12.0,-0.18443450927734367,1006.535675048828,76.25213623791933,1.3426891469445028,58.59489615314478,49.28001947530947,95.43356514722109,133.380859375,24.13868121792842,3.0,-122.96813473116882,0.4299999885261058,2.499931995755328,-0.6980192823247644,-0.4505670530122029,-2.381864291316071,0.34780244602996524,0.43173262235840265,-1.0676613422142611,27.461444091796874,42.2825813293457,-9.383334350585937,-0.1175476158969104,-1.3395958691835403,-0.4411703942343593,74.53848748458059,74.77496980365954,109.25642395019531,-4.723429752138033,-2.47579252806738,1.823415172707513,-0.12514419555664064,0.6049674987792969,-0.13406906127929688,-0.10635104142129419,-1.329392521828413,-0.36855733841657634,3.4225625722957025,8.586730516714006,-3.2088199779699744
12.1,-0.18417015075683585,1006.5356521606444,76.25359497740865,1.299420234872657,59.446251812475424,49.28001944335347,95.43502388671041,135.3005859375,24.394300490281122,3.0,-122.96813357446618,0.42899998836219305,2.578923346567977,-0.6965358771028645,-0.4369352070950244,-2.38028579227963,0.3902101784839813,0.4095223856244993,-1.1306284114688783,26.599884033203125,45.098250770568846,-6.728330993652343,0.007852701703086495,-0.7871989530511201,0.07700088974088432,73.39050533896997,77.71901301333779,111.88479293020148,-0.6867681099049001,-0.586988835095912,0.8086052424964496,0.24488220214843753,0.84937744140625,-0.20683860778808594,0.011745038721710468,-0.7819957270519808,0.09611132489517332,3.018207941385712,8.849135690867303,-2.847260441359952
12.2,-0.18390579223632805,1006.5356292724608,76.25505371689796,1.256151322800811,60.29760747180606,49.280019411397454,95.43648262619972,137.2203125,24.649919762633825,3.0,-122.96813241776354,0.4279999881982803,2.657914697380626,-0.6950524718809645,-0.4233033611778459,-2.3787072932431887,0.4326179109379974,0.38731214889059584,-1.1935954807234954,25.738323974609376,47.91392021179199,-4.07332763671875,0.1332530193030834,-0.23480203691869975,0.5951721737161279,72.24252319335938,80.66305622301604,114.51316191020764,3.3498935323282333,1.3018148578755557,-0.20620468771461398,0.6149085998535156,1.093787384033203,-0.279608154296875,0.1298411188647151,-0.23459893227554857,0.560779988206923,2.613853310475722,9.111540865020602,-2.4857009047499297
12.3,-0.18364143371582026,1006.5356063842772,76.25651245638728,1.2128824107289653,61.148963131136696,49.28001937944145,95.43794136568904,139.1400390625,24.90553903498653,3.0,-122.9681312610609,0.4269999880343675,2.586972320477805,-0.6995710806973803,-0.4055756929329498,-2.475757884208167,0.4394803586748221,0.3909240747706218,-1.1998211851593088,29.086326599121094,48.74439468383789,-0.9055290222167969,0.6149257034063339,0.28824236486107113,-0.1569408182054758,75.6712631225586,81.3681427001953,117.69069976806641,-2.7781570799043775,0.5640436328989267,0.7350497787365317,-0.019258287217881944,0.9621056450737847,-0.14744059244791666,0.6329036876559258,0.29599703210406003,-0.12181804180145264,2.7917592257644235,9.139027276230753,-2.1951236605968325
12.4,-0.18337707519531243,1006.5355834960938,76.25797119587659,1.1696134986571194,62.00031879046734,49.280019347485435,95.43940010517835,141.05976562499998,25.16115830733923,3.0,-122.96813010435827,0.42599998787045473,1.6819343462009717,-0.6757896256763737,-0.419651908866028,-2.2810541191851588,0.46848187754828075,0.38063421063087144,-1.2608393900723884,25.624838638305665,51.04580955505371,0.1120407104492187,0.3139451052295044,0.2189283926971257,0.6451609594747425,71.87852241114567,83.82858212119655,118.64495138871042,-2.5192882851032543,0.3076313424848765,0.22644455090282478,-0.06361588372124566,0.9665428585476346,-0.18753445943196614,0.31980905774980783,0.21722477802541107,0.6657495200634004,2.0159036973169946,9.316958355186806,-2.065846050233394
12.5,-0.1831127166748046,1006.5355606079102,76.25942993536592,1.1263445865852735,62.85167444979798,49.28001931552943,95.44085884466767,142.9794921875,25.416777579691935,3.0,-122.96812894765563,0.42499998770654196,0.7768963719241384,-0.6520081706553671,-0.4337281247991062,-2.0863503541621506,0.49748339642173933,0.370344346491121,-1.321857594985468,22.163350677490236,53.347224426269534,1.1296104431152343,0.012964507052674906,0.14961442053318025,1.4472627371549607,68.08578169973273,86.28902154219777,119.59920300935444,-2.2604194903021306,0.0512190520708263,-0.2821606769308821,-0.10797348022460937,0.9709800720214844,-0.22762832641601563,0.00671442784368993,0.13845252394676208,1.4533170819282533,1.240048168869566,9.494889434142857,-1.936568439869955
12.6,-0.18284835815429681,1006.5355377197266,76.26088867485524,1.0830756745134276,63.70303010912862,49.28001928357342,95.442317584157,144.89921875,25.672396852044642,3.0,-122.96812779095299,0.4239999875426292,-0.6807823397913244,-0.6074018055681012,-0.457220356036263,-1.482097567716307,0.5357377412743212,0.35950685047900216,-1.3468432789190232,15.008371162414551,56.242046165466306,2.2710382461547853,0.2795499715255574,0.20688287448137996,1.2243474423885345,61.1186916953639,89.0570004111842,120.79522544459293,-0.9904621805261915,-0.2522680156031251,-0.38464231882016175,-0.10027732849121093,0.9470294952392578,-0.20889778137207032,0.2762960584834218,0.2016277942806482,1.2237978830933571,0.021244445940076018,9.553580692564399,-1.6580979610531497
12.7,-0.18258399963378902,1006.535514831543,76.26234741434455,1.0398067624415817,64.55438576845926,49.28001925161741,95.4437763236463,146.8189453125,25.928016124397345,3.0,-122.96812663425035,0.4229999873787164,-2.1384610515067872,-0.5627954404808352,-0.4807125872734198,-0.8778447812704634,0.5739920861269031,0.3486693544668833,-1.3718289628525784,7.853391647338867,59.136867904663085,3.412466049194336,0.5461354359984398,0.26415132842957967,1.0014321476221084,54.151601690995065,91.82497928017064,121.99124787983142,0.2794951292497478,-0.5557550832770765,-0.4871239607094414,-0.0925811767578125,0.9230789184570313,-0.190167236328125,0.5458776891231537,0.26480306461453434,0.994278684258461,-1.1975592769894141,9.612271950985939,-1.3796274822363443
12.8,-0.1823196411132812,1006.5354919433594,76.26380615383387,0.9965378503697357,65.4057414277899,49.2800192196614,95.44523506313563,148.738671875,26.18363539675005,3.0,-122.96812547754772,0.42199998721480364,-1.5252079779642644,-0.506726160091831,-0.4876442563617595,-0.2337967325774913,0.6146406323439956,0.3572495368217987,-1.330718474580332,0.6606616973876953,61.154380798339844,8.338838195800781,0.2301705151796341,0.18259351383894684,0.1269414618611336,47.06689300537109,93.85053100585938,126.87906799316406,1.741787991373986,1.1769148342353106,-3.0010846320089324,-0.05375213623046875,1.0903076171875,-0.35805206298828124,0.2014135204255581,0.14174783178605138,0.08881725408136845,-2.266971016224399,9.52536129090458,-0.5397449593065865
12.9,-0.1823196411132812,1006.5354919433594,76.26526489332318,0.9532689382978898,66.25709708712054,49.28001918770539,95.44669380262494,150.65839843749998,26.439254669102752,3.0,-122.96812432084508,0.42099998705089087,-1.1046527062086824,-0.5535539000145647,-0.45607919461112123,-0.7167978503841879,0.5991369842356989,0.34489494380518804,-1.3553975651088328,5.124351150111148,62.12668057491905,6.809654396458676,-0.24556659236550332,-0.759862405154854,-0.937336575239897,52.335726326390315,94.70773018284848,125.02757520173725,1.0269392899141305,1.7405431551023218,-3.3065043926618687,-0.038913726806640625,1.150521469116211,-0.41872444152832033,-0.254463053671153,-0.8058190662033955,-0.9812457320427425,-1.366673004704103,9.572436565777195,-0.8295666819023542
13.0,-0.1823196411132812,1006.5354919433594,76.2667236328125,0.9100000262260436,67.10845274645118,49.28001915574938,95.44815254211426,152.578125,26.694873941455455,3.0,-122.96812316414244,0.4199999868869781,-0.6840974344531002,-0.6003816399372984,-0.42451413286048295,-1.1997989681908845,0.5836333361274023,0.3325403507885773,-1.3800766556373336,9.588040602834601,63.098980351498255,5.280470597116571,-0.7213036999106407,-1.702318324148655,-2.0016146123409273,57.60455964740954,95.56492935983758,123.17608241031044,0.3120905884542748,2.304171475969333,-3.611924153314805,-0.0240753173828125,1.2107353210449219,-0.4793968200683594,-0.7103396277678641,-1.7533859641928422,-2.0513087181668532,-0.466374993183807,9.619511840649812,-1.1193884044981217
13.1,-0.1823196411132812,1006.5354919433594,76.26672364016994,0.9100000262261387,67.10845274645125,49.28001882053953,95.4481525494717,152.57812520147868,26.69487394145545,3.0000000000000253,-122.96812289830677,0.419999986886978,0.10508335412595182,-0.6939971365576052,-0.3585476511324811,-1.831499659960825,0.5404974037573711,0.2647069618114721,-1.2573428737400318,21.760378867701476,59.09464245846397,0.3787282642565275,-1.0518638394773006,-2.0987739838659767,-1.1653082892298698,69.34337415193257,91.38001251220703,118.43590144107216,-2.1011825750398794,1.1038885033400003,-1.9782369418696195,-0.07301063537597656,1.0466533660888673,-0.3783847808837891,-1.052939870012434,-2.1166719213912364,-1.2279774757249182,1.385106505668122,9.2424096762543,-1.8394165657668298
13.2,-0.1823196411132812,1006.5354919433594,76.2667236475274,0.910000026226234,67.10845274645132,49.280018485329684,95.44815255682916,152.57812540295734,26.694873941455448,3.000000000000051,-122.96812263247111,0.4199999868869779,0.8942641427050038,-0.787612633177912,-0.2925811694044792,-2.463200351730766,0.4973614713873398,0.19687357283436688,-1.1346090918427303,33.93271713256836,55.09030456542969,-4.523014068603516,-1.3824239790439605,-2.495229643583298,-0.32900196611881255,81.08218865645559,87.19509566457648,113.69572047183388,-4.514455738534033,-0.0963944692893326,-0.3445497304244339,-0.12194595336914063,0.8825714111328125,-0.27737274169921877,-1.3955401122570037,-2.47995787858963,-0.4046462332829833,3.2365880045200512,8.865307511858791,-2.5594447270355376
13.3,-0.1823196411132812,1006.5354919433594,76.26672365488484,0.9100000262263293,67.10845274645138,49.28001815011984,95.4481525641866,152.57812560443602,26.694873941455448,3.0000000000000764,-122.96812236663546,0.4199999868869778,-2.8532100654743386,-0.8274673938540815,-0.20468835692635934,-2.482622096278445,0.5202682620858244,0.04789023782482214,-1.077590624392006,36.08482208251953,50.67137756347656,-4.427019500732422,-0.22724455110728742,-0.5362782821059227,1.1767816603183747,82.0017578125,83.47996520996094,114.0565170288086,-3.486972259509712,-1.573533628462553,4.341102766535431,0.03026123046875,0.7007171630859375,0.16214599609375,-0.3146319828927517,-0.711918018013239,1.1335308849811554,3.6717744955703617,8.635964532447456,-2.8369305805557965
13.4,-0.1823196411132812,1006.5354919433594,76.2667236622423,0.9100000262264244,67.10845274645145,49.28001781490999,95.44815257154406,152.5781258059147,26.694873941455445,3.0000000000001017,-122.96812210079979,0.41999998688697776,-2.708205619308611,-0.8028058688145617,-0.20674271317618614,-2.3470659197117483,0.5555493565540028,0.04116208106096172,-1.1411825695237054,32.589775276184085,51.52949981689453,-5.073414993286133,-0.13873979225754737,-0.20765336028416637,0.9619769264943898,78.58464323344984,84.1758330495734,113.33539906551964,-0.43388757016031043,-0.37678093962192527,1.4067403949187698,0.2586769104003906,0.8795143127441406,-0.13740730285644534,-0.18735470151586922,-0.2896359028294683,0.9599611119367182,2.8849476253681816,8.894422591023222,-2.8129747253984956
13.5,-0.1823196411132812,1006.5354919433594,76.26672366959974,0.9100000262265195,67.10845274645152,49.280017479700135,95.4481525789015,152.5781260073934,26.69487394145544,3.000000000000127,-122.96812183496412,0.41999998688697765,-2.563201173142883,-0.7781443437750419,-0.20879706942601292,-2.211509743145052,0.5908304510221811,0.03443392429710129,-1.204774514655405,29.094728469848633,52.3876220703125,-5.719810485839844,-0.05023503340780734,0.12097156153758988,0.7471721926704049,75.16752865439967,84.87170088918586,112.61428110223068,2.619197119189091,0.8199717492187023,-1.5276219766978918,0.48709259033203123,1.0583114624023438,-0.43696060180664065,-0.06007742013898678,0.1326462123543024,0.7863913388922811,2.0981207551660015,9.152880649598986,-2.7890188702411947
13.6,-0.1823196411132812,1006.5354919433594,76.26672367695718,0.9100000262266148,67.10845274645159,49.28001714449029,95.44815258625894,152.57812620887205,26.694873941455437,3.0000000000001528,-122.96812156912846,0.41999998688697754,-2.486865420234387,-0.7650954563362934,-0.21432244409471218,-2.1182486206853497,0.6048536711563262,0.04111121857339847,-1.2319988542059428,26.806642150878908,48.90265731811523,-5.0226287841796875,0.11846109193284064,0.28879854098777286,0.7080922891385854,72.92503919099507,81.3344457525956,113.50566864013672,0.013126843712078173,0.654604676020518,-0.29871441721856584,0.179608154296875,1.0185077667236329,-0.31429557800292973,0.12302185251319314,0.27608871888369324,0.7149884608574212,1.718879721827274,9.241450051285849,-2.723688312629126
13.7,-0.1823196411132812,1006.5354919433594,76.26672368431464,0.9100000262267101,67.10845274645166,49.28001680928044,95.4481525936164,152.57812641035073,26.694873941455434,3.000000000000178,-122.96812130329279,0.4199999868869775,-2.4105296673258914,-0.7520465688975448,-0.21984781876341147,-2.0249874982256477,0.6188768912904712,0.04778851284969566,-1.2592231937564804,24.51855583190918,45.41769256591797,-4.325447082519531,0.28715721727348864,0.45662552043795585,0.6690123856067658,70.68254972759046,77.79719061600535,114.39705617804276,-2.592943431764934,0.48923760282233353,0.93019314226076,-0.12787628173828125,0.9787040710449219,-0.19163055419921876,0.3061211251653731,0.419531225413084,0.6435855828225613,1.3396386884885465,9.33001945297271,-2.658357755017057
13.8,-0.1823196411132812,1006.5354919433594,76.26672369167208,0.9100000262268052,67.10845274645172,49.28001647407059,95.44815260097384,152.57812661182942,26.694873941455434,3.0000000000002034,-122.96812103745714,0.4199999868869774,-1.8940547152859566,-0.6866032357943,-0.26236982232529443,-1.3987999181293167,0.6726528196591924,0.08127731213625422,-1.311117413081786,15.465974044799804,44.501460266113284,-3.147430419921875,0.2637737466022372,1.4125980973243712,0.8886451542377471,61.303897094726565,77.09766540527343,115.3603271484375,-0.5238808489041402,-0.15653841073721647,1.3867405985239147,-0.11814117431640625,0.9326858520507812,-0.11967010498046875,0.24211939582601189,1.4293241500854492,0.9042089402675628,-0.42286122389680125,9.477823996086418,-2.4546890520534665
13.9,-0.1823196411132812,1006.5354919433594,76.26672369902954,0.9100000262269003,67.10845274645179,49.280016138860745,95.4481526083313,152.57812681330807,26.69487394145543,3.000000000000229,-122.96812077162147,0.4199999868869773,-1.6440107525118075,-0.6551640169089411,-0.2779497420895243,-1.0897595201673984,0.6923589374845369,0.1053281356657259,-1.3055927487836878,11.5776198387146,43.78084030151368,-1.7378440856933595,0.3913511193357408,0.9993390291929245,0.8417784705758095,57.47367971319902,76.33209887052837,116.8943524009303,0.034130397535581114,-0.2751951122345775,0.4528508521544934,-0.12339248657226562,0.9318981170654297,-0.17533416748046876,0.3773850713390857,1.0109143495559691,0.8512846171855926,-1.1284001776042318,9.463187217255532,-2.1166899652885736
14.0,-0.18376090309836643,1006.5356514670632,76.26672370638698,0.9100000262269956,67.10845274645186,49.2800158036509,95.44815261568874,152.57812701478676,26.694873941455427,3.0000000000002545,-122.9681205057858,0.4199999868869772,-1.3939667897376584,-0.6237247980235822,-0.29352966185375406,-0.7807191222054803,0.7120650553098813,0.12937895919519757,-1.3000680844855896,7.689265632629395,43.060220336914064,-0.3282577514648438,0.5189284920692444,0.5860799610614776,0.7949117869138718,53.643462331671465,75.56653233578331,118.42837765342311,0.5921416439753026,-0.39385181373193856,-0.48103889421492807,-0.128643798828125,0.9311103820800781,-0.23099822998046876,0.5126507468521595,0.5925045490264893,0.7983602941036224,-1.8339391313116624,9.448550438424647,-1.778690878523681
14.1,-0.18520216508345164,1006.535810990767,76.25518806064501,1.2337906376954684,60.29760747180667,49.28000452992488,95.43661696994677,137.22031431330808,27.639381064690575,3.1000000000002297,-122.96812206243456,0.4779999881982795,-1.2521944997842809,-0.603669764972,-0.30094879279097275,-0.5946825434871321,0.7212943501197655,0.15102264659568987,-1.2919469196204731,3.181967639923096,40.78589954376221,2.0906431198120115,0.028394735977053664,0.27592630647122857,-0.016727051301859364,49.27207754034745,73.17536020780864,120.64778219524183,1.4372454890564454,0.5902750902249664,-1.9297374430724417,-0.07015037536621094,1.0298355102539063,-0.33449363708496094,0.04990838160738348,0.3105509351938963,0.03888408318161962,-2.183521876507457,9.42571062552437,-1.4180447103385905
14.2,-0.18664342706853687,1006.5359705144709,76.24365241490304,1.557581249163941,53.48676219716149,49.27999325619887,95.4250813242048,121.8625016118294,28.583888187925723,3.2000000000002045,-122.96812361908331,0.5359999895095817,-1.1104222098309031,-0.5836147319204177,-0.30836792372819144,-0.4086459647687839,0.7305236449296497,0.17266633399618214,-1.2838257547553567,-1.3253303527832032,38.511578750610354,4.509543991088867,-0.4621390201151371,-0.03422734811902047,-0.8283658895175904,44.900692749023435,70.78418807983398,122.86718673706055,2.2823493341375887,1.5744019941818714,-3.3784359919299556,-0.011656951904296876,1.1285606384277345,-0.4379890441894531,-0.41283398363739254,0.028597321361303295,-0.7205921277403832,-2.533104621703252,9.402870812624096,-1.0573985421535
14.3,-0.1880846890536221,1006.5361300381747,76.23211676916108,1.8813718606324135,46.6759169225163,49.279981982472854,95.41354567846282,106.50468891035074,29.528395311160867,3.3000000000001792,-122.96812517573207,0.5939999908208841,-2.2383895663724376,-0.6969296381372284,-0.30275546935035397,-1.5906154988319923,0.6325836168179786,0.1435728839323498,-1.3147596642130384,2.151438903808594,36.00374755859375,-0.3321037292480469,-1.0510346055030824,-0.3871347724460065,-2.6636012315750124,49.984720865885414,68.61001417371962,117.58052910698785,-0.7650312362458557,3.468885486355424,2.3678618032457677,-0.0858612060546875,1.3162826538085937,-0.00604248046875,-1.0710363984107971,-0.4927491407841444,-2.7074743032455446,0.14095267249152527,9.48161999814242,-2.3554866126713154
14.4,-0.18952595103870734,1006.5362895618786,76.22058112341911,2.205162472100886,39.86507164787112,49.279970708746845,95.40201003272085,91.14687620887206,30.472902434396016,3.4000000000001545,-122.96812673238082,0.6519999921321863,-2.560780180868594,-0.7465309766073873,-0.2903223338267745,-1.9472596873965782,0.577802673347364,0.12954012453411096,-1.2152350978037378,8.889553546905518,35.15595893859863,-0.14816932678222655,-0.7957119476050138,-0.6887068978976458,-1.7535253955982626,56.385054605049,67.71707429941634,118.16689965320609,-1.9801776233785224,1.3871906365398319,2.01931467374824,-0.05763320922851563,1.058390426635742,-0.07589797973632813,-0.8162915654480457,-0.73417703602463,-1.8192987841088326,1.5245984627882787,9.136896591651514,-2.7457826920700072
14.5,-0.19096721302379255,1006.5364490855824,76.20904547767714,2.528953083569359,33.05422637322593,49.27995943502083,95.39047438697888,75.78906350739338,31.417409557631164,3.5000000000001297,-122.96812828902958,0.7099999934434885,-2.8831707953647507,-0.7961323150775462,-0.27788919830319503,-2.303903875961164,0.5230217298767496,0.11550736513587215,-1.1157105313944375,15.627668190002442,34.308170318603516,0.03576507568359377,-0.5403892897069454,-0.9902790233492851,-0.8434495596215129,62.785388344212585,66.82413442511307,118.75327019942434,-3.1953240105111895,-0.6945042132757603,1.6707675442507117,-0.02940521240234375,0.8004981994628906,-0.14575347900390626,-0.5615467324852943,-0.9756049312651157,-0.9311232649721205,2.908244253085032,8.792173185160607,-3.136078771468699
14.6,-0.19240847500887778,1006.5366086092862,76.19750983193516,2.8527436950378315,26.24338109858074,49.27994816129481,95.37893874123692,60.43125080591471,32.36191668086631,3.6000000000001044,-122.96812984567832,0.7679999947547909,-2.8185653634812198,-0.7963009015821607,-0.261373554537907,-2.2978774416564756,0.5351344359066346,0.093401663112422,-1.1259895675863647,15.435713386535646,34.59752941131592,3.771707153320312,-0.15633564065210526,-0.4569770260946825,0.0231006380636245,62.034598240099456,67.25691508242959,122.59502461082056,-0.9977125736061856,-0.48820051485955707,1.1506820471219719,0.20153350830078123,0.8518325805664062,-0.2103710174560547,-0.16590119724860414,-0.4599938253872097,-0.00771288634277878,2.8256256057222187,8.83688640630789,-3.0961803301919995
14.7,-0.19384973699396302,1006.53676813299,76.18597418619319,3.176534306506304,19.432535823935556,49.2799368875688,95.36740309549495,45.073438104436036,33.306423804101456,3.7000000000000792,-122.96813140232707,0.8259999960660931,-2.753959931597689,-0.7964694880867752,-0.24485791077261893,-2.2918510073517875,0.5472471419365196,0.07129596108897185,-1.1362686037782916,15.243758583068848,34.88688850402832,7.507649230957031,0.22771800840273498,0.0763249711599201,0.8896508357487619,61.28380813598633,67.6896957397461,126.4367790222168,1.1998988632988183,-0.28189681644335385,0.6305965499932318,0.43247222900390625,0.9031669616699218,-0.27498855590820315,0.22974433798808605,0.05561728049069643,0.9156974922865629,2.743006958359405,8.881599627455175,-3.0562818889153
14.8,-0.19529099897904825,1006.5369276566939,76.17443854045123,3.500324917974777,12.62169054929037,49.279925613842785,95.35586744975298,29.715625402957357,34.250930927336604,3.8000000000000544,-122.96813295897583,0.8839999973773953,-2.63399556834578,-0.7755495979475681,-0.24171497302770684,-2.1874866302008438,0.5794203198153859,0.06591857987624897,-1.1961164549576861,11.688423156738281,37.0472053527832,13.394395446777343,0.015946078300476074,0.0764030549675226,0.08001747066155078,58.13191223144531,69.84060838487413,132.22673882378473,1.7551291043711452,0.6402934028169514,0.748718793900758,0.3486785888671875,1.0040847778320312,-0.155145263671875,-0.033413301408290866,-0.011009055376052835,0.054617365449666964,2.075862914178669,9.126163761456608,-2.9275021012322604
14.9,-0.19673226096413346,1006.5370871803977,76.16290289470926,3.8241155294432496,5.810845274645184,49.279914340116775,95.344331804011,14.357812701478682,35.19543805057175,3.9000000000000297,-122.96813451562458,0.9419999986886977,-2.5880503714789014,-0.7573599607333894,-0.2580712097049913,-2.0814139032294485,0.5908382100478844,0.09114061083726796,-1.232547639531242,11.867919063568115,37.74551429748535,15.88966064453125,0.23400150466906397,0.5858654875014174,0.48920480934167776,58.324919048108555,70.50284139175861,134.67342439171864,-0.6155402999879978,0.5309406093029678,0.6566163994354195,0.0832660675048828,0.9935703277587891,-0.18749923706054689,0.20413752552121878,0.5469016939401627,0.4665352009818889,1.6380664129040907,9.24028606362082,-2.7573711563668213
15.0,-0.1981735229492187,1006.5372467041016,76.15136724896729,4.147906140911722,-1.0,49.27990306639076,95.33279615826903,-1.0,36.1399451738069,4.000000000000004,-122.96813607227334,1.0,-2.542105174612023,-0.7391703235192106,-0.2744274463822758,-1.975341176258053,0.602256100280383,0.11636264179828695,-1.2689788241047977,12.047414970397949,38.4438232421875,18.384925842285156,0.4520569310376519,1.095327920035312,0.8983921480218047,58.51792586477179,71.16507439864309,137.12010995965255,-2.9862097043471407,0.42158781578898435,0.5645140049700811,-0.18214645385742187,0.9830558776855469,-0.21985321044921874,0.4416883524507284,1.1048124432563782,0.8784530365141109,1.2002699116295121,9.354408365785032,-2.587240211501382
15.1,-0.1981735229492187,1006.5372619628906,76.16856085238979,4.187037319855565,-1.0,49.279902366501844,95.34998976169153,-1.0,36.52993397916688,4.000000000000004,-122.96813653327801,1.0,-2.212761933187058,-0.6866454111769451,-0.3202129638245294,-1.5183094378160318,0.6269276974698033,0.15540390939252233,-1.296193157340398,11.46114091873169,39.76903591156005,19.56417350769043,0.3097798072193798,1.196442481659745,0.7148286885042724,57.96780082301089,72.50673573142603,138.22747593929893,-1.2324518572764749,0.032486265324056185,0.1866382595020346,-0.132440185546875,0.9547214508056641,-0.2245349884033203,0.308903940487653,1.1803366996347904,0.7001635555760004,0.020787573556085626,9.431152831191344,-2.321226107869614
15.2,-0.1981735229492187,1006.5372772216797,76.18575445581227,4.226168498799408,-1.0,49.27990166661293,95.36718336511402,-1.0,36.919922784526854,4.0000000000000036,-122.96813699428269,1.0,-1.8834186917620923,-0.6341204988346796,-0.365998481266783,-1.0612776993740105,0.6515992946592235,0.1944451769867577,-1.3234074905759983,10.87486686706543,41.094248580932614,20.743421173095705,0.16750268340110777,1.2975570432841779,0.5312652289867401,57.41767578125,73.84839706420898,139.3348419189453,0.521305989794191,-0.356615285140872,-0.19123748596601184,-0.08273391723632813,0.9263870239257812,-0.22921676635742189,0.1761195285245776,1.2558609560132026,0.5218740746378898,-1.1586947645173409,9.507897296597658,-2.0552120042378457
15.3,-0.1981735229492187,1006.5372924804688,76.20294805923477,4.265299677743252,-1.0,49.279900966724014,95.38437696853651,-1.0,37.30991158988683,4.0000000000000036,-122.96813745528736,1.0,-1.4814175614307505,-0.5777730953050189,-0.39144645952119345,-0.5685654177376305,0.6794380047435248,0.22584682266827122,-1.2932034161838584,10.394600677490235,42.55425491333008,24.225111389160155,0.6594430714845657,0.33422383368015285,0.8618450343608857,56.69334072536893,75.26896837022569,143.1051991780599,0.9656829733149707,-0.3871853123539686,-0.30410236464112994,-0.11201324462890624,0.9345458984375,-0.19063262939453124,0.6648458808660507,0.3226415060460567,0.8597549796104431,-2.2550054585902393,9.430608831281663,-1.4255436384728177
15.4,-0.1981735229492187,1006.5373077392578,76.22014166265726,4.3044308566870955,-1.0,49.2799002668351,95.40157057195901,-1.0,37.69990039524681,4.000000000000003,-122.96813791629204,1.0,-1.4351887801917207,-0.5715960204915684,-0.39088059749820386,-0.511551159809214,0.6821760961710701,0.2331321148465075,-1.2934175359477127,11.68121976852417,43.478816986083984,26.524539184570312,0.1461542624834692,0.023062107665464238,0.012792282691225454,58.52406751844618,76.27617768181695,145.23748881022135,1.7289879191444442,0.6647112348497659,-1.7183636346644535,-0.04760246276855469,1.0415203094482421,-0.30437049865722654,0.13048302941024303,-6.851628422743783e-05,-0.02442333136568775,-2.3222299292303434,9.429381262248084,-1.2607788401900883
15.5,-0.1981735229492187,1006.5373229980469,76.23733526607975,4.343562035630939,-1.0,49.279899566946185,95.4187641753815,-1.0,38.089889200606784,4.000000000000003,-122.96813837729671,1.0,-1.388959998952691,-0.565418945678118,-0.3903147354752143,-0.4545369018807975,0.6849141875986156,0.2404174070247438,-1.2936316557115668,12.967838859558105,44.40337905883789,28.82396697998047,-0.36713454651762734,-0.2880996183492243,-0.8362604689784348,60.354794311523435,77.2833869934082,147.36977844238282,2.4922928649739173,1.7166077820535004,-3.132624904687777,0.016808319091796874,1.1484947204589844,-0.4181083679199219,-0.40387982204556466,-0.3227785386145115,-0.9086016423418186,-2.3894543998704476,9.428153693214504,-1.096014041907359
15.6,-0.1981735229492187,1006.5373382568359,76.25452886950225,4.382693214574782,-1.0,49.27989886705727,95.435957778804,-1.0,38.47987800596676,4.000000000000003,-122.96813883830139,1.0,-2.10801818337546,-0.6473515842198257,-0.37278030778180143,-1.222272970834887,0.6132594532547415,0.22534243039093932,-1.2575176615533254,24.561825466156,42.773224449157716,27.449052810668945,-0.6668204751011217,-0.6000667846761645,-1.4009048169944434,72.17193772165399,75.12771483973452,145.90789722643402,-0.030949971007970145,1.6155747662433235,-1.1053459083033723,-0.05117034912109375,1.1081912994384766,-0.3129688262939453,-0.6825015101581813,-0.6237902062945069,-1.4135818663693498,-0.42835901713882674,9.302519714663475,-1.961843343563201
15.7,-0.1981735229492187,1006.537353515625,76.27172247292474,4.421824393518625,-1.0,49.279898167168355,95.4531513822265,-1.0,38.86986681132674,4.000000000000002,-122.96813929930606,1.0,-2.827076367798229,-0.7292842227615335,-0.3552458800883886,-1.9900090397889763,0.5416047189108674,0.21026745375713488,-1.2214036673950843,36.1558120727539,41.14306983947754,26.074138641357422,-0.966506403684616,-0.9120339510031045,-1.9655491650104522,83.98908113178454,72.97204268606086,144.4460160104852,-2.5541928069898576,1.5145417504331469,0.921933088081032,-0.11914901733398438,1.0678878784179688,-0.20782928466796874,-0.9611231982707977,-0.9248018739745021,-1.9185620903968812,1.532736365592794,9.176885736112444,-2.827672645219043
15.8,-0.1981735229492187,1006.5373687744141,76.28891607634723,4.460955572462469,-1.0,49.27989746727944,95.47034498564899,-1.0,39.259855616686714,4.000000000000002,-122.96813976031073,1.0,-3.031987272607841,-0.8160649959371643,-0.2923563817663562,-2.391066835228418,0.4786280443611406,0.1374197999166274,-1.0393408890420044,42.809915924072264,34.42269058227539,28.030857849121094,-0.8620211899280548,-1.4311054825782776,0.0701746888458729,89.10907321506076,67.07557169596355,146.76488749186197,-4.259119976697265,-1.3586227575424314,2.221789885304421,-0.04982147216796875,0.7186004638671875,-0.083843994140625,-0.8504086911678315,-1.3780625462532043,0.12801659274846316,3.6347718049612636,8.453001289930047,-3.3880203900486228
15.9,-0.1981735229492187,1006.5373840332031,76.30610967976972,4.500086751406312,-1.0,49.279896767390525,95.48753858907148,-1.0,39.64984442204669,4.000000000000001,-122.96814022131541,1.0,-2.9134804047257528,-0.7968962044090939,-0.2982115845344764,-2.2797625296065034,0.5066679948675429,0.12935316491686616,-1.0871911493840118,41.9167121887207,36.53006095886231,27.598067474365237,-0.23826270971912888,-0.4312535949982703,0.5361160521395505,88.3019979265001,69.23548444112143,146.14191754659015,-1.5078862672927973,-0.7299037503110618,1.1870977170103043,0.1698646545410156,0.8152824401855469,-0.2269725799560547,-0.236223379150033,-0.4030916244722903,0.5535184976644814,3.0002294107256082,8.660655759981125,-3.3690869734697415
16.0,-0.1981735229492187,1006.5373992919922,76.32330328319222,4.539217930350155,-1.0,49.27989606750161,95.50473219249398,-1.0,40.03983322740667,4.000000000000001,-122.96814068232008,1.0,-2.7949735368436643,-0.7777274128810236,-0.3040667873025966,-2.168458223984589,0.5347079453739452,0.12128652991710495,-1.1350414097260193,41.02350845336914,38.63743133544922,27.165277099609376,0.38549577048979705,0.568598292581737,1.002057415433228,87.49492263793945,71.3953971862793,145.51894760131836,1.2433474421116708,-0.10118474307969208,0.15240554871618767,0.38955078125,0.9119644165039062,-0.3701011657714844,0.3779619328677654,0.5718792973086237,0.9790204025804996,2.365687016489953,8.868310230032204,-3.3501535568908603
16.1,-0.19865382801402692,1006.5374409068714,76.32150884959847,4.50567691601886,-1.0,49.27989580766261,95.50293775890023,-1.0,39.61665148549732,4.000000000000001,-122.96813989442118,1.0,-2.744174909570367,-0.7614880729139109,-0.31734383582495446,-2.0834518256060894,0.5477793991224189,0.1318570100710122,-1.165444191848224,42.76767711639404,37.4915376663208,24.465873336791994,0.252266405033879,0.5567854220047592,0.5197363297222182,89.4163905695865,70.05125156201814,142.70321986549777,0.06426554046275079,0.31908314921714365,0.9521092425252871,0.19064598083496093,0.9636180877685547,-0.2448284149169922,0.2619870097376406,0.554420415032655,0.5200602701166644,1.9282488356960843,8.99633671512991,-3.307326492896788
16.2,-0.19913413307883518,1006.5374825217507,76.31971441600471,4.472135901687564,-1.0,49.279895547823614,95.50114332530647,-1.0,39.19346974358798,4.000000000000001,-122.96813910652229,1.0,-2.69337628229707,-0.7452487329467979,-0.3306208843473123,-1.99844542722759,0.5608508528708926,0.14242749022491946,-1.1958469739704283,44.51184577941895,36.34564399719238,21.76646957397461,0.11903703957796097,0.5449725514277816,0.037415244011208416,91.33785850123355,68.70710593775699,139.8874921296772,-1.114816361186169,0.7393510415139793,1.7518129363343864,-0.008258819580078125,1.0152717590332032,-0.1195556640625,0.1460120866075158,0.5369615327566862,0.061100137652829276,1.490810654902216,9.124363200227616,-3.2644994289027154
16.3,-0.1996144381436434,1006.5375241366299,76.31791998241097,4.438594887356269,-1.0,49.279895287984615,95.49934889171273,-1.0,38.77028800167864,4.000000000000001,-122.96813831862339,1.0,-2.4934464769574345,-0.7003598970195439,-0.35892768005842063,-1.7097917626098798,0.5913360712136309,0.17480239742563125,-1.26511765134785,45.632711029052736,35.423577880859376,20.519651794433592,0.26753647408913817,0.7416793256998062,1.037186661362648,91.79254150390625,68.36464945475261,139.10391404893664,-0.745952222570777,0.7728800354370474,-0.7877886169466375,0.00484161376953125,0.9927749633789062,-0.37220458984375,0.25994530678726735,0.7941010110080242,1.0136073648929596,0.4174679491159049,9.351450655797123,-2.8996559752511977
16.4,-0.20009474320845164,1006.5375657515092,76.31612554881721,4.405053873024974,-1.0,49.27989502814562,95.49755445811897,-1.0,38.3471062597693,4.000000000000001,-122.96813753072449,1.0,-2.299710517597826,-0.6717120774180994,-0.3755506066267429,-1.467703988922521,0.6079842624142358,0.1898591910999829,-1.2828339694127529,42.841141319274904,35.21970825195312,21.08728866577148,0.3223425701609812,0.5717706788796931,0.8312559641897678,88.94407768249512,67.8787343343099,139.69159401787653,-0.5125735652090981,0.04530801600918177,-0.39466341872250654,-0.057034301757812496,0.9429622650146484,-0.3130031585693359,0.320371103589423,0.5811376129509881,0.8231112010776996,-0.22440649945218294,9.400981111806928,-2.6664991439466545
16.5,-0.20057504827325986,1006.5376073663884,76.31433111522347,4.371512858693679,-1.0,49.27989476830661,95.49576002452523,-1.0,37.92392451785995,4.0,-122.96813674282559,1.0,-2.105974558238217,-0.6430642578166548,-0.3921735331950652,-1.2256162152351624,0.6246324536148408,0.20491598477433456,-1.3005502874776558,40.04957160949707,35.015838623046875,21.654925537109374,0.37714866623282434,0.4018620320595801,0.6253252670168876,86.09561386108399,67.39281921386718,140.2792739868164,-0.27919490784741935,-0.682264003418684,-0.0015382204983755865,-0.11891021728515624,0.8931495666503906,-0.2538017272949219,0.38079690039157865,0.368174214893952,0.6326150372624397,-0.8662809480202709,9.450511567816735,-2.433342312642112
16.6,-0.20105535333806812,1006.5376489812677,76.31253668162972,4.337971844362383,-1.0,49.27989450846761,95.49396559093148,-1.0,37.500742775950606,4.0,-122.9681359549267,1.0,-1.7691648219594804,-0.6109883397726341,-0.3857154324302622,-0.890148947849243,0.6564818169365235,0.21022719574529455,-1.293576113924118,34.69712657928467,30.107117176055908,21.7009708404541,0.4411553123500198,0.29131729232612996,0.6372428151546046,80.81335483350253,62.33093671296772,140.09401843422336,0.44581456396279856,-0.17970963293589648,-0.41678031686918804,-0.11542968749999999,0.9472553253173828,-0.2407451629638672,0.4364691174181644,0.2769600090454333,0.6300399639643729,-1.5904935635145077,9.431151779051945,-1.9153665595959124
16.7,-0.20153565840287635,1006.537690596147,76.31074224803596,4.304430830031087,-1.0,49.279894248628615,95.49217115733772,-1.0,37.07756103404127,4.0,-122.9681351670278,1.0,-1.4323550856807437,-0.5789124217286136,-0.37925733166545916,-0.5546816804633237,0.6883311802582063,0.21553840671625454,-1.2866019403705802,29.344681549072266,25.19839572906494,21.747016143798827,0.5051619584672153,0.18077255259267985,0.6491603632923215,75.53109580592105,57.269054212068255,139.90876288163034,1.1708240357730164,0.3228447375468909,-0.8320224132400005,-0.11194915771484375,1.001361083984375,-0.2276885986328125,0.4921413344447501,0.1857458031969145,0.6274648906663061,-2.3147061790087444,9.411791990287153,-1.397390806549713
16.8,-0.20201596346768458,1006.5377322110262,76.30894781444222,4.2708898156997925,-1.0,49.27989398878962,95.49037672374398,-1.0,36.65437929213192,4.0,-122.9681343791289,1.0,-1.3698841050704,-0.5717305184299568,-0.38063617438030994,-0.4704510021213538,0.689729650218293,0.22826124835718936,-1.2956124383634386,35.25246734619141,17.81885643005371,11.245091247558594,-0.4766863922122866,-0.5244669687002897,-1.0144819051027298,82.71584574381511,50.397452460394966,129.26859368218317,1.6642069436261058,1.9853914344236252,-4.397370801784993,-0.0545318603515625,1.185546875,-0.579644775390625,-0.5201241735136136,-0.6127142041921616,-1.0812760442495346,-2.3677430722369253,9.435893493686319,-1.178006450783871
16.9,-0.2024962685324928,1006.5377738259054,76.30715338084846,4.237348801368498,-1.0,49.27989372895062,95.48858229015022,-1.0,36.23119755022258,4.0,-122.96813359123,1.0,-1.931661515007408,-0.6352755960496318,-0.3680534812171014,-1.0791139707251411,0.6382720570669194,0.2103503392912533,-1.2831118190537785,40.83904857635498,17.596087837219237,16.78944129943848,-0.6925893520237878,-0.5959785025566817,-1.4463853254914283,87.71687253316244,50.19543796115451,135.250170940823,0.2029888473803272,1.6907742380038648,-1.2576575280051494,-0.06651191711425782,1.1320201873779296,-0.3258033752441406,-0.7081729905563406,-0.6375012338161469,-1.4700859531760215,-0.9162065445949306,9.39216104181774,-1.911865043321196
17.0,-0.20297657359730106,1006.5378154407847,76.30535894725472,4.203807787037202,-1.0,49.27989346911162,95.48678785655648,-1.0,35.808015808313236,4.0,-122.9681328033311,1.0,-2.493438924944416,-0.6988206736693068,-0.35547078805389287,-1.6877769393289284,0.5868144639155457,0.19243943022531726,-1.2706111997441183,46.42562980651856,17.373319244384767,22.33379135131836,-0.908492311835289,-0.6674900364130736,-1.878288745880127,92.71789932250977,49.99342346191406,141.23174819946288,-1.2582292488654516,1.3961570415841043,1.8820557457746936,-0.07849197387695313,1.0784934997558593,-0.07196197509765626,-0.8962218075990677,-0.6622882634401321,-1.8588958621025085,0.5353299830470641,9.348428589949162,-2.6457236358585208
17.1,-0.2034568786621093,1006.537857055664,76.32226822241209,4.261634564885276,-1.0,49.27989422094805,95.50369713171385,-1.0,36.702658565817664,3.8597949274574814,-122.9681366307601,0.9963540340616477,-2.734295943816436,-0.740894350040028,-0.3403434046886731,-1.9691780854374161,0.5456550319197804,0.1776042692343766,-1.1906677477535674,39.96403560638428,17.323891639709473,24.734396362304686,-0.5090062217146624,-0.5339749809354544,-1.0108986268751323,86.09279020209061,49.97732945492393,143.24908132051166,-1.5698800506448651,0.257671043690443,1.8803870490307544,0.010142517089843747,0.9410610198974609,-0.11447410583496094,-0.4974042665213346,-0.5279431987553835,-0.9877987645566463,1.6369961718187125,9.067100615595802,-3.014164894806296
17.2,-0.20372123718261712,1006.5379257202147,76.33917749756947,4.31946134273335,-1.0,49.27989497278448,95.52060640687122,-1.0,37.597301323322085,3.719589854914963,-122.9681404581891,0.9927080681232955,-2.9751529626884556,-0.7829680264107494,-0.3252160213234533,-2.250579231545904,0.504495599924015,0.162769108243436,-1.1107242957630166,33.50244140625,17.27446403503418,27.135001373291015,-0.10952013159403577,-0.4004599254578352,-0.14350850787013772,79.46768108167146,49.9612354479338,145.26641444156044,-1.8815308524242789,-0.8808149542032181,1.8787183522868154,0.09877700805664062,0.8036285400390625,-0.15698623657226562,-0.09858672544360161,-0.3935981340706348,-0.11670166701078415,2.738662360590361,8.785772641242444,-3.3826061537540704
17.3,-0.20398559570312494,1006.5379943847655,76.35608677272685,4.377288120581424,-1.0,49.279895724620914,95.53751568202861,-1.0,38.491944080826514,3.579384782372444,-122.9681442856181,0.9890621021849433,-2.9404835877749274,-0.7772540522760901,-0.3110730394404529,-2.24977330818759,0.523835312694411,0.1570259972722625,-1.1482258670965715,31.396659088134765,16.827311706542968,24.202369689941406,0.2968456029891967,0.02512074597179888,0.392355340719223,77.99342651367188,49.42596435546875,142.64415893554687,0.521603807350248,-0.6242748726910352,0.3827307002587616,0.318402099609375,0.8521286010742187,-0.28146820068359374,0.30060054957866666,0.02286626007407903,0.39921450018882754,2.526200044559613,8.943227816111445,-3.128670424134433
17.4,-0.20424995422363276,1006.5380630493164,76.37299604788423,4.4351148984294975,-1.0,49.279896476457345,95.55442495718599,-1.0,39.386586838330935,3.4391797098299253,-122.96814811304709,0.985416136246591,-2.883916470620337,-0.770732638676841,-0.30236659080937744,-2.2201860224608625,0.540026136236083,0.14927156535905556,-1.1760701418957342,31.9361328125,17.555688285827635,25.493350982666016,0.17436189672444014,-0.1878104053204879,0.42040541842579837,78.49368037173622,50.265725788317226,144.08799599095394,1.0683134655300899,-0.2141362332858145,-0.1868270637256652,0.3453317742598684,0.902937196430407,-0.3275205511795847,0.1759832571260631,-0.19099654136225583,0.4191758446395397,2.285207580419444,9.048302800788804,-2.9945730873839183
17.5,-0.2045143127441406,1006.5381317138672,76.3899053230416,4.492941676277572,-1.0,49.27989722829378,95.57133423234336,-1.0,40.28122959583536,3.2989746372874067,-122.96815194047609,0.9817701703082387,-2.827349353465747,-0.764211225077592,-0.29366014217830194,-2.1905987367341346,0.5562169597777551,0.1415171334458486,-1.203914416694897,32.475606536865236,18.284064865112306,26.784332275390625,0.05187819045968354,-0.4007415566127747,0.4484554961323738,78.99393422980057,51.10548722116571,145.53183304636102,1.615023123709932,0.1960024061194062,-0.756384827710092,0.37226144891036184,0.9537457917865954,-0.37357290167557566,0.05136596467345953,-0.40485934279859065,0.4391371890902519,2.044215116279274,9.153377785466164,-2.8604757506334035
17.6,-0.2047786712646484,1006.538200378418,76.40681459819898,4.550768454125646,-1.0,49.2798979801302,95.58824350750074,-1.0,41.17587235333979,3.1587695647448877,-122.96815576790509,0.9781242043698865,-2.770227046544748,-0.7535356570284646,-0.28790844091969137,-2.1408506302940884,0.5724293314105794,0.14367608212751073,-1.2401953289684882,32.04360733032227,20.00933265686035,29.95368423461914,0.18581458667758852,-0.12084958136547358,0.5490072378423065,78.4835658826326,52.807965328818874,148.64253997802734,-0.695671881602062,0.330221608377397,-0.39227573813468214,0.10661412289268091,0.9799673783151728,-0.3115686316239207,0.1787928222445771,-0.1135035657673143,0.5500937301665545,1.7425180592142044,9.265600581458509,-2.6438375481172836
17.7,-0.2050430297851562,1006.5382690429688,76.42372387335635,4.60859523197372,-1.0,49.27989873196663,95.60515278265811,-1.0,42.07051511084421,3.018564492202369,-122.96815959533409,0.9744782384315342,-2.713104739623749,-0.7428600889793371,-0.28215673966108074,-2.0911025238540417,0.5886417030434037,0.14583503080917287,-1.2764762412420794,31.6116081237793,21.734600448608397,33.12303619384765,0.31975098289549353,0.1590423938818276,0.6495589795522392,77.97319753546464,54.51044343647204,151.75324690969367,-3.006366886914056,0.4644408106353879,-0.028166648559272332,-0.159033203125,1.00618896484375,-0.24956436157226564,0.3062196798156947,0.17785221126396208,0.661050271242857,1.4408210021491348,9.377823377450854,-2.4271993456011636
17.8,-0.20530738830566403,1006.5383377075195,76.44063314851374,4.666422009821794,-1.0,49.279899483803064,95.6220620578155,-1.0,42.96515786834864,2.8783594196598505,-122.96816342276308,0.9708322724931819,-2.2434940460140447,-0.6896080642744693,-0.3071885451451575,-1.570711469948701,0.636636284811802,0.15657905807903397,-1.3435253986262634,27.511925506591798,26.14669075012207,33.00819854736328,0.13843494560569525,0.8608143419027329,0.609976801276207,73.96357727050781,58.870417785644534,151.38018646240235,0.5580528095993399,-0.24009166476249694,1.0525744464652984,0.05972137451171875,0.952154541015625,-0.11465301513671874,0.15572477653622627,0.8097092717885971,0.6005001366138458,0.00434508547949603,9.5543590711388,-2.197406788484901
17.9,-0.20557174682617185,1006.5384063720704,76.45754242367111,4.724248787669867,-1.0,49.279900235639495,95.63897133297287,-1.0,43.85980062585306,2.738154347117332,-122.96816725019208,0.9671863065548296,-1.939195159112192,-0.6642414379818091,-0.30866788197719475,-1.2555811709606863,0.659685128428739,0.1623544135677341,-1.3464264371299821,24.96333017349243,26.85254259109497,32.59979133605957,0.32763925967738033,0.41159136507194494,0.8010679304599762,71.20599204615543,59.56782704403526,151.01936464811627,0.5877838606710685,-0.3930884281440079,-0.18528994285909461,-0.0018039703369140611,0.9351722717285156,-0.21309623718261717,0.3349275629967451,0.37695001261308786,0.7979463301599026,-0.6157586399200511,9.560250949495508,-1.9178664903061278
18.0,-0.20583610534667968,1006.5384750366212,76.47445169882849,4.782075565517942,-1.0,49.279900987475926,95.65588060813025,-1.0,44.75444338335749,2.5979492745748134,-122.96817107762108,0.9635403406164774,-1.6348962722103395,-0.6388748116891491,-0.3101472188092321,-0.9404508719726715,0.6827339720456762,0.16812976905643426,-1.3493274756337006,22.414734840393066,27.55839443206787,32.19138412475586,0.5168435737490654,-0.03763161175884305,0.9921590596437454,68.44840682180305,60.26523630242599,150.65854283383018,0.617514911742797,-0.5460851915255189,-1.4231543321834876,-0.06332931518554688,0.9181900024414062,-0.3115394592285156,0.514130349457264,-0.055809246562421325,0.9953925237059593,-1.2358623653195984,9.566142827852218,-1.6383261921273544
18.1,-0.2061004638671875,1006.538543701172,76.49136097398586,4.839902343366016,-1.0,49.27990173931236,95.67278988328762,-1.0,45.64908614086192,2.4577442020322944,-122.96817490505008,0.9598943746781252,-1.4707370422737864,-0.6309894987838864,-0.29521291812183176,-0.8198481108182027,0.699340066460257,0.15371369375239474,-1.3376516979652955,18.016066877465498,27.204177981928773,30.79086843791761,0.10400807401165368,-0.49969209108967333,0.05191914327442648,64.17379640278064,59.78327259264495,149.0945008930407,1.2278057030782565,0.5774875302248488,-1.6309962078357556,-0.0176849365234375,1.034017562866211,-0.3173828125,0.09412338870920633,-0.5041680859941009,0.07651493904229834,-1.514620439865915,9.539686757222558,-1.5489079533283205
18.2,-0.2068210948597301,1006.5385991876776,76.50827024914324,4.897729121214089,-1.0,49.27990249114879,95.689699158445,-1.0,46.54372889836634,2.317539129489776,-122.96817873247907,0.9562484087397729,-1.3065778123372334,-0.6231041858786237,-0.28027861743443144,-0.6992453496637341,0.7159461608748379,0.1392976184483552,-1.3259759202968902,13.617398914537931,26.849961531789678,29.39035275107936,-0.30882742572575805,-0.9617525704205037,-0.8883207730948925,59.89918598375822,59.3013088828639,147.53045895225122,1.8380964944137161,1.7010602519752163,-1.8388380834880236,0.027959442138671874,1.1498451232910156,-0.3232261657714844,-0.32588357203885127,-0.9525269254257804,-0.8423626456213625,-1.7933785144122318,9.513230686592898,-1.4594897145292869
18.3,-0.2075417258522727,1006.5386546741834,76.52517952430063,4.955555899062164,-1.0,49.27990324298522,95.70660843360238,-1.0,47.43837165587077,2.1773340569472572,-122.96818255990807,0.9526024428014206,-2.4987904995528774,-0.7443027840274977,-0.22207659457658782,-2.0466558714189818,0.621320655942745,0.09206290029951705,-1.3058100987460883,13.06574363708496,22.212064361572267,25.553254699707033,-0.5006122857332229,-1.0116380423307418,-2.874593710899353,59.88320770263672,54.20911407470703,143.64427337646484,-1.5455416861895843,1.8883751215219498,0.20254256309092047,-0.09690704345703124,1.1412185668945312,-0.240850830078125,-0.4525005429983139,-1.0531964153051376,-2.970643091201782,1.2446053578777936,9.452344979175924,-2.1102723149719833
18.4,-0.20826235684481534,1006.538710160689,76.542088799458,5.013382676910237,-1.0,49.27990399482165,95.72351770875976,-1.0,48.33301441337519,2.037128984404738,-122.96818638733707,0.9489564768630684,-2.613555386806043,-0.7841466179546996,-0.19142562219581233,-2.2744336693933724,0.5803429009602745,0.04324266165520651,-1.2026482143663277,12.186369132995605,21.593279457092287,23.54538764953613,-0.7845405310392379,-1.3967100575566291,-1.4087490766309203,58.497365891306025,54.03361290379574,141.6155752483167,-2.9358507141315378,0.7344572342839093,-0.154476085992977,-0.08386917114257812,0.9854946136474609,-0.27168960571289064,-0.7639583840966224,-1.4142146334052086,-1.5093584738206118,2.409541645763235,9.090707204310966,-2.3771302709363216
18.5,-0.20898298783735794,1006.5387656471946,76.55899807461537,5.0712094547583115,-1.0,49.27990474665808,95.74042698391713,-1.0,49.22765717087962,1.8969239118622196,-122.96819021476607,0.9453105109247162,-2.7283202740592083,-0.8239904518819017,-0.1607746498150368,-2.502211467367763,0.539365145977804,-0.005577576989104041,-1.099486329986567,11.30699462890625,20.974494552612306,21.537520599365234,-1.068468776345253,-1.7817820727825164,0.05709555763751269,57.11152407997533,53.85811173288446,139.5868771201686,-4.326159742073491,-0.4194606529541313,-0.5114947350768745,-0.070831298828125,0.8297706604003906,-0.30252838134765625,-1.075416225194931,-1.7752328515052795,-0.04807385643944143,3.5744779336486756,8.72906942944601,-2.6439882269006594
18.6,-0.20970361882990055,1006.5388211337004,76.57590734977275,5.129036232606386,-1.0,49.27990549849451,95.7573362590745,-1.0,50.12229992838404,1.756718839319701,-122.96819404219507,0.9416645449863639,-2.411606825739857,-0.7959272150552388,-0.09364382833129155,-2.4051763305603013,0.5741481990612385,-0.09011980116709872,-1.150058355705597,5.247842216491699,22.034358692169192,19.675161361694336,-0.5502979786600918,-2.0842900693416597,0.8901822471059859,50.870041696648855,54.768066807797084,137.84174467387953,-2.4384227978974393,0.0027607699502259497,0.2618059953772277,0.06894950866699218,0.9121856689453125,-0.21690406799316406,-0.5720583541784435,-2.0637367844581602,0.8653427916113288,2.9966123235135154,8.920403142328112,-2.6005481601878255
18.7,-0.21042424982244315,1006.538876620206,76.59281662493012,5.186863010454459,-1.0,49.27990625033094,95.77424553423188,-1.0,51.016942685888466,1.6165137667771825,-122.96819786962406,0.9380185790480116,-2.094893377420505,-0.767863978228576,-0.02651300684754629,-2.3081411937528395,0.6089312521446728,-0.17466202534509342,-1.200630381424627,-0.8113101959228516,23.094222831726075,17.812802124023438,-0.03212718097493052,-2.386798065900803,1.7232689365744591,44.62855931332237,55.67802188270971,136.09661222759047,-0.5506858537213877,0.4249821928545832,1.0351067258313298,0.20873031616210938,0.9946006774902344,-0.13127975463867186,-0.06870048316195607,-2.3522407174110413,1.778759439662099,2.418746713378355,9.111736855210214,-2.5571080934749917
18.8,-0.21114488081498575,1006.5389321067117,76.60972590008751,5.244689788302534,-1.0,49.27990700216737,95.79115480938927,-1.0,51.911585443392894,1.4763086942346637,-122.96820169705306,0.9343726131096594,-1.7310306423295772,-0.7087586208677369,0.1277357980551123,-2.316741166398792,0.635449913586813,-0.27760763099223273,-1.3341421744221729,-10.02080421447754,21.207940292358398,15.648272705078124,0.15721172345802187,-1.4629369616508483,0.715846011787653,35.9947998046875,53.594679260253905,133.89237518310546,-2.8915723005516822,0.9423618650907277,0.584442087835595,-0.18442840576171876,1.0382965087890625,-0.21265411376953125,0.18830610439181325,-1.510296779870987,0.6296102304011584,1.5600520256292074,9.531791616213024,-1.6870317781529576
